sequence,is_target,condition,stimuli,block,is_block_beginning,is_block_ending,fname,subject,retraining.thisRepN,retraining.thisTrialN,retraining.thisN,retraining.thisIndex,training.thisRepN,training.thisTrialN,training.thisN,training.thisIndex,trials.thisRepN,trials.thisTrialN,trials.thisN,trials.thisIndex,langage_text.started,langage_key.started,langage_key.keys,langage_key.rt,intro_text.started,intro_key.started,intro_key.keys,intro_key.rt,training_robot_intro_text.started,training_robot_intro_key.started,training_robot_intro_key.keys,training_robot_intro_key.rt,cross.started,cross.stopped,training_letter.started,training_robot_key.started,training_robot_question.started,training_robot_keys.started,training_letter.stopped,training_robot_key.keys,RSME_labels.started,RSME_labels.stopped,RSME_ticks.started,RSME_ticks.stopped,RSME_text.started,RSME_text.stopped,RSME_key.started,RSME_key.stopped,RSME_ticks.response,RSME_ticks.rt,RSME_key.keys,training_robot_intro_text.stopped,training_robot_intro_key.stopped,training_robot_key.rt,RSME_key.rt,training_robot_movie.started,experiment_beginning_text.started,experiment_beginning_keys.started,experiment_beginning_key.started,experiment_beginning_key.keys,experiment_beginning_key.rt,block_intro_text.started,block_intro_key.started,block_intro_key.keys,block_intro_key.rt,movie.started,key.started,key.keys,block_intro_text.stopped,block_intro_key.stopped,key.rt,letter.started,letter.stopped,participant,session,date,expName,psychopyVersion,frameRate,
,,,,,,,,,,,,,,,,,,,,,14.790517599998566,14.790517599998566,f,1175.591083000003,,,,,,,,,,,,,,,,,,,,,,,,,,,,,,,,,,,,,,,,,,,,,,,,,,11,001,2024-06-18_15h17.02.710,robot_nback_sign,2022.2.5,60.0151118053778,
,,,,,,,,,,,,,,,,,,,,,,,,,1190.4465240999998,1190.4465240999998,space,81.24062119999871,,,,,,,,,,,,,,,,,,,,,,,,,,,,,,,,,,,,,,,,,,,,,,11,001,2024-06-18_15h17.02.710,robot_nback_sign,2022.2.5,60.0151118053778,
D,False,1,letter,2,True,False,robot_stimuli\\filler.mp4,11,0,0,0,0,0,0,0,0,,,,,,,,,,,,,1271.7289491999982,1271.7289491999982,space,55.50949110000147,1327.2616772000001,1328.6327853999974,1328.6327853999974,1328.6327853999974,1328.6327853999974,1328.6327853999974,1330.9519992999994,None,1330.9519992999994,1330.9519992999994,1330.9519992999994,1330.9519992999994,1330.9519992999994,1330.9519992999994,1330.9519992999994,1330.9519992999994,None,None,None,,,,,,,,,,,,,,,,,,,,,,,11,001,2024-06-18_15h17.02.710,robot_nback_sign,2022.2.5,60.0151118053778,
S,False,1,letter,2,False,False,robot_stimuli\\filler.mp4,11,0,0,0,0,0,1,1,1,,,,,,,,,,,,,1330.9519992999994,1330.9519992999994,None,,1330.9519992999994,,1332.0293840999984,1332.0293840999984,1332.0293840999984,1332.0293840999984,1334.0574283999995,n,1334.0574283999995,1334.0574283999995,1334.0574283999995,1334.0574283999995,1334.0574283999995,1334.0574283999995,1334.0574283999995,1334.0574283999995,None,None,None,1330.9519992999994,1330.9519992999994,1.2006710999994539,,,,,,,,,,,,,,,,,,,,11,001,2024-06-18_15h17.02.710,robot_nback_sign,2022.2.5,60.0151118053778,
V,False,1,letter,2,False,False,robot_stimuli\\filler.mp4,11,0,0,0,0,0,2,2,2,,,,,,,,,,,,,1334.0574283999995,1334.0574283999995,None,,1334.0574283999995,1335.1321007999977,1335.1321007999977,1335.1321007999977,1335.1321007999977,1335.1321007999977,1337.3604814999999,n,1337.3604814999999,1337.3604814999999,1337.3604814999999,1337.3604814999999,1337.3604814999999,1337.3604814999999,1337.3604814999999,1337.3604814999999,None,None,None,1334.0574283999995,1334.0574283999995,1.722655500001565,,,,,,,,,,,,,,,,,,,,11,001,2024-06-18_15h17.02.710,robot_nback_sign,2022.2.5,60.0151118053778,
V,True,1,letter,2,False,False,robot_stimuli\\filler.mp4,11,0,0,0,0,0,3,3,3,,,,,,,,,,,,,1337.3604814999999,1337.3604814999999,None,,1337.3604814999999,1338.429011199998,1338.429011199998,1338.429011199998,1338.429011199998,1338.429011199998,1340.4541090999992,c,1340.4541090999992,1340.4541090999992,1340.4541090999992,1340.4541090999992,1340.4541090999992,1340.4541090999992,1340.4541090999992,1340.4541090999992,None,None,None,1337.3604814999999,1337.3604814999999,0.8645980000001146,,,,,,,,,,,,,,,,,,,,11,001,2024-06-18_15h17.02.710,robot_nback_sign,2022.2.5,60.0151118053778,
V,True,1,letter,2,False,False,robot_stimuli\\filler.mp4,11,0,0,0,0,0,4,4,4,,,,,,,,,,,,,1340.4541090999992,1340.4541090999992,None,,1340.4541090999992,1341.5310097000001,1341.5310097000001,1341.5310097000001,1341.5310097000001,1341.5310097000001,1343.5659183999996,c,1343.5659183999996,1343.5659183999996,1343.5659183999996,1343.5659183999996,1343.5659183999996,1343.5659183999996,1343.5659183999996,1343.5659183999996,None,None,None,1340.4541090999992,1340.4541090999992,1.1949266000010539,,,,,,,,,,,,,,,,,,,,11,001,2024-06-18_15h17.02.710,robot_nback_sign,2022.2.5,60.0151118053778,
B,False,1,letter,2,False,True,robot_stimuli\\filler.mp4,11,0,0,0,0,0,5,5,5,,,,,,,,,,,,,1343.5659183999996,1343.5659183999996,None,,1343.5659183999996,1344.6447560999986,1344.6447560999986,1344.6447560999986,1344.6447560999986,1344.6447560999986,1346.7364371999975,n,1346.7364371999975,1356.5166718,1346.7364371999975,1356.5166718,1346.7364371999975,1356.5166718,1346.7364371999975,1356.5166718,1.604938271604936,7.614930200001254,space,1343.5659183999996,1343.5659183999996,0.5457118000012997,9.716753999997309,,,,,,,,,,,,,,,,,,,11,001,2024-06-18_15h17.02.710,robot_nback_sign,2022.2.5,60.0151118053778,
K,False,2,letter,2,True,False,robot_stimuli\\filler.mp4,11,0,0,0,0,0,6,6,6,,,,,,,,,,,,,1356.5166718,1356.5166718,space,2.8571140999993077,1359.3950426999982,1360.4704454999992,1360.4704454999992,1360.4704454999992,1360.4704454999992,1360.4704454999992,1362.6987195000002,n,1362.6987195000002,1362.6987195000002,1362.6987195000002,1362.6987195000002,1362.6987195000002,1362.6987195000002,1362.6987195000002,1362.6987195000002,None,None,None,,,1.6960868999995,,,,,,,,,,,,,,,,,,,,11,001,2024-06-18_15h17.02.710,robot_nback_sign,2022.2.5,60.0151118053778,
V,False,2,letter,2,False,False,robot_stimuli\\filler.mp4,11,0,0,0,0,0,7,7,7,,,,,,,,,,,,,1362.6987195000002,1362.6987195000002,None,,1362.6987195000002,1363.7774532000003,1363.7774532000003,1363.7774532000003,1363.7774532000003,1363.7774532000003,1365.8132800999992,None,1365.8132800999992,1365.8132800999992,1365.8132800999992,1365.8132800999992,1365.8132800999992,1365.8132800999992,1365.8132800999992,1365.8132800999992,None,None,None,1362.6987195000002,1362.6987195000002,,,,,,,,,,,,,,,,,,,,,11,001,2024-06-18_15h17.02.710,robot_nback_sign,2022.2.5,60.0151118053778,
N,False,2,letter,2,False,False,robot_stimuli\\filler.mp4,11,0,0,0,0,0,8,8,8,,,,,,,,,,,,,1365.8132800999992,1365.8132800999992,None,,1365.8132800999992,,1366.8947913999982,1366.8947913999982,1366.8947913999982,1366.8947913999982,1368.9285807999986,n,1368.9285807999986,1368.9285807999986,1368.9285807999986,1368.9285807999986,1368.9285807999986,1368.9285807999986,1368.9285807999986,1368.9285807999986,None,None,None,1365.8132800999992,1365.8132800999992,1.1584676000020409,,,,,,,,,,,,,,,,,,,,11,001,2024-06-18_15h17.02.710,robot_nback_sign,2022.2.5,60.0151118053778,
V,True,2,letter,2,False,False,robot_stimuli\\filler.mp4,11,0,0,0,0,0,9,9,9,,,,,,,,,,,,,1368.9285807999986,1368.9285807999986,None,,1368.9285807999986,1369.9937412,1369.9937412,1369.9937412,1369.9937412,1369.9937412,1372.024156399999,c,1372.024156399999,1372.024156399999,1372.024156399999,1372.024156399999,1372.024156399999,1372.024156399999,1372.024156399999,1372.024156399999,None,None,None,1368.9285807999986,1368.9285807999986,0.8436686999993981,,,,,,,,,,,,,,,,,,,,11,001,2024-06-18_15h17.02.710,robot_nback_sign,2022.2.5,60.0151118053778,
N,True,2,letter,2,False,False,robot_stimuli\\filler.mp4,11,0,0,0,0,0,10,10,10,,,,,,,,,,,,,1372.024156399999,1372.024156399999,None,,1372.024156399999,1373.0930448,1373.0930448,1373.0930448,1373.0930448,1373.0930448,1375.1269054999975,c,1375.1269054999975,1375.1269054999975,1375.1269054999975,1375.1269054999975,1375.1269054999975,1375.1269054999975,1375.1269054999975,1375.1269054999975,None,None,None,1372.024156399999,1372.024156399999,0.8815377999999328,,,,,,,,,,,,,,,,,,,,11,001,2024-06-18_15h17.02.710,robot_nback_sign,2022.2.5,60.0151118053778,
Z,False,2,letter,2,False,True,robot_stimuli\\filler.mp4,11,0,0,0,0,0,11,11,11,,,,,,,,,,,,,1375.1269054999975,1375.1269054999975,None,,1375.1269054999975,1376.1962552999976,1376.1962552999976,1376.1962552999976,1376.1962552999976,1376.1962552999976,1378.2582919999986,n,1378.2582919999986,1389.5190729999995,1378.2582919999986,1389.5190729999995,1378.2582919999986,1389.5190729999995,1378.2582919999986,1389.5190729999995,6.5432098765432105,8.486286100000143,space,1375.1269054999975,1375.1269054999975,0.7619721999981266,11.202963899999304,,,,,,,,,,,,,,,,,,,11,001,2024-06-18_15h17.02.710,robot_nback_sign,2022.2.5,60.0151118053778,
G,False,3,letter,2,True,False,robot_stimuli\\filler.mp4,11,0,0,0,0,0,12,12,12,,,,,,,,,,,,,1389.5190729999995,1389.5190729999995,space,2.127588299998024,1391.6783693999969,1392.751883599998,1392.751883599998,1392.751883599998,1392.751883599998,1392.751883599998,1394.977071199999,n,1394.977071199999,1394.977071199999,1394.977071199999,1394.977071199999,1394.977071199999,1394.977071199999,1394.977071199999,1394.977071199999,None,None,None,,,1.4941844000022684,,,,,,,,,,,,,,,,,,,,11,001,2024-06-18_15h17.02.710,robot_nback_sign,2022.2.5,60.0151118053778,
K,False,3,letter,2,False,False,robot_stimuli\\filler.mp4,11,0,0,0,0,0,13,13,13,,,,,,,,,,,,,1394.977071199999,1394.977071199999,None,,1394.977071199999,1396.047431699997,1396.047431699997,1396.047431699997,1396.047431699997,1396.047431699997,1398.2744203000002,None,1398.2744203000002,1398.2744203000002,1398.2744203000002,1398.2744203000002,1398.2744203000002,1398.2744203000002,1398.2744203000002,1398.2744203000002,None,None,None,1394.977071199999,1394.977071199999,,,,,,,,,,,,,,,,,,,,,11,001,2024-06-18_15h17.02.710,robot_nback_sign,2022.2.5,60.0151118053778,
P,False,3,letter,2,False,False,robot_stimuli\\filler.mp4,11,0,0,0,0,0,14,14,14,,,,,,,,,,,,,1398.2744203000002,1398.2744203000002,None,,1398.2744203000002,1399.345922499997,1399.345922499997,1399.345922499997,1399.345922499997,1399.345922499997,1401.374074899999,n,1401.374074899999,1401.374074899999,1401.374074899999,1401.374074899999,1401.374074899999,1401.374074899999,1401.374074899999,1401.374074899999,None,None,None,1398.2744203000002,1398.2744203000002,1.5878760999985388,,,,,,,,,,,,,,,,,,,,11,001,2024-06-18_15h17.02.710,robot_nback_sign,2022.2.5,60.0151118053778,
T,False,3,letter,2,False,False,robot_stimuli\\filler.mp4,11,0,0,0,0,0,15,15,15,,,,,,,,,,,,,1401.374074899999,1401.374074899999,None,,1401.374074899999,1402.4461176999976,1402.4461176999976,1402.4461176999976,1402.4461176999976,1402.4461176999976,1404.4769184999968,n,1404.4769184999968,1404.4769184999968,1404.4769184999968,1404.4769184999968,1404.4769184999968,1404.4769184999968,1404.4769184999968,1404.4769184999968,None,None,None,1401.374074899999,1401.374074899999,1.5445498000008229,,,,,,,,,,,,,,,,,,,,11,001,2024-06-18_15h17.02.710,robot_nback_sign,2022.2.5,60.0151118053778,
K,True,3,letter,2,False,False,robot_stimuli\\filler.mp4,11,0,0,0,0,0,16,16,16,,,,,,,,,,,,,1404.4769184999968,1404.4769184999968,None,,1404.4769184999968,1405.5445983999998,1405.5445983999998,1405.5445983999998,1405.5445983999998,1405.5445983999998,1407.5774220999992,c,1407.5774220999992,1407.5774220999992,1407.5774220999992,1407.5774220999992,1407.5774220999992,1407.5774220999992,1407.5774220999992,1407.5774220999992,None,None,None,1404.4769184999968,1404.4769184999968,1.8061336999999185,,,,,,,,,,,,,,,,,,,,11,001,2024-06-18_15h17.02.710,robot_nback_sign,2022.2.5,60.0151118053778,
P,True,3,letter,2,False,True,robot_stimuli\\filler.mp4,11,0,0,0,0,0,17,17,17,,,,,,,,,,,,,1407.5774220999992,1407.5774220999992,None,,1407.5774220999992,1408.6466288999982,1408.6466288999982,1408.6466288999982,1408.6466288999982,1408.6466288999982,1410.9099444999993,None,1410.9099444999993,1418.1183354999994,1410.9099444999993,1418.1183354999994,1410.9099444999993,1418.1183354999994,1410.9099444999993,1418.1183354999994,58.395061728395056,5.911173199998302,space,1407.5774220999992,1407.5774220999992,,7.167583200000081,,,,,,,,,,,,,,,,,,,11,001,2024-06-18_15h17.02.710,robot_nback_sign,2022.2.5,60.0151118053778,
R_Base_Z_For,False,1,robot,1,True,False,robot_stimuli\R_Base_Z_For.mp4,11,0,0,0,0,0,18,18,18,,,,,,,,,,,,,1418.1183354999994,1418.1183354999994,space,3.3755443999980344,1421.5118815999995,1422.6290866999989,,1422.6290866999989,1422.6290866999989,1422.6290866999989,,None,1426.2597662999979,1426.2597662999979,1426.2597662999979,1426.2597662999979,1426.2597662999979,1426.2597662999979,1426.2597662999979,1426.2597662999979,None,None,None,,,,,1422.6290866999989,,,,,,,,,,,,,,,,,,11,001,2024-06-18_15h17.02.710,robot_nback_sign,2022.2.5,60.0151118053778,
R_Arm_Y_Back,False,1,robot,1,False,False,robot_stimuli\R_Arm_Y_Back.mp4,11,0,0,0,0,0,19,19,19,,,,,,,,,,,,,1426.2597662999979,1426.2597662999979,None,,1426.2597662999979,1427.3625570999975,,1427.3625570999975,1427.3625570999975,1427.3625570999975,,n,1431.0064873999982,1431.0064873999982,1431.0064873999982,1431.0064873999982,1431.0064873999982,1431.0064873999982,1431.0064873999982,1431.0064873999982,None,None,None,1426.2597662999979,1426.2597662999979,2.267775600001187,,1427.3625570999975,,,,,,,,,,,,,,,,,,11,001,2024-06-18_15h17.02.710,robot_nback_sign,2022.2.5,60.0151118053778,
R_Base_Y_For,False,1,robot,1,False,False,robot_stimuli\R_Base_Y_For.mp4,11,0,0,0,0,0,20,20,20,,,,,,,,,,,,,1431.0064873999982,1431.0064873999982,None,,1431.0064873999982,1432.1063509999985,,1432.1063509999985,1432.1063509999985,1432.1063509999985,,None,1435.7398959999991,1435.7398959999991,1435.7398959999991,1435.7398959999991,1435.7398959999991,1435.7398959999991,1435.7398959999991,1435.7398959999991,None,None,None,1431.0064873999982,1431.0064873999982,,,1432.1063509999985,,,,,,,,,,,,,,,,,,11,001,2024-06-18_15h17.02.710,robot_nback_sign,2022.2.5,60.0151118053778,
R_Base_Y_For,True,1,robot,1,False,False,robot_stimuli\R_Base_Y_For.mp4,11,0,0,0,0,0,21,21,21,,,,,,,,,,,,,1435.7398959999991,1435.7398959999991,None,,1435.7398959999991,1436.8410573999972,,1436.8410573999972,1436.8410573999972,1436.8410573999972,,c,1440.4931636000001,1440.4931636000001,1440.4931636000001,1440.4931636000001,1440.4931636000001,1440.4931636000001,1440.4931636000001,1440.4931636000001,None,None,None,1435.7398959999991,1435.7398959999991,2.6852982999989763,,1436.8410573999972,,,,,,,,,,,,,,,,,,11,001,2024-06-18_15h17.02.710,robot_nback_sign,2022.2.5,60.0151118053778,
L_Head_Z_Back,False,1,robot,1,False,False,robot_stimuli\L_Head_Z_Back.mp4,11,0,0,0,0,0,22,22,22,,,,,,,,,,,,,1440.4931636000001,1440.4931636000001,None,,1440.4931636000001,1441.5962642999984,,1441.5962642999984,1441.5962642999984,1441.5962642999984,,n,1445.2413381999977,1445.2413381999977,1445.2413381999977,1445.2413381999977,1445.2413381999977,1445.2413381999977,1445.2413381999977,1445.2413381999977,None,None,None,1440.4931636000001,1440.4931636000001,3.5945477000022947,,1441.5962642999984,,,,,,,,,,,,,,,,,,11,001,2024-06-18_15h17.02.710,robot_nback_sign,2022.2.5,60.0151118053778,
L_Head_Z_Back,True,1,robot,1,False,True,robot_stimuli\L_Head_Z_Back.mp4,11,0,0,0,0,0,23,23,23,,,,,,,,,,,,,1445.2413381999977,1445.2413381999977,None,,1445.2413381999977,1446.3357808999972,,1446.3357808999972,1446.3357808999972,1446.3357808999972,,c,1450.0088442999986,1455.1302314999994,1450.0088442999986,1455.1302314999994,1450.0088442999986,1455.1302314999994,1450.0088442999986,1455.1302314999994,28.611111111111107,3.4703499999995984,space,1445.2413381999977,1445.2413381999977,2.3580941000000166,5.076236599998083,1446.3357808999972,,,,,,,,,,,,,,,,,,11,001,2024-06-18_15h17.02.710,robot_nback_sign,2022.2.5,60.0151118053778,
R_Arm_Z_For,False,2,robot,1,True,False,robot_stimuli\R_Arm_Z_For.mp4,11,0,0,0,0,0,24,24,24,,,,,,,,,,,,,1455.1302314999994,1455.1302314999994,space,1.1402840000009746,1456.2954584,1457.389127999999,,1457.389127999999,1457.389127999999,1457.389127999999,,n,1461.0316458999987,1461.0316458999987,1461.0316458999987,1461.0316458999987,1461.0316458999987,1461.0316458999987,1461.0316458999987,1461.0316458999987,None,None,None,,,2.6816792999998142,,1457.389127999999,,,,,,,,,,,,,,,,,,11,001,2024-06-18_15h17.02.710,robot_nback_sign,2022.2.5,60.0151118053778,
R_Head_Z_Back,False,2,robot,1,False,False,robot_stimuli\R_Head_Z_Back.mp4,11,0,0,0,0,0,25,25,25,,,,,,,,,,,,,1461.0316458999987,1461.0316458999987,None,,1461.0316458999987,,,1462.1383033999991,1462.1383033999991,1462.1383033999991,,None,1465.7822186999983,1465.7822186999983,1465.7822186999983,1465.7822186999983,1465.7822186999983,1465.7822186999983,1465.7822186999983,1465.7822186999983,None,None,None,1461.0316458999987,1461.0316458999987,,,1462.1383033999991,,,,,,,,,,,,,,,,,,11,001,2024-06-18_15h17.02.710,robot_nback_sign,2022.2.5,60.0151118053778,
R_Arm_Z_For,True,2,robot,1,False,False,robot_stimuli\R_Arm_Z_For.mp4,11,0,0,0,0,0,26,26,26,,,,,,,,,,,,,1465.7822186999983,1465.7822186999983,None,,1465.7822186999983,1466.8890495999985,,1466.8890495999985,1466.8890495999985,1466.8890495999985,,c,1470.5314121999982,1470.5314121999982,1470.5314121999982,1470.5314121999982,1470.5314121999982,1470.5314121999982,1470.5314121999982,1470.5314121999982,None,None,None,1465.7822186999983,1465.7822186999983,2.085359000000608,,1466.8890495999985,,,,,,,,,,,,,,,,,,11,001,2024-06-18_15h17.02.710,robot_nback_sign,2022.2.5,60.0151118053778,
R_Torso_Y_For,False,2,robot,1,False,False,robot_stimuli\R_Torso_Y_For.mp4,11,0,0,0,0,0,27,27,27,,,,,,,,,,,,,1470.5314121999982,1470.5314121999982,None,,1470.5314121999982,,,1471.6374774999967,1471.6374774999967,1471.6374774999967,,n,1475.2812262999978,1475.2812262999978,1475.2812262999978,1475.2812262999978,1475.2812262999978,1475.2812262999978,1475.2812262999978,1475.2812262999978,None,None,None,1470.5314121999982,1470.5314121999982,1.9922542999993311,,1471.6374774999967,,,,,,,,,,,,,,,,,,11,001,2024-06-18_15h17.02.710,robot_nback_sign,2022.2.5,60.0151118053778,
R_Torso_Z_For,False,2,robot,1,False,False,robot_stimuli\R_Torso_Z_For.mp4,11,0,0,0,0,0,28,28,28,,,,,,,,,,,,,1475.2812262999978,1475.2812262999978,None,,1475.2812262999978,,,1476.388219299999,1476.388219299999,1476.388219299999,,n,1480.0293483999994,1480.0293483999994,1480.0293483999994,1480.0293483999994,1480.0293483999994,1480.0293483999994,1480.0293483999994,1480.0293483999994,None,None,None,1475.2812262999978,1475.2812262999978,3.5369969999992463,,1476.388219299999,,,,,,,,,,,,,,,,,,11,001,2024-06-18_15h17.02.710,robot_nback_sign,2022.2.5,60.0151118053778,
R_Torso_Y_For,True,2,robot,1,False,True,robot_stimuli\R_Torso_Y_For.mp4,11,0,0,0,0,0,29,29,29,,,,,,,,,,,,,1480.0293483999994,1480.0293483999994,None,,1480.0293483999994,1481.1225851999989,,1481.1225851999989,1481.1225851999989,1481.1225851999989,,None,1484.7901671,1489.4996834999984,1484.7901671,1489.4996834999984,1484.7901671,1489.4996834999984,1484.7901671,1489.4996834999984,28.14814814814814,3.131801200001064,space,1480.0293483999994,1480.0293483999994,,4.656009999998787,1481.1225851999989,,,,,,,,,,,,,,,,,,11,001,2024-06-18_15h17.02.710,robot_nback_sign,2022.2.5,60.0151118053778,
R_Base_Y_For,False,3,robot,1,True,False,robot_stimuli\R_Base_Y_For.mp4,11,0,0,0,0,0,30,30,30,,,,,,,,,,,,,1489.4996834999984,1489.4996834999984,space,1.522908599999937,1491.0453390999974,1492.128419499997,,1492.128419499997,1492.128419499997,1492.128419499997,,n,1495.7795286999972,1495.7795286999972,1495.7795286999972,1495.7795286999972,1495.7795286999972,1495.7795286999972,1495.7795286999972,1495.7795286999972,None,None,None,,,2.230485800002498,,1492.128419499997,,,,,,,,,,,,,,,,,,11,001,2024-06-18_15h17.02.710,robot_nback_sign,2022.2.5,60.0151118053778,
R_Arm_Z_For,False,3,robot,1,False,False,robot_stimuli\R_Arm_Z_For.mp4,11,0,0,0,0,0,31,31,31,,,,,,,,,,,,,1495.7795286999972,1495.7795286999972,None,,1495.7795286999972,1496.8727120000003,,1496.8727120000003,1496.8727120000003,1496.8727120000003,,None,1500.5125412999987,1500.5125412999987,1500.5125412999987,1500.5125412999987,1500.5125412999987,1500.5125412999987,1500.5125412999987,1500.5125412999987,None,None,None,1495.7795286999972,1495.7795286999972,,,1496.8727120000003,,,,,,,,,,,,,,,,,,11,001,2024-06-18_15h17.02.710,robot_nback_sign,2022.2.5,60.0151118053778,
L_Base_Y_Back,False,3,robot,1,False,False,robot_stimuli\L_Base_Y_Back.mp4,11,0,0,0,0,0,32,32,32,,,,,,,,,,,,,1500.5125412999987,1500.5125412999987,None,,1500.5125412999987,1501.5950440999986,,1501.5950440999986,1501.5950440999986,1501.5950440999986,,n,1505.1769041999978,1505.1769041999978,1505.1769041999978,1505.1769041999978,1505.1769041999978,1505.1769041999978,1505.1769041999978,1505.1769041999978,None,None,None,1500.5125412999987,1500.5125412999987,1.7705060000007506,,1501.5950440999986,,,,,,,,,,,,,,,,,,11,001,2024-06-18_15h17.02.710,robot_nback_sign,2022.2.5,60.0151118053778,
R_Base_Y_For,True,3,robot,1,False,False,robot_stimuli\R_Base_Y_For.mp4,11,0,0,0,0,0,33,33,33,,,,,,,,,,,,,1505.1769041999978,1505.1769041999978,None,,1505.1769041999978,1506.2590375,,1506.2590375,1506.2590375,1506.2590375,,c,1509.9113464000002,1509.9113464000002,1509.9113464000002,1509.9113464000002,1509.9113464000002,1509.9113464000002,1509.9113464000002,1509.9113464000002,None,None,None,1505.1769041999978,1505.1769041999978,2.515289099999791,,1506.2590375,,,,,,,,,,,,,,,,,,11,001,2024-06-18_15h17.02.710,robot_nback_sign,2022.2.5,60.0151118053778,
R_Arm_Z_For,True,3,robot,1,False,False,robot_stimuli\R_Arm_Z_For.mp4,11,0,0,0,0,0,34,34,34,,,,,,,,,,,,,1509.9113464000002,1509.9113464000002,None,,1509.9113464000002,1510.9902298999987,,1510.9902298999987,1510.9902298999987,1510.9902298999987,,c,1514.6289408999983,1514.6289408999983,1514.6289408999983,1514.6289408999983,1514.6289408999983,1514.6289408999983,1514.6289408999983,1514.6289408999983,None,None,None,1509.9113464000002,1509.9113464000002,2.615008700002363,,1510.9902298999987,,,,,,,,,,,,,,,,,,11,001,2024-06-18_15h17.02.710,robot_nback_sign,2022.2.5,60.0151118053778,
R_Head_X_Back,False,3,robot,1,False,True,robot_stimuli\R_Head_X_Back.mp4,11,0,0,0,0,0,35,35,35,,,,,,,,,,,,,1514.6289408999983,1514.6289408999983,None,,1514.6289408999983,1515.7155635999989,,1515.7155635999989,1515.7155635999989,1515.7155635999989,,n,1519.3870898999994,1525.8189523999972,1519.3870898999994,1525.8189523999972,1519.3870898999994,1525.8189523999972,1519.3870898999994,1525.8189523999972,30.15432098765432,3.9044115000033344,space,1514.6289408999983,1514.6289408999983,2.075035300000309,6.355783299997711,1515.7155635999989,,,,,,,,,,,,,,,,,,11,001,2024-06-18_15h17.02.710,robot_nback_sign,2022.2.5,60.0151118053778,
,,,,,,,,,0,0,0,0,,,,,,,,,,,,,,,,,,,,,,,,,,,,,,,,,,,,,,,,,,,,,1525.8189523999972,1525.8189523999972,1525.8189523999972,c,1.611493899999914,,,,,,,,,,,,,11,001,2024-06-18_15h17.02.710,robot_nback_sign,2022.2.5,60.0151118053778,
R_Torso_X_Back,False,2,robot,1,True,False,robot_stimuli\R_Torso_X_Back.mp4,11,,,,,,,,,0,0,0,0,,,,,,,,,,,,,1531.4286823999973,1532.5246192999984,,,,,,,1536.1671238999988,1536.1671238999988,1536.1671238999988,1536.1671238999988,1536.1671238999988,1536.1671238999988,1536.1671238999988,1536.1671238999988,None,None,None,,,,,,,,,,,1527.500441799999,1527.500441799999,space,3.905890099998942,1532.5246192999984,1532.5246192999984,None,,,,,,11,001,2024-06-18_15h17.02.710,robot_nback_sign,2022.2.5,60.0151118053778,
L_Head_Z_Back,False,2,robot,1,False,False,robot_stimuli\L_Head_Z_Back.mp4,11,,,,,,,,,0,1,1,1,,,,,,,,,,,,,1536.1671238999988,1537.2695910999973,,,,,,,1540.9088076999979,1540.9088076999979,1540.9088076999979,1540.9088076999979,1540.9088076999979,1540.9088076999979,1540.9088076999979,1540.9088076999979,None,None,None,,,,,,,,,,,1536.1671238999988,1536.1671238999988,None,,1537.2695910999973,1537.2695910999973,None,1536.1671238999988,1536.1671238999988,,,,11,001,2024-06-18_15h17.02.710,robot_nback_sign,2022.2.5,60.0151118053778,
R_Torso_Y_For,False,2,robot,1,False,False,robot_stimuli\R_Torso_Y_For.mp4,11,,,,,,,,,0,2,2,2,,,,,,,,,,,,,1540.9088076999979,1541.9909904999986,,,,,,,1545.6409312999967,1545.6409312999967,1545.6409312999967,1545.6409312999967,1545.6409312999967,1545.6409312999967,1545.6409312999967,1545.6409312999967,None,None,None,,,,,,,,,,,1540.9088076999979,1540.9088076999979,None,,1541.9909904999986,1541.9909904999986,n,1540.9088076999979,1540.9088076999979,3.3584159999991243,,,11,001,2024-06-18_15h17.02.710,robot_nback_sign,2022.2.5,60.0151118053778,
R_Base_Z_Back,False,2,robot,1,False,False,robot_stimuli\R_Base_Z_Back.mp4,11,,,,,,,,,0,3,3,3,,,,,,,,,,,,,1545.6409312999967,1546.7247964999988,,,,,,,1550.2748507999968,1550.2748507999968,1550.2748507999968,1550.2748507999968,1550.2748507999968,1550.2748507999968,1550.2748507999968,1550.2748507999968,None,None,None,,,,,,,,,,,1545.6409312999967,1545.6409312999967,None,,1546.7247964999988,1546.7247964999988,n,1545.6409312999967,1545.6409312999967,2.6178536000006716,,,11,001,2024-06-18_15h17.02.710,robot_nback_sign,2022.2.5,60.0151118053778,
L_Arm_Z_Back,False,2,robot,1,False,False,robot_stimuli\L_Arm_Z_Back.mp4,11,,,,,,,,,0,4,4,4,,,,,,,,,,,,,1550.2748507999968,1551.3557263999974,,,,,,,1554.9997479999984,1554.9997479999984,1554.9997479999984,1554.9997479999984,1554.9997479999984,1554.9997479999984,1554.9997479999984,1554.9997479999984,None,None,None,,,,,,,,,,,1550.2748507999968,1550.2748507999968,None,,1551.3557263999974,1551.3557263999974,None,1550.2748507999968,1550.2748507999968,,,,11,001,2024-06-18_15h17.02.710,robot_nback_sign,2022.2.5,60.0151118053778,
R_Arm_X_For,False,2,robot,1,False,False,robot_stimuli\R_Arm_X_For.mp4,11,,,,,,,,,0,5,5,5,,,,,,,,,,,,,1554.9997479999984,1556.103579499999,,,,,,,1559.7435471999997,1559.7435471999997,1559.7435471999997,1559.7435471999997,1559.7435471999997,1559.7435471999997,1559.7435471999997,1559.7435471999997,None,None,None,,,,,,,,,,,1554.9997479999984,1554.9997479999984,None,,1556.103579499999,1556.103579499999,n,1554.9997479999984,1554.9997479999984,3.334826400001475,,,11,001,2024-06-18_15h17.02.710,robot_nback_sign,2022.2.5,60.0151118053778,
R_Head_X_For,False,2,robot,1,False,False,robot_stimuli\R_Head_X_For.mp4,11,,,,,,,,,0,6,6,6,,,,,,,,,,,,,1559.7435471999997,1560.824708199998,,,,,,,1564.4749618999995,1564.4749618999995,1564.4749618999995,1564.4749618999995,1564.4749618999995,1564.4749618999995,1564.4749618999995,1564.4749618999995,None,None,None,,,,,,,,,,,1559.7435471999997,1559.7435471999997,None,,1560.824708199998,1560.824708199998,n,1559.7435471999997,1559.7435471999997,3.3981471999977657,,,11,001,2024-06-18_15h17.02.710,robot_nback_sign,2022.2.5,60.0151118053778,
R_Arm_X_For,True,2,robot,1,False,False,robot_stimuli\R_Arm_X_For.mp4,11,,,,,,,,,0,7,7,7,,,,,,,,,,,,,1564.4749618999995,1565.5548812999987,,,,,,,1569.1943777999986,1569.1943777999986,1569.1943777999986,1569.1943777999986,1569.1943777999986,1569.1943777999986,1569.1943777999986,1569.1943777999986,None,None,None,,,,,,,,,,,1564.4749618999995,1564.4749618999995,None,,1565.5548812999987,1565.5548812999987,c,1564.4749618999995,1564.4749618999995,2.6433474000004935,,,11,001,2024-06-18_15h17.02.710,robot_nback_sign,2022.2.5,60.0151118053778,
L_Torso_Z_Back,False,2,robot,1,False,False,robot_stimuli\L_Torso_Z_Back.mp4,11,,,,,,,,,0,8,8,8,,,,,,,,,,,,,1569.1943777999986,1570.2733840999972,,,,,,,1573.7708166999982,1573.7708166999982,1573.7708166999982,1573.7708166999982,1573.7708166999982,1573.7708166999982,1573.7708166999982,1573.7708166999982,None,None,None,,,,,,,,,,,1569.1943777999986,1569.1943777999986,None,,1570.2733840999972,1570.2733840999972,n,1569.1943777999986,1569.1943777999986,2.476085800000874,,,11,001,2024-06-18_15h17.02.710,robot_nback_sign,2022.2.5,60.0151118053778,
R_Arm_X_For,True,2,robot,1,False,False,robot_stimuli\R_Arm_X_For.mp4,11,,,,,,,,,0,9,9,9,,,,,,,,,,,,,1573.7708166999982,1574.858347399997,,,,,,,1578.5083597999983,1578.5083597999983,1578.5083597999983,1578.5083597999983,1578.5083597999983,1578.5083597999983,1578.5083597999983,1578.5083597999983,None,None,None,,,,,,,,,,,1573.7708166999982,1573.7708166999982,None,,1574.858347399997,1574.858347399997,c,1573.7708166999982,1573.7708166999982,2.9160091999983706,,,11,001,2024-06-18_15h17.02.710,robot_nback_sign,2022.2.5,60.0151118053778,
R_Torso_Y_Back,False,2,robot,1,False,False,robot_stimuli\R_Torso_Y_Back.mp4,11,,,,,,,,,0,10,10,10,,,,,,,,,,,,,1578.5083597999983,1579.5938678999992,,,,,,,1583.2438670999982,1583.2438670999982,1583.2438670999982,1583.2438670999982,1583.2438670999982,1583.2438670999982,1583.2438670999982,1583.2438670999982,None,None,None,,,,,,,,,,,1578.5083597999983,1578.5083597999983,None,,1579.5938678999992,1579.5938678999992,n,1578.5083597999983,1578.5083597999983,2.4049742999995942,,,11,001,2024-06-18_15h17.02.710,robot_nback_sign,2022.2.5,60.0151118053778,
L_Base_Z_For,False,2,robot,1,False,False,robot_stimuli\L_Base_Z_For.mp4,11,,,,,,,,,0,11,11,11,,,,,,,,,,,,,1583.2438670999982,1584.3253584999984,,,,,,,1587.9761481999994,1587.9761481999994,1587.9761481999994,1587.9761481999994,1587.9761481999994,1587.9761481999994,1587.9761481999994,1587.9761481999994,None,None,None,,,,,,,,,,,1583.2438670999982,1583.2438670999982,None,,1584.3253584999984,1584.3253584999984,n,1583.2438670999982,1583.2438670999982,1.9363351999963925,,,11,001,2024-06-18_15h17.02.710,robot_nback_sign,2022.2.5,60.0151118053778,
R_Torso_Y_Back,True,2,robot,1,False,False,robot_stimuli\R_Torso_Y_Back.mp4,11,,,,,,,,,0,12,12,12,,,,,,,,,,,,,1587.9761481999994,1589.0562355999973,,,,,,,1592.695416399998,1592.695416399998,1592.695416399998,1592.695416399998,1592.695416399998,1592.695416399998,1592.695416399998,1592.695416399998,None,None,None,,,,,,,,,,,1587.9761481999994,1587.9761481999994,None,,1589.0562355999973,1589.0562355999973,c,1587.9761481999994,1587.9761481999994,2.1185207000016817,,,11,001,2024-06-18_15h17.02.710,robot_nback_sign,2022.2.5,60.0151118053778,
L_Base_Z_For,True,2,robot,1,False,False,robot_stimuli\L_Base_Z_For.mp4,11,,,,,,,,,0,13,13,13,,,,,,,,,,,,,1592.695416399998,1593.7722799999974,,,,,,,1597.4127591999968,1597.4127591999968,1597.4127591999968,1597.4127591999968,1597.4127591999968,1597.4127591999968,1597.4127591999968,1597.4127591999968,None,None,None,,,,,,,,,,,1592.695416399998,1592.695416399998,None,,1593.7722799999974,1593.7722799999974,c,1592.695416399998,1592.695416399998,2.713714000001346,,,11,001,2024-06-18_15h17.02.710,robot_nback_sign,2022.2.5,60.0151118053778,
R_Torso_Y_Back,True,2,robot,1,False,False,robot_stimuli\R_Torso_Y_Back.mp4,11,,,,,,,,,0,14,14,14,,,,,,,,,,,,,1597.4127591999968,1598.4894099999983,,,,,,,1602.1293006999986,1602.1293006999986,1602.1293006999986,1602.1293006999986,1602.1293006999986,1602.1293006999986,1602.1293006999986,1602.1293006999986,None,None,None,,,,,,,,,,,1597.4127591999968,1597.4127591999968,None,,1598.4894099999983,1598.4894099999983,c,1597.4127591999968,1597.4127591999968,2.717648799996823,,,11,001,2024-06-18_15h17.02.710,robot_nback_sign,2022.2.5,60.0151118053778,
L_Torso_Z_Back,False,2,robot,1,False,False,robot_stimuli\L_Torso_Z_Back.mp4,11,,,,,,,,,0,15,15,15,,,,,,,,,,,,,1602.1293006999986,1603.206771899997,,,,,,,1606.7231455999972,1606.7231455999972,1606.7231455999972,1606.7231455999972,1606.7231455999972,1606.7231455999972,1606.7231455999972,1606.7231455999972,None,None,None,,,,,,,,,,,1602.1293006999986,1602.1293006999986,None,,1603.206771899997,1603.206771899997,n,1602.1293006999986,1602.1293006999986,2.2873292000003858,,,11,001,2024-06-18_15h17.02.710,robot_nback_sign,2022.2.5,60.0151118053778,
R_Torso_Z_For,False,2,robot,1,False,False,robot_stimuli\R_Torso_Z_For.mp4,11,,,,,,,,,0,16,16,16,,,,,,,,,,,,,1606.7231455999972,1607.808169,,,,,,,1611.4592305999977,1611.4592305999977,1611.4592305999977,1611.4592305999977,1611.4592305999977,1611.4592305999977,1611.4592305999977,1611.4592305999977,None,None,None,,,,,,,,,,,1606.7231455999972,1606.7231455999972,None,,1607.808169,1607.808169,n,1606.7231455999972,1606.7231455999972,2.973646300000837,,,11,001,2024-06-18_15h17.02.710,robot_nback_sign,2022.2.5,60.0151118053778,
R_Head_Y_For,False,2,robot,1,False,False,robot_stimuli\R_Head_Y_For.mp4,11,,,,,,,,,0,17,17,17,,,,,,,,,,,,,1611.4592305999977,1612.5392992999987,,,,,,,1616.1799651999972,1616.1799651999972,1616.1799651999972,1616.1799651999972,1616.1799651999972,1616.1799651999972,1616.1799651999972,1616.1799651999972,None,None,None,,,,,,,,,,,1611.4592305999977,1611.4592305999977,None,,1612.5392992999987,1612.5392992999987,None,1611.4592305999977,1611.4592305999977,,,,11,001,2024-06-18_15h17.02.710,robot_nback_sign,2022.2.5,60.0151118053778,
R_Torso_Z_For,True,2,robot,1,False,False,robot_stimuli\R_Torso_Z_For.mp4,11,,,,,,,,,0,18,18,18,,,,,,,,,,,,,1616.1799651999972,,,,,,,,1620.9041000999969,1620.9041000999969,1620.9041000999969,1620.9041000999969,1620.9041000999969,1620.9041000999969,1620.9041000999969,1620.9041000999969,None,None,None,,,,,,,,,,,1616.1799651999972,1616.1799651999972,None,,1617.273070799998,1617.273070799998,c,1616.1799651999972,1616.1799651999972,2.204923900000722,,,11,001,2024-06-18_15h17.02.710,robot_nback_sign,2022.2.5,60.0151118053778,
R_Arm_Z_For,False,2,robot,1,False,False,robot_stimuli\R_Arm_Z_For.mp4,11,,,,,,,,,0,19,19,19,,,,,,,,,,,,,1620.9041000999969,1621.9906128000002,,,,,,,1625.645313699999,1625.645313699999,1625.645313699999,1625.645313699999,1625.645313699999,1625.645313699999,1625.645313699999,1625.645313699999,None,None,None,,,,,,,,,,,1620.9041000999969,1620.9041000999969,None,,1621.9906128000002,1621.9906128000002,n,1620.9041000999969,1620.9041000999969,3.0001621000010346,,,11,001,2024-06-18_15h17.02.710,robot_nback_sign,2022.2.5,60.0151118053778,
R_Torso_X_Back,False,2,robot,1,False,False,robot_stimuli\R_Torso_X_Back.mp4,11,,,,,,,,,0,20,20,20,,,,,,,,,,,,,1625.645313699999,1626.7383501999975,,,,,,,1630.378456399998,1630.378456399998,1630.378456399998,1630.378456399998,1630.378456399998,1630.378456399998,1630.378456399998,1630.378456399998,None,None,None,,,,,,,,,,,1625.645313699999,1625.645313699999,None,,1626.7383501999975,1626.7383501999975,n,1625.645313699999,1625.645313699999,3.0356443999990006,,,11,001,2024-06-18_15h17.02.710,robot_nback_sign,2022.2.5,60.0151118053778,
R_Arm_X_For,False,2,robot,1,False,False,robot_stimuli\R_Arm_X_For.mp4,11,,,,,,,,,0,21,21,21,,,,,,,,,,,,,1630.378456399998,1631.4568427999984,,,,,,,1635.095268099998,1635.095268099998,1635.095268099998,1635.095268099998,1635.095268099998,1635.095268099998,1635.095268099998,1635.095268099998,None,None,None,,,,,,,,,,,1630.378456399998,1630.378456399998,None,,1631.4568427999984,1631.4568427999984,c,1630.378456399998,1630.378456399998,2.8850010999994993,,,11,001,2024-06-18_15h17.02.710,robot_nback_sign,2022.2.5,60.0151118053778,
R_Arm_X_For,False,2,robot,1,False,False,robot_stimuli\R_Arm_X_For.mp4,11,,,,,,,,,0,22,22,22,,,,,,,,,,,,,1635.095268099998,1636.1702055999995,,,,,,,1639.8130590999972,1639.8130590999972,1639.8130590999972,1639.8130590999972,1639.8130590999972,1639.8130590999972,1639.8130590999972,1639.8130590999972,None,None,None,,,,,,,,,,,1635.095268099998,1635.095268099998,None,,1636.1702055999995,1636.1702055999995,None,1635.095268099998,1635.095268099998,,,,11,001,2024-06-18_15h17.02.710,robot_nback_sign,2022.2.5,60.0151118053778,
L_Torso_Y_For,False,2,robot,1,False,False,robot_stimuli\L_Torso_Y_For.mp4,11,,,,,,,,,0,23,23,23,,,,,,,,,,,,,1639.8130590999972,1640.905334199997,,,,,,,1644.5444605999983,1644.5444605999983,1644.5444605999983,1644.5444605999983,1644.5444605999983,1644.5444605999983,1644.5444605999983,1644.5444605999983,None,None,None,,,,,,,,,,,1639.8130590999972,1639.8130590999972,None,,1640.905334199997,1640.905334199997,n,1639.8130590999972,1639.8130590999972,3.484524899999087,,,11,001,2024-06-18_15h17.02.710,robot_nback_sign,2022.2.5,60.0151118053778,
L_Torso_Z_For,False,2,robot,1,False,False,robot_stimuli\L_Torso_Z_For.mp4,11,,,,,,,,,0,24,24,24,,,,,,,,,,,,,1644.5444605999983,1645.625016599999,,,,,,,1649.2746999999981,1649.2746999999981,1649.2746999999981,1649.2746999999981,1649.2746999999981,1649.2746999999981,1649.2746999999981,1649.2746999999981,None,None,None,,,,,,,,,,,1644.5444605999983,1644.5444605999983,None,,1645.625016599999,1645.625016599999,n,1644.5444605999983,1644.5444605999983,3.173134000000573,,,11,001,2024-06-18_15h17.02.710,robot_nback_sign,2022.2.5,60.0151118053778,
R_Base_Z_Back,False,2,robot,1,False,False,robot_stimuli\R_Base_Z_Back.mp4,11,,,,,,,,,0,25,25,25,,,,,,,,,,,,,1649.2746999999981,1650.362794499997,,,,,,,1653.9051549999967,1653.9051549999967,1653.9051549999967,1653.9051549999967,1653.9051549999967,1653.9051549999967,1653.9051549999967,1653.9051549999967,None,None,None,,,,,,,,,,,1649.2746999999981,1649.2746999999981,None,,1650.362794499997,1650.362794499997,n,1649.2746999999981,1649.2746999999981,2.226746700001968,,,11,001,2024-06-18_15h17.02.710,robot_nback_sign,2022.2.5,60.0151118053778,
L_Head_Z_Back,False,2,robot,1,False,False,robot_stimuli\L_Head_Z_Back.mp4,11,,,,,,,,,0,26,26,26,,,,,,,,,,,,,1653.9051549999967,1654.9905124999968,,,,,,,1658.6412705999974,1658.6412705999974,1658.6412705999974,1658.6412705999974,1658.6412705999974,1658.6412705999974,1658.6412705999974,1658.6412705999974,None,None,None,,,,,,,,,,,1653.9051549999967,1653.9051549999967,None,,1654.9905124999968,1654.9905124999968,n,1653.9051549999967,1653.9051549999967,2.7284810000019206,,,11,001,2024-06-18_15h17.02.710,robot_nback_sign,2022.2.5,60.0151118053778,
R_Base_X_For,False,2,robot,1,False,False,robot_stimuli\R_Base_X_For.mp4,11,,,,,,,,,0,27,27,27,,,,,,,,,,,,,1658.6412705999974,1659.7257161999987,,,,,,,1663.275562699997,1663.275562699997,1663.275562699997,1663.275562699997,1663.275562699997,1663.275562699997,1663.275562699997,1663.275562699997,None,None,None,,,,,,,,,,,1658.6412705999974,1658.6412705999974,None,,1659.7257161999987,1659.7257161999987,None,1658.6412705999974,1658.6412705999974,,,,11,001,2024-06-18_15h17.02.710,robot_nback_sign,2022.2.5,60.0151118053778,
L_Head_Z_Back,True,2,robot,1,False,False,robot_stimuli\L_Head_Z_Back.mp4,11,,,,,,,,,0,28,28,28,,,,,,,,,,,,,1663.275562699997,1664.3583459000001,,,,,,,1668.0068715999987,1668.0068715999987,1668.0068715999987,1668.0068715999987,1668.0068715999987,1668.0068715999987,1668.0068715999987,1668.0068715999987,None,None,None,,,,,,,,,,,1663.275562699997,1663.275562699997,None,,1664.3583459000001,1664.3583459000001,c,1663.275562699997,1663.275562699997,2.3122092000012344,,,11,001,2024-06-18_15h17.02.710,robot_nback_sign,2022.2.5,60.0151118053778,
L_Arm_Z_For,False,2,robot,1,False,False,robot_stimuli\L_Arm_Z_For.mp4,11,,,,,,,,,0,29,29,29,,,,,,,,,,,,,1668.0068715999987,1669.0883273,,,,,,,1672.7289438999978,1672.7289438999978,1672.7289438999978,1672.7289438999978,1672.7289438999978,1672.7289438999978,1672.7289438999978,1672.7289438999978,None,None,None,,,,,,,,,,,1668.0068715999987,1668.0068715999987,None,,1669.0883273,1669.0883273,n,1668.0068715999987,1668.0068715999987,2.596825500000705,,,11,001,2024-06-18_15h17.02.710,robot_nback_sign,2022.2.5,60.0151118053778,
L_Base_Z_For,False,2,robot,1,False,False,robot_stimuli\L_Base_Z_For.mp4,11,,,,,,,,,0,30,30,30,,,,,,,,,,,,,1672.7289438999978,1673.8064572000003,,,,,,,1677.4451582000002,1677.4451582000002,1677.4451582000002,1677.4451582000002,1677.4451582000002,1677.4451582000002,1677.4451582000002,1677.4451582000002,None,None,None,,,,,,,,,,,1672.7289438999978,1672.7289438999978,None,,1673.8064572000003,1673.8064572000003,n,1672.7289438999978,1672.7289438999978,2.3272669999969366,,,11,001,2024-06-18_15h17.02.710,robot_nback_sign,2022.2.5,60.0151118053778,
R_Torso_Z_For,False,2,robot,1,False,False,robot_stimuli\R_Torso_Z_For.mp4,11,,,,,,,,,0,31,31,31,,,,,,,,,,,,,1677.4451582000002,1678.5243483999984,,,,,,,1682.1781408999996,1682.1781408999996,1682.1781408999996,1682.1781408999996,1682.1781408999996,1682.1781408999996,1682.1781408999996,1682.1781408999996,None,None,None,,,,,,,,,,,1677.4451582000002,1677.4451582000002,None,,1678.5243483999984,1678.5243483999984,n,1677.4451582000002,1677.4451582000002,2.129981599999155,,,11,001,2024-06-18_15h17.02.710,robot_nback_sign,2022.2.5,60.0151118053778,
R_Head_X_For,False,2,robot,1,False,False,robot_stimuli\R_Head_X_For.mp4,11,,,,,,,,,0,32,32,32,,,,,,,,,,,,,1682.1781408999996,1683.2564287999994,,,,,,,1686.8961466,1686.8961466,1686.8961466,1686.8961466,1686.8961466,1686.8961466,1686.8961466,1686.8961466,None,None,None,,,,,,,,,,,1682.1781408999996,1682.1781408999996,None,,1683.2564287999994,1683.2564287999994,n,1682.1781408999996,1682.1781408999996,1.8048013000006904,,,11,001,2024-06-18_15h17.02.710,robot_nback_sign,2022.2.5,60.0151118053778,
L_Base_Z_Back,False,2,robot,1,False,False,robot_stimuli\L_Base_Z_Back.mp4,11,,,,,,,,,0,33,33,33,,,,,,,,,,,,,1686.8961466,1687.9727458999987,,,,,,,1691.6071806,1691.6071806,1691.6071806,1691.6071806,1691.6071806,1691.6071806,1691.6071806,1691.6071806,None,None,None,,,,,,,,,,,1686.8961466,1686.8961466,None,,1687.9727458999987,1687.9727458999987,n,1686.8961466,1686.8961466,2.4976168000030157,,,11,001,2024-06-18_15h17.02.710,robot_nback_sign,2022.2.5,60.0151118053778,
R_Head_X_For,True,2,robot,1,False,False,robot_stimuli\R_Head_X_For.mp4,11,,,,,,,,,0,34,34,34,,,,,,,,,,,,,1691.6071806,1692.7039245999986,,,,,,,1696.3442878999995,1696.3442878999995,1696.3442878999995,1696.3442878999995,1696.3442878999995,1696.3442878999995,1696.3442878999995,1696.3442878999995,None,None,None,,,,,,,,,,,1691.6071806,1691.6071806,None,,1692.7039245999986,1692.7039245999986,c,1691.6071806,1691.6071806,2.285523099999409,,,11,001,2024-06-18_15h17.02.710,robot_nback_sign,2022.2.5,60.0151118053778,
L_Torso_Y_Back,False,2,robot,1,False,False,robot_stimuli\L_Torso_Y_Back.mp4,11,,,,,,,,,0,35,35,35,,,,,,,,,,,,,1696.3442878999995,1697.4239090999981,,,,,,,1700.9209940999972,1700.9209940999972,1700.9209940999972,1700.9209940999972,1700.9209940999972,1700.9209940999972,1700.9209940999972,1700.9209940999972,None,None,None,,,,,,,,,,,1696.3442878999995,1696.3442878999995,None,,1697.4239090999981,1697.4239090999981,n,1696.3442878999995,1696.3442878999995,2.991303099999641,,,11,001,2024-06-18_15h17.02.710,robot_nback_sign,2022.2.5,60.0151118053778,
L_Head_Y_For,False,2,robot,1,False,False,robot_stimuli\L_Head_Y_For.mp4,11,,,,,,,,,0,36,36,36,,,,,,,,,,,,,1700.9209940999972,1702.0121366999992,,,,,,,1705.6617004,1705.6617004,1705.6617004,1705.6617004,1705.6617004,1705.6617004,1705.6617004,1705.6617004,None,None,None,,,,,,,,,,,1700.9209940999972,1700.9209940999972,None,,1702.0121366999992,1702.0121366999992,n,1700.9209940999972,1700.9209940999972,2.522687299999234,,,11,001,2024-06-18_15h17.02.710,robot_nback_sign,2022.2.5,60.0151118053778,
L_Torso_Z_For,False,2,robot,1,False,False,robot_stimuli\L_Torso_Z_For.mp4,11,,,,,,,,,0,37,37,37,,,,,,,,,,,,,1705.6617004,1706.7422998999973,,,,,,,1710.3908919999994,1710.3908919999994,1710.3908919999994,1710.3908919999994,1710.3908919999994,1710.3908919999994,1710.3908919999994,1710.3908919999994,None,None,None,,,,,,,,,,,1705.6617004,1705.6617004,None,,1706.7422998999973,1706.7422998999973,n,1705.6617004,1705.6617004,2.679813099999592,,,11,001,2024-06-18_15h17.02.710,robot_nback_sign,2022.2.5,60.0151118053778,
L_Arm_Z_For,False,2,robot,1,False,False,robot_stimuli\L_Arm_Z_For.mp4,11,,,,,,,,,0,38,38,38,,,,,,,,,,,,,1710.3908919999994,1711.4745827999977,,,,,,,1715.124307099999,1715.124307099999,1715.124307099999,1715.124307099999,1715.124307099999,1715.124307099999,1715.124307099999,1715.124307099999,None,None,None,,,,,,,,,,,1710.3908919999994,1710.3908919999994,None,,1711.4745827999977,1711.4745827999977,n,1710.3908919999994,1710.3908919999994,2.4754505999990215,,,11,001,2024-06-18_15h17.02.710,robot_nback_sign,2022.2.5,60.0151118053778,
R_Base_Z_Back,False,2,robot,1,False,False,robot_stimuli\R_Base_Z_Back.mp4,11,,,,,,,,,0,39,39,39,,,,,,,,,,,,,1715.124307099999,1716.2088812999973,,,,,,,1719.7570266000002,1719.7570266000002,1719.7570266000002,1719.7570266000002,1719.7570266000002,1719.7570266000002,1719.7570266000002,1719.7570266000002,None,None,None,,,,,,,,,,,1715.124307099999,1715.124307099999,None,,1716.2088812999973,1716.2088812999973,n,1715.124307099999,1715.124307099999,2.429610999999568,,,11,001,2024-06-18_15h17.02.710,robot_nback_sign,2022.2.5,60.0151118053778,
L_Arm_X_For,False,2,robot,1,False,False,robot_stimuli\L_Arm_X_For.mp4,11,,,,,,,,,0,40,40,40,,,,,,,,,,,,,1719.7570266000002,1720.8405080999983,,,,,,,1724.4713618999995,1724.4713618999995,1724.4713618999995,1724.4713618999995,1724.4713618999995,1724.4713618999995,1724.4713618999995,1724.4713618999995,None,None,None,,,,,,,,,,,1719.7570266000002,1719.7570266000002,None,,1720.8405080999983,1720.8405080999983,n,1719.7570266000002,1719.7570266000002,3.477992100000847,,,11,001,2024-06-18_15h17.02.710,robot_nback_sign,2022.2.5,60.0151118053778,
R_Base_Z_Back,True,2,robot,1,False,False,robot_stimuli\R_Base_Z_Back.mp4,11,,,,,,,,,0,41,41,41,,,,,,,,,,,,,1724.4713618999995,1725.5572323999986,,,,,,,1729.0935750999997,1729.0935750999997,1729.0935750999997,1729.0935750999997,1729.0935750999997,1729.0935750999997,1729.0935750999997,1729.0935750999997,None,None,None,,,,,,,,,,,1724.4713618999995,1724.4713618999995,None,,1725.5572323999986,1725.5572323999986,c,1724.4713618999995,1724.4713618999995,2.681133599999157,,,11,001,2024-06-18_15h17.02.710,robot_nback_sign,2022.2.5,60.0151118053778,
L_Arm_X_For,True,2,robot,1,False,False,robot_stimuli\L_Arm_X_For.mp4,11,,,,,,,,,0,42,42,42,,,,,,,,,,,,,1729.0935750999997,1730.1875153999972,,,,,,,1733.8289635999972,1733.8289635999972,1733.8289635999972,1733.8289635999972,1733.8289635999972,1733.8289635999972,1733.8289635999972,1733.8289635999972,None,None,None,,,,,,,,,,,1729.0935750999997,1729.0935750999997,None,,1730.1875153999972,1730.1875153999972,n,1729.0935750999997,1729.0935750999997,2.8430393999988155,,,11,001,2024-06-18_15h17.02.710,robot_nback_sign,2022.2.5,60.0151118053778,
L_Base_X_For,False,2,robot,1,False,False,robot_stimuli\L_Base_X_For.mp4,11,,,,,,,,,0,43,43,43,,,,,,,,,,,,,1733.8289635999972,1734.9075759999978,,,,,,,1738.491408599999,1738.491408599999,1738.491408599999,1738.491408599999,1738.491408599999,1738.491408599999,1738.491408599999,1738.491408599999,None,None,None,,,,,,,,,,,1733.8289635999972,1733.8289635999972,None,,1734.9075759999978,1734.9075759999978,n,1733.8289635999972,1733.8289635999972,2.858057800000097,,,11,001,2024-06-18_15h17.02.710,robot_nback_sign,2022.2.5,60.0151118053778,
R_Torso_Z_Back,False,2,robot,1,False,False,robot_stimuli\R_Torso_Z_Back.mp4,11,,,,,,,,,0,44,44,44,,,,,,,,,,,,,1738.491408599999,1739.5749647999983,,,,,,,1743.2265423999997,1743.2265423999997,1743.2265423999997,1743.2265423999997,1743.2265423999997,1743.2265423999997,1743.2265423999997,1743.2265423999997,None,None,None,,,,,,,,,,,1738.491408599999,1738.491408599999,None,,1739.5749647999983,1739.5749647999983,n,1738.491408599999,1738.491408599999,3.120161200000439,,,11,001,2024-06-18_15h17.02.710,robot_nback_sign,2022.2.5,60.0151118053778,
R_Arm_X_For,False,2,robot,1,False,False,robot_stimuli\R_Arm_X_For.mp4,11,,,,,,,,,0,45,45,45,,,,,,,,,,,,,1743.2265423999997,1744.3070015999983,,,,,,,1747.9365120999973,1747.9365120999973,1747.9365120999973,1747.9365120999973,1747.9365120999973,1747.9365120999973,1747.9365120999973,1747.9365120999973,None,None,None,,,,,,,,,,,1743.2265423999997,1743.2265423999997,None,,1744.3070015999983,1744.3070015999983,n,1743.2265423999997,1743.2265423999997,2.8345406999978877,,,11,001,2024-06-18_15h17.02.710,robot_nback_sign,2022.2.5,60.0151118053778,
R_Head_Z_For,False,2,robot,1,False,False,robot_stimuli\R_Head_Z_For.mp4,11,,,,,,,,,0,46,46,46,,,,,,,,,,,,,1747.9365120999973,1749.0228162999992,,,,,,,1752.6539717999985,1752.6539717999985,1752.6539717999985,1752.6539717999985,1752.6539717999985,1752.6539717999985,1752.6539717999985,1752.6539717999985,None,None,None,,,,,,,,,,,1747.9365120999973,1747.9365120999973,None,,1749.0228162999992,1749.0228162999992,n,1747.9365120999973,1747.9365120999973,2.119242900000245,,,11,001,2024-06-18_15h17.02.710,robot_nback_sign,2022.2.5,60.0151118053778,
R_Head_X_For,False,2,robot,1,False,False,robot_stimuli\R_Head_X_For.mp4,11,,,,,,,,,0,47,47,47,,,,,,,,,,,,,1752.6539717999985,1753.7393952999992,,,,,,,1757.3798914,1757.3798914,1757.3798914,1757.3798914,1757.3798914,1757.3798914,1757.3798914,1757.3798914,None,None,None,,,,,,,,,,,1752.6539717999985,1752.6539717999985,None,,1753.7393952999992,1753.7393952999992,n,1752.6539717999985,1752.6539717999985,2.107293600001867,,,11,001,2024-06-18_15h17.02.710,robot_nback_sign,2022.2.5,60.0151118053778,
L_Head_Z_Back,False,2,robot,1,False,False,robot_stimuli\L_Head_Z_Back.mp4,11,,,,,,,,,0,48,48,48,,,,,,,,,,,,,1757.3798914,1758.4578374999983,,,,,,,1762.1088934,1762.1088934,1762.1088934,1762.1088934,1762.1088934,1762.1088934,1762.1088934,1762.1088934,None,None,None,,,,,,,,,,,1757.3798914,1757.3798914,None,,1758.4578374999983,1758.4578374999983,n,1757.3798914,1757.3798914,2.5645239999976184,,,11,001,2024-06-18_15h17.02.710,robot_nback_sign,2022.2.5,60.0151118053778,
R_Arm_Y_For,False,2,robot,1,False,True,robot_stimuli\R_Arm_Y_For.mp4,11,,,,,,,,,0,49,49,49,,,,,,,,,,,,,1762.1088934,1763.1939282999992,,,,,,,1766.7447092000002,1848.7115840999977,1766.7447092000002,1848.7115840999977,1766.7447092000002,1848.7115840999977,1766.7447092000002,1848.7115840999977,41.882716049382715,3.1681601999989653,space,,,,81.91713030000028,,,,,,,1762.1088934,1762.1088934,None,,1763.1939282999992,1763.1939282999992,n,1762.1088934,1762.1088934,3.436818400001357,,,11,001,2024-06-18_15h17.02.710,robot_nback_sign,2022.2.5,60.0151118053778,
L_Head_Y_Back,False,3,robot,1,True,False,robot_stimuli\L_Head_Y_Back.mp4,11,,,,,,,,,0,50,50,50,,,,,,,,,,,,,1854.7293441999973,1855.8136902999977,,,,,,,1859.4620472999995,1859.4620472999995,1859.4620472999995,1859.4620472999995,1859.4620472999995,1859.4620472999995,1859.4620472999995,1859.4620472999995,None,None,None,,,,,,,,,,,1848.7115840999977,1848.7115840999977,space,5.990818499998568,1855.8136902999977,1855.8136902999977,None,,,,,,11,001,2024-06-18_15h17.02.710,robot_nback_sign,2022.2.5,60.0151118053778,
R_Torso_X_Back,False,3,robot,1,False,False,robot_stimuli\R_Torso_X_Back.mp4,11,,,,,,,,,0,51,51,51,,,,,,,,,,,,,1859.4620472999995,1860.5406748999994,,,,,,,1864.1907058999968,1864.1907058999968,1864.1907058999968,1864.1907058999968,1864.1907058999968,1864.1907058999968,1864.1907058999968,1864.1907058999968,None,None,None,,,,,,,,,,,1859.4620472999995,1859.4620472999995,None,,1860.5406748999994,1860.5406748999994,n,1859.4620472999995,1859.4620472999995,3.201324499998009,,,11,001,2024-06-18_15h17.02.710,robot_nback_sign,2022.2.5,60.0151118053778,
L_Base_Z_For,False,3,robot,1,False,False,robot_stimuli\L_Base_Z_For.mp4,11,,,,,,,,,0,52,52,52,,,,,,,,,,,,,1864.1907058999968,1865.2759364999984,,,,,,,1868.9292472999987,1868.9292472999987,1868.9292472999987,1868.9292472999987,1868.9292472999987,1868.9292472999987,1868.9292472999987,1868.9292472999987,None,None,None,,,,,,,,,,,1864.1907058999968,1864.1907058999968,None,,1865.2759364999984,1865.2759364999984,n,1864.1907058999968,1864.1907058999968,2.6836705999994592,,,11,001,2024-06-18_15h17.02.710,robot_nback_sign,2022.2.5,60.0151118053778,
R_Torso_X_Back,False,3,robot,1,False,False,robot_stimuli\R_Torso_X_Back.mp4,11,,,,,,,,,0,53,53,53,,,,,,,,,,,,,1868.9292472999987,1870.0085124999969,,,,,,,1873.6591604999994,1873.6591604999994,1873.6591604999994,1873.6591604999994,1873.6591604999994,1873.6591604999994,1873.6591604999994,1873.6591604999994,None,None,None,,,,,,,,,,,1868.9292472999987,1868.9292472999987,None,,1870.0085124999969,1870.0085124999969,n,1868.9292472999987,1868.9292472999987,1.5027594999992289,,,11,001,2024-06-18_15h17.02.710,robot_nback_sign,2022.2.5,60.0151118053778,
L_Base_Y_Back,False,3,robot,1,False,False,robot_stimuli\L_Base_Y_Back.mp4,11,,,,,,,,,0,54,54,54,,,,,,,,,,,,,1873.6591604999994,1874.7407297999998,,,,,,,1878.3039866,1878.3039866,1878.3039866,1878.3039866,1878.3039866,1878.3039866,1878.3039866,1878.3039866,None,None,None,,,,,,,,,,,1873.6591604999994,1873.6591604999994,None,,1874.7407297999998,1874.7407297999998,None,1873.6591604999994,1873.6591604999994,,,,11,001,2024-06-18_15h17.02.710,robot_nback_sign,2022.2.5,60.0151118053778,
L_Base_Z_For,True,3,robot,1,False,False,robot_stimuli\L_Base_Z_For.mp4,11,,,,,,,,,0,55,55,55,,,,,,,,,,,,,1878.3039866,1879.3899034999995,,,,,,,1883.0213732999982,1883.0213732999982,1883.0213732999982,1883.0213732999982,1883.0213732999982,1883.0213732999982,1883.0213732999982,1883.0213732999982,None,None,None,,,,,,,,,,,1878.3039866,1878.3039866,None,,1879.3899034999995,1879.3899034999995,c,1878.3039866,1878.3039866,2.784569700001157,,,11,001,2024-06-18_15h17.02.710,robot_nback_sign,2022.2.5,60.0151118053778,
L_Base_Y_Back,False,3,robot,1,False,False,robot_stimuli\L_Base_Y_Back.mp4,11,,,,,,,,,0,56,56,56,,,,,,,,,,,,,1883.0213732999982,1884.1080392999975,,,,,,,1887.6916845999986,1887.6916845999986,1887.6916845999986,1887.6916845999986,1887.6916845999986,1887.6916845999986,1887.6916845999986,1887.6916845999986,None,None,None,,,,,,,,,,,1883.0213732999982,1883.0213732999982,None,,1884.1080392999975,1884.1080392999975,None,1883.0213732999982,1883.0213732999982,,,,11,001,2024-06-18_15h17.02.710,robot_nback_sign,2022.2.5,60.0151118053778,
L_Torso_Z_For,False,3,robot,1,False,False,robot_stimuli\L_Torso_Z_For.mp4,11,,,,,,,,,0,57,57,57,,,,,,,,,,,,,1887.6916845999986,1888.773710999998,,,,,,,1892.403736999997,1892.403736999997,1892.403736999997,1892.403736999997,1892.403736999997,1892.403736999997,1892.403736999997,1892.403736999997,None,None,None,,,,,,,,,,,1887.6916845999986,1887.6916845999986,None,,1888.773710999998,1888.773710999998,None,1887.6916845999986,1887.6916845999986,,,,11,001,2024-06-18_15h17.02.710,robot_nback_sign,2022.2.5,60.0151118053778,
L_Base_Z_Back,False,3,robot,1,False,False,robot_stimuli\L_Base_Z_Back.mp4,11,,,,,,,,,0,58,58,58,,,,,,,,,,,,,1892.403736999997,1893.4899815999997,,,,,,,1897.1298390999982,1897.1298390999982,1897.1298390999982,1897.1298390999982,1897.1298390999982,1897.1298390999982,1897.1298390999982,1897.1298390999982,None,None,None,,,,,,,,,,,1892.403736999997,1892.403736999997,None,,1893.4899815999997,1893.4899815999997,n,1892.403736999997,1892.403736999997,3.019616199999291,,,11,001,2024-06-18_15h17.02.710,robot_nback_sign,2022.2.5,60.0151118053778,
L_Torso_X_Back,False,3,robot,1,False,False,robot_stimuli\L_Torso_X_Back.mp4,11,,,,,,,,,0,59,59,59,,,,,,,,,,,,,1897.1298390999982,1898.2066196999986,,,,,,,1901.836524899998,1901.836524899998,1901.836524899998,1901.836524899998,1901.836524899998,1901.836524899998,1901.836524899998,1901.836524899998,None,None,None,,,,,,,,,,,1897.1298390999982,1897.1298390999982,None,,1898.2066196999986,1898.2066196999986,None,1897.1298390999982,1897.1298390999982,,,,11,001,2024-06-18_15h17.02.710,robot_nback_sign,2022.2.5,60.0151118053778,
R_Torso_Y_For,False,3,robot,1,False,False,robot_stimuli\R_Torso_Y_For.mp4,11,,,,,,,,,0,60,60,60,,,,,,,,,,,,,1901.836524899998,1902.9249625999983,,,,,,,1906.5735573999991,1906.5735573999991,1906.5735573999991,1906.5735573999991,1906.5735573999991,1906.5735573999991,1906.5735573999991,1906.5735573999991,None,None,None,,,,,,,,,,,1901.836524899998,1901.836524899998,None,,1902.9249625999983,1902.9249625999983,n,1901.836524899998,1901.836524899998,3.3617248000009567,,,11,001,2024-06-18_15h17.02.710,robot_nback_sign,2022.2.5,60.0151118053778,
R_Torso_Y_Back,False,3,robot,1,False,False,robot_stimuli\R_Torso_Y_Back.mp4,11,,,,,,,,,0,61,61,61,,,,,,,,,,,,,1906.5735573999991,1907.6574968999994,,,,,,,1911.300008299997,1911.300008299997,1911.300008299997,1911.300008299997,1911.300008299997,1911.300008299997,1911.300008299997,1911.300008299997,None,None,None,,,,,,,,,,,1906.5735573999991,1906.5735573999991,None,,1907.6574968999994,1907.6574968999994,n,1906.5735573999991,1906.5735573999991,2.0370494999988296,,,11,001,2024-06-18_15h17.02.710,robot_nback_sign,2022.2.5,60.0151118053778,
R_Arm_Y_For,False,3,robot,1,False,False,robot_stimuli\R_Arm_Y_For.mp4,11,,,,,,,,,0,62,62,62,,,,,,,,,,,,,1911.300008299997,1912.4058284999992,,,,,,,1915.912631799998,1915.912631799998,1915.912631799998,1915.912631799998,1915.912631799998,1915.912631799998,1915.912631799998,1915.912631799998,None,None,None,,,,,,,,,,,1911.300008299997,1911.300008299997,None,,1912.4058284999992,1912.4058284999992,n,1911.300008299997,1911.300008299997,2.1683733000027132,,,11,001,2024-06-18_15h17.02.710,robot_nback_sign,2022.2.5,60.0151118053778,
L_Arm_X_For,False,3,robot,1,False,False,robot_stimuli\L_Arm_X_For.mp4,11,,,,,,,,,0,63,63,63,,,,,,,,,,,,,1915.912631799998,1916.9899293999988,,,,,,,1920.6212816999978,1920.6212816999978,1920.6212816999978,1920.6212816999978,1920.6212816999978,1920.6212816999978,1920.6212816999978,1920.6212816999978,None,None,None,,,,,,,,,,,1915.912631799998,1915.912631799998,None,,1916.9899293999988,1916.9899293999988,n,1915.912631799998,1915.912631799998,2.6405239000014262,,,11,001,2024-06-18_15h17.02.710,robot_nback_sign,2022.2.5,60.0151118053778,
L_Torso_X_For,False,3,robot,1,False,False,robot_stimuli\L_Torso_X_For.mp4,11,,,,,,,,,0,64,64,64,,,,,,,,,,,,,1920.6212816999978,1921.7072670999987,,,,,,,1925.3459251999993,1925.3459251999993,1925.3459251999993,1925.3459251999993,1925.3459251999993,1925.3459251999993,1925.3459251999993,1925.3459251999993,None,None,None,,,,,,,,,,,1920.6212816999978,1920.6212816999978,None,,1921.7072670999987,1921.7072670999987,n,1920.6212816999978,1920.6212816999978,2.46781959999862,,,11,001,2024-06-18_15h17.02.710,robot_nback_sign,2022.2.5,60.0151118053778,
R_Arm_Y_For,True,3,robot,1,False,False,robot_stimuli\R_Arm_Y_For.mp4,11,,,,,,,,,0,65,65,65,,,,,,,,,,,,,1925.3459251999993,1926.4238874000002,,,,,,,1929.929756999998,1929.929756999998,1929.929756999998,1929.929756999998,1929.929756999998,1929.929756999998,1929.929756999998,1929.929756999998,None,None,None,,,,,,,,,,,1925.3459251999993,1925.3459251999993,None,,1926.4238874000002,1926.4238874000002,c,1925.3459251999993,1925.3459251999993,1.999247200001264,,,11,001,2024-06-18_15h17.02.710,robot_nback_sign,2022.2.5,60.0151118053778,
L_Arm_X_For,True,3,robot,1,False,False,robot_stimuli\L_Arm_X_For.mp4,11,,,,,,,,,0,66,66,66,,,,,,,,,,,,,1929.929756999998,1931.0059382,,,,,,,1934.6397494999983,1934.6397494999983,1934.6397494999983,1934.6397494999983,1934.6397494999983,1934.6397494999983,1934.6397494999983,1934.6397494999983,None,None,None,,,,,,,,,,,1929.929756999998,1929.929756999998,None,,1931.0059382,1931.0059382,c,1929.929756999998,1929.929756999998,2.8252920000013546,,,11,001,2024-06-18_15h17.02.710,robot_nback_sign,2022.2.5,60.0151118053778,
L_Torso_X_For,True,3,robot,1,False,False,robot_stimuli\L_Torso_X_For.mp4,11,,,,,,,,,0,67,67,67,,,,,,,,,,,,,1934.6397494999983,1935.7388704999976,,,,,,,1939.3733010999968,1939.3733010999968,1939.3733010999968,1939.3733010999968,1939.3733010999968,1939.3733010999968,1939.3733010999968,1939.3733010999968,None,None,None,,,,,,,,,,,1934.6397494999983,1934.6397494999983,None,,1935.7388704999976,1935.7388704999976,c,1934.6397494999983,1934.6397494999983,2.8361533000024792,,,11,001,2024-06-18_15h17.02.710,robot_nback_sign,2022.2.5,60.0151118053778,
L_Base_Z_For,False,3,robot,1,False,False,robot_stimuli\L_Base_Z_For.mp4,11,,,,,,,,,0,68,68,68,,,,,,,,,,,,,1939.3733010999968,1940.4722081,,,,,,,1944.1120085000002,1944.1120085000002,1944.1120085000002,1944.1120085000002,1944.1120085000002,1944.1120085000002,1944.1120085000002,1944.1120085000002,None,None,None,,,,,,,,,,,1939.3733010999968,1939.3733010999968,None,,1940.4722081,1940.4722081,n,1939.3733010999968,1939.3733010999968,2.325896599999396,,,11,001,2024-06-18_15h17.02.710,robot_nback_sign,2022.2.5,60.0151118053778,
R_Head_Y_Back,False,3,robot,1,False,False,robot_stimuli\R_Head_Y_Back.mp4,11,,,,,,,,,0,69,69,69,,,,,,,,,,,,,1944.1120085000002,1945.1901050999986,,,,,,,1948.8337197,1948.8337197,1948.8337197,1948.8337197,1948.8337197,1948.8337197,1948.8337197,1948.8337197,None,None,None,,,,,,,,,,,1944.1120085000002,1944.1120085000002,None,,1945.1901050999986,1945.1901050999986,n,1944.1120085000002,1944.1120085000002,1.6952221999999892,,,11,001,2024-06-18_15h17.02.710,robot_nback_sign,2022.2.5,60.0151118053778,
R_Base_Y_For,False,3,robot,1,False,False,robot_stimuli\R_Base_Y_For.mp4,11,,,,,,,,,0,70,70,70,,,,,,,,,,,,,1948.8337197,1949.9401928999978,,,,,,,1953.5795664999969,1953.5795664999969,1953.5795664999969,1953.5795664999969,1953.5795664999969,1953.5795664999969,1953.5795664999969,1953.5795664999969,None,None,None,,,,,,,,,,,1948.8337197,1948.8337197,None,,1949.9401928999978,1949.9401928999978,n,1948.8337197,1948.8337197,2.2259778999978153,,,11,001,2024-06-18_15h17.02.710,robot_nback_sign,2022.2.5,60.0151118053778,
R_Arm_Y_For,False,3,robot,1,False,False,robot_stimuli\R_Arm_Y_For.mp4,11,,,,,,,,,0,71,71,71,,,,,,,,,,,,,1953.5795664999969,1954.660560999997,,,,,,,1958.1790832999977,1958.1790832999977,1958.1790832999977,1958.1790832999977,1958.1790832999977,1958.1790832999977,1958.1790832999977,1958.1790832999977,None,None,None,,,,,,,,,,,1953.5795664999969,1953.5795664999969,None,,1954.660560999997,1954.660560999997,n,1953.5795664999969,1953.5795664999969,2.4893524999970396,,,11,001,2024-06-18_15h17.02.710,robot_nback_sign,2022.2.5,60.0151118053778,
R_Base_Y_Back,False,3,robot,1,False,False,robot_stimuli\R_Base_Y_Back.mp4,11,,,,,,,,,0,72,72,72,,,,,,,,,,,,,1958.1790832999977,1959.2579581999998,,,,,,,1962.8869137999973,1962.8869137999973,1962.8869137999973,1962.8869137999973,1962.8869137999973,1962.8869137999973,1962.8869137999973,1962.8869137999973,None,None,None,,,,,,,,,,,1958.1790832999977,1958.1790832999977,None,,1959.2579581999998,1959.2579581999998,n,1958.1790832999977,1958.1790832999977,2.3014889000005496,,,11,001,2024-06-18_15h17.02.710,robot_nback_sign,2022.2.5,60.0151118053778,
L_Torso_Z_Back,False,3,robot,1,False,False,robot_stimuli\L_Torso_Z_Back.mp4,11,,,,,,,,,0,73,73,73,,,,,,,,,,,,,1962.8869137999973,1963.9726520999975,,,,,,,1967.4702145999981,1967.4702145999981,1967.4702145999981,1967.4702145999981,1967.4702145999981,1967.4702145999981,1967.4702145999981,1967.4702145999981,None,None,None,,,,,,,,,,,1962.8869137999973,1962.8869137999973,None,,1963.9726520999975,1963.9726520999975,n,1962.8869137999973,1962.8869137999973,2.5777729000001273,,,11,001,2024-06-18_15h17.02.710,robot_nback_sign,2022.2.5,60.0151118053778,
R_Torso_Z_Back,False,3,robot,1,False,False,robot_stimuli\R_Torso_Z_Back.mp4,11,,,,,,,,,0,74,74,74,,,,,,,,,,,,,1967.4702145999981,1968.5578245999968,,,,,,,1972.2094048,1972.2094048,1972.2094048,1972.2094048,1972.2094048,1972.2094048,1972.2094048,1972.2094048,None,None,None,,,,,,,,,,,1967.4702145999981,1967.4702145999981,None,,1968.5578245999968,1968.5578245999968,n,1967.4702145999981,1967.4702145999981,2.760084100002132,,,11,001,2024-06-18_15h17.02.710,robot_nback_sign,2022.2.5,60.0151118053778,
R_Arm_X_Back,False,3,robot,1,False,False,robot_stimuli\R_Arm_X_Back.mp4,11,,,,,,,,,0,75,75,75,,,,,,,,,,,,,1972.2094048,1973.2899709999983,,,,,,,1976.929354099997,1976.929354099997,1976.929354099997,1976.929354099997,1976.929354099997,1976.929354099997,1976.929354099997,1976.929354099997,None,None,None,,,,,,,,,,,1972.2094048,1972.2094048,None,,1973.2899709999983,1973.2899709999983,n,1972.2094048,1972.2094048,3.3801660999997694,,,11,001,2024-06-18_15h17.02.710,robot_nback_sign,2022.2.5,60.0151118053778,
R_Arm_X_For,False,3,robot,1,False,False,robot_stimuli\R_Arm_X_For.mp4,11,,,,,,,,,0,76,76,76,,,,,,,,,,,,,1976.929354099997,1978.0045471999983,,,,,,,1981.6436845999997,1981.6436845999997,1981.6436845999997,1981.6436845999997,1981.6436845999997,1981.6436845999997,1981.6436845999997,1981.6436845999997,None,None,None,,,,,,,,,,,1976.929354099997,1976.929354099997,None,,1978.0045471999983,1978.0045471999983,None,1976.929354099997,1976.929354099997,,,,11,001,2024-06-18_15h17.02.710,robot_nback_sign,2022.2.5,60.0151118053778,
R_Base_Y_Back,False,3,robot,1,False,False,robot_stimuli\R_Base_Y_Back.mp4,11,,,,,,,,,0,77,77,77,,,,,,,,,,,,,1981.6436845999997,1982.7242684999983,,,,,,,1986.3645582999998,1986.3645582999998,1986.3645582999998,1986.3645582999998,1986.3645582999998,1986.3645582999998,1986.3645582999998,1986.3645582999998,None,None,None,,,,,,,,,,,1981.6436845999997,1981.6436845999997,None,,1982.7242684999983,1982.7242684999983,None,1981.6436845999997,1981.6436845999997,,,,11,001,2024-06-18_15h17.02.710,robot_nback_sign,2022.2.5,60.0151118053778,
R_Arm_X_Back,True,3,robot,1,False,False,robot_stimuli\R_Arm_X_Back.mp4,11,,,,,,,,,0,78,78,78,,,,,,,,,,,,,1986.3645582999998,,,,,,,,1991.0960602999985,1991.0960602999985,1991.0960602999985,1991.0960602999985,1991.0960602999985,1991.0960602999985,1991.0960602999985,1991.0960602999985,None,None,None,,,,,,,,,,,1986.3645582999998,1986.3645582999998,None,,1987.4561579,1987.4561579,None,1986.3645582999998,1986.3645582999998,,,,11,001,2024-06-18_15h17.02.710,robot_nback_sign,2022.2.5,60.0151118053778,
R_Torso_Z_Back,False,3,robot,1,False,False,robot_stimuli\R_Torso_Z_Back.mp4,11,,,,,,,,,0,79,79,79,,,,,,,,,,,,,1991.0960602999985,1992.1748066999971,,,,,,,1995.8237534,1995.8237534,1995.8237534,1995.8237534,1995.8237534,1995.8237534,1995.8237534,1995.8237534,None,None,None,,,,,,,,,,,1991.0960602999985,1991.0960602999985,None,,1992.1748066999971,1992.1748066999971,n,1991.0960602999985,1991.0960602999985,3.263867699999537,,,11,001,2024-06-18_15h17.02.710,robot_nback_sign,2022.2.5,60.0151118053778,
L_Head_X_For,False,3,robot,1,False,False,robot_stimuli\L_Head_X_For.mp4,11,,,,,,,,,0,80,80,80,,,,,,,,,,,,,1995.8237534,1996.9081764000002,,,,,,,2000.4919487999978,2000.4919487999978,2000.4919487999978,2000.4919487999978,2000.4919487999978,2000.4919487999978,2000.4919487999978,2000.4919487999978,None,None,None,,,,,,,,,,,1995.8237534,1995.8237534,None,,1996.9081764000002,1996.9081764000002,n,1995.8237534,1995.8237534,3.1701178000002983,,,11,001,2024-06-18_15h17.02.710,robot_nback_sign,2022.2.5,60.0151118053778,
R_Torso_X_For,False,3,robot,1,False,False,robot_stimuli\R_Torso_X_For.mp4,11,,,,,,,,,0,81,81,81,,,,,,,,,,,,,2000.4919487999978,2001.5736085999997,,,,,,,2005.2137286999969,2005.2137286999969,2005.2137286999969,2005.2137286999969,2005.2137286999969,2005.2137286999969,2005.2137286999969,2005.2137286999969,None,None,None,,,,,,,,,,,2000.4919487999978,2000.4919487999978,None,,2001.5736085999997,2001.5736085999997,n,2000.4919487999978,2000.4919487999978,3.1605544999983977,,,11,001,2024-06-18_15h17.02.710,robot_nback_sign,2022.2.5,60.0151118053778,
R_Torso_Y_Back,False,3,robot,1,False,False,robot_stimuli\R_Torso_Y_Back.mp4,11,,,,,,,,,0,82,82,82,,,,,,,,,,,,,2005.2137286999969,2006.292297099997,,,,,,,2009.9431479999985,2009.9431479999985,2009.9431479999985,2009.9431479999985,2009.9431479999985,2009.9431479999985,2009.9431479999985,2009.9431479999985,None,None,None,,,,,,,,,,,2005.2137286999969,2005.2137286999969,None,,2006.292297099997,2006.292297099997,n,2005.2137286999969,2005.2137286999969,2.914344100001472,,,11,001,2024-06-18_15h17.02.710,robot_nback_sign,2022.2.5,60.0151118053778,
R_Torso_Z_For,False,3,robot,1,False,False,robot_stimuli\R_Torso_Z_For.mp4,11,,,,,,,,,0,83,83,83,,,,,,,,,,,,,2009.9431479999985,2011.0254362999985,,,,,,,2014.675143499997,2014.675143499997,2014.675143499997,2014.675143499997,2014.675143499997,2014.675143499997,2014.675143499997,2014.675143499997,None,None,None,,,,,,,,,,,2009.9431479999985,2009.9431479999985,None,,2011.0254362999985,2011.0254362999985,n,2009.9431479999985,2009.9431479999985,2.925693400000455,,,11,001,2024-06-18_15h17.02.710,robot_nback_sign,2022.2.5,60.0151118053778,
L_Base_X_For,False,3,robot,1,False,False,robot_stimuli\L_Base_X_For.mp4,11,,,,,,,,,0,84,84,84,,,,,,,,,,,,,2014.675143499997,2015.7563668000003,,,,,,,2019.3294819999974,2019.3294819999974,2019.3294819999974,2019.3294819999974,2019.3294819999974,2019.3294819999974,2019.3294819999974,2019.3294819999974,None,None,None,,,,,,,,,,,2014.675143499997,2014.675143499997,None,,2015.7563668000003,2015.7563668000003,n,2014.675143499997,2014.675143499997,3.193143999997119,,,11,001,2024-06-18_15h17.02.710,robot_nback_sign,2022.2.5,60.0151118053778,
L_Head_Z_Back,False,3,robot,1,False,False,robot_stimuli\L_Head_Z_Back.mp4,11,,,,,,,,,0,85,85,85,,,,,,,,,,,,,2019.3294819999974,2020.4082122,,,,,,,2024.058635399997,2024.058635399997,2024.058635399997,2024.058635399997,2024.058635399997,2024.058635399997,2024.058635399997,2024.058635399997,None,None,None,,,,,,,,,,,2019.3294819999974,2019.3294819999974,None,,2020.4082122,2020.4082122,None,2019.3294819999974,2019.3294819999974,,,,11,001,2024-06-18_15h17.02.710,robot_nback_sign,2022.2.5,60.0151118053778,
R_Torso_Z_For,True,3,robot,1,False,False,robot_stimuli\R_Torso_Z_For.mp4,11,,,,,,,,,0,86,86,86,,,,,,,,,,,,,2024.058635399997,2025.1421424,,,,,,,2028.7906688000003,2028.7906688000003,2028.7906688000003,2028.7906688000003,2028.7906688000003,2028.7906688000003,2028.7906688000003,2028.7906688000003,None,None,None,,,,,,,,,,,2024.058635399997,2024.058635399997,None,,2025.1421424,2025.1421424,n,2024.058635399997,2024.058635399997,3.4880379999995057,,,11,001,2024-06-18_15h17.02.710,robot_nback_sign,2022.2.5,60.0151118053778,
L_Base_X_For,True,3,robot,1,False,False,robot_stimuli\L_Base_X_For.mp4,11,,,,,,,,,0,87,87,87,,,,,,,,,,,,,2028.7906688000003,2029.8744129999977,,,,,,,2033.4593575,2033.4593575,2033.4593575,2033.4593575,2033.4593575,2033.4593575,2033.4593575,2033.4593575,None,None,None,,,,,,,,,,,2028.7906688000003,2028.7906688000003,None,,2029.8744129999977,2029.8744129999977,c,2028.7906688000003,2028.7906688000003,2.71649559999787,,,11,001,2024-06-18_15h17.02.710,robot_nback_sign,2022.2.5,60.0151118053778,
L_Arm_Z_Back,False,3,robot,1,False,False,robot_stimuli\L_Arm_Z_Back.mp4,11,,,,,,,,,0,88,88,88,,,,,,,,,,,,,2033.4593575,2034.542544099997,,,,,,,2038.1934930999996,2038.1934930999996,2038.1934930999996,2038.1934930999996,2038.1934930999996,2038.1934930999996,2038.1934930999996,2038.1934930999996,None,None,None,,,,,,,,,,,2033.4593575,2033.4593575,None,,2034.542544099997,2034.542544099997,None,2033.4593575,2033.4593575,,,,11,001,2024-06-18_15h17.02.710,robot_nback_sign,2022.2.5,60.0151118053778,
L_Torso_Z_For,False,3,robot,1,False,False,robot_stimuli\L_Torso_Z_For.mp4,11,,,,,,,,,0,89,89,89,,,,,,,,,,,,,2038.1934930999996,2039.2747328999976,,,,,,,2042.9257550000002,2042.9257550000002,2042.9257550000002,2042.9257550000002,2042.9257550000002,2042.9257550000002,2042.9257550000002,2042.9257550000002,None,None,None,,,,,,,,,,,2038.1934930999996,2038.1934930999996,None,,2039.2747328999976,2039.2747328999976,n,2038.1934930999996,2038.1934930999996,3.2909775000007357,,,11,001,2024-06-18_15h17.02.710,robot_nback_sign,2022.2.5,60.0151118053778,
L_Base_X_For,True,3,robot,1,False,False,robot_stimuli\L_Base_X_For.mp4,11,,,,,,,,,0,90,90,90,,,,,,,,,,,,,2042.9257550000002,2044.007083299999,,,,,,,2047.5804013999987,2047.5804013999987,2047.5804013999987,2047.5804013999987,2047.5804013999987,2047.5804013999987,2047.5804013999987,2047.5804013999987,None,None,None,,,,,,,,,,,2042.9257550000002,2042.9257550000002,None,,2044.007083299999,2044.007083299999,None,2042.9257550000002,2042.9257550000002,,,,11,001,2024-06-18_15h17.02.710,robot_nback_sign,2022.2.5,60.0151118053778,
L_Arm_Z_Back,True,3,robot,1,False,False,robot_stimuli\L_Arm_Z_Back.mp4,11,,,,,,,,,0,91,91,91,,,,,,,,,,,,,2047.5804013999987,2048.6582495000002,,,,,,,2052.308721199999,2052.308721199999,2052.308721199999,2052.308721199999,2052.308721199999,2052.308721199999,2052.308721199999,2052.308721199999,None,None,None,,,,,,,,,,,2047.5804013999987,2047.5804013999987,None,,2048.6582495000002,2048.6582495000002,c,2047.5804013999987,2047.5804013999987,2.6595925000001444,,,11,001,2024-06-18_15h17.02.710,robot_nback_sign,2022.2.5,60.0151118053778,
L_Arm_Z_Back,False,3,robot,1,False,False,robot_stimuli\L_Arm_Z_Back.mp4,11,,,,,,,,,0,92,92,92,,,,,,,,,,,,,2052.308721199999,2053.3878981999987,,,,,,,2057.028902799997,2057.028902799997,2057.028902799997,2057.028902799997,2057.028902799997,2057.028902799997,2057.028902799997,2057.028902799997,None,None,None,,,,,,,,,,,2052.308721199999,2052.308721199999,None,,2053.3878981999987,2053.3878981999987,None,2052.308721199999,2052.308721199999,,,,11,001,2024-06-18_15h17.02.710,robot_nback_sign,2022.2.5,60.0151118053778,
R_Base_Z_For,False,3,robot,1,False,False,robot_stimuli\R_Base_Z_For.mp4,11,,,,,,,,,0,93,93,93,,,,,,,,,,,,,2057.028902799997,2058.1095528999977,,,,,,,2061.7607067999998,2061.7607067999998,2061.7607067999998,2061.7607067999998,2061.7607067999998,2061.7607067999998,2061.7607067999998,2061.7607067999998,None,None,None,,,,,,,,,,,2057.028902799997,2057.028902799997,None,,2058.1095528999977,2058.1095528999977,None,2057.028902799997,2057.028902799997,,,,11,001,2024-06-18_15h17.02.710,robot_nback_sign,2022.2.5,60.0151118053778,
L_Base_Y_For,False,3,robot,1,False,False,robot_stimuli\L_Base_Y_For.mp4,11,,,,,,,,,0,94,94,94,,,,,,,,,,,,,2061.7607067999998,2062.8435871999973,,,,,,,2066.3924821,2066.3924821,2066.3924821,2066.3924821,2066.3924821,2066.3924821,2066.3924821,2066.3924821,None,None,None,,,,,,,,,,,2061.7607067999998,2061.7607067999998,None,,2062.8435871999973,2062.8435871999973,n,2061.7607067999998,2061.7607067999998,2.994435500000691,,,11,001,2024-06-18_15h17.02.710,robot_nback_sign,2022.2.5,60.0151118053778,
L_Head_Z_For,False,3,robot,1,False,False,robot_stimuli\L_Head_Z_For.mp4,11,,,,,,,,,0,95,95,95,,,,,,,,,,,,,2066.3924821,2067.4739668,,,,,,,2071.1134711999985,2071.1134711999985,2071.1134711999985,2071.1134711999985,2071.1134711999985,2071.1134711999985,2071.1134711999985,2071.1134711999985,None,None,None,,,,,,,,,,,2066.3924821,2066.3924821,None,,2067.4739668,2067.4739668,n,2066.3924821,2066.3924821,2.6275428000008105,,,11,001,2024-06-18_15h17.02.710,robot_nback_sign,2022.2.5,60.0151118053778,
L_Arm_Y_Back,False,3,robot,1,False,False,robot_stimuli\L_Arm_Y_Back.mp4,11,,,,,,,,,0,96,96,96,,,,,,,,,,,,,2071.1134711999985,2072.1911624999993,,,,,,,2075.842066099998,2075.842066099998,2075.842066099998,2075.842066099998,2075.842066099998,2075.842066099998,2075.842066099998,2075.842066099998,None,None,None,,,,,,,,,,,2071.1134711999985,2071.1134711999985,None,,2072.1911624999993,2072.1911624999993,n,2071.1134711999985,2071.1134711999985,2.047806700000365,,,11,001,2024-06-18_15h17.02.710,robot_nback_sign,2022.2.5,60.0151118053778,
R_Base_Z_Back,False,3,robot,1,False,False,robot_stimuli\R_Base_Z_Back.mp4,11,,,,,,,,,0,97,97,97,,,,,,,,,,,,,2075.842066099998,2076.9258040999994,,,,,,,2080.4820980999975,2080.4820980999975,2080.4820980999975,2080.4820980999975,2080.4820980999975,2080.4820980999975,2080.4820980999975,2080.4820980999975,None,None,None,,,,,,,,,,,2075.842066099998,2075.842066099998,None,,2076.9258040999994,2076.9258040999994,None,2075.842066099998,2075.842066099998,,,,11,001,2024-06-18_15h17.02.710,robot_nback_sign,2022.2.5,60.0151118053778,
L_Head_Z_For,True,3,robot,1,False,False,robot_stimuli\L_Head_Z_For.mp4,11,,,,,,,,,0,98,98,98,,,,,,,,,,,,,2080.4820980999975,,,,,,,,2085.212930999998,2085.212930999998,2085.212930999998,2085.212930999998,2085.212930999998,2085.212930999998,2085.212930999998,2085.212930999998,None,None,None,,,,,,,,,,,2080.4820980999975,2080.4820980999975,None,,2081.5725385999976,2081.5725385999976,c,2080.4820980999975,2080.4820980999975,2.4665490000006685,,,11,001,2024-06-18_15h17.02.710,robot_nback_sign,2022.2.5,60.0151118053778,
L_Base_Z_Back,False,3,robot,1,False,True,robot_stimuli\L_Base_Z_Back.mp4,11,,,,,,,,,0,99,99,99,,,,,,,,,,,,,2085.212930999998,2086.289624099998,,,,,,,2089.9537193999968,2106.8720503999975,2089.9537193999968,2106.8720503999975,2089.9537193999968,2106.8720503999975,2089.9537193999968,2106.8720503999975,62.87037037037037,3.480396799997834,space,,,,16.867932900000596,,,,,,,2085.212930999998,2085.212930999998,None,,2086.289624099998,2086.289624099998,None,2085.212930999998,2085.212930999998,,,,11,001,2024-06-18_15h17.02.710,robot_nback_sign,2022.2.5,60.0151118053778,
L_Base_Y_Back,False,1,robot,1,True,False,robot_stimuli\L_Base_Y_Back.mp4,11,,,,,,,,,0,100,100,100,,,,,,,,,,,,,2109.3630430999983,2110.444062999999,,,,,,,2114.0248847999974,2114.0248847999974,2114.0248847999974,2114.0248847999974,2114.0248847999974,2114.0248847999974,2114.0248847999974,2114.0248847999974,None,None,None,,,,,,,,,,,2106.8720503999975,2106.8720503999975,space,2.4626140000000305,2110.444062999999,2110.444062999999,n,,,3.3383539999995264,,,11,001,2024-06-18_15h17.02.710,robot_nback_sign,2022.2.5,60.0151118053778,
L_Base_Y_Back,True,1,robot,1,False,False,robot_stimuli\L_Base_Y_Back.mp4,11,,,,,,,,,0,101,101,101,,,,,,,,,,,,,2114.0248847999974,2115.104525999999,,,,,,,2118.6776752999976,2118.6776752999976,2118.6776752999976,2118.6776752999976,2118.6776752999976,2118.6776752999976,2118.6776752999976,2118.6776752999976,None,None,None,,,,,,,,,,,2114.0248847999974,2114.0248847999974,None,,2115.104525999999,2115.104525999999,c,2114.0248847999974,2114.0248847999974,2.2620367000017723,,,11,001,2024-06-18_15h17.02.710,robot_nback_sign,2022.2.5,60.0151118053778,
R_Arm_X_For,False,1,robot,1,False,False,robot_stimuli\R_Arm_X_For.mp4,11,,,,,,,,,0,102,102,102,,,,,,,,,,,,,2118.6776752999976,2119.7571510999987,,,,,,,2123.3955891999976,2123.3955891999976,2123.3955891999976,2123.3955891999976,2123.3955891999976,2123.3955891999976,2123.3955891999976,2123.3955891999976,None,None,None,,,,,,,,,,,2118.6776752999976,2118.6776752999976,None,,2119.7571510999987,2119.7571510999987,n,2118.6776752999976,2118.6776752999976,3.312979999998788,,,11,001,2024-06-18_15h17.02.710,robot_nback_sign,2022.2.5,60.0151118053778,
L_Arm_Z_Back,False,1,robot,1,False,False,robot_stimuli\L_Arm_Z_Back.mp4,11,,,,,,,,,0,103,103,103,,,,,,,,,,,,,2123.3955891999976,2124.475384999998,,,,,,,2128.126314099998,2128.126314099998,2128.126314099998,2128.126314099998,2128.126314099998,2128.126314099998,2128.126314099998,2128.126314099998,None,None,None,,,,,,,,,,,2123.3955891999976,2123.3955891999976,None,,2124.475384999998,2124.475384999998,n,2123.3955891999976,2123.3955891999976,2.4841006999995443,,,11,001,2024-06-18_15h17.02.710,robot_nback_sign,2022.2.5,60.0151118053778,
R_Torso_Y_Back,False,1,robot,1,False,False,robot_stimuli\R_Torso_Y_Back.mp4,11,,,,,,,,,0,104,104,104,,,,,,,,,,,,,2128.126314099998,2129.2088473999975,,,,,,,2132.8590809999987,2132.8590809999987,2132.8590809999987,2132.8590809999987,2132.8590809999987,2132.8590809999987,2132.8590809999987,2132.8590809999987,None,None,None,,,,,,,,,,,2128.126314099998,2128.126314099998,None,,2129.2088473999975,2129.2088473999975,n,2128.126314099998,2128.126314099998,1.9021319999992556,,,11,001,2024-06-18_15h17.02.710,robot_nback_sign,2022.2.5,60.0151118053778,
R_Torso_Y_Back,True,1,robot,1,False,False,robot_stimuli\R_Torso_Y_Back.mp4,11,,,,,,,,,0,105,105,105,,,,,,,,,,,,,2132.8590809999987,2133.937783999998,,,,,,,2137.5782378999975,2137.5782378999975,2137.5782378999975,2137.5782378999975,2137.5782378999975,2137.5782378999975,2137.5782378999975,2137.5782378999975,None,None,None,,,,,,,,,,,2132.8590809999987,2132.8590809999987,None,,2133.937783999998,2133.937783999998,c,2132.8590809999987,2132.8590809999987,2.1497009999984584,,,11,001,2024-06-18_15h17.02.710,robot_nback_sign,2022.2.5,60.0151118053778,
R_Torso_Y_For,False,1,robot,1,False,False,robot_stimuli\R_Torso_Y_For.mp4,11,,,,,,,,,0,106,106,106,,,,,,,,,,,,,2137.5782378999975,2138.6549983999976,,,,,,,2142.296370799999,2142.296370799999,2142.296370799999,2142.296370799999,2142.296370799999,2142.296370799999,2142.296370799999,2142.296370799999,None,None,None,,,,,,,,,,,2137.5782378999975,2137.5782378999975,None,,2138.6549983999976,2138.6549983999976,n,2137.5782378999975,2137.5782378999975,2.5746662999990804,,,11,001,2024-06-18_15h17.02.710,robot_nback_sign,2022.2.5,60.0151118053778,
L_Head_Z_For,False,1,robot,1,False,False,robot_stimuli\L_Head_Z_For.mp4,11,,,,,,,,,0,107,107,107,,,,,,,,,,,,,2142.296370799999,2143.3902119999984,,,,,,,2147.0308253999974,2147.0308253999974,2147.0308253999974,2147.0308253999974,2147.0308253999974,2147.0308253999974,2147.0308253999974,2147.0308253999974,None,None,None,,,,,,,,,,,2142.296370799999,2142.296370799999,None,,2143.3902119999984,2143.3902119999984,n,2142.296370799999,2142.296370799999,2.759317399999418,,,11,001,2024-06-18_15h17.02.710,robot_nback_sign,2022.2.5,60.0151118053778,
R_Torso_X_For,False,1,robot,1,False,False,robot_stimuli\R_Torso_X_For.mp4,11,,,,,,,,,0,108,108,108,,,,,,,,,,,,,2147.0308253999974,2148.107161,,,,,,,2151.7475601999977,2151.7475601999977,2151.7475601999977,2151.7475601999977,2151.7475601999977,2151.7475601999977,2151.7475601999977,2151.7475601999977,None,None,None,,,,,,,,,,,2147.0308253999974,2147.0308253999974,None,,2148.107161,2148.107161,n,2147.0308253999974,2147.0308253999974,2.531978600000002,,,11,001,2024-06-18_15h17.02.710,robot_nback_sign,2022.2.5,60.0151118053778,
R_Torso_X_For,True,1,robot,1,False,False,robot_stimuli\R_Torso_X_For.mp4,11,,,,,,,,,0,109,109,109,,,,,,,,,,,,,2151.7475601999977,,,,,,,,2156.478209699999,2156.478209699999,2156.478209699999,2156.478209699999,2156.478209699999,2156.478209699999,2156.478209699999,2156.478209699999,None,None,None,,,,,,,,,,,2151.7475601999977,2151.7475601999977,None,,2152.8372949999975,2152.8372949999975,c,2151.7475601999977,2151.7475601999977,2.2330050999989908,,,11,001,2024-06-18_15h17.02.710,robot_nback_sign,2022.2.5,60.0151118053778,
R_Base_Y_Back,False,1,robot,1,False,False,robot_stimuli\R_Base_Y_Back.mp4,11,,,,,,,,,0,110,110,110,,,,,,,,,,,,,2156.478209699999,2157.5578545999997,,,,,,,2161.1968701999976,2161.1968701999976,2161.1968701999976,2161.1968701999976,2161.1968701999976,2161.1968701999976,2161.1968701999976,2161.1968701999976,None,None,None,,,,,,,,,,,2156.478209699999,2156.478209699999,None,,2157.5578545999997,2157.5578545999997,n,2156.478209699999,2156.478209699999,2.24074489999839,,,11,001,2024-06-18_15h17.02.710,robot_nback_sign,2022.2.5,60.0151118053778,
R_Base_Y_Back,True,1,robot,1,False,False,robot_stimuli\R_Base_Y_Back.mp4,11,,,,,,,,,0,111,111,111,,,,,,,,,,,,,2161.1968701999976,2162.2770173999997,,,,,,,2165.9274879999975,2165.9274879999975,2165.9274879999975,2165.9274879999975,2165.9274879999975,2165.9274879999975,2165.9274879999975,2165.9274879999975,None,None,None,,,,,,,,,,,2161.1968701999976,2161.1968701999976,None,,2162.2770173999997,2162.2770173999997,c,2161.1968701999976,2161.1968701999976,2.216537000000244,,,11,001,2024-06-18_15h17.02.710,robot_nback_sign,2022.2.5,60.0151118053778,
L_Arm_X_Back,False,1,robot,1,False,False,robot_stimuli\L_Arm_X_Back.mp4,11,,,,,,,,,0,112,112,112,,,,,,,,,,,,,2165.9274879999975,2167.007498799998,,,,,,,2170.646818999998,2170.646818999998,2170.646818999998,2170.646818999998,2170.646818999998,2170.646818999998,2170.646818999998,2170.646818999998,None,None,None,,,,,,,,,,,2165.9274879999975,2165.9274879999975,None,,2167.007498799998,2167.007498799998,n,2165.9274879999975,2165.9274879999975,3.3589528999982576,,,11,001,2024-06-18_15h17.02.710,robot_nback_sign,2022.2.5,60.0151118053778,
R_Base_Z_Back,False,1,robot,1,False,False,robot_stimuli\R_Base_Z_Back.mp4,11,,,,,,,,,0,113,113,113,,,,,,,,,,,,,2170.646818999998,2171.724594799998,,,,,,,2175.2736017999996,2175.2736017999996,2175.2736017999996,2175.2736017999996,2175.2736017999996,2175.2736017999996,2175.2736017999996,2175.2736017999996,None,None,None,,,,,,,,,,,2170.646818999998,2170.646818999998,None,,2171.724594799998,2171.724594799998,n,2170.646818999998,2170.646818999998,2.441362699999445,,,11,001,2024-06-18_15h17.02.710,robot_nback_sign,2022.2.5,60.0151118053778,
L_Torso_Y_Back,False,1,robot,1,False,False,robot_stimuli\L_Torso_Y_Back.mp4,11,,,,,,,,,0,114,114,114,,,,,,,,,,,,,2175.2736017999996,2176.3587401999976,,,,,,,2179.8746804,2179.8746804,2179.8746804,2179.8746804,2179.8746804,2179.8746804,2179.8746804,2179.8746804,None,None,None,,,,,,,,,,,2175.2736017999996,2175.2736017999996,None,,2176.3587401999976,2176.3587401999976,n,2175.2736017999996,2175.2736017999996,2.1994789999989734,,,11,001,2024-06-18_15h17.02.710,robot_nback_sign,2022.2.5,60.0151118053778,
L_Torso_Z_For,False,1,robot,1,False,False,robot_stimuli\L_Torso_Z_For.mp4,11,,,,,,,,,0,115,115,115,,,,,,,,,,,,,2179.8746804,2180.9589173999993,,,,,,,2184.6093365999986,2184.6093365999986,2184.6093365999986,2184.6093365999986,2184.6093365999986,2184.6093365999986,2184.6093365999986,2184.6093365999986,None,None,None,,,,,,,,,,,2179.8746804,2179.8746804,None,,2180.9589173999993,2180.9589173999993,n,2179.8746804,2179.8746804,2.2157875999982934,,,11,001,2024-06-18_15h17.02.710,robot_nback_sign,2022.2.5,60.0151118053778,
R_Torso_Y_For,False,1,robot,1,False,False,robot_stimuli\R_Torso_Y_For.mp4,11,,,,,,,,,0,116,116,116,,,,,,,,,,,,,2184.6093365999986,2185.691961999997,,,,,,,2189.3414693999985,2189.3414693999985,2189.3414693999985,2189.3414693999985,2189.3414693999985,2189.3414693999985,2189.3414693999985,2189.3414693999985,None,None,None,,,,,,,,,,,2184.6093365999986,2184.6093365999986,None,,2185.691961999997,2185.691961999997,n,2184.6093365999986,2184.6093365999986,2.2512026999975205,,,11,001,2024-06-18_15h17.02.710,robot_nback_sign,2022.2.5,60.0151118053778,
R_Torso_Y_For,True,1,robot,1,False,False,robot_stimuli\R_Torso_Y_For.mp4,11,,,,,,,,,0,117,117,117,,,,,,,,,,,,,2189.3414693999985,2190.422352499998,,,,,,,2194.0644178999974,2194.0644178999974,2194.0644178999974,2194.0644178999974,2194.0644178999974,2194.0644178999974,2194.0644178999974,2194.0644178999974,None,None,None,,,,,,,,,,,2189.3414693999985,2189.3414693999985,None,,2190.422352499998,2190.422352499998,c,2189.3414693999985,2189.3414693999985,2.327475300000515,,,11,001,2024-06-18_15h17.02.710,robot_nback_sign,2022.2.5,60.0151118053778,
L_Head_Y_Back,False,1,robot,1,False,False,robot_stimuli\L_Head_Y_Back.mp4,11,,,,,,,,,0,118,118,118,,,,,,,,,,,,,2194.0644178999974,2195.155493399998,,,,,,,2198.7992902999977,2198.7992902999977,2198.7992902999977,2198.7992902999977,2198.7992902999977,2198.7992902999977,2198.7992902999977,2198.7992902999977,None,None,None,,,,,,,,,,,2194.0644178999974,2194.0644178999974,None,,2195.155493399998,2195.155493399998,n,2194.0644178999974,2194.0644178999974,2.426072499998554,,,11,001,2024-06-18_15h17.02.710,robot_nback_sign,2022.2.5,60.0151118053778,
L_Head_Y_Back,True,1,robot,1,False,False,robot_stimuli\L_Head_Y_Back.mp4,11,,,,,,,,,0,119,119,119,,,,,,,,,,,,,2198.7992902999977,,,,,,,,2203.5430258999986,2203.5430258999986,2203.5430258999986,2203.5430258999986,2203.5430258999986,2203.5430258999986,2203.5430258999986,2203.5430258999986,None,None,None,,,,,,,,,,,2198.7992902999977,2198.7992902999977,None,,2199.9024083999975,2199.9024083999975,c,2198.7992902999977,2198.7992902999977,2.4315428999980213,,,11,001,2024-06-18_15h17.02.710,robot_nback_sign,2022.2.5,60.0151118053778,
L_Torso_Y_For,False,1,robot,1,False,False,robot_stimuli\L_Torso_Y_For.mp4,11,,,,,,,,,0,120,120,120,,,,,,,,,,,,,2203.5430258999986,2204.6266593,,,,,,,2208.278883199997,2208.278883199997,2208.278883199997,2208.278883199997,2208.278883199997,2208.278883199997,2208.278883199997,2208.278883199997,None,None,None,,,,,,,,,,,2203.5430258999986,2203.5430258999986,None,,2204.6266593,2204.6266593,n,2203.5430258999986,2203.5430258999986,2.4196813000016846,,,11,001,2024-06-18_15h17.02.710,robot_nback_sign,2022.2.5,60.0151118053778,
R_Base_X_Back,False,1,robot,1,False,False,robot_stimuli\R_Base_X_Back.mp4,11,,,,,,,,,0,121,121,121,,,,,,,,,,,,,2208.278883199997,2209.3578643,,,,,,,2212.9944606999998,2212.9944606999998,2212.9944606999998,2212.9944606999998,2212.9944606999998,2212.9944606999998,2212.9944606999998,2212.9944606999998,None,None,None,,,,,,,,,,,2208.278883199997,2208.278883199997,None,,2209.3578643,2209.3578643,n,2208.278883199997,2208.278883199997,2.6332634999998845,,,11,001,2024-06-18_15h17.02.710,robot_nback_sign,2022.2.5,60.0151118053778,
R_Base_X_Back,True,1,robot,1,False,False,robot_stimuli\R_Base_X_Back.mp4,11,,,,,,,,,0,122,122,122,,,,,,,,,,,,,2212.9944606999998,2214.0717387999975,,,,,,,2217.711624599997,2217.711624599997,2217.711624599997,2217.711624599997,2217.711624599997,2217.711624599997,2217.711624599997,2217.711624599997,None,None,None,,,,,,,,,,,2212.9944606999998,2212.9944606999998,None,,2214.0717387999975,2214.0717387999975,c,2212.9944606999998,2212.9944606999998,2.255058700000518,,,11,001,2024-06-18_15h17.02.710,robot_nback_sign,2022.2.5,60.0151118053778,
L_Torso_Z_For,False,1,robot,1,False,False,robot_stimuli\L_Torso_Z_For.mp4,11,,,,,,,,,0,123,123,123,,,,,,,,,,,,,2217.711624599997,2218.793381299998,,,,,,,2222.4419323,2222.4419323,2222.4419323,2222.4419323,2222.4419323,2222.4419323,2222.4419323,2222.4419323,None,None,None,,,,,,,,,,,2217.711624599997,2217.711624599997,None,,2218.793381299998,2218.793381299998,n,2217.711624599997,2217.711624599997,2.533864499997435,,,11,001,2024-06-18_15h17.02.710,robot_nback_sign,2022.2.5,60.0151118053778,
R_Head_Y_Back,False,1,robot,1,False,False,robot_stimuli\R_Head_Y_Back.mp4,11,,,,,,,,,0,124,124,124,,,,,,,,,,,,,2222.4419323,2223.5259460999987,,,,,,,2227.1757746999974,2227.1757746999974,2227.1757746999974,2227.1757746999974,2227.1757746999974,2227.1757746999974,2227.1757746999974,2227.1757746999974,None,None,None,,,,,,,,,,,2222.4419323,2222.4419323,None,,2223.5259460999987,2223.5259460999987,n,2222.4419323,2222.4419323,1.7365660999967076,,,11,001,2024-06-18_15h17.02.710,robot_nback_sign,2022.2.5,60.0151118053778,
L_Head_Z_Back,False,1,robot,1,False,False,robot_stimuli\L_Head_Z_Back.mp4,11,,,,,,,,,0,125,125,125,,,,,,,,,,,,,2227.1757746999974,2228.2575730999997,,,,,,,2231.896416899999,2231.896416899999,2231.896416899999,2231.896416899999,2231.896416899999,2231.896416899999,2231.896416899999,2231.896416899999,None,None,None,,,,,,,,,,,2227.1757746999974,2227.1757746999974,None,,2228.2575730999997,2228.2575730999997,n,2227.1757746999974,2227.1757746999974,2.3882513999997173,,,11,001,2024-06-18_15h17.02.710,robot_nback_sign,2022.2.5,60.0151118053778,
R_Base_Z_For,False,1,robot,1,False,False,robot_stimuli\R_Base_Z_For.mp4,11,,,,,,,,,0,126,126,126,,,,,,,,,,,,,2231.896416899999,2232.974508899999,,,,,,,2236.6252222000003,2236.6252222000003,2236.6252222000003,2236.6252222000003,2236.6252222000003,2236.6252222000003,2236.6252222000003,2236.6252222000003,None,None,None,,,,,,,,,,,2231.896416899999,2231.896416899999,None,,2232.974508899999,2232.974508899999,n,2231.896416899999,2231.896416899999,2.3752583999994386,,,11,001,2024-06-18_15h17.02.710,robot_nback_sign,2022.2.5,60.0151118053778,
R_Base_Z_For,True,1,robot,1,False,False,robot_stimuli\R_Base_Z_For.mp4,11,,,,,,,,,0,127,127,127,,,,,,,,,,,,,2236.6252222000003,2237.7056983,,,,,,,2241.344570699999,2241.344570699999,2241.344570699999,2241.344570699999,2241.344570699999,2241.344570699999,2241.344570699999,2241.344570699999,None,None,None,,,,,,,,,,,2236.6252222000003,2236.6252222000003,None,,2237.7056983,2237.7056983,c,2236.6252222000003,2236.6252222000003,2.4120891000020492,,,11,001,2024-06-18_15h17.02.710,robot_nback_sign,2022.2.5,60.0151118053778,
R_Arm_X_Back,False,1,robot,1,False,False,robot_stimuli\R_Arm_X_Back.mp4,11,,,,,,,,,0,128,128,128,,,,,,,,,,,,,2241.344570699999,2242.4261060999997,,,,,,,2246.0754500000003,2246.0754500000003,2246.0754500000003,2246.0754500000003,2246.0754500000003,2246.0754500000003,2246.0754500000003,2246.0754500000003,None,None,None,,,,,,,,,,,2241.344570699999,2241.344570699999,None,,2242.4261060999997,2242.4261060999997,n,2241.344570699999,2241.344570699999,2.8132232000025397,,,11,001,2024-06-18_15h17.02.710,robot_nback_sign,2022.2.5,60.0151118053778,
R_Arm_Y_Back,False,1,robot,1,False,False,robot_stimuli\R_Arm_Y_Back.mp4,11,,,,,,,,,0,129,129,129,,,,,,,,,,,,,2246.0754500000003,2247.159160799998,,,,,,,2250.806944699998,2250.806944699998,2250.806944699998,2250.806944699998,2250.806944699998,2250.806944699998,2250.806944699998,2250.806944699998,None,None,None,,,,,,,,,,,2246.0754500000003,2246.0754500000003,None,,2247.159160799998,2247.159160799998,n,2246.0754500000003,2246.0754500000003,3.0313710999980685,,,11,001,2024-06-18_15h17.02.710,robot_nback_sign,2022.2.5,60.0151118053778,
R_Torso_Z_Back,False,1,robot,1,False,False,robot_stimuli\R_Torso_Z_Back.mp4,11,,,,,,,,,0,130,130,130,,,,,,,,,,,,,2250.806944699998,2251.8913361999985,,,,,,,2255.5205502999997,2255.5205502999997,2255.5205502999997,2255.5205502999997,2255.5205502999997,2255.5205502999997,2255.5205502999997,2255.5205502999997,None,None,None,,,,,,,,,,,2250.806944699998,2250.806944699998,None,,2251.8913361999985,2251.8913361999985,n,2250.806944699998,2250.806944699998,2.778260799997952,,,11,001,2024-06-18_15h17.02.710,robot_nback_sign,2022.2.5,60.0151118053778,
R_Base_Z_Back,False,1,robot,1,False,False,robot_stimuli\R_Base_Z_Back.mp4,11,,,,,,,,,0,131,131,131,,,,,,,,,,,,,2255.5205502999997,2256.6083868999995,,,,,,,2260.1391215000003,2260.1391215000003,2260.1391215000003,2260.1391215000003,2260.1391215000003,2260.1391215000003,2260.1391215000003,2260.1391215000003,None,None,None,,,,,,,,,,,2255.5205502999997,2255.5205502999997,None,,2256.6083868999995,2256.6083868999995,n,2255.5205502999997,2255.5205502999997,3.429378100001486,,,11,001,2024-06-18_15h17.02.710,robot_nback_sign,2022.2.5,60.0151118053778,
L_Arm_Z_For,False,1,robot,1,False,False,robot_stimuli\L_Arm_Z_For.mp4,11,,,,,,,,,0,132,132,132,,,,,,,,,,,,,2260.1391215000003,2261.226467499997,,,,,,,2264.8732853999973,2264.8732853999973,2264.8732853999973,2264.8732853999973,2264.8732853999973,2264.8732853999973,2264.8732853999973,2264.8732853999973,None,None,None,,,,,,,,,,,2260.1391215000003,2260.1391215000003,None,,2261.226467499997,2261.226467499997,n,2260.1391215000003,2260.1391215000003,2.7570948000029603,,,11,001,2024-06-18_15h17.02.710,robot_nback_sign,2022.2.5,60.0151118053778,
L_Torso_X_Back,False,1,robot,1,False,False,robot_stimuli\L_Torso_X_Back.mp4,11,,,,,,,,,0,133,133,133,,,,,,,,,,,,,2264.8732853999973,2265.9583983999983,,,,,,,2269.5957651999997,2269.5957651999997,2269.5957651999997,2269.5957651999997,2269.5957651999997,2269.5957651999997,2269.5957651999997,2269.5957651999997,None,None,None,,,,,,,,,,,2264.8732853999973,2264.8732853999973,None,,2265.9583983999983,2265.9583983999983,n,2264.8732853999973,2264.8732853999973,2.5593398999990313,,,11,001,2024-06-18_15h17.02.710,robot_nback_sign,2022.2.5,60.0151118053778,
L_Head_Z_For,False,1,robot,1,False,False,robot_stimuli\L_Head_Z_For.mp4,11,,,,,,,,,0,134,134,134,,,,,,,,,,,,,2269.5957651999997,2270.675718999999,,,,,,,2274.3262001000003,2274.3262001000003,2274.3262001000003,2274.3262001000003,2274.3262001000003,2274.3262001000003,2274.3262001000003,2274.3262001000003,None,None,None,,,,,,,,,,,2269.5957651999997,2269.5957651999997,None,,2270.675718999999,2270.675718999999,n,2269.5957651999997,2269.5957651999997,2.1799111000000266,,,11,001,2024-06-18_15h17.02.710,robot_nback_sign,2022.2.5,60.0151118053778,
R_Base_X_For,False,1,robot,1,False,False,robot_stimuli\R_Base_X_For.mp4,11,,,,,,,,,0,135,135,135,,,,,,,,,,,,,2274.3262001000003,2275.4134109999977,,,,,,,2278.962653499999,2278.962653499999,2278.962653499999,2278.962653499999,2278.962653499999,2278.962653499999,2278.962653499999,2278.962653499999,None,None,None,,,,,,,,,,,2274.3262001000003,2274.3262001000003,None,,2275.4134109999977,2275.4134109999977,n,2274.3262001000003,2274.3262001000003,3.152358799998183,,,11,001,2024-06-18_15h17.02.710,robot_nback_sign,2022.2.5,60.0151118053778,
L_Arm_Z_Back,False,1,robot,1,False,False,robot_stimuli\L_Arm_Z_Back.mp4,11,,,,,,,,,0,136,136,136,,,,,,,,,,,,,2278.962653499999,2280.0411196999994,,,,,,,2283.679295099999,2283.679295099999,2283.679295099999,2283.679295099999,2283.679295099999,2283.679295099999,2283.679295099999,2283.679295099999,None,None,None,,,,,,,,,,,2278.962653499999,2278.962653499999,None,,2280.0411196999994,2280.0411196999994,n,2278.962653499999,2278.962653499999,1.8766305999997712,,,11,001,2024-06-18_15h17.02.710,robot_nback_sign,2022.2.5,60.0151118053778,
L_Base_Z_Back,False,1,robot,1,False,False,robot_stimuli\L_Base_Z_Back.mp4,11,,,,,,,,,0,137,137,137,,,,,,,,,,,,,2283.679295099999,2284.759198399999,,,,,,,2288.3876993999984,2288.3876993999984,2288.3876993999984,2288.3876993999984,2288.3876993999984,2288.3876993999984,2288.3876993999984,2288.3876993999984,None,None,None,,,,,,,,,,,2283.679295099999,2283.679295099999,None,,2284.759198399999,2284.759198399999,n,2283.679295099999,2283.679295099999,2.0238446000003023,,,11,001,2024-06-18_15h17.02.710,robot_nback_sign,2022.2.5,60.0151118053778,
L_Base_Z_For,False,1,robot,1,False,False,robot_stimuli\L_Base_Z_For.mp4,11,,,,,,,,,0,138,138,138,,,,,,,,,,,,,2288.3876993999984,2289.4749403999995,,,,,,,2293.1133625,2293.1133625,2293.1133625,2293.1133625,2293.1133625,2293.1133625,2293.1133625,2293.1133625,None,None,None,,,,,,,,,,,2288.3876993999984,2288.3876993999984,None,,2289.4749403999995,2289.4749403999995,n,2288.3876993999984,2288.3876993999984,2.2518522999998822,,,11,001,2024-06-18_15h17.02.710,robot_nback_sign,2022.2.5,60.0151118053778,
L_Base_Y_Back,False,1,robot,1,False,False,robot_stimuli\L_Base_Y_Back.mp4,11,,,,,,,,,0,139,139,139,,,,,,,,,,,,,2293.1133625,2294.1911758999995,,,,,,,2297.7745674,2297.7745674,2297.7745674,2297.7745674,2297.7745674,2297.7745674,2297.7745674,2297.7745674,None,None,None,,,,,,,,,,,2293.1133625,2293.1133625,None,,2294.1911758999995,2294.1911758999995,n,2293.1133625,2293.1133625,2.3524025000006077,,,11,001,2024-06-18_15h17.02.710,robot_nback_sign,2022.2.5,60.0151118053778,
L_Base_Y_Back,True,1,robot,1,False,False,robot_stimuli\L_Base_Y_Back.mp4,11,,,,,,,,,0,140,140,140,,,,,,,,,,,,,2297.7745674,2298.854443999997,,,,,,,2302.4281800999997,2302.4281800999997,2302.4281800999997,2302.4281800999997,2302.4281800999997,2302.4281800999997,2302.4281800999997,2302.4281800999997,None,None,None,,,,,,,,,,,2297.7745674,2297.7745674,None,,2298.854443999997,2298.854443999997,c,2297.7745674,2297.7745674,2.3049655000031635,,,11,001,2024-06-18_15h17.02.710,robot_nback_sign,2022.2.5,60.0151118053778,
R_Base_Y_For,False,1,robot,1,False,False,robot_stimuli\R_Base_Y_For.mp4,11,,,,,,,,,0,141,141,141,,,,,,,,,,,,,2302.4281800999997,2303.508256699999,,,,,,,2307.1473033,2307.1473033,2307.1473033,2307.1473033,2307.1473033,2307.1473033,2307.1473033,2307.1473033,None,None,None,,,,,,,,,,,2302.4281800999997,2302.4281800999997,None,,2303.508256699999,2303.508256699999,n,2302.4281800999997,2302.4281800999997,2.3622690999982296,,,11,001,2024-06-18_15h17.02.710,robot_nback_sign,2022.2.5,60.0151118053778,
R_Base_Y_For,True,1,robot,1,False,False,robot_stimuli\R_Base_Y_For.mp4,11,,,,,,,,,0,142,142,142,,,,,,,,,,,,,2307.1473033,2308.2212610999995,,,,,,,2311.8591089,2311.8591089,2311.8591089,2311.8591089,2311.8591089,2311.8591089,2311.8591089,2311.8591089,None,None,None,,,,,,,,,,,2307.1473033,2307.1473033,None,,2308.2212610999995,2308.2212610999995,c,2307.1473033,2307.1473033,1.9696186000001035,,,11,001,2024-06-18_15h17.02.710,robot_nback_sign,2022.2.5,60.0151118053778,
R_Torso_X_Back,False,1,robot,1,False,False,robot_stimuli\R_Torso_X_Back.mp4,11,,,,,,,,,0,143,143,143,,,,,,,,,,,,,2311.8591089,2312.9501913999993,,,,,,,2316.5893608999977,2316.5893608999977,2316.5893608999977,2316.5893608999977,2316.5893608999977,2316.5893608999977,2316.5893608999977,2316.5893608999977,None,None,None,,,,,,,,,,,2311.8591089,2311.8591089,None,,2312.9501913999993,2312.9501913999993,n,2311.8591089,2311.8591089,2.7290706999992835,,,11,001,2024-06-18_15h17.02.710,robot_nback_sign,2022.2.5,60.0151118053778,
L_Head_X_For,False,1,robot,1,False,False,robot_stimuli\L_Head_X_For.mp4,11,,,,,,,,,0,144,144,144,,,,,,,,,,,,,2316.5893608999977,2317.6753524999986,,,,,,,2321.2484756999984,2321.2484756999984,2321.2484756999984,2321.2484756999984,2321.2484756999984,2321.2484756999984,2321.2484756999984,2321.2484756999984,None,None,None,,,,,,,,,,,2316.5893608999977,2316.5893608999977,None,,2317.6753524999986,2317.6753524999986,n,2316.5893608999977,2316.5893608999977,2.4824079999998503,,,11,001,2024-06-18_15h17.02.710,robot_nback_sign,2022.2.5,60.0151118053778,
