sequence,is_target,condition,stimuli,block,is_block_beginning,is_block_ending,fname,subject,retraining.thisRepN,retraining.thisTrialN,retraining.thisN,retraining.thisIndex,training.thisRepN,training.thisTrialN,training.thisN,training.thisIndex,trials.thisRepN,trials.thisTrialN,trials.thisN,trials.thisIndex,langage_text.started,langage_key.started,langage_key.keys,langage_key.rt,intro_text.started,intro_key.started,intro_key.keys,intro_key.rt,training_robot_intro_text.started,training_robot_intro_key.started,training_robot_intro_key.keys,training_robot_intro_key.rt,cross.started,cross.stopped,training_letter.started,training_robot_key.started,training_robot_question.started,training_robot_keys.started,training_letter.stopped,training_robot_key.keys,RSME_labels.started,RSME_labels.stopped,RSME_ticks.started,RSME_ticks.stopped,RSME_text.started,RSME_text.stopped,RSME_key.started,RSME_key.stopped,RSME_ticks.response,RSME_ticks.rt,RSME_key.keys,training_robot_intro_text.stopped,training_robot_intro_key.stopped,training_robot_key.rt,RSME_key.rt,training_robot_movie.started,experiment_beginning_text.started,experiment_beginning_keys.started,experiment_beginning_key.started,experiment_beginning_key.keys,experiment_beginning_key.rt,block_intro_text.started,block_intro_key.started,block_intro_key.keys,block_intro_key.rt,letter.started,key.started,letter.stopped,key.keys,block_intro_text.stopped,block_intro_key.stopped,key.rt,movie.started,participant,session,date,expName,psychopyVersion,frameRate,
,,,,,,,,,,,,,,,,,,,,,14.007684099997277,14.007684099997277,f,1360.3950239999976,,,,,,,,,,,,,,,,,,,,,,,,,,,,,,,,,,,,,,,,,,,,,,,,,,2,001,2024-06-04_13h44.20.028,robot_nback_sign,2022.2.5,60.02581109790168,
,,,,,,,,,,,,,,,,,,,,,,,,,1374.4667628999887,1374.4667628999887,space,98.7844741000008,,,,,,,,,,,,,,,,,,,,,,,,,,,,,,,,,,,,,,,,,,,,,,2,001,2024-06-04_13h44.20.028,robot_nback_sign,2022.2.5,60.02581109790168,
R,False,1,letter,1,True,False,robot_stimuli\\filler.mp4,2,0,0,0,0,0,0,0,0,,,,,,,,,,,,,1473.2839265999937,1473.2839265999937,space,5.416169799995259,1478.7199092999945,1480.0857023999997,1480.0857023999997,1480.0857023999997,1480.0857023999997,1480.0857023999997,1482.3907285999885,None,1482.3907285999885,1482.3907285999885,1482.3907285999885,1482.3907285999885,1482.3907285999885,1482.3907285999885,1482.3907285999885,1482.3907285999885,None,None,None,,,,,,,,,,,,,,,,,,,,,,,2,001,2024-06-04_13h44.20.028,robot_nback_sign,2022.2.5,60.02581109790168,
B,False,1,letter,1,False,False,robot_stimuli\\filler.mp4,2,0,0,0,0,0,1,1,1,,,,,,,,,,,,,1482.3907285999885,1482.3907285999885,None,,1482.3907285999885,,1483.46999089999,1483.46999089999,1483.46999089999,1483.46999089999,1485.5027983999898,None,1485.5027983999898,1485.5027983999898,1485.5027983999898,1485.5027983999898,1485.5027983999898,1485.5027983999898,1485.5027983999898,1485.5027983999898,None,None,None,1482.3907285999885,1482.3907285999885,,,,,,,,,,,,,,,,,,,,,2,001,2024-06-04_13h44.20.028,robot_nback_sign,2022.2.5,60.02581109790168,
M,False,1,letter,1,False,False,robot_stimuli\\filler.mp4,2,0,0,0,0,0,2,2,2,,,,,,,,,,,,,1485.5027983999898,1485.5027983999898,None,,1485.5027983999898,1486.5718605999864,1486.5718605999864,1486.5718605999864,1486.5718605999864,1486.5718605999864,1488.801105199993,n,1488.801105199993,1488.801105199993,1488.801105199993,1488.801105199993,1488.801105199993,1488.801105199993,1488.801105199993,1488.801105199993,None,None,None,1485.5027983999898,1485.5027983999898,1.8146658000041498,,,,,,,,,,,,,,,,,,,,2,001,2024-06-04_13h44.20.028,robot_nback_sign,2022.2.5,60.02581109790168,
M,True,1,letter,1,False,False,robot_stimuli\\filler.mp4,2,0,0,0,0,0,3,3,3,,,,,,,,,,,,,1488.801105199993,1488.801105199993,None,,1488.801105199993,1489.8673347000004,1489.8673347000004,1489.8673347000004,1489.8673347000004,1489.8673347000004,1491.8963162999862,c,1491.8963162999862,1491.8963162999862,1491.8963162999862,1491.8963162999862,1491.8963162999862,1491.8963162999862,1491.8963162999862,1491.8963162999862,None,None,None,1488.801105199993,1488.801105199993,1.4707656000100542,,,,,,,,,,,,,,,,,,,,2,001,2024-06-04_13h44.20.028,robot_nback_sign,2022.2.5,60.02581109790168,
T,False,1,letter,1,False,False,robot_stimuli\\filler.mp4,2,0,0,0,0,0,4,4,4,,,,,,,,,,,,,1491.8963162999862,1491.8963162999862,None,,1491.8963162999862,1492.973840199993,1492.973840199993,1492.973840199993,1492.973840199993,1492.973840199993,1495.2082523999998,n,1495.2082523999998,1495.2082523999998,1495.2082523999998,1495.2082523999998,1495.2082523999998,1495.2082523999998,1495.2082523999998,1495.2082523999998,None,None,None,1491.8963162999862,1491.8963162999862,1.197948400003952,,,,,,,,,,,,,,,,,,,,2,001,2024-06-04_13h44.20.028,robot_nback_sign,2022.2.5,60.02581109790168,
T,True,1,letter,1,False,True,robot_stimuli\\filler.mp4,2,0,0,0,0,0,5,5,5,,,,,,,,,,,,,1495.2082523999998,1495.2082523999998,None,,1495.2082523999998,1496.2830044000002,1496.2830044000002,1496.2830044000002,1496.2830044000002,1496.2830044000002,1498.3777134999982,c,1498.3777134999982,1505.7609116999956,1498.3777134999982,1505.7609116999956,1498.3777134999982,1505.7609116999956,1498.3777134999982,1505.7609116999956,26.913580246913572,6.727024100007839,space,1495.2082523999998,1495.2082523999998,0.7128145000024233,7.329323199999635,,,,,,,,,,,,,,,,,,,2,001,2024-06-04_13h44.20.028,robot_nback_sign,2022.2.5,60.02581109790168,
K,False,2,letter,1,True,False,robot_stimuli\\filler.mp4,2,0,0,0,0,0,6,6,6,,,,,,,,,,,,,1505.7609116999956,1505.7609116999956,space,9.977229199997964,1515.7700490999996,1516.8436242999887,1516.8436242999887,1516.8436242999887,1516.8436242999887,1516.8436242999887,1519.0715534999908,n,1519.0715534999908,1519.0715534999908,1519.0715534999908,1519.0715534999908,1519.0715534999908,1519.0715534999908,1519.0715534999908,1519.0715534999908,None,None,None,,,1.1916128000011668,,,,,,,,,,,,,,,,,,,,2,001,2024-06-04_13h44.20.028,robot_nback_sign,2022.2.5,60.02581109790168,
H,False,2,letter,1,False,False,robot_stimuli\\filler.mp4,2,0,0,0,0,0,7,7,7,,,,,,,,,,,,,1519.0715534999908,1519.0715534999908,None,,1519.0715534999908,,1520.1570634999953,1520.1570634999953,1520.1570634999953,1520.1570634999953,1522.3930674000003,n,1522.3930674000003,1522.3930674000003,1522.3930674000003,1522.3930674000003,1522.3930674000003,1522.3930674000003,1522.3930674000003,1522.3930674000003,None,None,None,1519.0715534999908,1519.0715534999908,1.3811082000029273,,,,,,,,,,,,,,,,,,,,2,001,2024-06-04_13h44.20.028,robot_nback_sign,2022.2.5,60.02581109790168,
B,False,2,letter,1,False,False,robot_stimuli\\filler.mp4,2,0,0,0,0,0,8,8,8,,,,,,,,,,,,,1522.3930674000003,1522.3930674000003,None,,1522.3930674000003,1523.4685332999943,1523.4685332999943,1523.4685332999943,1523.4685332999943,1523.4685332999943,1525.501735999991,n,1525.501735999991,1525.501735999991,1525.501735999991,1525.501735999991,1525.501735999991,1525.501735999991,1525.501735999991,1525.501735999991,None,None,None,1522.3930674000003,1522.3930674000003,0.8535485000029439,,,,,,,,,,,,,,,,,,,,2,001,2024-06-04_13h44.20.028,robot_nback_sign,2022.2.5,60.02581109790168,
H,True,2,letter,1,False,False,robot_stimuli\\filler.mp4,2,0,0,0,0,0,9,9,9,,,,,,,,,,,,,1525.501735999991,1525.501735999991,None,,1525.501735999991,1526.573075799999,1526.573075799999,1526.573075799999,1526.573075799999,1526.573075799999,1528.8039187999966,c,1528.8039187999966,1528.8039187999966,1528.8039187999966,1528.8039187999966,1528.8039187999966,1528.8039187999966,1528.8039187999966,1528.8039187999966,None,None,None,1525.501735999991,1525.501735999991,0.8770931000035489,,,,,,,,,,,,,,,,,,,,2,001,2024-06-04_13h44.20.028,robot_nback_sign,2022.2.5,60.02581109790168,
B,True,2,letter,1,False,False,robot_stimuli\\filler.mp4,2,0,0,0,0,0,10,10,10,,,,,,,,,,,,,1528.8039187999966,1528.8039187999966,None,,1528.8039187999966,1529.868806899991,1529.868806899991,1529.868806899991,1529.868806899991,1529.868806899991,1531.8969530999893,c,1531.8969530999893,1531.8969530999893,1531.8969530999893,1531.8969530999893,1531.8969530999893,1531.8969530999893,1531.8969530999893,1531.8969530999893,None,None,None,1528.8039187999966,1528.8039187999966,0.9091669000044931,,,,,,,,,,,,,,,,,,,,2,001,2024-06-04_13h44.20.028,robot_nback_sign,2022.2.5,60.02581109790168,
V,False,2,letter,1,False,True,robot_stimuli\\filler.mp4,2,0,0,0,0,0,11,11,11,,,,,,,,,,,,,1531.8969530999893,1531.8969530999893,None,,1531.8969530999893,1532.9725252999924,1532.9725252999924,1532.9725252999924,1532.9725252999924,1532.9725252999924,1535.2353032999963,n,1535.2353032999963,1547.840784999993,1535.2353032999963,1547.840784999993,1535.2353032999963,1547.840784999993,1535.2353032999963,1547.840784999993,28.76543209876543,11.832773599991924,space,1531.8969530999893,1531.8969530999893,0.7745911000092747,12.550713599994197,,,,,,,,,,,,,,,,,,,2,001,2024-06-04_13h44.20.028,robot_nback_sign,2022.2.5,60.02581109790168,
X,False,3,letter,1,True,False,robot_stimuli\\filler.mp4,2,0,0,0,0,0,12,12,12,,,,,,,,,,,,,1547.840784999993,1547.840784999993,space,5.714011600008234,1553.5869157999987,1554.6578063999914,1554.6578063999914,1554.6578063999914,1554.6578063999914,1554.6578063999914,1556.88331189999,n,1556.88331189999,1556.88331189999,1556.88331189999,1556.88331189999,1556.88331189999,1556.88331189999,1556.88331189999,1556.88331189999,None,None,None,,,0.8808866000035778,,,,,,,,,,,,,,,,,,,,2,001,2024-06-04_13h44.20.028,robot_nback_sign,2022.2.5,60.02581109790168,
L,False,3,letter,1,False,False,robot_stimuli\\filler.mp4,2,0,0,0,0,0,13,13,13,,,,,,,,,,,,,1556.88331189999,1556.88331189999,None,,1556.88331189999,1557.9549119999865,1557.9549119999865,1557.9549119999865,1557.9549119999865,1557.9549119999865,1560.1910859999916,n,1560.1910859999916,1560.1910859999916,1560.1910859999916,1560.1910859999916,1560.1910859999916,1560.1910859999916,1560.1910859999916,1560.1910859999916,None,None,None,1556.88331189999,1556.88331189999,0.8403535000106785,,,,,,,,,,,,,,,,,,,,2,001,2024-06-04_13h44.20.028,robot_nback_sign,2022.2.5,60.02581109790168,
G,False,3,letter,1,False,False,robot_stimuli\\filler.mp4,2,0,0,0,0,0,14,14,14,,,,,,,,,,,,,1560.1910859999916,1560.1910859999916,None,,1560.1910859999916,1561.2706223999994,1561.2706223999994,1561.2706223999994,1561.2706223999994,1561.2706223999994,1563.302125199989,n,1563.302125199989,1563.302125199989,1563.302125199989,1563.302125199989,1563.302125199989,1563.302125199989,1563.302125199989,1563.302125199989,None,None,None,1560.1910859999916,1560.1910859999916,1.2368305999989389,,,,,,,,,,,,,,,,,,,,2,001,2024-06-04_13h44.20.028,robot_nback_sign,2022.2.5,60.02581109790168,
B,False,3,letter,1,False,False,robot_stimuli\\filler.mp4,2,0,0,0,0,0,15,15,15,,,,,,,,,,,,,1563.302125199989,1563.302125199989,None,,1563.302125199989,1564.3685647999955,1564.3685647999955,1564.3685647999955,1564.3685647999955,1564.3685647999955,1566.3960593999946,n,1566.3960593999946,1566.3960593999946,1566.3960593999946,1566.3960593999946,1566.3960593999946,1566.3960593999946,1566.3960593999946,1566.3960593999946,None,None,None,1563.302125199989,1563.302125199989,0.8261856000026455,,,,,,,,,,,,,,,,,,,,2,001,2024-06-04_13h44.20.028,robot_nback_sign,2022.2.5,60.02581109790168,
L,True,3,letter,1,False,False,robot_stimuli\\filler.mp4,2,0,0,0,0,0,16,16,16,,,,,,,,,,,,,1566.3960593999946,1566.3960593999946,None,,1566.3960593999946,1567.4684306999989,1567.4684306999989,1567.4684306999989,1567.4684306999989,1567.4684306999989,1569.5003598999901,None,1569.5003598999901,1569.5003598999901,1569.5003598999901,1569.5003598999901,1569.5003598999901,1569.5003598999901,1569.5003598999901,1569.5003598999901,None,None,None,1566.3960593999946,1566.3960593999946,,,,,,,,,,,,,,,,,,,,,2,001,2024-06-04_13h44.20.028,robot_nback_sign,2022.2.5,60.02581109790168,
G,True,3,letter,1,False,True,robot_stimuli\\filler.mp4,2,0,0,0,0,0,17,17,17,,,,,,,,,,,,,1569.5003598999901,1569.5003598999901,None,,1569.5003598999901,1570.572592299999,1570.572592299999,1570.572592299999,1570.572592299999,1570.572592299999,1572.8377398999874,c,1572.8377398999874,1594.9920746999996,1572.8377398999874,1594.9920746999996,1572.8377398999874,1594.9920746999996,1572.8377398999874,1594.9920746999996,41.7283950617284,2.456479799991939,space,1569.5003598999901,1569.5003598999901,1.6225557000143453,22.101196000003256,,,,,,,,,,,,,,,,,,,2,001,2024-06-04_13h44.20.028,robot_nback_sign,2022.2.5,60.02581109790168,
L_Base_Y_For,False,1,robot,2,True,False,robot_stimuli\L_Base_Y_For.mp4,2,0,0,0,0,0,18,18,18,,,,,,,,,,,,,1594.9920746999996,1594.9920746999996,space,2.227387200007797,1597.2371184999938,1598.35640959999,,1598.35640959999,1598.35640959999,1598.35640959999,,None,1601.8885905999923,1601.8885905999923,1601.8885905999923,1601.8885905999923,1601.8885905999923,1601.8885905999923,1601.8885905999923,1601.8885905999923,None,None,None,,,,,1598.35640959999,,,,,,,,,,,,,,,,,,2,001,2024-06-04_13h44.20.028,robot_nback_sign,2022.2.5,60.02581109790168,
L_Base_Z_Back,False,1,robot,2,False,False,robot_stimuli\L_Base_Z_Back.mp4,2,0,0,0,0,0,19,19,19,,,,,,,,,,,,,1601.8885905999923,1601.8885905999923,None,,1601.8885905999923,,,1603.0054498999962,1603.0054498999962,1603.0054498999962,,n,1606.6508380999876,1606.6508380999876,1606.6508380999876,1606.6508380999876,1606.6508380999876,1606.6508380999876,1606.6508380999876,1606.6508380999876,None,None,None,1601.8885905999923,1601.8885905999923,3.2144440000120085,,1603.0054498999962,,,,,,,,,,,,,,,,,,2,001,2024-06-04_13h44.20.028,robot_nback_sign,2022.2.5,60.02581109790168,
R_Arm_X_For,False,1,robot,2,False,False,robot_stimuli\R_Arm_X_For.mp4,2,0,0,0,0,0,20,20,20,,,,,,,,,,,,,1606.6508380999876,1606.6508380999876,None,,1606.6508380999876,1607.7536325999972,,1607.7536325999972,1607.7536325999972,1607.7536325999972,,n,1611.3989227999991,1611.3989227999991,1611.3989227999991,1611.3989227999991,1611.3989227999991,1611.3989227999991,1611.3989227999991,1611.3989227999991,None,None,None,1606.6508380999876,1606.6508380999876,1.872799099990516,,1607.7536325999972,,,,,,,,,,,,,,,,,,2,001,2024-06-04_13h44.20.028,robot_nback_sign,2022.2.5,60.02581109790168,
R_Arm_X_For,True,1,robot,2,False,False,robot_stimuli\R_Arm_X_For.mp4,2,0,0,0,0,0,21,21,21,,,,,,,,,,,,,1611.3989227999991,1611.3989227999991,None,,1611.3989227999991,1612.4931645999895,,1612.4931645999895,1612.4931645999895,1612.4931645999895,,c,1616.1419976999896,1616.1419976999896,1616.1419976999896,1616.1419976999896,1616.1419976999896,1616.1419976999896,1616.1419976999896,1616.1419976999896,None,None,None,1611.3989227999991,1611.3989227999991,2.470277900007204,,1612.4931645999895,,,,,,,,,,,,,,,,,,2,001,2024-06-04_13h44.20.028,robot_nback_sign,2022.2.5,60.02581109790168,
R_Arm_X_For,True,1,robot,2,False,False,robot_stimuli\R_Arm_X_For.mp4,2,0,0,0,0,0,22,22,22,,,,,,,,,,,,,1616.1419976999896,1616.1419976999896,None,,1616.1419976999896,1617.24914,,1617.24914,1617.24914,1617.24914,,c,1620.8814339999954,1620.8814339999954,1620.8814339999954,1620.8814339999954,1620.8814339999954,1620.8814339999954,1620.8814339999954,1620.8814339999954,None,None,None,1616.1419976999896,1616.1419976999896,2.8190125999972224,,1617.24914,,,,,,,,,,,,,,,,,,2,001,2024-06-04_13h44.20.028,robot_nback_sign,2022.2.5,60.02581109790168,
R_Head_Z_For,False,1,robot,2,False,True,robot_stimuli\R_Head_Z_For.mp4,2,0,0,0,0,0,23,23,23,,,,,,,,,,,,,1620.8814339999954,1620.8814339999954,None,,1620.8814339999954,1621.9877737999923,,1621.9877737999923,1621.9877737999923,1621.9877737999923,,n,1625.6615076999879,1629.3052303000004,1625.6615076999879,1629.3052303000004,1625.6615076999879,1629.3052303000004,1625.6615076999879,1629.3052303000004,5.92592592592592,2.3937232000025688,space,1620.8814339999954,1620.8814339999954,1.5834296999964863,3.580941800013534,1621.9877737999923,,,,,,,,,,,,,,,,,,2,001,2024-06-04_13h44.20.028,robot_nback_sign,2022.2.5,60.02581109790168,
R_Torso_X_For,False,2,robot,2,True,False,robot_stimuli\R_Torso_X_For.mp4,2,0,0,0,0,0,24,24,24,,,,,,,,,,,,,1629.3052303000004,1629.3052303000004,space,8.217736699996749,1637.5537265999883,1638.6536564999988,,1638.6536564999988,1638.6536564999988,1638.6536564999988,,n,1642.3044583999872,1642.3044583999872,1642.3044583999872,1642.3044583999872,1642.3044583999872,1642.3044583999872,1642.3044583999872,1642.3044583999872,None,None,None,,,3.4860459999908926,,1638.6536564999988,,,,,,,,,,,,,,,,,,2,001,2024-06-04_13h44.20.028,robot_nback_sign,2022.2.5,60.02581109790168,
L_Torso_X_For,False,2,robot,2,False,False,robot_stimuli\L_Torso_X_For.mp4,2,0,0,0,0,0,25,25,25,,,,,,,,,,,,,1642.3044583999872,1642.3044583999872,None,,1642.3044583999872,1643.3986158999905,,1643.3986158999905,1643.3986158999905,1643.3986158999905,,n,1647.0311375999881,1647.0311375999881,1647.0311375999881,1647.0311375999881,1647.0311375999881,1647.0311375999881,1647.0311375999881,1647.0311375999881,None,None,None,1642.3044583999872,1642.3044583999872,2.5970656999998027,,1643.3986158999905,,,,,,,,,,,,,,,,,,2,001,2024-06-04_13h44.20.028,robot_nback_sign,2022.2.5,60.02581109790168,
R_Torso_X_Back,False,2,robot,2,False,False,robot_stimuli\R_Torso_X_Back.mp4,2,0,0,0,0,0,26,26,26,,,,,,,,,,,,,1647.0311375999881,1647.0311375999881,None,,1647.0311375999881,1648.1346936999907,,1648.1346936999907,1648.1346936999907,1648.1346936999907,,c,1651.7872721999884,1651.7872721999884,1651.7872721999884,1651.7872721999884,1651.7872721999884,1651.7872721999884,1651.7872721999884,1651.7872721999884,None,None,None,1647.0311375999881,1647.0311375999881,3.5971431999932975,,1648.1346936999907,,,,,,,,,,,,,,,,,,2,001,2024-06-04_13h44.20.028,robot_nback_sign,2022.2.5,60.02581109790168,
L_Torso_X_For,True,2,robot,2,False,False,robot_stimuli\L_Torso_X_For.mp4,2,0,0,0,0,0,27,27,27,,,,,,,,,,,,,1651.7872721999884,1651.7872721999884,None,,1651.7872721999884,1652.8716606999951,,1652.8716606999951,1652.8716606999951,1652.8716606999951,,c,1656.5114459999895,1656.5114459999895,1656.5114459999895,1656.5114459999895,1656.5114459999895,1656.5114459999895,1656.5114459999895,1656.5114459999895,None,None,None,1651.7872721999884,1651.7872721999884,2.8590861999982735,,1652.8716606999951,,,,,,,,,,,,,,,,,,2,001,2024-06-04_13h44.20.028,robot_nback_sign,2022.2.5,60.02581109790168,
L_Arm_Y_For,False,2,robot,2,False,False,robot_stimuli\L_Arm_Y_For.mp4,2,0,0,0,0,0,28,28,28,,,,,,,,,,,,,1656.5114459999895,1656.5114459999895,None,,1656.5114459999895,1657.6032512999955,,1657.6032512999955,1657.6032512999955,1657.6032512999955,,n,1661.2545906999876,1661.2545906999876,1661.2545906999876,1661.2545906999876,1661.2545906999876,1661.2545906999876,1661.2545906999876,1661.2545906999876,None,None,None,1656.5114459999895,1656.5114459999895,1.8639316999906441,,1657.6032512999955,,,,,,,,,,,,,,,,,,2,001,2024-06-04_13h44.20.028,robot_nback_sign,2022.2.5,60.02581109790168,
L_Torso_X_For,True,2,robot,2,False,True,robot_stimuli\L_Torso_X_For.mp4,2,0,0,0,0,0,29,29,29,,,,,,,,,,,,,1661.2545906999876,1661.2545906999876,None,,1661.2545906999876,1662.3469469999982,,1662.3469469999982,1662.3469469999982,1662.3469469999982,,n,1666.0168508999923,1669.8894843999879,1666.0168508999923,1669.8894843999879,1666.0168508999923,1669.8894843999879,1666.0168508999923,1669.8894843999879,26.759259259259256,2.615931799999089,space,1661.2545906999876,1661.2545906999876,3.087930599998799,3.809508899998036,1662.3469469999982,,,,,,,,,,,,,,,,,,2,001,2024-06-04_13h44.20.028,robot_nback_sign,2022.2.5,60.02581109790168,
R_Torso_Z_For,False,3,robot,2,True,False,robot_stimuli\R_Torso_Z_For.mp4,2,0,0,0,0,0,30,30,30,,,,,,,,,,,,,1669.8894843999879,1669.8894843999879,space,6.265784299990628,1676.1871489999903,1677.2738130999933,,1677.2738130999933,1677.2738130999933,1677.2738130999933,,None,1680.9254144999868,1680.9254144999868,1680.9254144999868,1680.9254144999868,1680.9254144999868,1680.9254144999868,1680.9254144999868,1680.9254144999868,None,None,None,,,,,1677.2738130999933,,,,,,,,,,,,,,,,,,2,001,2024-06-04_13h44.20.028,robot_nback_sign,2022.2.5,60.02581109790168,
L_Torso_X_Back,False,3,robot,2,False,False,robot_stimuli\L_Torso_X_Back.mp4,2,0,0,0,0,0,31,31,31,,,,,,,,,,,,,1680.9254144999868,1680.9254144999868,None,,1680.9254144999868,1682.0314035999909,,1682.0314035999909,1682.0314035999909,1682.0314035999909,,n,1685.6736187999923,1685.6736187999923,1685.6736187999923,1685.6736187999923,1685.6736187999923,1685.6736187999923,1685.6736187999923,1685.6736187999923,None,None,None,1680.9254144999868,1680.9254144999868,3.1396482000127435,,1682.0314035999909,,,,,,,,,,,,,,,,,,2,001,2024-06-04_13h44.20.028,robot_nback_sign,2022.2.5,60.02581109790168,
R_Base_X_Back,False,3,robot,2,False,False,robot_stimuli\R_Base_X_Back.mp4,2,0,0,0,0,0,32,32,32,,,,,,,,,,,,,1685.6736187999923,1685.6736187999923,None,,1685.6736187999923,,,1686.7796284999931,1686.7796284999931,1686.7796284999931,,n,1690.4224898999964,1690.4224898999964,1690.4224898999964,1690.4224898999964,1690.4224898999964,1690.4224898999964,1690.4224898999964,1690.4224898999964,None,None,None,1685.6736187999923,1685.6736187999923,3.1036979000055,,1686.7796284999931,,,,,,,,,,,,,,,,,,2,001,2024-06-04_13h44.20.028,robot_nback_sign,2022.2.5,60.02581109790168,
R_Torso_Z_For,True,3,robot,2,False,False,robot_stimuli\R_Torso_Z_For.mp4,2,0,0,0,0,0,33,33,33,,,,,,,,,,,,,1690.4224898999964,1690.4224898999964,None,,1690.4224898999964,,,1691.5314388999977,1691.5314388999977,1691.5314388999977,,c,1695.1786279999942,1695.1786279999942,1695.1786279999942,1695.1786279999942,1695.1786279999942,1695.1786279999942,1695.1786279999942,1695.1786279999942,None,None,None,1690.4224898999964,1690.4224898999964,1.9917087000067113,,1691.5314388999977,,,,,,,,,,,,,,,,,,2,001,2024-06-04_13h44.20.028,robot_nback_sign,2022.2.5,60.02581109790168,
L_Torso_X_Back,True,3,robot,2,False,False,robot_stimuli\L_Torso_X_Back.mp4,2,0,0,0,0,0,34,34,34,,,,,,,,,,,,,1695.1786279999942,1695.1786279999942,None,,1695.1786279999942,1696.2815083999885,,1696.2815083999885,1696.2815083999885,1696.2815083999885,,c,1699.9241613999911,1699.9241613999911,1699.9241613999911,1699.9241613999911,1699.9241613999911,1699.9241613999911,1699.9241613999911,1699.9241613999911,None,None,None,1695.1786279999942,1695.1786279999942,2.617789800002356,,1696.2815083999885,,,,,,,,,,,,,,,,,,2,001,2024-06-04_13h44.20.028,robot_nback_sign,2022.2.5,60.02581109790168,
R_Head_Z_For,False,3,robot,2,False,True,robot_stimuli\R_Head_Z_For.mp4,2,0,0,0,0,0,35,35,35,,,,,,,,,,,,,1699.9241613999911,1699.9241613999911,None,,1699.9241613999911,1701.0291612,,1701.0291612,1701.0291612,1701.0291612,,n,1704.7003425000003,1707.5725401999953,1704.7003425000003,1707.5725401999953,1704.7003425000003,1707.5725401999953,1704.7003425000003,1707.5725401999953,41.57407407407407,2.3420699999987846,space,1699.9241613999911,1699.9241613999911,2.190355800004909,2.8227530000003753,1701.0291612,,,,,,,,,,,,,,,,,,2,001,2024-06-04_13h44.20.028,robot_nback_sign,2022.2.5,60.02581109790168,
,,,,,,,,,0,0,0,0,,,,,,,,,,,,,,,,,,,,,,,,,,,,,,,,,,,,,,,,,,,,,1707.5725401999953,1707.5725401999953,1707.5725401999953,c,7.99869760000729,,,,,,,,,,,,,2,001,2024-06-04_13h44.20.028,robot_nback_sign,2022.2.5,60.02581109790168,
G,False,1,letter,1,True,False,robot_stimuli\\filler.mp4,2,,,,,,,,,0,0,0,0,,,,,,,,,,,,,1723.3872033999942,1724.4430905999907,,,,,,,1726.6710096999886,1726.6710096999886,1726.6710096999886,1726.6710096999886,1726.6710096999886,1726.6710096999886,1726.6710096999886,1726.6710096999886,None,None,None,,,,,,,,,,,1715.643034099994,1715.643034099994,space,7.720129900000757,1724.4430905999907,1724.4430905999907,1726.6710096999886,None,,,,,2,001,2024-06-04_13h44.20.028,robot_nback_sign,2022.2.5,60.02581109790168,
G,True,1,letter,1,False,False,robot_stimuli\\filler.mp4,2,,,,,,,,,0,1,1,1,,,,,,,,,,,,,1726.6710096999886,1727.723462599999,,,,,,,1729.9574432999943,1729.9574432999943,1729.9574432999943,1729.9574432999943,1729.9574432999943,1729.9574432999943,1729.9574432999943,1729.9574432999943,None,None,None,,,,,,,,,,,1726.6710096999886,1726.6710096999886,None,,1727.723462599999,1727.723462599999,1729.9574432999943,c,1726.6710096999886,1726.6710096999886,1.0561263999989023,,2,001,2024-06-04_13h44.20.028,robot_nback_sign,2022.2.5,60.02581109790168,
C,False,1,letter,1,False,False,robot_stimuli\\filler.mp4,2,,,,,,,,,0,2,2,2,,,,,,,,,,,,,1729.9574432999943,1731.0255831999966,,,,,,,1733.0549428999948,1733.0549428999948,1733.0549428999948,1733.0549428999948,1733.0549428999948,1733.0549428999948,1733.0549428999948,1733.0549428999948,None,None,None,,,,,,,,,,,1729.9574432999943,1729.9574432999943,None,,1731.0255831999966,1731.0255831999966,1733.0549428999948,n,1729.9574432999943,1729.9574432999943,1.713794000010239,,2,001,2024-06-04_13h44.20.028,robot_nback_sign,2022.2.5,60.02581109790168,
C,True,1,letter,1,False,False,robot_stimuli\\filler.mp4,2,,,,,,,,,0,3,3,3,,,,,,,,,,,,,1733.0549428999948,,,,,,,,1736.351553799992,1736.351553799992,1736.351553799992,1736.351553799992,1736.351553799992,1736.351553799992,1736.351553799992,1736.351553799992,None,None,None,,,,,,,,,,,1733.0549428999948,1733.0549428999948,None,,1734.1222926999908,1734.1222926999908,1736.351553799992,c,1733.0549428999948,1733.0549428999948,0.809880200002226,,2,001,2024-06-04_13h44.20.028,robot_nback_sign,2022.2.5,60.02581109790168,
X,False,1,letter,1,False,False,robot_stimuli\\filler.mp4,2,,,,,,,,,0,4,4,4,,,,,,,,,,,,,1736.351553799992,1737.407196199987,,,,,,,1739.6423472999886,1739.6423472999886,1739.6423472999886,1739.6423472999886,1739.6423472999886,1739.6423472999886,1739.6423472999886,1739.6423472999886,None,None,None,,,,,,,,,,,1736.351553799992,1736.351553799992,None,,1737.407196199987,1737.407196199987,1739.6423472999886,n,1736.351553799992,1736.351553799992,0.7473384000040824,,2,001,2024-06-04_13h44.20.028,robot_nback_sign,2022.2.5,60.02581109790168,
W,False,1,letter,1,False,False,robot_stimuli\\filler.mp4,2,,,,,,,,,0,5,5,5,,,,,,,,,,,,,1739.6423472999886,1740.7111670999875,,,,,,,1742.735810099999,1742.735810099999,1742.735810099999,1742.735810099999,1742.735810099999,1742.735810099999,1742.735810099999,1742.735810099999,None,None,None,,,,,,,,,,,1739.6423472999886,1739.6423472999886,None,,1740.7111670999875,1740.7111670999875,1742.735810099999,c,1739.6423472999886,1739.6423472999886,0.4839110000029905,,2,001,2024-06-04_13h44.20.028,robot_nback_sign,2022.2.5,60.02581109790168,
P,False,1,letter,1,False,False,robot_stimuli\\filler.mp4,2,,,,,,,,,0,6,6,6,,,,,,,,,,,,,1742.735810099999,1743.7920834999968,,,,,,,1745.8268329999992,1745.8268329999992,1745.8268329999992,1745.8268329999992,1745.8268329999992,1745.8268329999992,1745.8268329999992,1745.8268329999992,None,None,None,,,,,,,,,,,1742.735810099999,1742.735810099999,None,,1743.7920834999968,1743.7920834999968,1745.8268329999992,n,1742.735810099999,1742.735810099999,0.9949859000043944,,2,001,2024-06-04_13h44.20.028,robot_nback_sign,2022.2.5,60.02581109790168,
Q,False,1,letter,1,False,False,robot_stimuli\\filler.mp4,2,,,,,,,,,0,7,7,7,,,,,,,,,,,,,1745.8268329999992,1746.9086203999905,,,,,,,1749.134492799989,1749.134492799989,1749.134492799989,1749.134492799989,1749.134492799989,1749.134492799989,1749.134492799989,1749.134492799989,None,None,None,,,,,,,,,,,1745.8268329999992,1745.8268329999992,None,,1746.9086203999905,1746.9086203999905,1749.134492799989,n,1745.8268329999992,1745.8268329999992,0.6463860000076238,,2,001,2024-06-04_13h44.20.028,robot_nback_sign,2022.2.5,60.02581109790168,
M,False,1,letter,1,False,False,robot_stimuli\\filler.mp4,2,,,,,,,,,0,8,8,8,,,,,,,,,,,,,1749.134492799989,1750.191383199999,,,,,,,1752.2140889000002,1752.2140889000002,1752.2140889000002,1752.2140889000002,1752.2140889000002,1752.2140889000002,1752.2140889000002,1752.2140889000002,None,None,None,,,,,,,,,,,1749.134492799989,1749.134492799989,None,,1750.191383199999,1750.191383199999,1752.2140889000002,n,1749.134492799989,1749.134492799989,0.6440748000022722,,2,001,2024-06-04_13h44.20.028,robot_nback_sign,2022.2.5,60.02581109790168,
Q,False,1,letter,1,False,False,robot_stimuli\\filler.mp4,2,,,,,,,,,0,9,9,9,,,,,,,,,,,,,1752.2140889000002,1753.273319,,,,,,,1755.500592899989,1755.500592899989,1755.500592899989,1755.500592899989,1755.500592899989,1755.500592899989,1755.500592899989,1755.500592899989,None,None,None,,,,,,,,,,,1752.2140889000002,1752.2140889000002,None,,1753.273319,1753.273319,1755.500592899989,n,1752.2140889000002,1752.2140889000002,0.9376655000087339,,2,001,2024-06-04_13h44.20.028,robot_nback_sign,2022.2.5,60.02581109790168,
Q,True,1,letter,1,False,False,robot_stimuli\\filler.mp4,2,,,,,,,,,0,10,10,10,,,,,,,,,,,,,1755.500592899989,1756.5562979999959,,,,,,,1758.7860870000004,1758.7860870000004,1758.7860870000004,1758.7860870000004,1758.7860870000004,1758.7860870000004,1758.7860870000004,1758.7860870000004,None,None,None,,,,,,,,,,,1755.500592899989,1755.500592899989,None,,1756.5562979999959,1756.5562979999959,1758.7860870000004,c,1755.500592899989,1755.500592899989,0.7040104000043357,,2,001,2024-06-04_13h44.20.028,robot_nback_sign,2022.2.5,60.02581109790168,
R,False,1,letter,1,False,False,robot_stimuli\\filler.mp4,2,,,,,,,,,0,11,11,11,,,,,,,,,,,,,1758.7860870000004,1759.8410635999899,,,,,,,1761.8735945999942,1761.8735945999942,1761.8735945999942,1761.8735945999942,1761.8735945999942,1761.8735945999942,1761.8735945999942,1761.8735945999942,None,None,None,,,,,,,,,,,1758.7860870000004,1758.7860870000004,None,,1759.8410635999899,1759.8410635999899,1761.8735945999942,n,1758.7860870000004,1758.7860870000004,0.5384019000048283,,2,001,2024-06-04_13h44.20.028,robot_nback_sign,2022.2.5,60.02581109790168,
F,False,1,letter,1,False,False,robot_stimuli\\filler.mp4,2,,,,,,,,,0,12,12,12,,,,,,,,,,,,,1761.8735945999942,,,,,,,,1764.9764508999942,1764.9764508999942,1764.9764508999942,1764.9764508999942,1764.9764508999942,1764.9764508999942,1764.9764508999942,1764.9764508999942,None,None,None,,,,,,,,,,,1761.8735945999942,1761.8735945999942,None,,1762.9500585999922,1762.9500585999922,1764.9764508999942,n,1761.8735945999942,1761.8735945999942,0.5257126999931643,,2,001,2024-06-04_13h44.20.028,robot_nback_sign,2022.2.5,60.02581109790168,
S,False,1,letter,1,False,False,robot_stimuli\\filler.mp4,2,,,,,,,,,0,13,13,13,,,,,,,,,,,,,1764.9764508999942,1766.0462197999877,,,,,,,1768.0713517999975,1768.0713517999975,1768.0713517999975,1768.0713517999975,1768.0713517999975,1768.0713517999975,1768.0713517999975,1768.0713517999975,None,None,None,,,,,,,,,,,1764.9764508999942,1764.9764508999942,None,,1766.0462197999877,1766.0462197999877,1768.0713517999975,n,1764.9764508999942,1764.9764508999942,0.48594250000314787,,2,001,2024-06-04_13h44.20.028,robot_nback_sign,2022.2.5,60.02581109790168,
M,False,1,letter,1,False,False,robot_stimuli\\filler.mp4,2,,,,,,,,,0,14,14,14,,,,,,,,,,,,,1768.0713517999975,1769.1247685999988,,,,,,,1771.149156799991,1771.149156799991,1771.149156799991,1771.149156799991,1771.149156799991,1771.149156799991,1771.149156799991,1771.149156799991,None,None,None,,,,,,,,,,,1768.0713517999975,1768.0713517999975,None,,1769.1247685999988,1769.1247685999988,1771.149156799991,n,1768.0713517999975,1768.0713517999975,0.8776609000051394,,2,001,2024-06-04_13h44.20.028,robot_nback_sign,2022.2.5,60.02581109790168,
B,False,1,letter,1,False,False,robot_stimuli\\filler.mp4,2,,,,,,,,,0,15,15,15,,,,,,,,,,,,,1771.149156799991,1772.2076627999922,,,,,,,1774.2341763999866,1774.2341763999866,1774.2341763999866,1774.2341763999866,1774.2341763999866,1774.2341763999866,1774.2341763999866,1774.2341763999866,None,None,None,,,,,,,,,,,1771.149156799991,1771.149156799991,None,,1772.2076627999922,1772.2076627999922,1774.2341763999866,n,1771.149156799991,1771.149156799991,0.5877273999940371,,2,001,2024-06-04_13h44.20.028,robot_nback_sign,2022.2.5,60.02581109790168,
G,False,1,letter,1,False,False,robot_stimuli\\filler.mp4,2,,,,,,,,,0,16,16,16,,,,,,,,,,,,,1774.2341763999866,1775.2915879999928,,,,,,,1777.5181481999898,1777.5181481999898,1777.5181481999898,1777.5181481999898,1777.5181481999898,1777.5181481999898,1777.5181481999898,1777.5181481999898,None,None,None,,,,,,,,,,,1774.2341763999866,1774.2341763999866,None,,1775.2915879999928,1775.2915879999928,1777.5181481999898,n,1774.2341763999866,1774.2341763999866,0.7602844999928493,,2,001,2024-06-04_13h44.20.028,robot_nback_sign,2022.2.5,60.02581109790168,
W,False,1,letter,1,False,False,robot_stimuli\\filler.mp4,2,,,,,,,,,0,17,17,17,,,,,,,,,,,,,1777.5181481999898,1778.5760100999905,,,,,,,1780.8015385999897,1780.8015385999897,1780.8015385999897,1780.8015385999897,1780.8015385999897,1780.8015385999897,1780.8015385999897,1780.8015385999897,None,None,None,,,,,,,,,,,1777.5181481999898,1777.5181481999898,None,,1778.5760100999905,1778.5760100999905,1780.8015385999897,n,1777.5181481999898,1777.5181481999898,0.5955986000044504,,2,001,2024-06-04_13h44.20.028,robot_nback_sign,2022.2.5,60.02581109790168,
K,False,1,letter,1,False,False,robot_stimuli\\filler.mp4,2,,,,,,,,,0,18,18,18,,,,,,,,,,,,,1780.8015385999897,1781.8584577999864,,,,,,,1784.088762799991,1784.088762799991,1784.088762799991,1784.088762799991,1784.088762799991,1784.088762799991,1784.088762799991,1784.088762799991,None,None,None,,,,,,,,,,,1780.8015385999897,1780.8015385999897,None,,1781.8584577999864,1781.8584577999864,1784.088762799991,n,1780.8015385999897,1780.8015385999897,0.6335173999977997,,2,001,2024-06-04_13h44.20.028,robot_nback_sign,2022.2.5,60.02581109790168,
J,False,1,letter,1,False,False,robot_stimuli\\filler.mp4,2,,,,,,,,,0,19,19,19,,,,,,,,,,,,,1784.088762799991,,,,,,,,1787.2029822999903,1787.2029822999903,1787.2029822999903,1787.2029822999903,1787.2029822999903,1787.2029822999903,1787.2029822999903,1787.2029822999903,None,None,None,,,,,,,,,,,1784.088762799991,1784.088762799991,None,,1785.1705837999907,1785.1705837999907,1787.2029822999903,n,1784.088762799991,1784.088762799991,0.40077069999824744,,2,001,2024-06-04_13h44.20.028,robot_nback_sign,2022.2.5,60.02581109790168,
C,False,1,letter,1,False,False,robot_stimuli\\filler.mp4,2,,,,,,,,,0,20,20,20,,,,,,,,,,,,,1787.2029822999903,1788.2573749000003,,,,,,,1790.2860826999968,1790.2860826999968,1790.2860826999968,1790.2860826999968,1790.2860826999968,1790.2860826999968,1790.2860826999968,1790.2860826999968,None,None,None,,,,,,,,,,,1787.2029822999903,1787.2029822999903,None,,1788.2573749000003,1788.2573749000003,1790.2860826999968,n,1787.2029822999903,1787.2029822999903,0.529479499993613,,2,001,2024-06-04_13h44.20.028,robot_nback_sign,2022.2.5,60.02581109790168,
R,False,1,letter,1,False,False,robot_stimuli\\filler.mp4,2,,,,,,,,,0,21,21,21,,,,,,,,,,,,,1790.2860826999968,1791.3411097999924,,,,,,,1793.56587939999,1793.56587939999,1793.56587939999,1793.56587939999,1793.56587939999,1793.56587939999,1793.56587939999,1793.56587939999,None,None,None,,,,,,,,,,,1790.2860826999968,1790.2860826999968,None,,1791.3411097999924,1791.3411097999924,1793.56587939999,n,1790.2860826999968,1790.2860826999968,0.5591226999968057,,2,001,2024-06-04_13h44.20.028,robot_nback_sign,2022.2.5,60.02581109790168,
X,False,1,letter,1,False,False,robot_stimuli\\filler.mp4,2,,,,,,,,,0,22,22,22,,,,,,,,,,,,,1793.56587939999,1794.6244930999965,,,,,,,1796.6522426999873,1796.6522426999873,1796.6522426999873,1796.6522426999873,1796.6522426999873,1796.6522426999873,1796.6522426999873,1796.6522426999873,None,None,None,,,,,,,,,,,1793.56587939999,1793.56587939999,None,,1794.6244930999965,1794.6244930999965,1796.6522426999873,n,1793.56587939999,1793.56587939999,0.5141218999924604,,2,001,2024-06-04_13h44.20.028,robot_nback_sign,2022.2.5,60.02581109790168,
H,False,1,letter,1,False,False,robot_stimuli\\filler.mp4,2,,,,,,,,,0,23,23,23,,,,,,,,,,,,,1796.6522426999873,1797.7071330999897,,,,,,,1799.936670199997,1799.936670199997,1799.936670199997,1799.936670199997,1799.936670199997,1799.936670199997,1799.936670199997,1799.936670199997,None,None,None,,,,,,,,,,,1796.6522426999873,1796.6522426999873,None,,1797.7071330999897,1797.7071330999897,1799.936670199997,n,1796.6522426999873,1796.6522426999873,0.767978600008064,,2,001,2024-06-04_13h44.20.028,robot_nback_sign,2022.2.5,60.02581109790168,
K,False,1,letter,1,False,False,robot_stimuli\\filler.mp4,2,,,,,,,,,0,24,24,24,,,,,,,,,,,,,1799.936670199997,1800.9906222999998,,,,,,,1803.0233810999925,1803.0233810999925,1803.0233810999925,1803.0233810999925,1803.0233810999925,1803.0233810999925,1803.0233810999925,1803.0233810999925,None,None,None,,,,,,,,,,,1799.936670199997,1799.936670199997,None,,1800.9906222999998,1800.9906222999998,1803.0233810999925,n,1799.936670199997,1799.936670199997,0.8598397000023397,,2,001,2024-06-04_13h44.20.028,robot_nback_sign,2022.2.5,60.02581109790168,
V,False,1,letter,1,False,False,robot_stimuli\\filler.mp4,2,,,,,,,,,0,25,25,25,,,,,,,,,,,,,1803.0233810999925,,,,,,,,1806.3140516999993,1806.3140516999993,1806.3140516999993,1806.3140516999993,1806.3140516999993,1806.3140516999993,1806.3140516999993,1806.3140516999993,None,None,None,,,,,,,,,,,1803.0233810999925,1803.0233810999925,None,,1804.0905459999922,1804.0905459999922,1806.3140516999993,n,1803.0233810999925,1803.0233810999925,0.5685875000053784,,2,001,2024-06-04_13h44.20.028,robot_nback_sign,2022.2.5,60.02581109790168,
V,True,1,letter,1,False,False,robot_stimuli\\filler.mp4,2,,,,,,,,,0,26,26,26,,,,,,,,,,,,,1806.3140516999993,1807.3732254999923,,,,,,,1809.6083967999875,1809.6083967999875,1809.6083967999875,1809.6083967999875,1809.6083967999875,1809.6083967999875,1809.6083967999875,1809.6083967999875,None,None,None,,,,,,,,,,,1806.3140516999993,1806.3140516999993,None,,1807.3732254999923,1807.3732254999923,1809.6083967999875,n,1806.3140516999993,1806.3140516999993,0.8133121999999275,,2,001,2024-06-04_13h44.20.028,robot_nback_sign,2022.2.5,60.02581109790168,
V,True,1,letter,1,False,False,robot_stimuli\\filler.mp4,2,,,,,,,,,0,27,27,27,,,,,,,,,,,,,1809.6083967999875,1810.6717751999968,,,,,,,1812.6974080999935,1812.6974080999935,1812.6974080999935,1812.6974080999935,1812.6974080999935,1812.6974080999935,1812.6974080999935,1812.6974080999935,None,None,None,,,,,,,,,,,1809.6083967999875,1809.6083967999875,None,,1810.6717751999968,1810.6717751999968,1812.6974080999935,c,1809.6083967999875,1809.6083967999875,0.660633699997561,,2,001,2024-06-04_13h44.20.028,robot_nback_sign,2022.2.5,60.02581109790168,
S,False,1,letter,1,False,False,robot_stimuli\\filler.mp4,2,,,,,,,,,0,28,28,28,,,,,,,,,,,,,1812.6974080999935,1813.7568600999948,,,,,,,1815.990155899999,1815.990155899999,1815.990155899999,1815.990155899999,1815.990155899999,1815.990155899999,1815.990155899999,1815.990155899999,None,None,None,,,,,,,,,,,1812.6974080999935,1812.6974080999935,None,,1813.7568600999948,1813.7568600999948,1815.990155899999,n,1812.6974080999935,1812.6974080999935,0.5909504999872297,,2,001,2024-06-04_13h44.20.028,robot_nback_sign,2022.2.5,60.02581109790168,
J,False,1,letter,1,False,False,robot_stimuli\\filler.mp4,2,,,,,,,,,0,29,29,29,,,,,,,,,,,,,1815.990155899999,,,,,,,,1819.086491199996,1819.086491199996,1819.086491199996,1819.086491199996,1819.086491199996,1819.086491199996,1819.086491199996,1819.086491199996,None,None,None,,,,,,,,,,,1815.990155899999,1815.990155899999,None,,1817.0583344999905,1817.0583344999905,1819.086491199996,n,1815.990155899999,1815.990155899999,0.6500455000059446,,2,001,2024-06-04_13h44.20.028,robot_nback_sign,2022.2.5,60.02581109790168,
J,True,1,letter,1,False,False,robot_stimuli\\filler.mp4,2,,,,,,,,,0,30,30,30,,,,,,,,,,,,,1819.086491199996,1820.1451278999884,,,,,,,1822.1715614999994,1822.1715614999994,1822.1715614999994,1822.1715614999994,1822.1715614999994,1822.1715614999994,1822.1715614999994,1822.1715614999994,None,None,None,,,,,,,,,,,1819.086491199996,1819.086491199996,None,,1820.1451278999884,1820.1451278999884,1822.1715614999994,c,1819.086491199996,1819.086491199996,0.7227689999999711,,2,001,2024-06-04_13h44.20.028,robot_nback_sign,2022.2.5,60.02581109790168,
J,True,1,letter,1,False,False,robot_stimuli\\filler.mp4,2,,,,,,,,,0,31,31,31,,,,,,,,,,,,,1822.1715614999994,1823.2222457999887,,,,,,,1825.4577422000002,1825.4577422000002,1825.4577422000002,1825.4577422000002,1825.4577422000002,1825.4577422000002,1825.4577422000002,1825.4577422000002,None,None,None,,,,,,,,,,,1822.1715614999994,1822.1715614999994,None,,1823.2222457999887,1823.2222457999887,1825.4577422000002,c,1822.1715614999994,1822.1715614999994,0.5495716000004904,,2,001,2024-06-04_13h44.20.028,robot_nback_sign,2022.2.5,60.02581109790168,
B,False,1,letter,1,False,False,robot_stimuli\\filler.mp4,2,,,,,,,,,0,32,32,32,,,,,,,,,,,,,1825.4577422000002,1826.5256481999968,,,,,,,1828.7505738999898,1828.7505738999898,1828.7505738999898,1828.7505738999898,1828.7505738999898,1828.7505738999898,1828.7505738999898,1828.7505738999898,None,None,None,,,,,,,,,,,1825.4577422000002,1825.4577422000002,None,,1826.5256481999968,1826.5256481999968,1828.7505738999898,n,1825.4577422000002,1825.4577422000002,0.5808556000120007,,2,001,2024-06-04_13h44.20.028,robot_nback_sign,2022.2.5,60.02581109790168,
V,False,1,letter,1,False,False,robot_stimuli\\filler.mp4,2,,,,,,,,,0,33,33,33,,,,,,,,,,,,,1828.7505738999898,1829.8071898999915,,,,,,,1832.0390383999911,1832.0390383999911,1832.0390383999911,1832.0390383999911,1832.0390383999911,1832.0390383999911,1832.0390383999911,1832.0390383999911,None,None,None,,,,,,,,,,,1828.7505738999898,1828.7505738999898,None,,1829.8071898999915,1829.8071898999915,1832.0390383999911,n,1828.7505738999898,1828.7505738999898,0.7561770000029355,,2,001,2024-06-04_13h44.20.028,robot_nback_sign,2022.2.5,60.02581109790168,
Z,False,1,letter,1,False,False,robot_stimuli\\filler.mp4,2,,,,,,,,,0,34,34,34,,,,,,,,,,,,,1832.0390383999911,,,,,,,,1835.1382179999928,1835.1382179999928,1835.1382179999928,1835.1382179999928,1835.1382179999928,1835.1382179999928,1835.1382179999928,1835.1382179999928,None,None,None,,,,,,,,,,,1832.0390383999911,1832.0390383999911,None,,1833.1093536999979,1833.1093536999979,1835.1382179999928,n,1832.0390383999911,1832.0390383999911,0.7590356000000611,,2,001,2024-06-04_13h44.20.028,robot_nback_sign,2022.2.5,60.02581109790168,
B,False,1,letter,1,False,False,robot_stimuli\\filler.mp4,2,,,,,,,,,0,35,35,35,,,,,,,,,,,,,1835.1382179999928,1836.191078399992,,,,,,,1838.4159325999935,1838.4159325999935,1838.4159325999935,1838.4159325999935,1838.4159325999935,1838.4159325999935,1838.4159325999935,1838.4159325999935,None,None,None,,,,,,,,,,,1835.1382179999928,1835.1382179999928,None,,1836.191078399992,1836.191078399992,1838.4159325999935,n,1835.1382179999928,1835.1382179999928,0.8441750000056345,,2,001,2024-06-04_13h44.20.028,robot_nback_sign,2022.2.5,60.02581109790168,
B,True,1,letter,1,False,False,robot_stimuli\\filler.mp4,2,,,,,,,,,0,36,36,36,,,,,,,,,,,,,1838.4159325999935,1839.4745650999976,,,,,,,1841.509337999989,1841.509337999989,1841.509337999989,1841.509337999989,1841.509337999989,1841.509337999989,1841.509337999989,1841.509337999989,None,None,None,,,,,,,,,,,1838.4159325999935,1838.4159325999935,None,,1839.4745650999976,1839.4745650999976,1841.509337999989,c,1838.4159325999935,1838.4159325999935,0.6886813000019174,,2,001,2024-06-04_13h44.20.028,robot_nback_sign,2022.2.5,60.02581109790168,
Q,False,1,letter,1,False,False,robot_stimuli\\filler.mp4,2,,,,,,,,,0,37,37,37,,,,,,,,,,,,,1841.509337999989,1842.5752179999981,,,,,,,1844.6039533999865,1844.6039533999865,1844.6039533999865,1844.6039533999865,1844.6039533999865,1844.6039533999865,1844.6039533999865,1844.6039533999865,None,None,None,,,,,,,,,,,1841.509337999989,1841.509337999989,None,,1842.5752179999981,1842.5752179999981,1844.6039533999865,n,1841.509337999989,1841.509337999989,0.6753148000134388,,2,001,2024-06-04_13h44.20.028,robot_nback_sign,2022.2.5,60.02581109790168,
L,False,1,letter,1,False,False,robot_stimuli\\filler.mp4,2,,,,,,,,,0,38,38,38,,,,,,,,,,,,,1844.6039533999865,1845.6588743999891,,,,,,,1847.6889893999905,1847.6889893999905,1847.6889893999905,1847.6889893999905,1847.6889893999905,1847.6889893999905,1847.6889893999905,1847.6889893999905,None,None,None,,,,,,,,,,,1844.6039533999865,1844.6039533999865,None,,1845.6588743999891,1845.6588743999891,1847.6889893999905,n,1844.6039533999865,1844.6039533999865,0.7120934999984456,,2,001,2024-06-04_13h44.20.028,robot_nback_sign,2022.2.5,60.02581109790168,
N,False,1,letter,1,False,False,robot_stimuli\\filler.mp4,2,,,,,,,,,0,39,39,39,,,,,,,,,,,,,1847.6889893999905,,,,,,,,1850.7932077000005,1850.7932077000005,1850.7932077000005,1850.7932077000005,1850.7932077000005,1850.7932077000005,1850.7932077000005,1850.7932077000005,None,None,None,,,,,,,,,,,1847.6889893999905,1847.6889893999905,None,,1848.7615365999955,1848.7615365999955,1850.7932077000005,n,1847.6889893999905,1847.6889893999905,0.6250915000127861,,2,001,2024-06-04_13h44.20.028,robot_nback_sign,2022.2.5,60.02581109790168,
N,True,1,letter,1,False,False,robot_stimuli\\filler.mp4,2,,,,,,,,,0,40,40,40,,,,,,,,,,,,,1850.7932077000005,1851.8561147,,,,,,,1854.0855299999967,1854.0855299999967,1854.0855299999967,1854.0855299999967,1854.0855299999967,1854.0855299999967,1854.0855299999967,1854.0855299999967,None,None,None,,,,,,,,,,,1850.7932077000005,1850.7932077000005,None,,1851.8561147,1851.8561147,1854.0855299999967,c,1850.7932077000005,1850.7932077000005,0.5468857000087155,,2,001,2024-06-04_13h44.20.028,robot_nback_sign,2022.2.5,60.02581109790168,
V,False,1,letter,1,False,False,robot_stimuli\\filler.mp4,2,,,,,,,,,0,41,41,41,,,,,,,,,,,,,1854.0855299999967,1855.1410064999945,,,,,,,1857.3766252999922,1857.3766252999922,1857.3766252999922,1857.3766252999922,1857.3766252999922,1857.3766252999922,1857.3766252999922,1857.3766252999922,None,None,None,,,,,,,,,,,1854.0855299999967,1854.0855299999967,None,,1855.1410064999945,1855.1410064999945,1857.3766252999922,n,1854.0855299999967,1854.0855299999967,0.4947161999880336,,2,001,2024-06-04_13h44.20.028,robot_nback_sign,2022.2.5,60.02581109790168,
P,False,1,letter,1,False,False,robot_stimuli\\filler.mp4,2,,,,,,,,,0,42,42,42,,,,,,,,,,,,,1857.3766252999922,1858.4526440999907,,,,,,,1860.4856924999913,1860.4856924999913,1860.4856924999913,1860.4856924999913,1860.4856924999913,1860.4856924999913,1860.4856924999913,1860.4856924999913,None,None,None,,,,,,,,,,,1857.3766252999922,1857.3766252999922,None,,1858.4526440999907,1858.4526440999907,1860.4856924999913,n,1857.3766252999922,1857.3766252999922,0.49513810001371894,,2,001,2024-06-04_13h44.20.028,robot_nback_sign,2022.2.5,60.02581109790168,
H,False,1,letter,1,False,False,robot_stimuli\\filler.mp4,2,,,,,,,,,0,43,43,43,,,,,,,,,,,,,1860.4856924999913,1861.5417675999925,,,,,,,1863.765765499993,1863.765765499993,1863.765765499993,1863.765765499993,1863.765765499993,1863.765765499993,1863.765765499993,1863.765765499993,None,None,None,,,,,,,,,,,1860.4856924999913,1860.4856924999913,None,,1861.5417675999925,1861.5417675999925,1863.765765499993,n,1860.4856924999913,1860.4856924999913,0.5414174000034109,,2,001,2024-06-04_13h44.20.028,robot_nback_sign,2022.2.5,60.02581109790168,
T,False,1,letter,1,False,False,robot_stimuli\\filler.mp4,2,,,,,,,,,0,44,44,44,,,,,,,,,,,,,1863.765765499993,1864.825025699989,,,,,,,1866.854507799988,1866.854507799988,1866.854507799988,1866.854507799988,1866.854507799988,1866.854507799988,1866.854507799988,1866.854507799988,None,None,None,,,,,,,,,,,1863.765765499993,1863.765765499993,None,,1864.825025699989,1864.825025699989,1866.854507799988,n,1863.765765499993,1863.765765499993,0.9141400000080466,,2,001,2024-06-04_13h44.20.028,robot_nback_sign,2022.2.5,60.02581109790168,
Q,False,1,letter,1,False,False,robot_stimuli\\filler.mp4,2,,,,,,,,,0,45,45,45,,,,,,,,,,,,,1866.854507799988,1867.9075143999944,,,,,,,1869.9429583999881,1869.9429583999881,1869.9429583999881,1869.9429583999881,1869.9429583999881,1869.9429583999881,1869.9429583999881,1869.9429583999881,None,None,None,,,,,,,,,,,1866.854507799988,1866.854507799988,None,,1867.9075143999944,1867.9075143999944,1869.9429583999881,n,1866.854507799988,1866.854507799988,0.7208127999911085,,2,001,2024-06-04_13h44.20.028,robot_nback_sign,2022.2.5,60.02581109790168,
W,False,1,letter,1,False,False,robot_stimuli\\filler.mp4,2,,,,,,,,,0,46,46,46,,,,,,,,,,,,,1869.9429583999881,1871.007749299999,,,,,,,1873.238005399995,1873.238005399995,1873.238005399995,1873.238005399995,1873.238005399995,1873.238005399995,1873.238005399995,1873.238005399995,None,None,None,,,,,,,,,,,1869.9429583999881,1869.9429583999881,None,,1871.007749299999,1871.007749299999,1873.238005399995,n,1869.9429583999881,1869.9429583999881,0.9239641000021948,,2,001,2024-06-04_13h44.20.028,robot_nback_sign,2022.2.5,60.02581109790168,
W,True,1,letter,1,False,False,robot_stimuli\\filler.mp4,2,,,,,,,,,0,47,47,47,,,,,,,,,,,,,1873.238005399995,1874.2907776999928,,,,,,,1876.3263394999958,1876.3263394999958,1876.3263394999958,1876.3263394999958,1876.3263394999958,1876.3263394999958,1876.3263394999958,1876.3263394999958,None,None,None,,,,,,,,,,,1873.238005399995,1873.238005399995,None,,1874.2907776999928,1874.2907776999928,1876.3263394999958,c,1873.238005399995,1873.238005399995,1.1375238000036916,,2,001,2024-06-04_13h44.20.028,robot_nback_sign,2022.2.5,60.02581109790168,
D,False,1,letter,1,False,False,robot_stimuli\\filler.mp4,2,,,,,,,,,0,48,48,48,,,,,,,,,,,,,1876.3263394999958,1877.3930660999904,,,,,,,1879.4235506999976,1879.4235506999976,1879.4235506999976,1879.4235506999976,1879.4235506999976,1879.4235506999976,1879.4235506999976,1879.4235506999976,None,None,None,,,,,,,,,,,1876.3263394999958,1876.3263394999958,None,,1877.3930660999904,1877.3930660999904,1879.4235506999976,n,1876.3263394999958,1876.3263394999958,0.987175499991281,,2,001,2024-06-04_13h44.20.028,robot_nback_sign,2022.2.5,60.02581109790168,
C,False,1,letter,1,False,True,robot_stimuli\\filler.mp4,2,,,,,,,,,0,49,49,49,,,,,,,,,,,,,1879.4235506999976,,,,,,,,1882.5605615999957,1898.8077909999993,1882.5605615999957,1898.8077909999993,1882.5605615999957,1898.8077909999993,1882.5605615999957,1898.8077909999993,11.481481481481476,3.9616779000061797,space,,,,16.20192710000265,,,,,,,1879.4235506999976,1879.4235506999976,None,,1880.4990838999947,1880.4990838999947,1882.5605615999957,n,1879.4235506999976,1879.4235506999976,0.584848400001647,,2,001,2024-06-04_13h44.20.028,robot_nback_sign,2022.2.5,60.02581109790168,
K,False,3,letter,1,True,False,robot_stimuli\\filler.mp4,2,,,,,,,,,0,50,50,50,,,,,,,,,,,,,1904.4709573,1905.5258972999873,,,,,,,1907.5530941999896,1907.5530941999896,1907.5530941999896,1907.5530941999896,1907.5530941999896,1907.5530941999896,1907.5530941999896,1907.5530941999896,None,None,None,,,,,,,,,,,1898.8077909999993,1898.8077909999993,space,5.644163800010574,1905.5258972999873,1905.5258972999873,1907.5530941999896,None,,,,,2,001,2024-06-04_13h44.20.028,robot_nback_sign,2022.2.5,60.02581109790168,
T,False,3,letter,1,False,False,robot_stimuli\\filler.mp4,2,,,,,,,,,0,51,51,51,,,,,,,,,,,,,1907.5530941999896,1908.6098612999922,,,,,,,1910.8383964999957,1910.8383964999957,1910.8383964999957,1910.8383964999957,1910.8383964999957,1910.8383964999957,1910.8383964999957,1910.8383964999957,None,None,None,,,,,,,,,,,1907.5530941999896,1907.5530941999896,None,,1908.6098612999922,1908.6098612999922,1910.8383964999957,None,1907.5530941999896,1907.5530941999896,,,2,001,2024-06-04_13h44.20.028,robot_nback_sign,2022.2.5,60.02581109790168,
C,False,3,letter,1,False,False,robot_stimuli\\filler.mp4,2,,,,,,,,,0,52,52,52,,,,,,,,,,,,,1910.8383964999957,1911.8914782999927,,,,,,,1914.12139819999,1914.12139819999,1914.12139819999,1914.12139819999,1914.12139819999,1914.12139819999,1914.12139819999,1914.12139819999,None,None,None,,,,,,,,,,,1910.8383964999957,1910.8383964999957,None,,1911.8914782999927,1911.8914782999927,1914.12139819999,None,1910.8383964999957,1910.8383964999957,,,2,001,2024-06-04_13h44.20.028,robot_nback_sign,2022.2.5,60.02581109790168,
D,False,3,letter,1,False,False,robot_stimuli\\filler.mp4,2,,,,,,,,,0,53,53,53,,,,,,,,,,,,,1914.12139819999,1915.174773199993,,,,,,,1917.201965699991,1917.201965699991,1917.201965699991,1917.201965699991,1917.201965699991,1917.201965699991,1917.201965699991,1917.201965699991,None,None,None,,,,,,,,,,,1914.12139819999,1914.12139819999,None,,1915.174773199993,1915.174773199993,1917.201965699991,n,1914.12139819999,1914.12139819999,1.1577147000061814,,2,001,2024-06-04_13h44.20.028,robot_nback_sign,2022.2.5,60.02581109790168,
N,False,3,letter,1,False,False,robot_stimuli\\filler.mp4,2,,,,,,,,,0,54,54,54,,,,,,,,,,,,,1917.201965699991,1918.2578125999862,,,,,,,1920.4912263999868,1920.4912263999868,1920.4912263999868,1920.4912263999868,1920.4912263999868,1920.4912263999868,1920.4912263999868,1920.4912263999868,None,None,None,,,,,,,,,,,1917.201965699991,1917.201965699991,None,,1918.2578125999862,1918.2578125999862,1920.4912263999868,n,1917.201965699991,1917.201965699991,0.8090678000007756,,2,001,2024-06-04_13h44.20.028,robot_nback_sign,2022.2.5,60.02581109790168,
C,True,3,letter,1,False,False,robot_stimuli\\filler.mp4,2,,,,,,,,,0,55,55,55,,,,,,,,,,,,,1920.4912263999868,1921.5595380999875,,,,,,,1923.5849151000002,1923.5849151000002,1923.5849151000002,1923.5849151000002,1923.5849151000002,1923.5849151000002,1923.5849151000002,1923.5849151000002,None,None,None,,,,,,,,,,,1920.4912263999868,1920.4912263999868,None,,1921.5595380999875,1921.5595380999875,1923.5849151000002,c,1920.4912263999868,1920.4912263999868,1.1245387000089977,,2,001,2024-06-04_13h44.20.028,robot_nback_sign,2022.2.5,60.02581109790168,
T,False,3,letter,1,False,False,robot_stimuli\\filler.mp4,2,,,,,,,,,0,56,56,56,,,,,,,,,,,,,1923.5849151000002,1924.6410094999883,,,,,,,1926.8731131999957,1926.8731131999957,1926.8731131999957,1926.8731131999957,1926.8731131999957,1926.8731131999957,1926.8731131999957,1926.8731131999957,None,None,None,,,,,,,,,,,1923.5849151000002,1923.5849151000002,None,,1924.6410094999883,1924.6410094999883,1926.8731131999957,n,1923.5849151000002,1923.5849151000002,1.4974251000094227,,2,001,2024-06-04_13h44.20.028,robot_nback_sign,2022.2.5,60.02581109790168,
W,False,3,letter,1,False,False,robot_stimuli\\filler.mp4,2,,,,,,,,,0,57,57,57,,,,,,,,,,,,,1926.8731131999957,,,,,,,,1929.9716809999954,1929.9716809999954,1929.9716809999954,1929.9716809999954,1929.9716809999954,1929.9716809999954,1929.9716809999954,1929.9716809999954,None,None,None,,,,,,,,,,,1926.8731131999957,1926.8731131999957,None,,1927.942713899989,1927.942713899989,1929.9716809999954,n,1926.8731131999957,1926.8731131999957,0.8443651999987196,,2,001,2024-06-04_13h44.20.028,robot_nback_sign,2022.2.5,60.02581109790168,
J,False,3,letter,1,False,False,robot_stimuli\\filler.mp4,2,,,,,,,,,0,58,58,58,,,,,,,,,,,,,1929.9716809999954,1931.024433899991,,,,,,,1933.0546987999987,1933.0546987999987,1933.0546987999987,1933.0546987999987,1933.0546987999987,1933.0546987999987,1933.0546987999987,1933.0546987999987,None,None,None,,,,,,,,,,,1929.9716809999954,1929.9716809999954,None,,1931.024433899991,1931.024433899991,1933.0546987999987,n,1929.9716809999954,1929.9716809999954,0.7875768999947468,,2,001,2024-06-04_13h44.20.028,robot_nback_sign,2022.2.5,60.02581109790168,
B,False,3,letter,1,False,False,robot_stimuli\\filler.mp4,2,,,,,,,,,0,59,59,59,,,,,,,,,,,,,1933.0546987999987,1934.1079946999962,,,,,,,1936.3329906,1936.3329906,1936.3329906,1936.3329906,1936.3329906,1936.3329906,1936.3329906,1936.3329906,None,None,None,,,,,,,,,,,1933.0546987999987,1933.0546987999987,None,,1934.1079946999962,1934.1079946999962,1936.3329906,n,1933.0546987999987,1933.0546987999987,0.671629300006316,,2,001,2024-06-04_13h44.20.028,robot_nback_sign,2022.2.5,60.02581109790168,
F,False,3,letter,1,False,False,robot_stimuli\\filler.mp4,2,,,,,,,,,0,60,60,60,,,,,,,,,,,,,1936.3329906,1937.3913613999903,,,,,,,1939.618313999992,1939.618313999992,1939.618313999992,1939.618313999992,1939.618313999992,1939.618313999992,1939.618313999992,1939.618313999992,None,None,None,,,,,,,,,,,1936.3329906,1936.3329906,None,,1937.3913613999903,1937.3913613999903,1939.618313999992,n,1936.3329906,1936.3329906,1.1877240000030724,,2,001,2024-06-04_13h44.20.028,robot_nback_sign,2022.2.5,60.02581109790168,
L,False,3,letter,1,False,False,robot_stimuli\\filler.mp4,2,,,,,,,,,0,61,61,61,,,,,,,,,,,,,1939.618313999992,1940.6756480999902,,,,,,,1942.9052154999954,1942.9052154999954,1942.9052154999954,1942.9052154999954,1942.9052154999954,1942.9052154999954,1942.9052154999954,1942.9052154999954,None,None,None,,,,,,,,,,,1939.618313999992,1939.618313999992,None,,1940.6756480999902,1940.6756480999902,1942.9052154999954,n,1939.618313999992,1939.618313999992,0.7028901000012411,,2,001,2024-06-04_13h44.20.028,robot_nback_sign,2022.2.5,60.02581109790168,
G,False,3,letter,1,False,False,robot_stimuli\\filler.mp4,2,,,,,,,,,0,62,62,62,,,,,,,,,,,,,1942.9052154999954,1943.9584865999932,,,,,,,1945.990761299996,1945.990761299996,1945.990761299996,1945.990761299996,1945.990761299996,1945.990761299996,1945.990761299996,1945.990761299996,None,None,None,,,,,,,,,,,1942.9052154999954,1942.9052154999954,None,,1943.9584865999932,1943.9584865999932,1945.990761299996,n,1942.9052154999954,1942.9052154999954,1.1254959999932908,,2,001,2024-06-04_13h44.20.028,robot_nback_sign,2022.2.5,60.02581109790168,
T,False,3,letter,1,False,False,robot_stimuli\\filler.mp4,2,,,,,,,,,0,63,63,63,,,,,,,,,,,,,1945.990761299996,,,,,,,,1949.084008699996,1949.084008699996,1949.084008699996,1949.084008699996,1949.084008699996,1949.084008699996,1949.084008699996,1949.084008699996,None,None,None,,,,,,,,,,,1945.990761299996,1945.990761299996,None,,1947.0633659999876,1947.0633659999876,1949.084008699996,n,1945.990761299996,1945.990761299996,1.5955259000038495,,2,001,2024-06-04_13h44.20.028,robot_nback_sign,2022.2.5,60.02581109790168,
L,True,3,letter,1,False,False,robot_stimuli\\filler.mp4,2,,,,,,,,,0,64,64,64,,,,,,,,,,,,,1949.084008699996,1950.1410297999973,,,,,,,1952.373198199988,1952.373198199988,1952.373198199988,1952.373198199988,1952.373198199988,1952.373198199988,1952.373198199988,1952.373198199988,None,None,None,,,,,,,,,,,1949.084008699996,1949.084008699996,None,,1950.1410297999973,1950.1410297999973,1952.373198199988,c,1949.084008699996,1949.084008699996,1.0551372000045376,,2,001,2024-06-04_13h44.20.028,robot_nback_sign,2022.2.5,60.02581109790168,
L,False,3,letter,1,False,False,robot_stimuli\\filler.mp4,2,,,,,,,,,0,65,65,65,,,,,,,,,,,,,1952.373198199988,,,,,,,,1955.6752541999886,1955.6752541999886,1955.6752541999886,1955.6752541999886,1955.6752541999886,1955.6752541999886,1955.6752541999886,1955.6752541999886,None,None,None,,,,,,,,,,,1952.373198199988,1952.373198199988,None,,1953.44027739999,1953.44027739999,1955.6752541999886,n,1952.373198199988,1952.373198199988,1.3634027000080096,,2,001,2024-06-04_13h44.20.028,robot_nback_sign,2022.2.5,60.02581109790168,
C,False,3,letter,1,False,False,robot_stimuli\\filler.mp4,2,,,,,,,,,0,66,66,66,,,,,,,,,,,,,1955.6752541999886,1956.751223299987,,,,,,,1958.7797879999998,1958.7797879999998,1958.7797879999998,1958.7797879999998,1958.7797879999998,1958.7797879999998,1958.7797879999998,1958.7797879999998,None,None,None,,,,,,,,,,,1955.6752541999886,1955.6752541999886,None,,1956.751223299987,1956.751223299987,1958.7797879999998,n,1955.6752541999886,1955.6752541999886,1.4518019999959506,,2,001,2024-06-04_13h44.20.028,robot_nback_sign,2022.2.5,60.02581109790168,
L,True,3,letter,1,False,False,robot_stimuli\\filler.mp4,2,,,,,,,,,0,67,67,67,,,,,,,,,,,,,1958.7797879999998,1959.850992199994,,,,,,,1961.8779301999894,1961.8779301999894,1961.8779301999894,1961.8779301999894,1961.8779301999894,1961.8779301999894,1961.8779301999894,1961.8779301999894,None,None,None,,,,,,,,,,,1958.7797879999998,1958.7797879999998,None,,1959.850992199994,1959.850992199994,1961.8779301999894,c,1958.7797879999998,1958.7797879999998,1.583621800004039,,2,001,2024-06-04_13h44.20.028,robot_nback_sign,2022.2.5,60.02581109790168,
F,False,3,letter,1,False,False,robot_stimuli\\filler.mp4,2,,,,,,,,,0,68,68,68,,,,,,,,,,,,,1961.8779301999894,1962.9414648999955,,,,,,,1964.965903599994,1964.965903599994,1964.965903599994,1964.965903599994,1964.965903599994,1964.965903599994,1964.965903599994,1964.965903599994,None,None,None,,,,,,,,,,,1961.8779301999894,1961.8779301999894,None,,1962.9414648999955,1962.9414648999955,1964.965903599994,n,1961.8779301999894,1961.8779301999894,1.221173900004942,,2,001,2024-06-04_13h44.20.028,robot_nback_sign,2022.2.5,60.02581109790168,
C,True,3,letter,1,False,False,robot_stimuli\\filler.mp4,2,,,,,,,,,0,69,69,69,,,,,,,,,,,,,1964.965903599994,1966.0251054999972,,,,,,,1968.249001899996,1968.249001899996,1968.249001899996,1968.249001899996,1968.249001899996,1968.249001899996,1968.249001899996,1968.249001899996,None,None,None,,,,,,,,,,,1964.965903599994,1964.965903599994,None,,1966.0251054999972,1966.0251054999972,1968.249001899996,None,1964.965903599994,1964.965903599994,,,2,001,2024-06-04_13h44.20.028,robot_nback_sign,2022.2.5,60.02581109790168,
L,True,3,letter,1,False,False,robot_stimuli\\filler.mp4,2,,,,,,,,,0,70,70,70,,,,,,,,,,,,,1968.249001899996,1969.307790699997,,,,,,,1971.5384027999971,1971.5384027999971,1971.5384027999971,1971.5384027999971,1971.5384027999971,1971.5384027999971,1971.5384027999971,1971.5384027999971,None,None,None,,,,,,,,,,,1968.249001899996,1968.249001899996,None,,1969.307790699997,1969.307790699997,1971.5384027999971,c,1968.249001899996,1968.249001899996,1.319401699991431,,2,001,2024-06-04_13h44.20.028,robot_nback_sign,2022.2.5,60.02581109790168,
W,False,3,letter,1,False,False,robot_stimuli\\filler.mp4,2,,,,,,,,,0,71,71,71,,,,,,,,,,,,,1971.5384027999971,1972.5924252999976,,,,,,,1974.8222684999928,1974.8222684999928,1974.8222684999928,1974.8222684999928,1974.8222684999928,1974.8222684999928,1974.8222684999928,1974.8222684999928,None,None,None,,,,,,,,,,,1971.5384027999971,1971.5384027999971,None,,1972.5924252999976,1972.5924252999976,1974.8222684999928,n,1971.5384027999971,1971.5384027999971,0.5308723000052851,,2,001,2024-06-04_13h44.20.028,robot_nback_sign,2022.2.5,60.02581109790168,
N,False,3,letter,1,False,False,robot_stimuli\\filler.mp4,2,,,,,,,,,0,72,72,72,,,,,,,,,,,,,1974.8222684999928,1975.875170299987,,,,,,,1978.1031872999883,1978.1031872999883,1978.1031872999883,1978.1031872999883,1978.1031872999883,1978.1031872999883,1978.1031872999883,1978.1031872999883,None,None,None,,,,,,,,,,,1974.8222684999928,1974.8222684999928,None,,1975.875170299987,1975.875170299987,1978.1031872999883,n,1974.8222684999928,1974.8222684999928,0.6807661000057124,,2,001,2024-06-04_13h44.20.028,robot_nback_sign,2022.2.5,60.02581109790168,
H,False,3,letter,1,False,False,robot_stimuli\\filler.mp4,2,,,,,,,,,0,73,73,73,,,,,,,,,,,,,1978.1031872999883,1979.157508999997,,,,,,,1981.1907346999942,1981.1907346999942,1981.1907346999942,1981.1907346999942,1981.1907346999942,1981.1907346999942,1981.1907346999942,1981.1907346999942,None,None,None,,,,,,,,,,,1978.1031872999883,1978.1031872999883,None,,1979.157508999997,1979.157508999997,1981.1907346999942,n,1978.1031872999883,1978.1031872999883,0.5108753999957116,,2,001,2024-06-04_13h44.20.028,robot_nback_sign,2022.2.5,60.02581109790168,
W,True,3,letter,1,False,False,robot_stimuli\\filler.mp4,2,,,,,,,,,0,74,74,74,,,,,,,,,,,,,1981.1907346999942,,,,,,,,1984.4826356999984,1984.4826356999984,1984.4826356999984,1984.4826356999984,1984.4826356999984,1984.4826356999984,1984.4826356999984,1984.4826356999984,None,None,None,,,,,,,,,,,1981.1907346999942,1981.1907346999942,None,,1982.2587554999918,1982.2587554999918,1984.4826356999984,c,1981.1907346999942,1981.1907346999942,0.89676750000217,,2,001,2024-06-04_13h44.20.028,robot_nback_sign,2022.2.5,60.02581109790168,
N,True,3,letter,1,False,False,robot_stimuli\\filler.mp4,2,,,,,,,,,0,75,75,75,,,,,,,,,,,,,1984.4826356999984,1985.541741699999,,,,,,,1987.567409899988,1987.567409899988,1987.567409899988,1987.567409899988,1987.567409899988,1987.567409899988,1987.567409899988,1987.567409899988,None,None,None,,,,,,,,,,,1984.4826356999984,1984.4826356999984,None,,1985.541741699999,1985.541741699999,1987.567409899988,c,1984.4826356999984,1984.4826356999984,1.3653337000141619,,2,001,2024-06-04_13h44.20.028,robot_nback_sign,2022.2.5,60.02581109790168,
C,False,3,letter,1,False,False,robot_stimuli\\filler.mp4,2,,,,,,,,,0,76,76,76,,,,,,,,,,,,,1987.567409899988,1988.6237253,,,,,,,1990.851744399988,1990.851744399988,1990.851744399988,1990.851744399988,1990.851744399988,1990.851744399988,1990.851744399988,1990.851744399988,None,None,None,,,,,,,,,,,1987.567409899988,1987.567409899988,None,,1988.6237253,1988.6237253,1990.851744399988,n,1987.567409899988,1987.567409899988,1.4039212000061525,,2,001,2024-06-04_13h44.20.028,robot_nback_sign,2022.2.5,60.02581109790168,
L,False,3,letter,1,False,False,robot_stimuli\\filler.mp4,2,,,,,,,,,0,77,77,77,,,,,,,,,,,,,1990.851744399988,1991.9080044000002,,,,,,,1994.1423498999939,1994.1423498999939,1994.1423498999939,1994.1423498999939,1994.1423498999939,1994.1423498999939,1994.1423498999939,1994.1423498999939,None,None,None,,,,,,,,,,,1990.851744399988,1990.851744399988,None,,1991.9080044000002,1991.9080044000002,1994.1423498999939,n,1990.851744399988,1990.851744399988,1.406843700009631,,2,001,2024-06-04_13h44.20.028,robot_nback_sign,2022.2.5,60.02581109790168,
H,False,3,letter,1,False,False,robot_stimuli\\filler.mp4,2,,,,,,,,,0,78,78,78,,,,,,,,,,,,,1994.1423498999939,1995.211584699995,,,,,,,1997.4341459999996,1997.4341459999996,1997.4341459999996,1997.4341459999996,1997.4341459999996,1997.4341459999996,1997.4341459999996,1997.4341459999996,None,None,None,,,,,,,,,,,1994.1423498999939,1994.1423498999939,None,,1995.211584699995,1995.211584699995,1997.4341459999996,n,1994.1423498999939,1994.1423498999939,1.3048850000050152,,2,001,2024-06-04_13h44.20.028,robot_nback_sign,2022.2.5,60.02581109790168,
Z,False,3,letter,1,False,False,robot_stimuli\\filler.mp4,2,,,,,,,,,0,79,79,79,,,,,,,,,,,,,1997.4341459999996,1998.4917107999936,,,,,,,2000.5193543999922,2000.5193543999922,2000.5193543999922,2000.5193543999922,2000.5193543999922,2000.5193543999922,2000.5193543999922,2000.5193543999922,None,None,None,,,,,,,,,,,1997.4341459999996,1997.4341459999996,None,,1998.4917107999936,1998.4917107999936,2000.5193543999922,n,1997.4341459999996,1997.4341459999996,1.5287950000056298,,2,001,2024-06-04_13h44.20.028,robot_nback_sign,2022.2.5,60.02581109790168,
L,True,3,letter,1,False,False,robot_stimuli\\filler.mp4,2,,,,,,,,,0,80,80,80,,,,,,,,,,,,,2000.5193543999922,2001.5734912999906,,,,,,,2003.8040402999904,2003.8040402999904,2003.8040402999904,2003.8040402999904,2003.8040402999904,2003.8040402999904,2003.8040402999904,2003.8040402999904,None,None,None,,,,,,,,,,,2000.5193543999922,2000.5193543999922,None,,2001.5734912999906,2001.5734912999906,2003.8040402999904,c,2000.5193543999922,2000.5193543999922,1.6304457999940496,,2,001,2024-06-04_13h44.20.028,robot_nback_sign,2022.2.5,60.02581109790168,
Q,False,3,letter,1,False,False,robot_stimuli\\filler.mp4,2,,,,,,,,,0,81,81,81,,,,,,,,,,,,,2003.8040402999904,2004.8587010999909,,,,,,,2006.8933413999912,2006.8933413999912,2006.8933413999912,2006.8933413999912,2006.8933413999912,2006.8933413999912,2006.8933413999912,2006.8933413999912,None,None,None,,,,,,,,,,,2003.8040402999904,2003.8040402999904,None,,2004.8587010999909,2004.8587010999909,2006.8933413999912,n,2003.8040402999904,2003.8040402999904,1.225876900003641,,2,001,2024-06-04_13h44.20.028,robot_nback_sign,2022.2.5,60.02581109790168,
D,False,3,letter,1,False,False,robot_stimuli\\filler.mp4,2,,,,,,,,,0,82,82,82,,,,,,,,,,,,,2006.8933413999912,2007.9572644,,,,,,,2009.9862386999885,2009.9862386999885,2009.9862386999885,2009.9862386999885,2009.9862386999885,2009.9862386999885,2009.9862386999885,2009.9862386999885,None,None,None,,,,,,,,,,,2006.8933413999912,2006.8933413999912,None,,2007.9572644,2007.9572644,2009.9862386999885,n,2006.8933413999912,2006.8933413999912,1.310380900002201,,2,001,2024-06-04_13h44.20.028,robot_nback_sign,2022.2.5,60.02581109790168,
G,False,3,letter,1,False,False,robot_stimuli\\filler.mp4,2,,,,,,,,,0,83,83,83,,,,,,,,,,,,,2009.9862386999885,2011.0411022999906,,,,,,,2013.266401899993,2013.266401899993,2013.266401899993,2013.266401899993,2013.266401899993,2013.266401899993,2013.266401899993,2013.266401899993,None,None,None,,,,,,,,,,,2009.9862386999885,2009.9862386999885,None,,2011.0411022999906,2011.0411022999906,2013.266401899993,n,2009.9862386999885,2009.9862386999885,0.9548225999897113,,2,001,2024-06-04_13h44.20.028,robot_nback_sign,2022.2.5,60.02581109790168,
W,False,3,letter,1,False,False,robot_stimuli\\filler.mp4,2,,,,,,,,,0,84,84,84,,,,,,,,,,,,,2013.266401899993,2014.3244521999877,,,,,,,2016.5563440999977,2016.5563440999977,2016.5563440999977,2016.5563440999977,2016.5563440999977,2016.5563440999977,2016.5563440999977,2016.5563440999977,None,None,None,,,,,,,,,,,2013.266401899993,2013.266401899993,None,,2014.3244521999877,2014.3244521999877,2016.5563440999977,n,2013.266401899993,2013.266401899993,1.0236934000131441,,2,001,2024-06-04_13h44.20.028,robot_nback_sign,2022.2.5,60.02581109790168,
T,False,3,letter,1,False,False,robot_stimuli\\filler.mp4,2,,,,,,,,,0,85,85,85,,,,,,,,,,,,,2016.5563440999977,,,,,,,,2019.6564985000005,2019.6564985000005,2019.6564985000005,2019.6564985000005,2019.6564985000005,2019.6564985000005,2019.6564985000005,2019.6564985000005,None,None,None,,,,,,,,,,,2016.5563440999977,2016.5563440999977,None,,2017.6266546999977,2017.6266546999977,2019.6564985000005,n,2016.5563440999977,2016.5563440999977,1.02564939999138,,2,001,2024-06-04_13h44.20.028,robot_nback_sign,2022.2.5,60.02581109790168,
L,False,3,letter,1,False,False,robot_stimuli\\filler.mp4,2,,,,,,,,,0,86,86,86,,,,,,,,,,,,,2019.6564985000005,,,,,,,,2022.7498552999896,2022.7498552999896,2022.7498552999896,2022.7498552999896,2022.7498552999896,2022.7498552999896,2022.7498552999896,2022.7498552999896,None,None,None,,,,,,,,,,,2019.6564985000005,2019.6564985000005,None,,2020.7244414999877,2020.7244414999877,2022.7498552999896,n,2019.6564985000005,2019.6564985000005,1.2142380000004778,,2,001,2024-06-04_13h44.20.028,robot_nback_sign,2022.2.5,60.02581109790168,
B,False,3,letter,1,False,False,robot_stimuli\\filler.mp4,2,,,,,,,,,0,87,87,87,,,,,,,,,,,,,2022.7498552999896,2023.8145221999876,,,,,,,2025.8434651999996,2025.8434651999996,2025.8434651999996,2025.8434651999996,2025.8434651999996,2025.8434651999996,2025.8434651999996,2025.8434651999996,None,None,None,,,,,,,,,,,2022.7498552999896,2022.7498552999896,None,,2023.8145221999876,2023.8145221999876,2025.8434651999996,n,2022.7498552999896,2022.7498552999896,1.0213065999996616,,2,001,2024-06-04_13h44.20.028,robot_nback_sign,2022.2.5,60.02581109790168,
D,False,3,letter,1,False,False,robot_stimuli\\filler.mp4,2,,,,,,,,,0,88,88,88,,,,,,,,,,,,,2025.8434651999996,2026.909344499989,,,,,,,2028.9358301999891,2028.9358301999891,2028.9358301999891,2028.9358301999891,2028.9358301999891,2028.9358301999891,2028.9358301999891,2028.9358301999891,None,None,None,,,,,,,,,,,2025.8434651999996,2025.8434651999996,None,,2026.909344499989,2026.909344499989,2028.9358301999891,n,2025.8434651999996,2025.8434651999996,1.2469614000001457,,2,001,2024-06-04_13h44.20.028,robot_nback_sign,2022.2.5,60.02581109790168,
C,False,3,letter,1,False,False,robot_stimuli\\filler.mp4,2,,,,,,,,,0,89,89,89,,,,,,,,,,,,,2028.9358301999891,2029.9930184999976,,,,,,,2032.0266837999952,2032.0266837999952,2032.0266837999952,2032.0266837999952,2032.0266837999952,2032.0266837999952,2032.0266837999952,2032.0266837999952,None,None,None,,,,,,,,,,,2028.9358301999891,2028.9358301999891,None,,2029.9930184999976,2029.9930184999976,2032.0266837999952,n,2028.9358301999891,2028.9358301999891,1.5545851999922888,,2,001,2024-06-04_13h44.20.028,robot_nback_sign,2022.2.5,60.02581109790168,
B,True,3,letter,1,False,False,robot_stimuli\\filler.mp4,2,,,,,,,,,0,90,90,90,,,,,,,,,,,,,2032.0266837999952,2033.1021970999864,,,,,,,2035.134543399996,2035.134543399996,2035.134543399996,2035.134543399996,2035.134543399996,2035.134543399996,2035.134543399996,2035.134543399996,None,None,None,,,,,,,,,,,2032.0266837999952,2032.0266837999952,None,,2033.1021970999864,2033.1021970999864,2035.134543399996,c,2032.0266837999952,2032.0266837999952,1.2301347000029637,,2,001,2024-06-04_13h44.20.028,robot_nback_sign,2022.2.5,60.02581109790168,
M,False,3,letter,1,False,False,robot_stimuli\\filler.mp4,2,,,,,,,,,0,91,91,91,,,,,,,,,,,,,2035.134543399996,2036.1870459999918,,,,,,,2038.2104877999955,2038.2104877999955,2038.2104877999955,2038.2104877999955,2038.2104877999955,2038.2104877999955,2038.2104877999955,2038.2104877999955,None,None,None,,,,,,,,,,,2035.134543399996,2035.134543399996,None,,2036.1870459999918,2036.1870459999918,2038.2104877999955,n,2035.134543399996,2035.134543399996,0.8007371999992756,,2,001,2024-06-04_13h44.20.028,robot_nback_sign,2022.2.5,60.02581109790168,
P,False,3,letter,1,False,False,robot_stimuli\\filler.mp4,2,,,,,,,,,0,92,92,92,,,,,,,,,,,,,2038.2104877999955,2039.274603599988,,,,,,,2041.3033349999896,2041.3033349999896,2041.3033349999896,2041.3033349999896,2041.3033349999896,2041.3033349999896,2041.3033349999896,2041.3033349999896,None,None,None,,,,,,,,,,,2038.2104877999955,2038.2104877999955,None,,2039.274603599988,2039.274603599988,2041.3033349999896,n,2038.2104877999955,2038.2104877999955,0.9045337999996264,,2,001,2024-06-04_13h44.20.028,robot_nback_sign,2022.2.5,60.02581109790168,
V,False,3,letter,1,False,False,robot_stimuli\\filler.mp4,2,,,,,,,,,0,93,93,93,,,,,,,,,,,,,2041.3033349999896,2042.3601501999947,,,,,,,2044.3898651999916,2044.3898651999916,2044.3898651999916,2044.3898651999916,2044.3898651999916,2044.3898651999916,2044.3898651999916,2044.3898651999916,None,None,None,,,,,,,,,,,2041.3033349999896,2041.3033349999896,None,,2042.3601501999947,2042.3601501999947,2044.3898651999916,n,2041.3033349999896,2041.3033349999896,0.9951810999918962,,2,001,2024-06-04_13h44.20.028,robot_nback_sign,2022.2.5,60.02581109790168,
X,False,3,letter,1,False,False,robot_stimuli\\filler.mp4,2,,,,,,,,,0,94,94,94,,,,,,,,,,,,,2044.3898651999916,,,,,,,,2047.493109899995,2047.493109899995,2047.493109899995,2047.493109899995,2047.493109899995,2047.493109899995,2047.493109899995,2047.493109899995,None,None,None,,,,,,,,,,,2044.3898651999916,2044.3898651999916,None,,2045.4597917999927,2045.4597917999927,2047.493109899995,n,2044.3898651999916,2044.3898651999916,0.8629274000122678,,2,001,2024-06-04_13h44.20.028,robot_nback_sign,2022.2.5,60.02581109790168,
H,False,3,letter,1,False,False,robot_stimuli\\filler.mp4,2,,,,,,,,,0,95,95,95,,,,,,,,,,,,,2047.493109899995,2048.558625699996,,,,,,,2050.7904811999906,2050.7904811999906,2050.7904811999906,2050.7904811999906,2050.7904811999906,2050.7904811999906,2050.7904811999906,2050.7904811999906,None,None,None,,,,,,,,,,,2047.493109899995,2047.493109899995,None,,2048.558625699996,2048.558625699996,2050.7904811999906,n,2047.493109899995,2047.493109899995,1.341876599995885,,2,001,2024-06-04_13h44.20.028,robot_nback_sign,2022.2.5,60.02581109790168,
V,True,3,letter,1,False,False,robot_stimuli\\filler.mp4,2,,,,,,,,,0,96,96,96,,,,,,,,,,,,,2050.7904811999906,,,,,,,,2054.088613999993,2054.088613999993,2054.088613999993,2054.088613999993,2054.088613999993,2054.088613999993,2054.088613999993,2054.088613999993,None,None,None,,,,,,,,,,,2050.7904811999906,2050.7904811999906,None,,2051.857816799995,2051.857816799995,2054.088613999993,c,2050.7904811999906,2050.7904811999906,1.7778691000130493,,2,001,2024-06-04_13h44.20.028,robot_nback_sign,2022.2.5,60.02581109790168,
W,False,3,letter,1,False,False,robot_stimuli\\filler.mp4,2,,,,,,,,,0,97,97,97,,,,,,,,,,,,,2054.088613999993,2055.142333599986,,,,,,,2057.174051599999,2057.174051599999,2057.174051599999,2057.174051599999,2057.174051599999,2057.174051599999,2057.174051599999,2057.174051599999,None,None,None,,,,,,,,,,,2054.088613999993,2054.088613999993,None,,2055.142333599986,2055.142333599986,2057.174051599999,n,2054.088613999993,2054.088613999993,0.5492796999897109,,2,001,2024-06-04_13h44.20.028,robot_nback_sign,2022.2.5,60.02581109790168,
D,False,3,letter,1,False,False,robot_stimuli\\filler.mp4,2,,,,,,,,,0,98,98,98,,,,,,,,,,,,,2057.174051599999,,,,,,,,2060.2683958999987,2060.2683958999987,2060.2683958999987,2060.2683958999987,2060.2683958999987,2060.2683958999987,2060.2683958999987,2060.2683958999987,None,None,None,,,,,,,,,,,2057.174051599999,2057.174051599999,None,,2058.241862199997,2058.241862199997,2060.2683958999987,None,2057.174051599999,2057.174051599999,,,2,001,2024-06-04_13h44.20.028,robot_nback_sign,2022.2.5,60.02581109790168,
Q,False,3,letter,1,False,True,robot_stimuli\\filler.mp4,2,,,,,,,,,0,99,99,99,,,,,,,,,,,,,2060.2683958999987,2061.325921399999,,,,,,,2063.5866113999946,2067.8953148,2063.5866113999946,2067.8953148,2063.5866113999946,2067.8953148,2063.5866113999946,2067.8953148,45.89506172839506,3.937460800007102,space,,,,4.248338999997941,,,,,,,2060.2683958999987,2060.2683958999987,None,,2061.325921399999,2061.325921399999,2063.5866113999946,n,2060.2683958999987,2060.2683958999987,0.7898457999981474,,2,001,2024-06-04_13h44.20.028,robot_nback_sign,2022.2.5,60.02581109790168,
M,False,2,letter,1,True,False,robot_stimuli\\filler.mp4,2,,,,,,,,,0,100,100,100,,,,,,,,,,,,,2073.8546706999914,2074.919437999997,,,,,,,2076.9500138000003,2076.9500138000003,2076.9500138000003,2076.9500138000003,2076.9500138000003,2076.9500138000003,2076.9500138000003,2076.9500138000003,None,None,None,,,,,,,,,,,2067.8953148,2067.8953148,space,5.940436499993666,2074.919437999997,2074.919437999997,2076.9500138000003,None,,,,,2,001,2024-06-04_13h44.20.028,robot_nback_sign,2022.2.5,60.02581109790168,
V,False,2,letter,1,False,False,robot_stimuli\\filler.mp4,2,,,,,,,,,0,101,101,101,,,,,,,,,,,,,2076.9500138000003,2078.009106199999,,,,,,,2080.2354949,2080.2354949,2080.2354949,2080.2354949,2080.2354949,2080.2354949,2080.2354949,2080.2354949,None,None,None,,,,,,,,,,,2076.9500138000003,2076.9500138000003,None,,2078.009106199999,2078.009106199999,2080.2354949,None,2076.9500138000003,2076.9500138000003,,,2,001,2024-06-04_13h44.20.028,robot_nback_sign,2022.2.5,60.02581109790168,
K,False,2,letter,1,False,False,robot_stimuli\\filler.mp4,2,,,,,,,,,0,102,102,102,,,,,,,,,,,,,2080.2354949,2081.291357899987,,,,,,,2083.520054099994,2083.520054099994,2083.520054099994,2083.520054099994,2083.520054099994,2083.520054099994,2083.520054099994,2083.520054099994,None,None,None,,,,,,,,,,,2080.2354949,2080.2354949,None,,2081.291357899987,2081.291357899987,2083.520054099994,n,2080.2354949,2080.2354949,0.8809911000134889,,2,001,2024-06-04_13h44.20.028,robot_nback_sign,2022.2.5,60.02581109790168,
H,False,2,letter,1,False,False,robot_stimuli\\filler.mp4,2,,,,,,,,,0,103,103,103,,,,,,,,,,,,,2083.520054099994,2084.5739953999873,,,,,,,2086.798860199997,2086.798860199997,2086.798860199997,2086.798860199997,2086.798860199997,2086.798860199997,2086.798860199997,2086.798860199997,None,None,None,,,,,,,,,,,2083.520054099994,2083.520054099994,None,,2084.5739953999873,2084.5739953999873,2086.798860199997,n,2083.520054099994,2083.520054099994,0.7892834000085713,,2,001,2024-06-04_13h44.20.028,robot_nback_sign,2022.2.5,60.02581109790168,
S,False,2,letter,1,False,False,robot_stimuli\\filler.mp4,2,,,,,,,,,0,104,104,104,,,,,,,,,,,,,2086.798860199997,2087.858066899993,,,,,,,2089.888912299997,2089.888912299997,2089.888912299997,2089.888912299997,2089.888912299997,2089.888912299997,2089.888912299997,2089.888912299997,None,None,None,,,,,,,,,,,2086.798860199997,2086.798860199997,None,,2087.858066899993,2087.858066899993,2089.888912299997,n,2086.798860199997,2086.798860199997,0.4891479000070831,,2,001,2024-06-04_13h44.20.028,robot_nback_sign,2022.2.5,60.02581109790168,
N,False,2,letter,1,False,False,robot_stimuli\\filler.mp4,2,,,,,,,,,0,105,105,105,,,,,,,,,,,,,2089.888912299997,,,,,,,,2092.993924399998,2092.993924399998,2092.993924399998,2092.993924399998,2092.993924399998,2092.993924399998,2092.993924399998,2092.993924399998,None,None,None,,,,,,,,,,,2089.888912299997,2089.888912299997,None,,2090.9604965999897,2090.9604965999897,2092.993924399998,n,2089.888912299997,2089.888912299997,1.4748887999885483,,2,001,2024-06-04_13h44.20.028,robot_nback_sign,2022.2.5,60.02581109790168,
S,True,2,letter,1,False,False,robot_stimuli\\filler.mp4,2,,,,,,,,,0,106,106,106,,,,,,,,,,,,,2092.993924399998,2094.0578861999966,,,,,,,2096.0881790999993,2096.0881790999993,2096.0881790999993,2096.0881790999993,2096.0881790999993,2096.0881790999993,2096.0881790999993,2096.0881790999993,None,None,None,,,,,,,,,,,2092.993924399998,2092.993924399998,None,,2094.0578861999966,2094.0578861999966,2096.0881790999993,c,2092.993924399998,2092.993924399998,1.0423180000070715,,2,001,2024-06-04_13h44.20.028,robot_nback_sign,2022.2.5,60.02581109790168,
P,False,2,letter,1,False,False,robot_stimuli\\filler.mp4,2,,,,,,,,,0,107,107,107,,,,,,,,,,,,,2096.0881790999993,2097.1437627999985,,,,,,,2099.1776203999907,2099.1776203999907,2099.1776203999907,2099.1776203999907,2099.1776203999907,2099.1776203999907,2099.1776203999907,2099.1776203999907,None,None,None,,,,,,,,,,,2096.0881790999993,2096.0881790999993,None,,2097.1437627999985,2097.1437627999985,2099.1776203999907,n,2096.0881790999993,2096.0881790999993,1.2030215999984648,,2,001,2024-06-04_13h44.20.028,robot_nback_sign,2022.2.5,60.02581109790168,
C,False,2,letter,1,False,False,robot_stimuli\\filler.mp4,2,,,,,,,,,0,108,108,108,,,,,,,,,,,,,2099.1776203999907,2100.2419846999983,,,,,,,2102.2704201999877,2102.2704201999877,2102.2704201999877,2102.2704201999877,2102.2704201999877,2102.2704201999877,2102.2704201999877,2102.2704201999877,None,None,None,,,,,,,,,,,2099.1776203999907,2099.1776203999907,None,,2100.2419846999983,2100.2419846999983,2102.2704201999877,n,2099.1776203999907,2099.1776203999907,1.3525457000068855,,2,001,2024-06-04_13h44.20.028,robot_nback_sign,2022.2.5,60.02581109790168,
S,False,2,letter,1,False,False,robot_stimuli\\filler.mp4,2,,,,,,,,,0,109,109,109,,,,,,,,,,,,,2102.2704201999877,2103.3258151999908,,,,,,,2105.549762099996,2105.549762099996,2105.549762099996,2105.549762099996,2105.549762099996,2105.549762099996,2105.549762099996,2105.549762099996,None,None,None,,,,,,,,,,,2102.2704201999877,2102.2704201999877,None,,2103.3258151999908,2103.3258151999908,2105.549762099996,n,2102.2704201999877,2102.2704201999877,1.2306414999911794,,2,001,2024-06-04_13h44.20.028,robot_nback_sign,2022.2.5,60.02581109790168,
V,False,2,letter,1,False,False,robot_stimuli\\filler.mp4,2,,,,,,,,,0,110,110,110,,,,,,,,,,,,,2105.549762099996,2106.6092468999996,,,,,,,2108.84033169999,2108.84033169999,2108.84033169999,2108.84033169999,2108.84033169999,2108.84033169999,2108.84033169999,2108.84033169999,None,None,None,,,,,,,,,,,2105.549762099996,2105.549762099996,None,,2106.6092468999996,2106.6092468999996,2108.84033169999,n,2105.549762099996,2105.549762099996,1.554920000009588,,2,001,2024-06-04_13h44.20.028,robot_nback_sign,2022.2.5,60.02581109790168,
S,True,2,letter,1,False,False,robot_stimuli\\filler.mp4,2,,,,,,,,,0,111,111,111,,,,,,,,,,,,,2108.84033169999,,,,,,,,2111.940870499995,2111.940870499995,2111.940870499995,2111.940870499995,2111.940870499995,2111.940870499995,2111.940870499995,2111.940870499995,None,None,None,,,,,,,,,,,2108.84033169999,2108.84033169999,None,,2109.9094961999945,2109.9094961999945,2111.940870499995,c,2108.84033169999,2108.84033169999,1.0215032999985851,,2,001,2024-06-04_13h44.20.028,robot_nback_sign,2022.2.5,60.02581109790168,
V,True,2,letter,1,False,False,robot_stimuli\\filler.mp4,2,,,,,,,,,0,112,112,112,,,,,,,,,,,,,2111.940870499995,,,,,,,,2115.2375242999988,2115.2375242999988,2115.2375242999988,2115.2375242999988,2115.2375242999988,2115.2375242999988,2115.2375242999988,2115.2375242999988,None,None,None,,,,,,,,,,,2111.940870499995,2111.940870499995,None,,2113.0074303,2113.0074303,2115.2375242999988,c,2111.940870499995,2111.940870499995,0.9635979000013322,,2,001,2024-06-04_13h44.20.028,robot_nback_sign,2022.2.5,60.02581109790168,
H,False,2,letter,1,False,False,robot_stimuli\\filler.mp4,2,,,,,,,,,0,113,113,113,,,,,,,,,,,,,2115.2375242999988,2116.2927128999872,,,,,,,2118.330334299986,2118.330334299986,2118.330334299986,2118.330334299986,2118.330334299986,2118.330334299986,2118.330334299986,2118.330334299986,None,None,None,,,,,,,,,,,2115.2375242999988,2115.2375242999988,None,,2116.2927128999872,2116.2927128999872,2118.330334299986,n,2115.2375242999988,2115.2375242999988,0.6386622999998508,,2,001,2024-06-04_13h44.20.028,robot_nback_sign,2022.2.5,60.02581109790168,
B,False,2,letter,1,False,False,robot_stimuli\\filler.mp4,2,,,,,,,,,0,114,114,114,,,,,,,,,,,,,2118.330334299986,2119.4003913999913,,,,,,,2121.436267199999,2121.436267199999,2121.436267199999,2121.436267199999,2121.436267199999,2121.436267199999,2121.436267199999,2121.436267199999,None,None,None,,,,,,,,,,,2118.330334299986,2118.330334299986,None,,2119.4003913999913,2119.4003913999913,2121.436267199999,n,2118.330334299986,2118.330334299986,1.3227796999999555,,2,001,2024-06-04_13h44.20.028,robot_nback_sign,2022.2.5,60.02581109790168,
D,False,2,letter,1,False,False,robot_stimuli\\filler.mp4,2,,,,,,,,,0,115,115,115,,,,,,,,,,,,,2121.436267199999,2122.5016952000005,,,,,,,2124.5272029999905,2124.5272029999905,2124.5272029999905,2124.5272029999905,2124.5272029999905,2124.5272029999905,2124.5272029999905,2124.5272029999905,None,None,None,,,,,,,,,,,2121.436267199999,2121.436267199999,None,,2122.5016952000005,2122.5016952000005,2124.5272029999905,n,2121.436267199999,2121.436267199999,1.0948074000043562,,2,001,2024-06-04_13h44.20.028,robot_nback_sign,2022.2.5,60.02581109790168,
R,False,2,letter,1,False,False,robot_stimuli\\filler.mp4,2,,,,,,,,,0,116,116,116,,,,,,,,,,,,,2124.5272029999905,2125.590871399996,,,,,,,2127.6233207999903,2127.6233207999903,2127.6233207999903,2127.6233207999903,2127.6233207999903,2127.6233207999903,2127.6233207999903,2127.6233207999903,None,None,None,,,,,,,,,,,2124.5272029999905,2124.5272029999905,None,,2125.590871399996,2125.590871399996,2127.6233207999903,n,2124.5272029999905,2124.5272029999905,1.173069900003611,,2,001,2024-06-04_13h44.20.028,robot_nback_sign,2022.2.5,60.02581109790168,
B,False,2,letter,1,False,False,robot_stimuli\\filler.mp4,2,,,,,,,,,0,117,117,117,,,,,,,,,,,,,2127.6233207999903,,,,,,,,2130.719907199993,2130.719907199993,2130.719907199993,2130.719907199993,2130.719907199993,2130.719907199993,2130.719907199993,2130.719907199993,None,None,None,,,,,,,,,,,2127.6233207999903,2127.6233207999903,None,,2128.6920325999963,2128.6920325999963,2130.719907199993,n,2127.6233207999903,2127.6233207999903,1.440577100001974,,2,001,2024-06-04_13h44.20.028,robot_nback_sign,2022.2.5,60.02581109790168,
B,False,2,letter,1,False,False,robot_stimuli\\filler.mp4,2,,,,,,,,,0,118,118,118,,,,,,,,,,,,,2130.719907199993,2131.7727222999965,,,,,,,2133.8075365999975,2133.8075365999975,2133.8075365999975,2133.8075365999975,2133.8075365999975,2133.8075365999975,2133.8075365999975,2133.8075365999975,None,None,None,,,,,,,,,,,2130.719907199993,2130.719907199993,None,,2131.7727222999965,2131.7727222999965,2133.8075365999975,n,2130.719907199993,2130.719907199993,1.3502112999995006,,2,001,2024-06-04_13h44.20.028,robot_nback_sign,2022.2.5,60.02581109790168,
B,True,2,letter,1,False,False,robot_stimuli\\filler.mp4,2,,,,,,,,,0,119,119,119,,,,,,,,,,,,,2133.8075365999975,,,,,,,,2137.106004999994,2137.106004999994,2137.106004999994,2137.106004999994,2137.106004999994,2137.106004999994,2137.106004999994,2137.106004999994,None,None,None,,,,,,,,,,,2133.8075365999975,2133.8075365999975,None,,2134.8742360999895,2134.8742360999895,2137.106004999994,c,2133.8075365999975,2133.8075365999975,0.5384752999962075,,2,001,2024-06-04_13h44.20.028,robot_nback_sign,2022.2.5,60.02581109790168,
K,False,2,letter,1,False,False,robot_stimuli\\filler.mp4,2,,,,,,,,,0,120,120,120,,,,,,,,,,,,,2137.106004999994,2138.159909199996,,,,,,,2140.385242999997,2140.385242999997,2140.385242999997,2140.385242999997,2140.385242999997,2140.385242999997,2140.385242999997,2140.385242999997,None,None,None,,,,,,,,,,,2137.106004999994,2137.106004999994,None,,2138.159909199996,2138.159909199996,2140.385242999997,n,2137.106004999994,2137.106004999994,0.8034791999962181,,2,001,2024-06-04_13h44.20.028,robot_nback_sign,2022.2.5,60.02581109790168,
H,False,2,letter,1,False,False,robot_stimuli\\filler.mp4,2,,,,,,,,,0,121,121,121,,,,,,,,,,,,,2140.385242999997,2141.4536888000002,,,,,,,2143.4757986999903,2143.4757986999903,2143.4757986999903,2143.4757986999903,2143.4757986999903,2143.4757986999903,2143.4757986999903,2143.4757986999903,None,None,None,,,,,,,,,,,2140.385242999997,2140.385242999997,None,,2141.4536888000002,2141.4536888000002,2143.4757986999903,n,2140.385242999997,2140.385242999997,0.6780068000080064,,2,001,2024-06-04_13h44.20.028,robot_nback_sign,2022.2.5,60.02581109790168,
K,True,2,letter,1,False,False,robot_stimuli\\filler.mp4,2,,,,,,,,,0,122,122,122,,,,,,,,,,,,,2143.4757986999903,2144.5417558999907,,,,,,,2146.5724985999987,2146.5724985999987,2146.5724985999987,2146.5724985999987,2146.5724985999987,2146.5724985999987,2146.5724985999987,2146.5724985999987,None,None,None,,,,,,,,,,,2143.4757986999903,2143.4757986999903,None,,2144.5417558999907,2144.5417558999907,2146.5724985999987,c,2143.4757986999903,2143.4757986999903,0.8698220999940531,,2,001,2024-06-04_13h44.20.028,robot_nback_sign,2022.2.5,60.02581109790168,
Z,False,2,letter,1,False,False,robot_stimuli\\filler.mp4,2,,,,,,,,,0,123,123,123,,,,,,,,,,,,,2146.5724985999987,,,,,,,,2149.873782499999,2149.873782499999,2149.873782499999,2149.873782499999,2149.873782499999,2149.873782499999,2149.873782499999,2149.873782499999,None,None,None,,,,,,,,,,,2146.5724985999987,2146.5724985999987,None,,2147.6421181999904,2147.6421181999904,2149.873782499999,n,2146.5724985999987,2146.5724985999987,0.6098918000061531,,2,001,2024-06-04_13h44.20.028,robot_nback_sign,2022.2.5,60.02581109790168,
N,False,2,letter,1,False,False,robot_stimuli\\filler.mp4,2,,,,,,,,,0,124,124,124,,,,,,,,,,,,,2149.873782499999,,,,,,,,2153.1740913999965,2153.1740913999965,2153.1740913999965,2153.1740913999965,2153.1740913999965,2153.1740913999965,2153.1740913999965,2153.1740913999965,None,None,None,,,,,,,,,,,2149.873782499999,2149.873782499999,None,,2150.9415889999946,2150.9415889999946,2153.1740913999965,n,2149.873782499999,2149.873782499999,0.7426479999994626,,2,001,2024-06-04_13h44.20.028,robot_nback_sign,2022.2.5,60.02581109790168,
P,False,2,letter,1,False,False,robot_stimuli\\filler.mp4,2,,,,,,,,,0,125,125,125,,,,,,,,,,,,,2153.1740913999965,,,,,,,,2156.277430599992,2156.277430599992,2156.277430599992,2156.277430599992,2156.277430599992,2156.277430599992,2156.277430599992,2156.277430599992,None,None,None,,,,,,,,,,,2153.1740913999965,2153.1740913999965,None,,2154.24306719999,2154.24306719999,2156.277430599992,None,2153.1740913999965,2153.1740913999965,,,2,001,2024-06-04_13h44.20.028,robot_nback_sign,2022.2.5,60.02581109790168,
L,False,2,letter,1,False,False,robot_stimuli\\filler.mp4,2,,,,,,,,,0,126,126,126,,,,,,,,,,,,,2156.277430599992,2157.3428354999924,,,,,,,2159.3731109999935,2159.3731109999935,2159.3731109999935,2159.3731109999935,2159.3731109999935,2159.3731109999935,2159.3731109999935,2159.3731109999935,None,None,None,,,,,,,,,,,2156.277430599992,2156.277430599992,None,,2157.3428354999924,2157.3428354999924,2159.3731109999935,n,2156.277430599992,2156.277430599992,0.8446555000118678,,2,001,2024-06-04_13h44.20.028,robot_nback_sign,2022.2.5,60.02581109790168,
G,False,2,letter,1,False,False,robot_stimuli\\filler.mp4,2,,,,,,,,,0,127,127,127,,,,,,,,,,,,,2159.3731109999935,,,,,,,,2162.4726920999965,2162.4726920999965,2162.4726920999965,2162.4726920999965,2162.4726920999965,2162.4726920999965,2162.4726920999965,2162.4726920999965,None,None,None,,,,,,,,,,,2159.3731109999935,2159.3731109999935,None,,2160.4423812999885,2160.4423812999885,2162.4726920999965,n,2159.3731109999935,2159.3731109999935,0.5695965999912005,,2,001,2024-06-04_13h44.20.028,robot_nback_sign,2022.2.5,60.02581109790168,
M,False,2,letter,1,False,False,robot_stimuli\\filler.mp4,2,,,,,,,,,0,128,128,128,,,,,,,,,,,,,2162.4726920999965,,,,,,,,2165.5725085999875,2165.5725085999875,2165.5725085999875,2165.5725085999875,2165.5725085999875,2165.5725085999875,2165.5725085999875,2165.5725085999875,None,None,None,,,,,,,,,,,2162.4726920999965,2162.4726920999965,None,,2163.5414705999865,2163.5414705999865,2165.5725085999875,n,2162.4726920999965,2162.4726920999965,0.845945799999754,,2,001,2024-06-04_13h44.20.028,robot_nback_sign,2022.2.5,60.02581109790168,
G,True,2,letter,1,False,False,robot_stimuli\\filler.mp4,2,,,,,,,,,0,129,129,129,,,,,,,,,,,,,2165.5725085999875,,,,,,,,2168.6748844999966,2168.6748844999966,2168.6748844999966,2168.6748844999966,2168.6748844999966,2168.6748844999966,2168.6748844999966,2168.6748844999966,None,None,None,,,,,,,,,,,2165.5725085999875,2165.5725085999875,None,,2166.6426958999946,2166.6426958999946,2168.6748844999966,c,2165.5725085999875,2165.5725085999875,1.2173999000078766,,2,001,2024-06-04_13h44.20.028,robot_nback_sign,2022.2.5,60.02581109790168,
J,False,2,letter,1,False,False,robot_stimuli\\filler.mp4,2,,,,,,,,,0,130,130,130,,,,,,,,,,,,,2168.6748844999966,,,,,,,,2171.970510299987,2171.970510299987,2171.970510299987,2171.970510299987,2171.970510299987,2171.970510299987,2171.970510299987,2171.970510299987,None,None,None,,,,,,,,,,,2168.6748844999966,2168.6748844999966,None,,2169.743134499993,2169.743134499993,2171.970510299987,n,2168.6748844999966,2168.6748844999966,0.805462999996962,,2,001,2024-06-04_13h44.20.028,robot_nback_sign,2022.2.5,60.02581109790168,
C,False,2,letter,1,False,False,robot_stimuli\\filler.mp4,2,,,,,,,,,0,131,131,131,,,,,,,,,,,,,2171.970510299987,2173.0353172999894,,,,,,,2175.068943399994,2175.068943399994,2175.068943399994,2175.068943399994,2175.068943399994,2175.068943399994,2175.068943399994,2175.068943399994,None,None,None,,,,,,,,,,,2171.970510299987,2171.970510299987,None,,2173.0353172999894,2173.0353172999894,2175.068943399994,n,2171.970510299987,2171.970510299987,0.8393243000027724,,2,001,2024-06-04_13h44.20.028,robot_nback_sign,2022.2.5,60.02581109790168,
X,False,2,letter,1,False,False,robot_stimuli\\filler.mp4,2,,,,,,,,,0,132,132,132,,,,,,,,,,,,,2175.068943399994,2176.1240704999946,,,,,,,2178.155855899997,2178.155855899997,2178.155855899997,2178.155855899997,2178.155855899997,2178.155855899997,2178.155855899997,2178.155855899997,None,None,None,,,,,,,,,,,2175.068943399994,2175.068943399994,None,,2176.1240704999946,2176.1240704999946,2178.155855899997,n,2175.068943399994,2175.068943399994,0.6628679999994347,,2,001,2024-06-04_13h44.20.028,robot_nback_sign,2022.2.5,60.02581109790168,
K,False,2,letter,1,False,False,robot_stimuli\\filler.mp4,2,,,,,,,,,0,133,133,133,,,,,,,,,,,,,2178.155855899997,,,,,,,,2181.458355499999,2181.458355499999,2181.458355499999,2181.458355499999,2181.458355499999,2181.458355499999,2181.458355499999,2181.458355499999,None,None,None,,,,,,,,,,,2178.155855899997,2178.155855899997,None,,2179.2243676999933,2179.2243676999933,2181.458355499999,n,2178.155855899997,2178.155855899997,0.8917396000033477,,2,001,2024-06-04_13h44.20.028,robot_nback_sign,2022.2.5,60.02581109790168,
F,False,2,letter,1,False,False,robot_stimuli\\filler.mp4,2,,,,,,,,,0,134,134,134,,,,,,,,,,,,,2181.458355499999,2182.5236596999894,,,,,,,2184.5611302999896,2184.5611302999896,2184.5611302999896,2184.5611302999896,2184.5611302999896,2184.5611302999896,2184.5611302999896,2184.5611302999896,None,None,None,,,,,,,,,,,2181.458355499999,2181.458355499999,None,,2182.5236596999894,2182.5236596999894,2184.5611302999896,n,2181.458355499999,2181.458355499999,0.6084305999975186,,2,001,2024-06-04_13h44.20.028,robot_nback_sign,2022.2.5,60.02581109790168,
S,False,2,letter,1,False,False,robot_stimuli\\filler.mp4,2,,,,,,,,,0,135,135,135,,,,,,,,,,,,,2184.5611302999896,2185.624744799992,,,,,,,2187.8589319999883,2187.8589319999883,2187.8589319999883,2187.8589319999883,2187.8589319999883,2187.8589319999883,2187.8589319999883,2187.8589319999883,None,None,None,,,,,,,,,,,2184.5611302999896,2184.5611302999896,None,,2185.624744799992,2185.624744799992,2187.8589319999883,n,2184.5611302999896,2184.5611302999896,0.771018900006311,,2,001,2024-06-04_13h44.20.028,robot_nback_sign,2022.2.5,60.02581109790168,
J,False,2,letter,1,False,False,robot_stimuli\\filler.mp4,2,,,,,,,,,0,136,136,136,,,,,,,,,,,,,2187.8589319999883,2188.924574699995,,,,,,,2191.1603846999933,2191.1603846999933,2191.1603846999933,2191.1603846999933,2191.1603846999933,2191.1603846999933,2191.1603846999933,2191.1603846999933,None,None,None,,,,,,,,,,,2187.8589319999883,2187.8589319999883,None,,2188.924574699995,2188.924574699995,2191.1603846999933,n,2187.8589319999883,2187.8589319999883,1.9680269000091357,,2,001,2024-06-04_13h44.20.028,robot_nback_sign,2022.2.5,60.02581109790168,
B,False,2,letter,1,False,False,robot_stimuli\\filler.mp4,2,,,,,,,,,0,137,137,137,,,,,,,,,,,,,2191.1603846999933,2192.2260886999866,,,,,,,2194.2572008999996,2194.2572008999996,2194.2572008999996,2194.2572008999996,2194.2572008999996,2194.2572008999996,2194.2572008999996,2194.2572008999996,None,None,None,,,,,,,,,,,2191.1603846999933,2191.1603846999933,None,,2192.2260886999866,2192.2260886999866,2194.2572008999996,n,2191.1603846999933,2191.1603846999933,1.5857343999959994,,2,001,2024-06-04_13h44.20.028,robot_nback_sign,2022.2.5,60.02581109790168,
J,True,2,letter,1,False,False,robot_stimuli\\filler.mp4,2,,,,,,,,,0,138,138,138,,,,,,,,,,,,,2194.2572008999996,,,,,,,,2197.3502912999975,2197.3502912999975,2197.3502912999975,2197.3502912999975,2197.3502912999975,2197.3502912999975,2197.3502912999975,2197.3502912999975,None,None,None,,,,,,,,,,,2194.2572008999996,2194.2572008999996,None,,2195.3256196999864,2195.3256196999864,2197.3502912999975,c,2194.2572008999996,2194.2572008999996,0.8455560000002151,,2,001,2024-06-04_13h44.20.028,robot_nback_sign,2022.2.5,60.02581109790168,
M,False,2,letter,1,False,False,robot_stimuli\\filler.mp4,2,,,,,,,,,0,139,139,139,,,,,,,,,,,,,2197.3502912999975,2198.4088372999977,,,,,,,2200.6420916999923,2200.6420916999923,2200.6420916999923,2200.6420916999923,2200.6420916999923,2200.6420916999923,2200.6420916999923,2200.6420916999923,None,None,None,,,,,,,,,,,2197.3502912999975,2197.3502912999975,None,,2198.4088372999977,2198.4088372999977,2200.6420916999923,n,2197.3502912999975,2197.3502912999975,0.4993066000024555,,2,001,2024-06-04_13h44.20.028,robot_nback_sign,2022.2.5,60.02581109790168,
J,True,2,letter,1,False,False,robot_stimuli\\filler.mp4,2,,,,,,,,,0,140,140,140,,,,,,,,,,,,,2200.6420916999923,2201.7182062999927,,,,,,,2203.748185699995,2203.748185699995,2203.748185699995,2203.748185699995,2203.748185699995,2203.748185699995,2203.748185699995,2203.748185699995,None,None,None,,,,,,,,,,,2200.6420916999923,2200.6420916999923,None,,2201.7182062999927,2201.7182062999927,2203.748185699995,c,2200.6420916999923,2200.6420916999923,1.3016236000112258,,2,001,2024-06-04_13h44.20.028,robot_nback_sign,2022.2.5,60.02581109790168,
D,False,2,letter,1,False,False,robot_stimuli\\filler.mp4,2,,,,,,,,,0,141,141,141,,,,,,,,,,,,,2203.748185699995,2204.823807599998,,,,,,,2207.055262599999,2207.055262599999,2207.055262599999,2207.055262599999,2207.055262599999,2207.055262599999,2207.055262599999,2207.055262599999,None,None,None,,,,,,,,,,,2203.748185699995,2203.748185699995,None,,2204.823807599998,2204.823807599998,2207.055262599999,n,2203.748185699995,2203.748185699995,1.6449728000006871,,2,001,2024-06-04_13h44.20.028,robot_nback_sign,2022.2.5,60.02581109790168,
X,False,2,letter,1,False,False,robot_stimuli\\filler.mp4,2,,,,,,,,,0,142,142,142,,,,,,,,,,,,,2207.055262599999,2208.1077291999973,,,,,,,2210.332947799994,2210.332947799994,2210.332947799994,2210.332947799994,2210.332947799994,2210.332947799994,2210.332947799994,2210.332947799994,None,None,None,,,,,,,,,,,2207.055262599999,2207.055262599999,None,,2208.1077291999973,2208.1077291999973,2210.332947799994,n,2207.055262599999,2207.055262599999,0.8391100000008009,,2,001,2024-06-04_13h44.20.028,robot_nback_sign,2022.2.5,60.02581109790168,
