sequence,is_true,target,condition,stimuli,block,is_block_beginning,is_block_ending,sequence_fnames,target_fname,subject,retraining.thisRepN,retraining.thisTrialN,retraining.thisN,retraining.thisIndex,training.thisRepN,training.thisTrialN,training.thisN,training.thisIndex,training_sequence_loop.thisRepN,training_sequence_loop.thisTrialN,training_sequence_loop.thisN,training_sequence_loop.thisIndex,trials.thisRepN,trials.thisTrialN,trials.thisN,trials.thisIndex,sequence_loop.thisRepN,sequence_loop.thisTrialN,sequence_loop.thisN,sequence_loop.thisIndex,langage_text.started,langage_key.started,langage_key.keys,langage_key.rt,intro_text.started,intro_key.started,intro_key.keys,intro_key.rt,training_intro_text.started,training_intro_key.started,training_intro_key.keys,training_intro_key.rt,polygon.started,polygon.stopped,training_presentation_letter.started,training_presentation_letter.stopped,training_recall_letter.started,training_recall_key.started,training_recall_question.started,training_recall_answer.started,training_recall_key.keys,training_recall_key.rt,RSME_labels.started,RSME_labels.stopped,RSME_ticks.started,RSME_ticks.stopped,RSME_text.started,RSME_text.stopped,RSME_key.started,RSME_key.stopped,RSME_ticks.response,RSME_ticks.rt,RSME_key.keys,training_intro_text.stopped,training_intro_key.stopped,RSME_key.rt,training_presentation_movie.started,training_recall_movie.started,experiment_beginning_text.started,experiment_beginning_keys.started,experiment_beginning_key.started,experiment_beginning_key.keys,experiment_beginning_key.rt,block_intro_text.started,block_intro_key.started,block_intro_key.keys,block_intro_key.rt,presentation_movie.started,recall_movie.started,recall_key.started,recall_question.started,recall_answer.started,recall_key.keys,recall_key.rt,block_intro_text.stopped,block_intro_key.stopped,presentation_letter.started,presentation_letter.stopped,recall_letter.started,participant,session,date,expName,psychopyVersion,frameRate,
,,,,,,,,,,,,,,,,,,,,,,,,,,,,,,,17.505650100007188,17.505650100007188,f,13.901625200000126,,,,,,,,,,,,,,,,,,,,,,,,,,,,,,,,,,,,,,,,,,,,,,,,,,,,,,,,13,001,2024-07-09_14h05.17.473,robot_sternberg_sign,2022.2.5,59.94632405748674,
,,,,,,,,,,,,,,,,,,,,,,,,,,,,,,,,,,,31.469321199983824,31.469321199983824,space,100.26602660003118,,,,,,,,,,,,,,,,,,,,,,,,,,,,,,,,,,,,,,,,,,,,,,,,,,,,13,001,2024-07-09_14h05.17.473,robot_sternberg_sign,2022.2.5,59.94632405748674,
"['X', 'W']",True,X,2,letter,2,True,False,"['robot_stimuli\\\\filler.mp4', 'robot_stimuli\\\\filler.mp4']",robot_stimuli\\filler.mp4,13,0,0,0,0,0,0,0,0,,,,,,,,,,,,,,,,,,,,,131.76873369998066,131.76873369998066,space,18.550923800037708,156.19267779996153,157.2917811999796,153.98003809998045,156.19267779996153,157.2917811999796,157.2917811999796,157.2917811999796,157.2917811999796,c,2.355511900037527,159.81953879998764,159.81953879998764,159.81953879998764,159.81953879998764,159.81953879998764,159.81953879998764,159.81953879998764,159.81953879998764,None,None,None,,,,,,,,,,,,,,,,,,,,,,,,,,,13,001,2024-07-09_14h05.17.473,robot_sternberg_sign,2022.2.5,59.94632405748674,
"['T', 'W']",True,T,2,letter,2,False,False,"['robot_stimuli\\\\filler.mp4', 'robot_stimuli\\\\filler.mp4']",robot_stimuli\\filler.mp4,13,0,0,0,0,0,1,1,1,,,,,,,,,,,,,,,,,,,,,159.81953879998764,159.81953879998764,None,,165.2218523999909,166.28651099995477,163.20193009998184,165.2218523999909,166.28651099995477,166.28651099995477,166.28651099995477,166.28651099995477,c,1.9034939000266604,168.31787379999878,168.31787379999878,168.31787379999878,168.31787379999878,168.31787379999878,168.31787379999878,168.31787379999878,168.31787379999878,None,None,None,159.81953879998764,159.81953879998764,,,,,,,,,,,,,,,,,,,,,,,,,13,001,2024-07-09_14h05.17.473,robot_sternberg_sign,2022.2.5,59.94632405748674,
"['X', 'M']",False,P,2,letter,2,False,True,"['robot_stimuli\\\\filler.mp4', 'robot_stimuli\\\\filler.mp4']",robot_stimuli\\filler.mp4,13,0,0,0,0,0,2,2,2,,,,,,,,,,,,,,,,,,,,,168.31787379999878,168.31787379999878,None,,173.71485619997839,174.7886153999716,171.6986307000043,173.71485619997839,174.7886153999716,174.7886153999716,174.7886153999716,174.7886153999716,n,2.1459733999799937,177.10043539997423,188.1468576999614,177.10043539997423,188.1468576999614,177.10043539997423,188.1468576999614,177.10043539997423,188.1468576999614,4.691358024691358,8.496054500050377,space,168.31787379999878,168.31787379999878,10.98660619999282,,,,,,,,,,,,,,,,,,,,,,,,13,001,2024-07-09_14h05.17.473,robot_sternberg_sign,2022.2.5,59.94632405748674,
"['C', 'W', 'T', 'F']",False,R,4,letter,2,True,False,"['robot_stimuli\\\\filler.mp4', 'robot_stimuli\\\\filler.mp4', 'robot_stimuli\\\\filler.mp4', 'robot_stimuli\\\\filler.mp4']",robot_stimuli\\filler.mp4,13,0,0,0,0,0,3,3,3,,,,,,,,,,,,,,,,,,,,,188.1468576999614,188.1468576999614,space,2.5562742999754846,200.31548639998073,201.38873149995925,198.2999682999798,200.31548639998073,201.38873149995925,201.38873149995925,201.38873149995925,201.38873149995925,n,1.890534000005573,203.41591799998423,203.41591799998423,203.41591799998423,203.41591799998423,203.41591799998423,203.41591799998423,203.41591799998423,203.41591799998423,None,None,None,,,,,,,,,,,,,,,,,,,,,,,,,,,13,001,2024-07-09_14h05.17.473,robot_sternberg_sign,2022.2.5,59.94632405748674,
"['K', 'W', 'F', 'H']",True,W,4,letter,2,False,False,"['robot_stimuli\\\\filler.mp4', 'robot_stimuli\\\\filler.mp4', 'robot_stimuli\\\\filler.mp4', 'robot_stimuli\\\\filler.mp4']",robot_stimuli\\filler.mp4,13,0,0,0,0,0,4,4,4,,,,,,,,,,,,,,,,,,,,,203.41591799998423,203.41591799998423,None,,213.03250079997815,214.10222309996607,211.01249679998728,213.03250079997815,214.10222309996607,214.10222309996607,214.10222309996607,214.10222309996607,c,2.993649300013203,217.3321274999762,217.3321274999762,217.3321274999762,217.3321274999762,217.3321274999762,217.3321274999762,217.3321274999762,217.3321274999762,None,None,None,203.41591799998423,203.41591799998423,,,,,,,,,,,,,,,,,,,,,,,,,13,001,2024-07-09_14h05.17.473,robot_sternberg_sign,2022.2.5,59.94632405748674,
"['Z', 'T', 'M', 'D']",True,M,4,letter,2,False,True,"['robot_stimuli\\\\filler.mp4', 'robot_stimuli\\\\filler.mp4', 'robot_stimuli\\\\filler.mp4', 'robot_stimuli\\\\filler.mp4']",robot_stimuli\\filler.mp4,13,0,0,0,0,0,5,5,5,,,,,,,,,,,,,,,,,,,,,217.3321274999762,217.3321274999762,None,,226.94487539998954,228.02337549999356,224.72872899996582,226.94487539998954,228.02337549999356,228.02337549999356,228.02337549999356,228.02337549999356,c,1.9667026000097394,230.08074159995886,237.2708056999836,230.08074159995886,237.2708056999836,230.08074159995886,237.2708056999836,230.08074159995886,237.2708056999836,5.92592592592592,3.686764000041876,space,217.3321274999762,217.3321274999762,7.125857100007124,,,,,,,,,,,,,,,,,,,,,,,,13,001,2024-07-09_14h05.17.473,robot_sternberg_sign,2022.2.5,59.94632405748674,
"['R', 'P', 'K', 'S', 'F', 'H']",True,H,6,letter,2,True,False,"['robot_stimuli\\\\filler.mp4', 'robot_stimuli\\\\filler.mp4', 'robot_stimuli\\\\filler.mp4', 'robot_stimuli\\\\filler.mp4', 'robot_stimuli\\\\filler.mp4', 'robot_stimuli\\\\filler.mp4']",robot_stimuli\\filler.mp4,13,0,0,0,0,0,6,6,6,,,,,,,,,,,,,,,,,,,,,237.2708056999836,237.2708056999836,space,2.392777000030037,253.688255999994,254.74561079998966,251.4744703999604,253.688255999994,254.74561079998966,254.74561079998966,254.74561079998966,254.74561079998966,c,1.5975327999913134,256.5790830999613,256.5790830999613,256.5790830999613,256.5790830999613,256.5790830999613,256.5790830999613,256.5790830999613,256.5790830999613,None,None,None,,,,,,,,,,,,,,,,,,,,,,,,,,,13,001,2024-07-09_14h05.17.473,robot_sternberg_sign,2022.2.5,59.94632405748674,
"['P', 'R', 'Z', 'F', 'X', 'Q']",True,R,6,letter,2,False,False,"['robot_stimuli\\\\filler.mp4', 'robot_stimuli\\\\filler.mp4', 'robot_stimuli\\\\filler.mp4', 'robot_stimuli\\\\filler.mp4', 'robot_stimuli\\\\filler.mp4', 'robot_stimuli\\\\filler.mp4']",robot_stimuli\\filler.mp4,13,0,0,0,0,0,7,7,7,,,,,,,,,,,,,,,,,,,,,256.5790830999613,256.5790830999613,None,,270.5408610999584,257.64221079996787,268.3274951999774,270.5408610999584,271.6181338999886,271.6181338999886,271.6181338999886,271.6181338999886,c,1.7731092000030912,273.44839430000866,273.44839430000866,273.44839430000866,273.44839430000866,273.44839430000866,273.44839430000866,273.44839430000866,273.44839430000866,None,None,None,256.5790830999613,256.5790830999613,,,,,,,,,,,,,,,,,,,,,,,,,13,001,2024-07-09_14h05.17.473,robot_sternberg_sign,2022.2.5,59.94632405748674,
"['R', 'S', 'F', 'K', 'Z', 'G']",False,B,6,letter,2,False,True,"['robot_stimuli\\\\filler.mp4', 'robot_stimuli\\\\filler.mp4', 'robot_stimuli\\\\filler.mp4', 'robot_stimuli\\\\filler.mp4', 'robot_stimuli\\\\filler.mp4', 'robot_stimuli\\\\filler.mp4']",robot_stimuli\\filler.mp4,13,0,0,0,0,0,8,8,8,,,,,,,,,,,,,,,,,,,,,273.44839430000866,273.44839430000866,None,,287.1846221999731,288.2555822999566,285.16860659996746,287.1846221999731,288.2555822999566,288.2555822999566,288.2555822999566,288.2555822999566,n,1.5601593000465073,289.9094635999645,294.67279769998277,289.9094635999645,294.67279769998277,289.9094635999645,294.67279769998277,289.9094635999645,294.67279769998277,5.92592592592592,3.0836196000454947,space,273.44839430000866,273.44839430000866,4.713457499979995,,,,,,,,,,,,,,,,,,,,,,,,13,001,2024-07-09_14h05.17.473,robot_sternberg_sign,2022.2.5,59.94632405748674,
"['L_Base_Y_For', 'L_Torso_X_Back']",False,R_Head_X_For,2,robot,1,True,False,"['robot_stimuli\\L_Base_Y_For.mp4', 'robot_stimuli\\L_Torso_X_Back.mp4']",robot_stimuli\R_Head_X_For.mp4,13,0,0,0,0,0,9,9,9,,,,,,,,,,,,,,,,,,,,,294.67279769998277,294.67279769998277,space,2.6311246000113897,305.67832279996946,306.7720541000017,,,,306.7720541000017,306.7720541000017,306.7720541000017,n,6.041983700008132,312.85517890000483,312.85517890000483,312.85517890000483,312.85517890000483,312.85517890000483,312.85517890000483,312.85517890000483,312.85517890000483,None,None,None,,,,302.03673559997696,306.7720541000017,,,,,,,,,,,,,,,,,,,,,,13,001,2024-07-09_14h05.17.473,robot_sternberg_sign,2022.2.5,59.94632405748674,
"['R_Base_X_For', 'R_Arm_Z_For']",True,R_Arm_Z_For,2,robot,1,False,False,"['robot_stimuli\\R_Base_X_For.mp4', 'robot_stimuli\\R_Arm_Z_For.mp4']",robot_stimuli\R_Arm_Z_For.mp4,13,0,0,0,0,0,10,10,10,,,,,,,,,,,,,,,,,,,,,312.85517890000483,312.85517890000483,None,,321.2218720999663,322.3040553999599,,,,322.3040553999599,322.3040553999599,322.3040553999599,c,6.063097300007939,328.3984003000078,328.3984003000078,328.3984003000078,328.3984003000078,328.3984003000078,328.3984003000078,328.3984003000078,328.3984003000078,None,None,None,312.85517890000483,312.85517890000483,,317.5882457999978,322.3040553999599,,,,,,,,,,,,,,,,,,,,,,13,001,2024-07-09_14h05.17.473,robot_sternberg_sign,2022.2.5,59.94632405748674,
"['L_Head_Z_For', 'L_Head_Y_For']",True,L_Head_Y_For,2,robot,1,False,True,"['robot_stimuli\\L_Head_Z_For.mp4', 'robot_stimuli\\L_Head_Y_For.mp4']",robot_stimuli\L_Head_Y_For.mp4,13,0,0,0,0,0,11,11,11,,,,,,,,,,,,,,,,,,,,,328.3984003000078,328.3984003000078,None,,336.8566681999946,329.49415059998864,,,,337.96451729995897,337.96451729995897,337.96451729995897,c,10.722696600016207,348.7486344999634,357.82254979998106,348.7486344999634,357.82254979998106,348.7486344999634,357.82254979998106,348.7486344999634,357.82254979998106,19.66049382716049,7.100553500000387,space,328.3984003000078,328.3984003000078,9.010285900032613,333.2343065000023,337.96451729995897,,,,,,,,,,,,,,,,,,,,,,13,001,2024-07-09_14h05.17.473,robot_sternberg_sign,2022.2.5,59.94632405748674,
"['R_Torso_Y_Back', 'R_Head_X_For', 'L_Arm_Z_For', 'L_Torso_Z_For']",False,L_Base_Y_Back,4,robot,1,True,False,"['robot_stimuli\\R_Torso_Y_Back.mp4', 'robot_stimuli\\R_Head_X_For.mp4', 'robot_stimuli\\L_Arm_Z_For.mp4', 'robot_stimuli\\L_Torso_Z_For.mp4']",robot_stimuli\L_Base_Y_Back.mp4,13,0,0,0,0,0,12,12,12,,,,,,,,,,,,,,,,,,,,,357.82254979998106,357.82254979998106,space,5.136969799990766,378.93085659999633,380.03487879998283,,,,380.03487879998283,380.03487879998283,380.03487879998283,n,12.588335999986157,392.6491856999928,392.6491856999928,392.6491856999928,392.6491856999928,392.6491856999928,392.6491856999928,392.6491856999928,392.6491856999928,None,None,None,,,,375.2853078999906,380.03487879998283,,,,,,,,,,,,,,,,,,,,,,13,001,2024-07-09_14h05.17.473,robot_sternberg_sign,2022.2.5,59.94632405748674,
"['L_Torso_X_For', 'R_Arm_X_For', 'R_Torso_Z_Back', 'L_Torso_X_Back']",True,R_Arm_X_For,4,robot,1,False,False,"['robot_stimuli\\L_Torso_X_For.mp4', 'robot_stimuli\\R_Arm_X_For.mp4', 'robot_stimuli\\R_Torso_Z_Back.mp4', 'robot_stimuli\\L_Torso_X_Back.mp4']",robot_stimuli\R_Arm_X_For.mp4,13,0,0,0,0,0,13,13,13,,,,,,,,,,,,,,,,,,,,,392.6491856999928,392.6491856999928,None,,408.55632689996855,393.73280160001013,,,,409.64654300000984,409.64654300000984,409.64654300000984,n,6.296006400021724,415.9798338999972,415.9798338999972,415.9798338999972,415.9798338999972,415.9798338999972,415.9798338999972,415.9798338999972,415.9798338999972,None,None,None,392.6491856999928,392.6491856999928,,404.9262063999777,409.64654300000984,,,,,,,,,,,,,,,,,,,,,,13,001,2024-07-09_14h05.17.473,robot_sternberg_sign,2022.2.5,59.94632405748674,
"['L_Head_Y_For', 'R_Torso_X_Back', 'L_Base_Z_Back', 'R_Arm_Z_For']",True,R_Arm_Z_For,4,robot,1,False,True,"['robot_stimuli\\L_Head_Y_For.mp4', 'robot_stimuli\\R_Torso_X_Back.mp4', 'robot_stimuli\\L_Base_Z_Back.mp4', 'robot_stimuli\\R_Arm_Z_For.mp4']",robot_stimuli\R_Arm_Z_For.mp4,13,0,0,0,0,0,14,14,14,,,,,,,,,,,,,,,,,,,,,415.9798338999972,415.9798338999972,None,,431.90930959995603,433.00177599996096,,,,433.00177599996096,433.00177599996096,433.00177599996096,c,4.0529267999809235,437.1160560999997,444.818042400002,437.1160560999997,444.818042400002,437.1160560999997,444.818042400002,437.1160560999997,444.818042400002,36.94444444444444,5.638749500038102,space,415.9798338999972,415.9798338999972,7.642099799995776,428.2663132000016,433.00177599996096,,,,,,,,,,,,,,,,,,,,,,13,001,2024-07-09_14h05.17.473,robot_sternberg_sign,2022.2.5,59.94632405748674,
"['R_Head_X_For', 'R_Head_Y_Back', 'R_Head_Z_Back', 'R_Arm_Z_For', 'L_Torso_Y_For', 'L_Head_X_For']",False,R_Arm_X_Back,6,robot,1,True,False,"['robot_stimuli\\R_Head_X_For.mp4', 'robot_stimuli\\R_Head_Y_Back.mp4', 'robot_stimuli\\R_Head_Z_Back.mp4', 'robot_stimuli\\R_Arm_Z_For.mp4', 'robot_stimuli\\L_Torso_Y_For.mp4', 'robot_stimuli\\L_Head_X_For.mp4']",robot_stimuli\R_Arm_X_Back.mp4,13,0,0,0,0,0,15,15,15,,,,,,,,,,,,,,,,,,,,,444.818042400002,444.818042400002,space,5.196678799984511,473.31228949996876,474.39999899995746,,,,474.39999899995746,474.39999899995746,474.39999899995746,n,5.583336799987592,480.01601500000106,480.01601500000106,480.01601500000106,480.01601500000106,480.01601500000106,480.01601500000106,480.01601500000106,480.01601500000106,None,None,None,,,,469.7372331999941,474.39999899995746,,,,,,,,,,,,,,,,,,,,,,13,001,2024-07-09_14h05.17.473,robot_sternberg_sign,2022.2.5,59.94632405748674,
"['R_Head_X_For', 'L_Base_X_Back', 'L_Base_Z_For', 'L_Torso_Y_For', 'R_Base_Y_Back', 'R_Torso_Z_Back']",True,R_Base_Y_Back,6,robot,1,False,False,"['robot_stimuli\\R_Head_X_For.mp4', 'robot_stimuli\\L_Base_X_Back.mp4', 'robot_stimuli\\L_Base_Z_For.mp4', 'robot_stimuli\\L_Torso_Y_For.mp4', 'robot_stimuli\\R_Base_Y_Back.mp4', 'robot_stimuli\\R_Torso_Z_Back.mp4']",robot_stimuli\R_Base_Y_Back.mp4,13,0,0,0,0,0,16,16,16,,,,,,,,,,,,,,,,,,,,,480.01601500000106,480.01601500000106,None,,503.3255985999713,504.41703690000577,,,,504.41703690000577,504.41703690000577,504.41703690000577,c,4.022256700030994,508.46835250000004,508.46835250000004,508.46835250000004,508.46835250000004,508.46835250000004,508.46835250000004,508.46835250000004,508.46835250000004,None,None,None,480.01601500000106,480.01601500000106,,499.69318299996667,504.41703690000577,,,,,,,,,,,,,,,,,,,,,,13,001,2024-07-09_14h05.17.473,robot_sternberg_sign,2022.2.5,59.94632405748674,
"['L_Base_Y_Back', 'L_Arm_X_Back', 'R_Torso_Z_For', 'L_Head_Y_Back', 'R_Head_Z_Back', 'R_Arm_Y_Back']",True,L_Arm_X_Back,6,robot,1,False,True,"['robot_stimuli\\L_Base_Y_Back.mp4', 'robot_stimuli\\L_Arm_X_Back.mp4', 'robot_stimuli\\R_Torso_Z_For.mp4', 'robot_stimuli\\L_Head_Y_Back.mp4', 'robot_stimuli\\R_Head_Z_Back.mp4', 'robot_stimuli\\R_Arm_Y_Back.mp4']",robot_stimuli\L_Arm_X_Back.mp4,13,0,0,0,0,0,17,17,17,,,,,,,,,,,,,,,,,,,,,508.46835250000004,508.46835250000004,None,,531.7381295000087,532.8182467999868,,,,532.8182467999868,532.8182467999868,532.8182467999868,n,9.756892999983393,542.6511123999953,549.5195936000091,542.6511123999953,549.5195936000091,542.6511123999953,549.5195936000091,542.6511123999953,549.5195936000091,56.85185185185185,5.858730099978857,space,508.46835250000004,508.46835250000004,6.819468000030611,528.1154718999751,532.8182467999868,,,,,,,,,,,,,,,,,,,,,,13,001,2024-07-09_14h05.17.473,robot_sternberg_sign,2022.2.5,59.94632405748674,
,,,,,,,,,,,0,0,0,0,,,,,,,,,,,,,,,,,,,,,,,,,,,,,,,,,,,,,,,,,,,,,,,,,,,,,,,549.5195936000091,549.5195936000091,549.5195936000091,c,2.46400509995874,,,,,,,,,,,,,,,,,13,001,2024-07-09_14h05.17.473,robot_sternberg_sign,2022.2.5,59.94632405748674,
"['L_Torso_Z_For', 'L_Base_X_Back']",False,R_Arm_X_For,2,robot,1,True,False,"['robot_stimuli\\L_Torso_Z_For.mp4', 'robot_stimuli\\L_Base_X_Back.mp4']",robot_stimuli\R_Arm_X_For.mp4,13,,,,,,,,,,,,,0,0,0,0,,,,,,,,,,,,,,,,,563.8265288999537,564.9168650999782,,,,,,,,,569.4868757000077,569.4868757000077,569.4868757000077,569.4868757000077,569.4868757000077,569.4868757000077,569.4868757000077,569.4868757000077,None,None,None,,,,,,,,,,,552.0205611999845,552.0205611999845,space,3.379174100002274,560.2184012999642,564.9168650999782,564.9168650999782,564.9168650999782,564.9168650999782,n,4.529955199977849,,,,,,13,001,2024-07-09_14h05.17.473,robot_sternberg_sign,2022.2.5,59.94632405748674,
"['R_Arm_X_For', 'R_Torso_Z_For']",False,L_Base_Z_For,2,robot,1,False,False,"['robot_stimuli\\R_Arm_X_For.mp4', 'robot_stimuli\\R_Torso_Z_For.mp4']",robot_stimuli\L_Base_Z_For.mp4,13,,,,,,,,,,,,,0,1,1,1,,,,,,,,,,,,,,,,,577.9313752999878,579.0269859999535,,,,,,,,,585.8877721999888,585.8877721999888,585.8877721999888,585.8877721999888,585.8877721999888,585.8877721999888,585.8877721999888,585.8877721999888,None,None,None,,,,,,,,,,,569.4868757000077,569.4868757000077,None,,574.2988792999531,579.0269859999535,579.0269859999535,579.0269859999535,579.0269859999535,n,6.819563099998049,569.4868757000077,569.4868757000077,,,,13,001,2024-07-09_14h05.17.473,robot_sternberg_sign,2022.2.5,59.94632405748674,
"['R_Arm_X_Back', 'R_Head_Y_Back']",True,R_Arm_X_Back,2,robot,1,False,False,"['robot_stimuli\\R_Arm_X_Back.mp4', 'robot_stimuli\\R_Head_Y_Back.mp4']",robot_stimuli\R_Arm_X_Back.mp4,13,,,,,,,,,,,,,0,2,2,2,,,,,,,,,,,,,,,,,594.32681649999,595.4157861999702,,,,,,,,,601.0878178999992,601.0878178999992,601.0878178999992,601.0878178999992,601.0878178999992,601.0878178999992,601.0878178999992,601.0878178999992,None,None,None,,,,,,,,,,,585.8877721999888,585.8877721999888,None,,590.6880365999532,595.4157861999702,595.4157861999702,595.4157861999702,595.4157861999702,n,5.630247999972198,585.8877721999888,585.8877721999888,,,,13,001,2024-07-09_14h05.17.473,robot_sternberg_sign,2022.2.5,59.94632405748674,
"['L_Arm_Z_For', 'R_Base_X_Back']",False,R_Arm_X_For,2,robot,1,False,False,"['robot_stimuli\\L_Arm_Z_For.mp4', 'robot_stimuli\\R_Base_X_Back.mp4']",robot_stimuli\R_Arm_X_For.mp4,13,,,,,,,,,,,,,0,3,3,3,,,,,,,,,,,,,,,,,609.5215844999766,610.5993175999611,,,,,,,,,615.0646577999578,615.0646577999578,615.0646577999578,615.0646577999578,615.0646577999578,615.0646577999578,615.0646577999578,615.0646577999578,None,None,None,,,,,,,,,,,601.0878178999992,601.0878178999992,None,,605.8902722999919,610.5993175999611,610.5993175999611,610.5993175999611,610.5993175999611,n,4.432308799994644,601.0878178999992,601.0878178999992,,,,13,001,2024-07-09_14h05.17.473,robot_sternberg_sign,2022.2.5,59.94632405748674,
"['R_Torso_Z_Back', 'L_Head_Y_For']",True,L_Head_Y_For,2,robot,1,False,False,"['robot_stimuli\\R_Torso_Z_Back.mp4', 'robot_stimuli\\L_Head_Y_For.mp4']",robot_stimuli\L_Head_Y_For.mp4,13,,,,,,,,,,,,,0,4,4,4,,,,,,,,,,,,,,,,,623.5084593999782,624.6021677000099,,,,,,,,,628.2502707999665,628.2502707999665,628.2502707999665,628.2502707999665,628.2502707999665,628.2502707999665,628.2502707999665,628.2502707999665,None,None,None,,,,,,,,,,,615.0646577999578,615.0646577999578,None,,619.8679014999652,624.6021677000099,624.6021677000099,624.6021677000099,624.6021677000099,c,3.1650621999870054,615.0646577999578,615.0646577999578,,,,13,001,2024-07-09_14h05.17.473,robot_sternberg_sign,2022.2.5,59.94632405748674,
"['L_Head_X_For', 'L_Arm_X_For']",False,L_Base_Y_For,2,robot,1,False,False,"['robot_stimuli\\L_Head_X_For.mp4', 'robot_stimuli\\L_Arm_X_For.mp4']",robot_stimuli\L_Base_Y_For.mp4,13,,,,,,,,,,,,,0,5,5,5,,,,,,,,,,,,,,,,,636.6135142999701,637.7015507000033,,,,,,,,,641.8045637999894,641.8045637999894,641.8045637999894,641.8045637999894,641.8045637999894,641.8045637999894,641.8045637999894,641.8045637999894,None,None,None,,,,,,,,,,,628.2502707999665,628.2502707999665,None,,632.983527400007,637.7015507000033,637.7015507000033,637.7015507000033,637.7015507000033,n,4.065972300013527,628.2502707999665,628.2502707999665,,,,13,001,2024-07-09_14h05.17.473,robot_sternberg_sign,2022.2.5,59.94632405748674,
"['R_Arm_Y_Back', 'R_Base_Y_Back']",True,R_Arm_Y_Back,2,robot,1,False,False,"['robot_stimuli\\R_Arm_Y_Back.mp4', 'robot_stimuli\\R_Base_Y_Back.mp4']",robot_stimuli\R_Arm_Y_Back.mp4,13,,,,,,,,,,,,,0,6,6,6,,,,,,,,,,,,,,,,,650.2216092000017,651.2969976000022,,,,,,,,,656.0836845999584,656.0836845999584,656.0836845999584,656.0836845999584,656.0836845999584,656.0836845999584,656.0836845999584,656.0836845999584,None,None,None,,,,,,,,,,,641.8045637999894,641.8045637999894,None,,646.6011219999637,651.2969976000022,651.2969976000022,651.2969976000022,651.2969976000022,n,4.757671600033063,641.8045637999894,641.8045637999894,,,,13,001,2024-07-09_14h05.17.473,robot_sternberg_sign,2022.2.5,59.94632405748674,
"['R_Head_Y_Back', 'L_Head_Y_For']",False,R_Head_Y_For,2,robot,1,False,False,"['robot_stimuli\\R_Head_Y_Back.mp4', 'robot_stimuli\\L_Head_Y_For.mp4']",robot_stimuli\R_Head_Y_For.mp4,13,,,,,,,,,,,,,0,7,7,7,,,,,,,,,,,,,,,,,664.5262640999863,665.6198528999812,,,,,,,,,669.8638262999593,669.8638262999593,669.8638262999593,669.8638262999593,669.8638262999593,669.8638262999593,669.8638262999593,669.8638262999593,None,None,None,,,,,,,,,,,656.0836845999584,656.0836845999584,None,,660.8861318999552,665.6198528999812,665.6198528999812,665.6198528999812,665.6198528999812,c,4.212226399977226,656.0836845999584,656.0836845999584,,,,13,001,2024-07-09_14h05.17.473,robot_sternberg_sign,2022.2.5,59.94632405748674,
"['L_Torso_Y_For', 'L_Head_X_Back']",True,L_Head_X_Back,2,robot,1,False,False,"['robot_stimuli\\L_Torso_Y_For.mp4', 'robot_stimuli\\L_Head_X_Back.mp4']",robot_stimuli\L_Head_X_Back.mp4,13,,,,,,,,,,,,,0,8,8,8,,,,,,,,,,,,,,,,,678.3109541999875,679.4024028999847,,,,,,,,,685.5617012999719,685.5617012999719,685.5617012999719,685.5617012999719,685.5617012999719,685.5617012999719,685.5617012999719,685.5617012999719,None,None,None,,,,,,,,,,,669.8638262999593,669.8638262999593,None,,674.6705449000001,679.4024028999847,679.4024028999847,679.4024028999847,679.4024028999847,c,6.13193199998932,669.8638262999593,669.8638262999593,,,,13,001,2024-07-09_14h05.17.473,robot_sternberg_sign,2022.2.5,59.94632405748674,
"['R_Torso_X_For', 'L_Base_Y_Back']",True,L_Base_Y_Back,2,robot,1,False,True,"['robot_stimuli\\R_Torso_X_For.mp4', 'robot_stimuli\\L_Base_Y_Back.mp4']",robot_stimuli\L_Base_Y_Back.mp4,13,,,,,,,,,,,,,0,9,9,9,,,,,,,,,,,,,,,,,693.9458476,695.0345769999549,,,,,,,,,699.4435774000012,706.7902670999756,699.4435774000012,706.7902670999756,699.4435774000012,706.7902670999756,699.4435774000012,706.7902670999756,48.98148148148148,4.406305099953897,space,,,7.28246009995928,,,,,,,,685.5617012999719,685.5617012999719,None,,690.3832527999766,695.0345769999549,695.0345769999549,695.0345769999549,695.0345769999549,c,4.348887600004673,685.5617012999719,685.5617012999719,,,,13,001,2024-07-09_14h05.17.473,robot_sternberg_sign,2022.2.5,59.94632405748674,
"['L_Head_Z_For', 'R_Head_Z_For', 'R_Head_Y_For', 'R_Base_Y_For']",True,R_Head_Y_For,4,robot,1,True,False,"['robot_stimuli\\L_Head_Z_For.mp4', 'robot_stimuli\\R_Head_Z_For.mp4', 'robot_stimuli\\R_Head_Y_For.mp4', 'robot_stimuli\\R_Base_Y_For.mp4']",robot_stimuli\R_Head_Y_For.mp4,13,,,,,,,,,,,,,0,10,10,10,,,,,,,,,,,,,,,,,727.6050273999572,728.6833093999885,,,,,,,,,733.7457536999718,733.7457536999718,733.7457536999718,733.7457536999718,733.7457536999718,733.7457536999718,733.7457536999718,733.7457536999718,None,None,None,,,,,,,,,,,706.7902670999756,706.7902670999756,space,4.913870699994732,723.9823012999841,728.6833093999885,728.6833093999885,728.6833093999885,728.6833093999885,c,5.0366725999629125,,,,,,13,001,2024-07-09_14h05.17.473,robot_sternberg_sign,2022.2.5,59.94632405748674,
"['R_Arm_Z_For', 'L_Arm_Z_Back', 'R_Head_Z_For', 'L_Torso_Y_Back']",True,L_Torso_Y_Back,4,robot,1,False,False,"['robot_stimuli\\R_Arm_Z_For.mp4', 'robot_stimuli\\L_Arm_Z_Back.mp4', 'robot_stimuli\\R_Head_Z_For.mp4', 'robot_stimuli\\L_Torso_Y_Back.mp4']",robot_stimuli\L_Torso_Y_Back.mp4,13,,,,,,,,,,,,,0,11,11,11,,,,,,,,,,,,,,,,,749.541097499954,734.8291086999816,,,,,,,,,759.1301847999566,759.1301847999566,759.1301847999566,759.1301847999566,759.1301847999566,759.1301847999566,759.1301847999566,759.1301847999566,None,None,None,,,,,,,,,,,733.7457536999718,733.7457536999718,None,,746.0295765000046,750.6338301000069,750.6338301000069,750.6338301000069,750.6338301000069,c,8.469317699957173,733.7457536999718,733.7457536999718,,,,13,001,2024-07-09_14h05.17.473,robot_sternberg_sign,2022.2.5,59.94632405748674,
"['L_Arm_Z_For', 'L_Torso_Y_For', 'L_Arm_Z_Back', 'R_Base_Z_For']",False,L_Base_Z_For,4,robot,1,False,False,"['robot_stimuli\\L_Arm_Z_For.mp4', 'robot_stimuli\\L_Torso_Y_For.mp4', 'robot_stimuli\\L_Arm_Z_Back.mp4', 'robot_stimuli\\R_Base_Z_For.mp4']",robot_stimuli\L_Base_Z_For.mp4,13,,,,,,,,,,,,,0,12,12,12,,,,,,,,,,,,,,,,,775.0051205999916,776.0850372999557,,,,,,,,,781.783090699988,781.783090699988,781.783090699988,781.783090699988,781.783090699988,781.783090699988,781.783090699988,781.783090699988,None,None,None,,,,,,,,,,,759.1301847999566,759.1301847999566,None,,771.3799914999981,776.0850372999557,776.0850372999557,776.0850372999557,776.0850372999557,c,5.666177500039339,759.1301847999566,759.1301847999566,,,,13,001,2024-07-09_14h05.17.473,robot_sternberg_sign,2022.2.5,59.94632405748674,
"['L_Head_Y_Back', 'R_Base_Z_Back', 'R_Base_X_For', 'L_Arm_Y_Back']",True,R_Base_Z_Back,4,robot,1,False,False,"['robot_stimuli\\L_Head_Y_Back.mp4', 'robot_stimuli\\R_Base_Z_Back.mp4', 'robot_stimuli\\R_Base_X_For.mp4', 'robot_stimuli\\L_Arm_Y_Back.mp4']",robot_stimuli\R_Base_Z_Back.mp4,13,,,,,,,,,,,,,0,13,13,13,,,,,,,,,,,,,,,,,797.4980675999541,798.595793299959,,,,,,,,,803.7706978999777,803.7706978999777,803.7706978999777,803.7706978999777,803.7706978999777,803.7706978999777,803.7706978999777,803.7706978999777,None,None,None,,,,,,,,,,,781.783090699988,781.783090699988,None,,793.8515860000043,798.595793299959,798.595793299959,798.595793299959,798.595793299959,c,5.130330400017556,781.783090699988,781.783090699988,,,,13,001,2024-07-09_14h05.17.473,robot_sternberg_sign,2022.2.5,59.94632405748674,
"['R_Torso_X_Back', 'R_Base_Y_For', 'L_Head_X_For', 'R_Base_Y_Back']",False,R_Torso_Y_Back,4,robot,1,False,False,"['robot_stimuli\\R_Torso_X_Back.mp4', 'robot_stimuli\\R_Base_Y_For.mp4', 'robot_stimuli\\L_Head_X_For.mp4', 'robot_stimuli\\R_Base_Y_Back.mp4']",robot_stimuli\R_Torso_Y_Back.mp4,13,,,,,,,,,,,,,0,14,14,14,,,,,,,,,,,,,,,,,819.5739216000075,804.8428140999749,,,,,,,,,825.112484799989,825.112484799989,825.112484799989,825.112484799989,825.112484799989,825.112484799989,825.112484799989,825.112484799989,None,None,None,,,,,,,,,,,803.7706978999777,803.7706978999777,None,,815.9422662999714,820.6660409999895,820.6660409999895,820.6660409999895,820.6660409999895,c,4.421452899987344,803.7706978999777,803.7706978999777,,,,13,001,2024-07-09_14h05.17.473,robot_sternberg_sign,2022.2.5,59.94632405748674,
"['L_Torso_X_Back', 'R_Head_Z_Back', 'L_Arm_Y_For', 'L_Torso_Z_For']",False,R_Base_Z_Back,4,robot,1,False,False,"['robot_stimuli\\L_Torso_X_Back.mp4', 'robot_stimuli\\R_Head_Z_Back.mp4', 'robot_stimuli\\L_Arm_Y_For.mp4', 'robot_stimuli\\L_Torso_Z_For.mp4']",robot_stimuli\R_Base_Z_Back.mp4,13,,,,,,,,,,,,,0,15,15,15,,,,,,,,,,,,,,,,,841.027979699953,842.1168196999934,,,,,,,,,849.564015699958,849.564015699958,849.564015699958,849.564015699958,849.564015699958,849.564015699958,849.564015699958,849.564015699958,None,None,None,,,,,,,,,,,825.112484799989,825.112484799989,None,,837.3864217000082,842.1168196999934,842.1168196999934,842.1168196999934,842.1168196999934,c,7.418165599985514,825.112484799989,825.112484799989,,,,13,001,2024-07-09_14h05.17.473,robot_sternberg_sign,2022.2.5,59.94632405748674,
"['R_Head_X_Back', 'L_Base_Z_For', 'R_Torso_Z_For', 'L_Base_X_For']",True,L_Base_X_For,4,robot,1,False,False,"['robot_stimuli\\R_Head_X_Back.mp4', 'robot_stimuli\\L_Base_Z_For.mp4', 'robot_stimuli\\R_Torso_Z_For.mp4', 'robot_stimuli\\L_Base_X_For.mp4']",robot_stimuli\L_Base_X_For.mp4,13,,,,,,,,,,,,,0,16,16,16,,,,,,,,,,,,,,,,,865.3792803999968,866.466795699962,,,,,,,,,871.1338881999836,871.1338881999836,871.1338881999836,871.1338881999836,871.1338881999836,871.1338881999836,871.1338881999836,871.1338881999836,None,None,None,,,,,,,,,,,849.564015699958,849.564015699958,None,,861.8146143999766,866.466795699962,866.466795699962,866.466795699962,866.466795699962,c,4.636893999995664,849.564015699958,849.564015699958,,,,13,001,2024-07-09_14h05.17.473,robot_sternberg_sign,2022.2.5,59.94632405748674,
"['L_Arm_X_Back', 'L_Torso_Y_For', 'L_Torso_Y_Back', 'R_Head_Y_Back']",False,L_Base_Y_For,4,robot,1,False,False,"['robot_stimuli\\L_Arm_X_Back.mp4', 'robot_stimuli\\L_Torso_Y_For.mp4', 'robot_stimuli\\L_Torso_Y_Back.mp4', 'robot_stimuli\\R_Head_Y_Back.mp4']",robot_stimuli\L_Base_Y_For.mp4,13,,,,,,,,,,,,,0,17,17,17,,,,,,,,,,,,,,,,,886.8722692999872,887.9537581999903,,,,,,,,,893.8689644999686,893.8689644999686,893.8689644999686,893.8689644999686,893.8689644999686,893.8689644999686,893.8689644999686,893.8689644999686,None,None,None,,,,,,,,,,,871.1338881999836,871.1338881999836,None,,883.2489249999635,887.9537581999903,887.9537581999903,887.9537581999903,887.9537581999903,c,5.885130800015759,871.1338881999836,871.1338881999836,,,,13,001,2024-07-09_14h05.17.473,robot_sternberg_sign,2022.2.5,59.94632405748674,
"['L_Torso_X_Back', 'L_Head_Z_Back', 'L_Arm_Z_Back', 'R_Torso_Z_Back']",False,L_Base_X_For,4,robot,1,False,False,"['robot_stimuli\\L_Torso_X_Back.mp4', 'robot_stimuli\\L_Head_Z_Back.mp4', 'robot_stimuli\\L_Arm_Z_Back.mp4', 'robot_stimuli\\R_Torso_Z_Back.mp4']",robot_stimuli\L_Base_X_For.mp4,13,,,,,,,,,,,,,0,18,18,18,,,,,,,,,,,,,,,,,909.7411657999619,894.9453671000083,,,,,,,,,916.8465826999745,916.8465826999745,916.8465826999745,916.8465826999745,916.8465826999745,916.8465826999745,916.8465826999745,916.8465826999745,None,None,None,,,,,,,,,,,893.8689644999686,893.8689644999686,None,,906.108968799992,910.8326708999812,910.8326708999812,910.8326708999812,910.8326708999812,c,5.983160000003409,893.8689644999686,893.8689644999686,,,,13,001,2024-07-09_14h05.17.473,robot_sternberg_sign,2022.2.5,59.94632405748674,
"['R_Arm_Y_Back', 'L_Arm_X_Back', 'L_Head_X_Back', 'R_Arm_X_Back']",True,R_Arm_Y_Back,4,robot,1,False,True,"['robot_stimuli\\R_Arm_Y_Back.mp4', 'robot_stimuli\\L_Arm_X_Back.mp4', 'robot_stimuli\\L_Head_X_Back.mp4', 'robot_stimuli\\R_Arm_X_Back.mp4']",robot_stimuli\R_Arm_Y_Back.mp4,13,,,,,,,,,,,,,0,19,19,19,,,,,,,,,,,,,,,,,932.7251221999759,917.9291904999991,,,,,,,,,940.63203779998,949.8820507999626,940.63203779998,949.8820507999626,940.63203779998,949.8820507999626,940.63203779998,949.8820507999626,56.543209876543216,7.227812299970537,space,,,9.191633399983402,,,,,,,,916.8465826999745,916.8465826999745,None,,929.0840718999971,933.8175564999692,933.8175564999692,933.8175564999692,933.8175564999692,c,6.750557099992875,916.8465826999745,916.8465826999745,,,,13,001,2024-07-09_14h05.17.473,robot_sternberg_sign,2022.2.5,59.94632405748674,
"['L_Torso_Y_For', 'L_Torso_X_For', 'R_Base_Z_For', 'R_Arm_X_Back', 'L_Arm_X_For', 'L_Base_X_For']",True,L_Base_X_For,6,robot,1,True,False,"['robot_stimuli\\L_Torso_Y_For.mp4', 'robot_stimuli\\L_Torso_X_For.mp4', 'robot_stimuli\\R_Base_Z_For.mp4', 'robot_stimuli\\R_Arm_X_Back.mp4', 'robot_stimuli\\L_Arm_X_For.mp4', 'robot_stimuli\\L_Base_X_For.mp4']",robot_stimuli\L_Base_X_For.mp4,13,,,,,,,,,,,,,0,20,20,20,,,,,,,,,,,,,,,,,989.0273951999843,990.1154601000017,,,,,,,,,994.0809243999538,994.0809243999538,994.0809243999538,994.0809243999538,994.0809243999538,994.0809243999538,994.0809243999538,994.0809243999538,None,None,None,,,,,,,,,,,949.8820507999626,949.8820507999626,space,15.892377500014845,985.4591534999781,990.1154601000017,990.1154601000017,990.1154601000017,990.1154601000017,c,3.9309308000374585,,,,,,13,001,2024-07-09_14h05.17.473,robot_sternberg_sign,2022.2.5,59.94632405748674,
"['R_Base_Z_For', 'R_Base_X_For', 'L_Base_Z_For', 'L_Arm_X_For', 'L_Arm_Y_For', 'R_Torso_Y_For']",True,R_Torso_Y_For,6,robot,1,False,False,"['robot_stimuli\\R_Base_Z_For.mp4', 'robot_stimuli\\R_Base_X_For.mp4', 'robot_stimuli\\L_Base_Z_For.mp4', 'robot_stimuli\\L_Arm_X_For.mp4', 'robot_stimuli\\L_Arm_Y_For.mp4', 'robot_stimuli\\R_Torso_Y_For.mp4']",robot_stimuli\R_Torso_Y_For.mp4,13,,,,,,,,,,,,,0,21,21,21,,,,,,,,,,,,,,,,,1017.2935730000027,1018.3823766999994,,,,,,,,,1022.019722099998,1022.019722099998,1022.019722099998,1022.019722099998,1022.019722099998,1022.019722099998,1022.019722099998,1022.019722099998,None,None,None,,,,,,,,,,,994.0809243999538,994.0809243999538,None,,1013.6526417999994,1018.3823766999994,1018.3823766999994,1018.3823766999994,1018.3823766999994,c,3.4816377000533976,994.0809243999538,994.0809243999538,,,,13,001,2024-07-09_14h05.17.473,robot_sternberg_sign,2022.2.5,59.94632405748674,
"['R_Torso_Y_Back', 'R_Torso_Y_For', 'R_Arm_Z_Back', 'L_Arm_Z_Back', 'R_Arm_Z_For', 'L_Arm_X_For']",True,R_Torso_Y_Back,6,robot,1,False,False,"['robot_stimuli\\R_Torso_Y_Back.mp4', 'robot_stimuli\\R_Torso_Y_For.mp4', 'robot_stimuli\\R_Arm_Z_Back.mp4', 'robot_stimuli\\L_Arm_Z_Back.mp4', 'robot_stimuli\\R_Arm_Z_For.mp4', 'robot_stimuli\\L_Arm_X_For.mp4']",robot_stimuli\R_Torso_Y_Back.mp4,13,,,,,,,,,,,,,0,22,22,22,,,,,,,,,,,,,,,,,1045.3511754999636,1046.4454306999687,,,,,,,,,1050.9352162999567,1050.9352162999567,1050.9352162999567,1050.9352162999567,1050.9352162999567,1050.9352162999567,1050.9352162999567,1050.9352162999567,None,None,None,,,,,,,,,,,1022.019722099998,1022.019722099998,None,,1041.7120874999673,1046.4454306999687,1046.4454306999687,1046.4454306999687,1046.4454306999687,c,4.450815500051249,1022.019722099998,1022.019722099998,,,,13,001,2024-07-09_14h05.17.473,robot_sternberg_sign,2022.2.5,59.94632405748674,
"['R_Head_Z_Back', 'R_Base_Z_For', 'L_Torso_Y_Back', 'R_Base_X_For', 'R_Arm_X_Back', 'L_Head_Z_For']",False,R_Arm_Y_For,6,robot,1,False,False,"['robot_stimuli\\R_Head_Z_Back.mp4', 'robot_stimuli\\R_Base_Z_For.mp4', 'robot_stimuli\\L_Torso_Y_Back.mp4', 'robot_stimuli\\R_Base_X_For.mp4', 'robot_stimuli\\R_Arm_X_Back.mp4', 'robot_stimuli\\L_Head_Z_For.mp4']",robot_stimuli\R_Arm_Y_For.mp4,13,,,,,,,,,,,,,0,23,23,23,,,,,,,,,,,,,,,,,1074.0286264999886,1075.1211066999822,,,,,,,,,1080.3851420999854,1080.3851420999854,1080.3851420999854,1080.3851420999854,1080.3851420999854,1080.3851420999854,1080.3851420999854,1080.3851420999854,None,None,None,,,,,,,,,,,1050.9352162999567,1050.9352162999567,None,,1070.3948268999811,1075.1211066999822,1075.1211066999822,1075.1211066999822,1075.1211066999822,n,5.229973799956497,1050.9352162999567,1050.9352162999567,,,,13,001,2024-07-09_14h05.17.473,robot_sternberg_sign,2022.2.5,59.94632405748674,
"['L_Arm_Y_For', 'R_Arm_Z_Back', 'L_Head_X_Back', 'R_Torso_Y_For', 'L_Arm_X_For', 'R_Head_Z_For']",False,L_Base_Y_Back,6,robot,1,False,False,"['robot_stimuli\\L_Arm_Y_For.mp4', 'robot_stimuli\\R_Arm_Z_Back.mp4', 'robot_stimuli\\L_Head_X_Back.mp4', 'robot_stimuli\\R_Torso_Y_For.mp4', 'robot_stimuli\\L_Arm_X_For.mp4', 'robot_stimuli\\R_Head_Z_For.mp4']",robot_stimuli\L_Base_Y_Back.mp4,13,,,,,,,,,,,,,0,24,24,24,,,,,,,,,,,,,,,,,1103.6907062999671,1081.4632424999727,,,,,,,,,1110.0823776999605,1110.0823776999605,1110.0823776999605,1110.0823776999605,1110.0823776999605,1110.0823776999605,1110.0823776999605,1110.0823776999605,None,None,None,,,,,,,,,,,1080.3851420999854,1080.3851420999854,None,,1100.0584911999758,1104.783687499992,1104.783687499992,1104.783687499992,1104.783687499992,n,5.264248099992983,1080.3851420999854,1080.3851420999854,,,,13,001,2024-07-09_14h05.17.473,robot_sternberg_sign,2022.2.5,59.94632405748674,
"['L_Arm_Y_For', 'R_Arm_Z_Back', 'R_Head_Y_Back', 'R_Torso_Y_For', 'R_Torso_Y_Back', 'L_Torso_Z_Back']",True,R_Head_Y_Back,6,robot,1,False,False,"['robot_stimuli\\L_Arm_Y_For.mp4', 'robot_stimuli\\R_Arm_Z_Back.mp4', 'robot_stimuli\\R_Head_Y_Back.mp4', 'robot_stimuli\\R_Torso_Y_For.mp4', 'robot_stimuli\\R_Torso_Y_Back.mp4', 'robot_stimuli\\L_Torso_Z_Back.mp4']",robot_stimuli\R_Head_Y_Back.mp4,13,,,,,,,,,,,,,0,25,25,25,,,,,,,,,,,,,,,,,1133.26167659997,1134.349824099976,,,,,,,,,1137.9787063999684,1137.9787063999684,1137.9787063999684,1137.9787063999684,1137.9787063999684,1137.9787063999684,1137.9787063999684,1137.9787063999684,None,None,None,,,,,,,,,,,1110.0823776999605,1110.0823776999605,None,,1129.7612157999538,1134.349824099976,1134.349824099976,1134.349824099976,1134.349824099976,c,2.322306899994146,1110.0823776999605,1110.0823776999605,,,,13,001,2024-07-09_14h05.17.473,robot_sternberg_sign,2022.2.5,59.94632405748674,
"['R_Base_Z_For', 'L_Arm_X_Back', 'R_Base_X_For', 'R_Head_Z_Back', 'L_Torso_Y_For', 'R_Torso_Z_For']",True,R_Head_Z_Back,6,robot,1,False,False,"['robot_stimuli\\R_Base_Z_For.mp4', 'robot_stimuli\\L_Arm_X_Back.mp4', 'robot_stimuli\\R_Base_X_For.mp4', 'robot_stimuli\\R_Head_Z_Back.mp4', 'robot_stimuli\\L_Torso_Y_For.mp4', 'robot_stimuli\\R_Torso_Z_For.mp4']",robot_stimuli\R_Head_Z_Back.mp4,13,,,,,,,,,,,,,0,26,26,26,,,,,,,,,,,,,,,,,1161.1968221999705,1162.2838979999651,,,,,,,,,1165.9650980999577,1165.9650980999577,1165.9650980999577,1165.9650980999577,1165.9650980999577,1165.9650980999577,1165.9650980999577,1165.9650980999577,None,None,None,,,,,,,,,,,1137.9787063999684,1137.9787063999684,None,,1157.5621133999666,1162.2838979999651,1162.2838979999651,1162.2838979999651,1162.2838979999651,c,3.651744000031613,1137.9787063999684,1137.9787063999684,,,,13,001,2024-07-09_14h05.17.473,robot_sternberg_sign,2022.2.5,59.94632405748674,
"['R_Base_X_For', 'L_Head_Y_Back', 'R_Head_Z_For', 'R_Torso_Y_Back', 'R_Base_Z_Back', 'L_Arm_Z_For']",False,R_Head_X_For,6,robot,1,False,False,"['robot_stimuli\\R_Base_X_For.mp4', 'robot_stimuli\\L_Head_Y_Back.mp4', 'robot_stimuli\\R_Head_Z_For.mp4', 'robot_stimuli\\R_Torso_Y_Back.mp4', 'robot_stimuli\\R_Base_Z_Back.mp4', 'robot_stimuli\\L_Arm_Z_For.mp4']",robot_stimuli\R_Head_X_For.mp4,13,,,,,,,,,,,,,0,27,27,27,,,,,,,,,,,,,,,,,1189.0754526999663,1167.047982899996,,,,,,,,,1197.1202271999791,1197.1202271999791,1197.1202271999791,1197.1202271999791,1197.1202271999791,1197.1202271999791,1197.1202271999791,1197.1202271999791,None,None,None,,,,,,,,,,,1165.9650980999577,1165.9650980999577,None,,1185.4441120999982,1190.1633886999916,1190.1633886999916,1190.1633886999916,1190.1633886999916,n,6.915772599983029,1165.9650980999577,1165.9650980999577,,,,13,001,2024-07-09_14h05.17.473,robot_sternberg_sign,2022.2.5,59.94632405748674,
"['L_Arm_Y_Back', 'L_Head_Z_For', 'R_Arm_Z_Back', 'L_Head_Y_For', 'R_Arm_X_For', 'R_Base_Z_Back']",False,L_Torso_Y_For,6,robot,1,False,False,"['robot_stimuli\\L_Arm_Y_Back.mp4', 'robot_stimuli\\L_Head_Z_For.mp4', 'robot_stimuli\\R_Arm_Z_Back.mp4', 'robot_stimuli\\L_Head_Y_For.mp4', 'robot_stimuli\\R_Arm_X_For.mp4', 'robot_stimuli\\R_Base_Z_Back.mp4']",robot_stimuli\L_Torso_Y_For.mp4,13,,,,,,,,,,,,,0,28,28,28,,,,,,,,,,,,,,,,,1220.345437699987,1221.4368863999844,,,,,,,,,1227.5136550999596,1227.5136550999596,1227.5136550999596,1227.5136550999596,1227.5136550999596,1227.5136550999596,1227.5136550999596,1227.5136550999596,None,None,None,,,,,,,,,,,1197.1202271999791,1197.1202271999791,None,,1216.8163262999733,1221.4368863999844,1221.4368863999844,1221.4368863999844,1221.4368863999844,c,6.050150299968664,1197.1202271999791,1197.1202271999791,,,,13,001,2024-07-09_14h05.17.473,robot_sternberg_sign,2022.2.5,59.94632405748674,
"['R_Base_Y_For', 'L_Base_Z_Back', 'R_Torso_Z_Back', 'L_Arm_Z_For', 'L_Torso_Z_Back', 'R_Arm_Y_Back']",False,R_Base_Z_For,6,robot,1,False,True,"['robot_stimuli\\R_Base_Y_For.mp4', 'robot_stimuli\\L_Base_Z_Back.mp4', 'robot_stimuli\\R_Torso_Z_Back.mp4', 'robot_stimuli\\L_Arm_Z_For.mp4', 'robot_stimuli\\L_Torso_Z_Back.mp4', 'robot_stimuli\\R_Arm_Y_Back.mp4']",robot_stimuli\R_Base_Z_For.mp4,13,,,,,,,,,,,,,0,29,29,29,,,,,,,,,,,,,,,,,1250.6942275000038,1251.7874478999875,,,,,,,,,1255.7337539999862,1261.3480520999874,1255.7337539999862,1261.3480520999874,1255.7337539999862,1261.3480520999874,1255.7337539999862,1261.3480520999874,60.24691358024692,4.173781199962832,space,,,5.561605499999132,,,,,,,,1227.5136550999596,1227.5136550999596,None,,1247.0628115999862,1251.7874478999875,1251.7874478999875,1251.7874478999875,1251.7874478999875,c,3.883550600032322,1227.5136550999596,1227.5136550999596,,,,13,001,2024-07-09_14h05.17.473,robot_sternberg_sign,2022.2.5,59.94632405748674,
"['G', 'N', 'R', 'W']",False,C,4,letter,2,True,False,"['robot_stimuli\\\\filler.mp4', 'robot_stimuli\\\\filler.mp4', 'robot_stimuli\\\\filler.mp4', 'robot_stimuli\\\\filler.mp4']",robot_stimuli\\filler.mp4,13,,,,,,,,,,,,,0,30,30,30,,,,,,,,,,,,,,,,,1276.6133177999873,1277.676988799998,,,,,,,,,1279.3002246000106,1279.3002246000106,1279.3002246000106,1279.3002246000106,1279.3002246000106,1279.3002246000106,1279.3002246000106,1279.3002246000106,None,None,None,,,,,,,,,,,1261.3480520999874,1261.3480520999874,space,5.707235000038054,,,1277.676988799998,1277.676988799998,1277.676988799998,n,1.434609099989757,,,1274.6021187999868,1276.6133177999873,1277.676988799998,13,001,2024-07-09_14h05.17.473,robot_sternberg_sign,2022.2.5,59.94632405748674,
"['K', 'B', 'F', 'J']",True,J,4,letter,2,False,False,"['robot_stimuli\\\\filler.mp4', 'robot_stimuli\\\\filler.mp4', 'robot_stimuli\\\\filler.mp4', 'robot_stimuli\\\\filler.mp4']",robot_stimuli\\filler.mp4,13,,,,,,,,,,,,,0,31,31,31,,,,,,,,,,,,,,,,,1289.0391335999593,1290.0939460999798,,,,,,,,,1292.525484999991,1292.525484999991,1292.525484999991,1292.525484999991,1292.525484999991,1292.525484999991,1292.525484999991,1292.525484999991,None,None,None,,,,,,,,,,,1279.3002246000106,1279.3002246000106,None,,,,1290.0939460999798,1290.0939460999798,1290.0939460999798,c,2.272560400015209,1279.3002246000106,1279.3002246000106,1286.8307126999716,1289.0391335999593,1290.0939460999798,13,001,2024-07-09_14h05.17.473,robot_sternberg_sign,2022.2.5,59.94632405748674,
"['N', 'Q', 'B', 'Z']",True,Z,4,letter,2,False,False,"['robot_stimuli\\\\filler.mp4', 'robot_stimuli\\\\filler.mp4', 'robot_stimuli\\\\filler.mp4', 'robot_stimuli\\\\filler.mp4']",robot_stimuli\\filler.mp4,13,,,,,,,,,,,,,0,32,32,32,,,,,,,,,,,,,,,,,1302.2720444999868,1303.3260431999806,,,,,,,,,1304.555558299995,1304.555558299995,1304.555558299995,1304.555558299995,1304.555558299995,1304.555558299995,1304.555558299995,1304.555558299995,None,None,None,,,,,,,,,,,1292.525484999991,1292.525484999991,None,,,,1303.3260431999806,1303.3260431999806,1303.3260431999806,c,1.1765629000146873,1292.525484999991,1292.525484999991,1300.2564291000017,1302.2720444999868,1303.3260431999806,13,001,2024-07-09_14h05.17.473,robot_sternberg_sign,2022.2.5,59.94632405748674,
"['J', 'T', 'D', 'S']",True,S,4,letter,2,False,False,"['robot_stimuli\\\\filler.mp4', 'robot_stimuli\\\\filler.mp4', 'robot_stimuli\\\\filler.mp4', 'robot_stimuli\\\\filler.mp4']",robot_stimuli\\filler.mp4,13,,,,,,,,,,,,,0,33,33,33,,,,,,,,,,,,,,,,,1314.0965178000042,1315.1600413999986,,,,,,,,,1316.587631399976,1316.587631399976,1316.587631399976,1316.587631399976,1316.587631399976,1316.587631399976,1316.587631399976,1316.587631399976,None,None,None,,,,,,,,,,,1304.555558299995,1304.555558299995,None,,,,1315.1600413999986,1315.1600413999986,1315.1600413999986,c,1.2146665999898687,1304.555558299995,1304.555558299995,1312.0841888999566,1314.0965178000042,1315.1600413999986,13,001,2024-07-09_14h05.17.473,robot_sternberg_sign,2022.2.5,59.94632405748674,
"['S', 'Z', 'P', 'G']",False,H,4,letter,2,False,False,"['robot_stimuli\\\\filler.mp4', 'robot_stimuli\\\\filler.mp4', 'robot_stimuli\\\\filler.mp4', 'robot_stimuli\\\\filler.mp4']",robot_stimuli\\filler.mp4,13,,,,,,,,,,,,,0,34,34,34,,,,,,,,,,,,,,,,,1326.1400240999646,1327.1991715999902,,,,,,,,,1329.4178899999824,1329.4178899999824,1329.4178899999824,1329.4178899999824,1329.4178899999824,1329.4178899999824,1329.4178899999824,1329.4178899999824,None,None,None,,,,,,,,,,,1316.587631399976,1316.587631399976,None,,,,1327.1991715999902,1327.1991715999902,1327.1991715999902,n,2.0399991000304,1316.587631399976,1316.587631399976,1323.933027399995,1326.1400240999646,1327.1991715999902,13,001,2024-07-09_14h05.17.473,robot_sternberg_sign,2022.2.5,59.94632405748674,
"['X', 'K', 'D', 'L']",False,W,4,letter,2,False,False,"['robot_stimuli\\\\filler.mp4', 'robot_stimuli\\\\filler.mp4', 'robot_stimuli\\\\filler.mp4', 'robot_stimuli\\\\filler.mp4']",robot_stimuli\\filler.mp4,13,,,,,,,,,,,,,0,35,35,35,,,,,,,,,,,,,,,,,1339.370345800009,1340.4296904999646,,,,,,,,,1342.0492642999743,1342.0492642999743,1342.0492642999743,1342.0492642999743,1342.0492642999743,1342.0492642999743,1342.0492642999743,1342.0492642999743,None,None,None,,,,,,,,,,,1329.4178899999824,1329.4178899999824,None,,,,1340.4296904999646,1340.4296904999646,1340.4296904999646,n,1.3861272999783978,1329.4178899999824,1329.4178899999824,1337.3509348999942,1339.370345800009,1340.4296904999646,13,001,2024-07-09_14h05.17.473,robot_sternberg_sign,2022.2.5,59.94632405748674,
"['J', 'W', 'H', 'T']",True,H,4,letter,2,False,False,"['robot_stimuli\\\\filler.mp4', 'robot_stimuli\\\\filler.mp4', 'robot_stimuli\\\\filler.mp4', 'robot_stimuli\\\\filler.mp4']",robot_stimuli\\filler.mp4,13,,,,,,,,,,,,,0,36,36,36,,,,,,,,,,,,,,,,,1351.5818219999783,1352.6428891000105,,,,,,,,,1354.2714749999577,1354.2714749999577,1354.2714749999577,1354.2714749999577,1354.2714749999577,1354.2714749999577,1354.2714749999577,1354.2714749999577,None,None,None,,,,,,,,,,,1342.0492642999743,1342.0492642999743,None,,,,1352.6428891000105,1352.6428891000105,1352.6428891000105,c,1.5567453000112437,1342.0492642999743,1342.0492642999743,1349.5736773000099,1351.5818219999783,1352.6428891000105,13,001,2024-07-09_14h05.17.473,robot_sternberg_sign,2022.2.5,59.94632405748674,
"['J', 'L', 'C', 'G']",True,G,4,letter,2,False,False,"['robot_stimuli\\\\filler.mp4', 'robot_stimuli\\\\filler.mp4', 'robot_stimuli\\\\filler.mp4', 'robot_stimuli\\\\filler.mp4']",robot_stimuli\\filler.mp4,13,,,,,,,,,,,,,0,37,37,37,,,,,,,,,,,,,,,,,1363.802447199996,1364.8644695999683,,,,,,,,,1366.885293099971,1366.885293099971,1366.885293099971,1366.885293099971,1366.885293099971,1366.885293099971,1366.885293099971,1366.885293099971,None,None,None,,,,,,,,,,,1354.2714749999577,1354.2714749999577,None,,,,1364.8644695999683,1364.8644695999683,1364.8644695999683,c,1.951537900022231,1354.2714749999577,1354.2714749999577,1361.7835580999963,1363.802447199996,1364.8644695999683,13,001,2024-07-09_14h05.17.473,robot_sternberg_sign,2022.2.5,59.94632405748674,
"['M', 'T', 'P', 'X']",False,C,4,letter,2,False,False,"['robot_stimuli\\\\filler.mp4', 'robot_stimuli\\\\filler.mp4', 'robot_stimuli\\\\filler.mp4', 'robot_stimuli\\\\filler.mp4']",robot_stimuli\\filler.mp4,13,,,,,,,,,,,,,0,38,38,38,,,,,,,,,,,,,,,,,1376.6240712999715,1367.9431228999747,,,,,,,,,1379.5191656000097,1379.5191656000097,1379.5191656000097,1379.5191656000097,1379.5191656000097,1379.5191656000097,1379.5191656000097,1379.5191656000097,None,None,None,,,,,,,,,,,1366.885293099971,1366.885293099971,None,,,,1377.6968711999943,1377.6968711999943,1377.6968711999943,n,1.647158199979458,1366.885293099971,1366.885293099971,1374.41664999997,1376.6240712999715,1377.6968711999943,13,001,2024-07-09_14h05.17.473,robot_sternberg_sign,2022.2.5,59.94632405748674,
"['W', 'M', 'S', 'L']",False,J,4,letter,2,False,True,"['robot_stimuli\\\\filler.mp4', 'robot_stimuli\\\\filler.mp4', 'robot_stimuli\\\\filler.mp4', 'robot_stimuli\\\\filler.mp4']",robot_stimuli\\filler.mp4,13,,,,,,,,,,,,,0,39,39,39,,,,,,,,,,,,,,,,,1389.0606021999847,1390.1262829999905,,,,,,,,,1391.7815767999855,1399.3335465999553,1391.7815767999855,1399.3335465999553,1391.7815767999855,1399.3335465999553,1391.7815767999855,1399.3335465999553,13.179012345679011,5.927140899992082,space,,,7.48191480000969,,,,,,,,1379.5191656000097,1379.5191656000097,None,,,,1390.1262829999905,1390.1262829999905,1390.1262829999905,n,1.5379518999834545,1379.5191656000097,1379.5191656000097,1387.0380405999604,1389.0606021999847,1390.1262829999905,13,001,2024-07-09_14h05.17.473,robot_sternberg_sign,2022.2.5,59.94632405748674,
"['V', 'B']",False,F,2,letter,2,True,False,"['robot_stimuli\\\\filler.mp4', 'robot_stimuli\\\\filler.mp4']",robot_stimuli\\filler.mp4,13,,,,,,,,,,,,,0,40,40,40,,,,,,,,,,,,,,,,,1408.5853246999905,1409.643057499954,,,,,,,,,1412.8733297999715,1412.8733297999715,1412.8733297999715,1412.8733297999715,1412.8733297999715,1412.8733297999715,1412.8733297999715,1412.8733297999715,None,None,None,,,,,,,,,,,1399.3335465999553,1399.3335465999553,space,3.8663155999965966,,,1409.643057499954,1409.643057499954,1409.643057499954,n,3.044619899999816,,,1406.5725833000033,1408.5853246999905,1409.643057499954,13,001,2024-07-09_14h05.17.473,robot_sternberg_sign,2022.2.5,59.94632405748674,
"['J', 'T']",False,L,2,letter,2,False,False,"['robot_stimuli\\\\filler.mp4', 'robot_stimuli\\\\filler.mp4']",robot_stimuli\\filler.mp4,13,,,,,,,,,,,,,0,41,41,41,,,,,,,,,,,,,,,,,1418.2310167999822,1419.2938419999555,,,,,,,,,1420.514346699987,1420.514346699987,1420.514346699987,1420.514346699987,1420.514346699987,1420.514346699987,1420.514346699987,1420.514346699987,None,None,None,,,,,,,,,,,1412.8733297999715,1412.8733297999715,None,,,,1419.2938419999555,1419.2938419999555,1419.2938419999555,n,1.1702116000233218,1412.8733297999715,1412.8733297999715,1416.2189705999917,1418.2310167999822,1419.2938419999555,13,001,2024-07-09_14h05.17.473,robot_sternberg_sign,2022.2.5,59.94632405748674,
"['D', 'L']",True,D,2,letter,2,False,False,"['robot_stimuli\\\\filler.mp4', 'robot_stimuli\\\\filler.mp4']",robot_stimuli\\filler.mp4,13,,,,,,,,,,,,,0,42,42,42,,,,,,,,,,,,,,,,,1426.080330799974,1427.144307599985,,,,,,,,,1429.169190399989,1429.169190399989,1429.169190399989,1429.169190399989,1429.169190399989,1429.169190399989,1429.169190399989,1429.169190399989,None,None,None,,,,,,,,,,,1420.514346699987,1420.514346699987,None,,,,1427.144307599985,1427.144307599985,1427.144307599985,c,1.879070499970112,1420.514346699987,1420.514346699987,1423.8648864999996,1426.080330799974,1427.144307599985,13,001,2024-07-09_14h05.17.473,robot_sternberg_sign,2022.2.5,59.94632405748674,
"['Z', 'X']",True,Z,2,letter,2,False,False,"['robot_stimuli\\\\filler.mp4', 'robot_stimuli\\\\filler.mp4']",robot_stimuli\\filler.mp4,13,,,,,,,,,,,,,0,43,43,43,,,,,,,,,,,,,,,,,1434.7265082999947,1435.7926120999618,,,,,,,,,1437.0151844999637,1437.0151844999637,1437.0151844999637,1437.0151844999637,1437.0151844999637,1437.0151844999637,1437.0151844999637,1437.0151844999637,None,None,None,,,,,,,,,,,1429.169190399989,1429.169190399989,None,,,,1435.7926120999618,1435.7926120999618,1435.7926120999618,c,1.079159000015352,1429.169190399989,1429.169190399989,1432.518325699959,1434.7265082999947,1435.7926120999618,13,001,2024-07-09_14h05.17.473,robot_sternberg_sign,2022.2.5,59.94632405748674,
"['V', 'B']",False,W,2,letter,2,False,False,"['robot_stimuli\\\\filler.mp4', 'robot_stimuli\\\\filler.mp4']",robot_stimuli\\filler.mp4,13,,,,,,,,,,,,,0,44,44,44,,,,,,,,,,,,,,,,,1442.1858862999943,1443.2430782999727,,,,,,,,,1444.6721597999567,1444.6721597999567,1444.6721597999567,1444.6721597999567,1444.6721597999567,1444.6721597999567,1444.6721597999567,1444.6721597999567,None,None,None,,,,,,,,,,,1437.0151844999637,1437.0151844999637,None,,,,1443.2430782999727,1443.2430782999727,1443.2430782999727,n,1.3253890000050887,1437.0151844999637,1437.0151844999637,1440.1702540999977,1442.1858862999943,1443.2430782999727,13,001,2024-07-09_14h05.17.473,robot_sternberg_sign,2022.2.5,59.94632405748674,
"['T', 'P']",True,T,2,letter,2,False,False,"['robot_stimuli\\\\filler.mp4', 'robot_stimuli\\\\filler.mp4']",robot_stimuli\\filler.mp4,13,,,,,,,,,,,,,0,45,45,45,,,,,,,,,,,,,,,,,1450.0334143000073,1451.0930754999863,,,,,,,,,1453.521980099962,1453.521980099962,1453.521980099962,1453.521980099962,1453.521980099962,1453.521980099962,1453.521980099962,1453.521980099962,None,None,None,,,,,,,,,,,1444.6721597999567,1444.6721597999567,None,,,,1451.0930754999863,1451.0930754999863,1451.0930754999863,c,2.281274000008125,1444.6721597999567,1444.6721597999567,1448.0174623999628,1450.0334143000073,1451.0930754999863,13,001,2024-07-09_14h05.17.473,robot_sternberg_sign,2022.2.5,59.94632405748674,
"['H', 'Q']",False,L,2,letter,2,False,False,"['robot_stimuli\\\\filler.mp4', 'robot_stimuli\\\\filler.mp4']",robot_stimuli\\filler.mp4,13,,,,,,,,,,,,,0,46,46,46,,,,,,,,,,,,,,,,,1459.0755719000008,1454.5765923999716,,,,,,,,,1462.1659625999746,1462.1659625999746,1462.1659625999746,1462.1659625999746,1462.1659625999746,1462.1659625999746,1462.1659625999746,1462.1659625999746,None,None,None,,,,,,,,,,,1453.521980099962,1453.521980099962,None,,,,1460.1424911000067,1460.1424911000067,1460.1424911000067,n,1.848654700035695,1453.521980099962,1453.521980099962,1456.866853399959,1459.0755719000008,1460.1424911000067,13,001,2024-07-09_14h05.17.473,robot_sternberg_sign,2022.2.5,59.94632405748674,
"['K', 'N']",True,K,2,letter,2,False,False,"['robot_stimuli\\\\filler.mp4', 'robot_stimuli\\\\filler.mp4']",robot_stimuli\\filler.mp4,13,,,,,,,,,,,,,0,47,47,47,,,,,,,,,,,,,,,,,1467.5239407999907,1468.577359899995,,,,,,,,,1469.8062281999737,1469.8062281999737,1469.8062281999737,1469.8062281999737,1469.8062281999737,1469.8062281999737,1469.8062281999737,1469.8062281999737,None,None,None,,,,,,,,,,,1462.1659625999746,1462.1659625999746,None,,,,1468.577359899995,1468.577359899995,1468.577359899995,c,1.06127230002312,1462.1659625999746,1462.1659625999746,1465.317670599965,1467.5239407999907,1468.577359899995,13,001,2024-07-09_14h05.17.473,robot_sternberg_sign,2022.2.5,59.94632405748674,
"['J', 'D']",True,J,2,letter,2,False,False,"['robot_stimuli\\\\filler.mp4', 'robot_stimuli\\\\filler.mp4']",robot_stimuli\\filler.mp4,13,,,,,,,,,,,,,0,48,48,48,,,,,,,,,,,,,,,,,1475.3611350999563,1476.4251176999533,,,,,,,,,1477.6496438999893,1477.6496438999893,1477.6496438999893,1477.6496438999893,1477.6496438999893,1477.6496438999893,1477.6496438999893,1477.6496438999893,None,None,None,,,,,,,,,,,1469.8062281999737,1469.8062281999737,None,,,,1476.4251176999533,1476.4251176999533,1476.4251176999533,c,1.1187352000270039,1469.8062281999737,1469.8062281999737,1473.145728899981,1475.3611350999563,1476.4251176999533,13,001,2024-07-09_14h05.17.473,robot_sternberg_sign,2022.2.5,59.94632405748674,
"['Q', 'G']",False,H,2,letter,2,False,True,"['robot_stimuli\\\\filler.mp4', 'robot_stimuli\\\\filler.mp4']",robot_stimuli\\filler.mp4,13,,,,,,,,,,,,,0,49,49,49,,,,,,,,,,,,,,,,,1483.209016799985,1478.711181199993,,,,,,,,,1485.731074899959,1492.7955064999987,1485.731074899959,1492.7955064999987,1485.731074899959,1492.7955064999987,1485.731074899959,1492.7955064999987,8.240740740740737,5.677028100006282,space,,,7.0041531000169925,,,,,,,,1477.6496438999893,1477.6496438999893,None,,,,1484.277154499956,1484.277154499956,1484.277154499956,n,1.3783736000186764,1477.6496438999893,1477.6496438999893,1480.9955486999825,1483.209016799985,1484.277154499956,13,001,2024-07-09_14h05.17.473,robot_sternberg_sign,2022.2.5,59.94632405748674,
"['T', 'H', 'M', 'J', 'Z', 'Q']",True,H,6,letter,2,True,False,"['robot_stimuli\\\\filler.mp4', 'robot_stimuli\\\\filler.mp4', 'robot_stimuli\\\\filler.mp4', 'robot_stimuli\\\\filler.mp4', 'robot_stimuli\\\\filler.mp4', 'robot_stimuli\\\\filler.mp4']",robot_stimuli\\filler.mp4,13,,,,,,,,,,,,,0,50,50,50,,,,,,,,,,,,,,,,,1509.156331599981,1510.210469499987,,,,,,,,,1511.6387708999682,1511.6387708999682,1511.6387708999682,1511.6387708999682,1511.6387708999682,1511.6387708999682,1511.6387708999682,1511.6387708999682,None,None,None,,,,,,,,,,,1492.7955064999987,1492.7955064999987,space,2.436764599988237,,,1510.210469499987,1510.210469499987,1510.210469499987,n,1.3577001000521705,,,1506.9447966999724,1509.156331599981,1510.210469499987,13,001,2024-07-09_14h05.17.473,robot_sternberg_sign,2022.2.5,59.94632405748674,
"['C', 'N', 'X', 'D', 'F', 'P']",False,B,6,letter,2,False,False,"['robot_stimuli\\\\filler.mp4', 'robot_stimuli\\\\filler.mp4', 'robot_stimuli\\\\filler.mp4', 'robot_stimuli\\\\filler.mp4', 'robot_stimuli\\\\filler.mp4', 'robot_stimuli\\\\filler.mp4']",robot_stimuli\\filler.mp4,13,,,,,,,,,,,,,0,51,51,51,,,,,,,,,,,,,,,,,1525.7441568999784,1526.8112670999835,,,,,,,,,1528.83843959996,1528.83843959996,1528.83843959996,1528.83843959996,1528.83843959996,1528.83843959996,1528.83843959996,1528.83843959996,None,None,None,,,,,,,,,,,1511.6387708999682,1511.6387708999682,None,,,,1526.8112670999835,1526.8112670999835,1526.8112670999835,n,1.8276376000139862,1511.6387708999682,1511.6387708999682,1523.5296014999622,1525.7441568999784,1526.8112670999835,13,001,2024-07-09_14h05.17.473,robot_sternberg_sign,2022.2.5,59.94632405748674,
"['D', 'X', 'J', 'F', 'R', 'L']",True,R,6,letter,2,False,False,"['robot_stimuli\\\\filler.mp4', 'robot_stimuli\\\\filler.mp4', 'robot_stimuli\\\\filler.mp4', 'robot_stimuli\\\\filler.mp4', 'robot_stimuli\\\\filler.mp4', 'robot_stimuli\\\\filler.mp4']",robot_stimuli\\filler.mp4,13,,,,,,,,,,,,,0,52,52,52,,,,,,,,,,,,,,,,,1542.9655073999893,1544.0422598999576,,,,,,,,,1545.4661440000054,1545.4661440000054,1545.4661440000054,1545.4661440000054,1545.4661440000054,1545.4661440000054,1545.4661440000054,1545.4661440000054,None,None,None,,,,,,,,,,,1528.83843959996,1528.83843959996,None,,,,1544.0422598999576,1544.0422598999576,1544.0422598999576,c,1.357027799997013,1528.83843959996,1528.83843959996,1540.944338399975,1542.9655073999893,1544.0422598999576,13,001,2024-07-09_14h05.17.473,robot_sternberg_sign,2022.2.5,59.94632405748674,
"['L', 'G', 'V', 'Q', 'S', 'M']",True,S,6,letter,2,False,False,"['robot_stimuli\\\\filler.mp4', 'robot_stimuli\\\\filler.mp4', 'robot_stimuli\\\\filler.mp4', 'robot_stimuli\\\\filler.mp4', 'robot_stimuli\\\\filler.mp4', 'robot_stimuli\\\\filler.mp4']",robot_stimuli\\filler.mp4,13,,,,,,,,,,,,,0,53,53,53,,,,,,,,,,,,,,,,,1559.5951369999675,1560.661862000008,,,,,,,,,1562.4811818999588,1562.4811818999588,1562.4811818999588,1562.4811818999588,1562.4811818999588,1562.4811818999588,1562.4811818999588,1562.4811818999588,None,None,None,,,,,,,,,,,1545.4661440000054,1545.4661440000054,None,,,,1560.661862000008,1560.661862000008,1560.661862000008,c,1.5853508000145666,1545.4661440000054,1545.4661440000054,1557.3779097999795,1559.5951369999675,1560.661862000008,13,001,2024-07-09_14h05.17.473,robot_sternberg_sign,2022.2.5,59.94632405748674,
"['N', 'H', 'W', 'G', 'R', 'Q']",True,N,6,letter,2,False,False,"['robot_stimuli\\\\filler.mp4', 'robot_stimuli\\\\filler.mp4', 'robot_stimuli\\\\filler.mp4', 'robot_stimuli\\\\filler.mp4', 'robot_stimuli\\\\filler.mp4', 'robot_stimuli\\\\filler.mp4']",robot_stimuli\\filler.mp4,13,,,,,,,,,,,,,0,54,54,54,,,,,,,,,,,,,,,,,1576.007422099996,1577.06543409999,,,,,,,,,1579.0898909000098,1579.0898909000098,1579.0898909000098,1579.0898909000098,1579.0898909000098,1579.0898909000098,1579.0898909000098,1579.0898909000098,None,None,None,,,,,,,,,,,1562.4811818999588,1562.4811818999588,None,,,,1577.06543409999,1577.06543409999,1577.06543409999,n,1.9429097999818623,1562.4811818999588,1562.4811818999588,1573.990871899994,1576.007422099996,1577.06543409999,13,001,2024-07-09_14h05.17.473,robot_sternberg_sign,2022.2.5,59.94632405748674,
"['P', 'T', 'K', 'G', 'D', 'H']",False,J,6,letter,2,False,False,"['robot_stimuli\\\\filler.mp4', 'robot_stimuli\\\\filler.mp4', 'robot_stimuli\\\\filler.mp4', 'robot_stimuli\\\\filler.mp4', 'robot_stimuli\\\\filler.mp4', 'robot_stimuli\\\\filler.mp4']",robot_stimuli\\filler.mp4,13,,,,,,,,,,,,,0,55,55,55,,,,,,,,,,,,,,,,,1593.575994899962,1580.1474415999837,,,,,,,,,1596.2661994000082,1596.2661994000082,1596.2661994000082,1596.2661994000082,1596.2661994000082,1596.2661994000082,1596.2661994000082,1596.2661994000082,None,None,None,,,,,,,,,,,1579.0898909000098,1579.0898909000098,None,,,,1594.643368399993,1594.643368399993,1594.643368399993,n,1.4371814000187442,1579.0898909000098,1579.0898909000098,1591.3601841999916,1593.575994899962,1594.643368399993,13,001,2024-07-09_14h05.17.473,robot_sternberg_sign,2022.2.5,59.94632405748674,
"['H', 'P', 'F', 'S', 'M', 'N']",False,T,6,letter,2,False,False,"['robot_stimuli\\\\filler.mp4', 'robot_stimuli\\\\filler.mp4', 'robot_stimuli\\\\filler.mp4', 'robot_stimuli\\\\filler.mp4', 'robot_stimuli\\\\filler.mp4', 'robot_stimuli\\\\filler.mp4']",robot_stimuli\\filler.mp4,13,,,,,,,,,,,,,0,56,56,56,,,,,,,,,,,,,,,,,1610.3928922999767,1597.324789199978,,,,,,,,,1613.8926120999968,1613.8926120999968,1613.8926120999968,1613.8926120999968,1613.8926120999968,1613.8926120999968,1613.8926120999968,1613.8926120999968,None,None,None,,,,,,,,,,,1596.2661994000082,1596.2661994000082,None,,,,1611.4626169999829,1611.4626169999829,1611.4626169999829,n,2.2492899000062607,1596.2661994000082,1596.2661994000082,1608.175031699997,1610.3928922999767,1611.4626169999829,13,001,2024-07-09_14h05.17.473,robot_sternberg_sign,2022.2.5,59.94632405748674,
"['C', 'F', 'K', 'N', 'G', 'P']",True,G,6,letter,2,False,False,"['robot_stimuli\\\\filler.mp4', 'robot_stimuli\\\\filler.mp4', 'robot_stimuli\\\\filler.mp4', 'robot_stimuli\\\\filler.mp4', 'robot_stimuli\\\\filler.mp4', 'robot_stimuli\\\\filler.mp4']",robot_stimuli\\filler.mp4,13,,,,,,,,,,,,,0,57,57,57,,,,,,,,,,,,,,,,,1628.2249234999763,,,,,,,,,,1630.9159032999887,1630.9159032999887,1630.9159032999887,1630.9159032999887,1630.9159032999887,1630.9159032999887,1630.9159032999887,1630.9159032999887,None,None,None,,,,,,,,,,,1613.8926120999968,1613.8926120999968,None,,,,1629.2952052999754,1629.2952052999754,1629.2952052999754,c,1.4254097000230104,1613.8926120999968,1613.8926120999968,1626.2156886999728,1628.2249234999763,1629.2952052999754,13,001,2024-07-09_14h05.17.473,robot_sternberg_sign,2022.2.5,59.94632405748674,
"['D', 'T', 'V', 'X', 'H', 'Z']",False,L,6,letter,2,False,False,"['robot_stimuli\\\\filler.mp4', 'robot_stimuli\\\\filler.mp4', 'robot_stimuli\\\\filler.mp4', 'robot_stimuli\\\\filler.mp4', 'robot_stimuli\\\\filler.mp4', 'robot_stimuli\\\\filler.mp4']",robot_stimuli\\filler.mp4,13,,,,,,,,,,,,,0,58,58,58,,,,,,,,,,,,,,,,,1644.8332627000054,1645.8936718999757,,,,,,,,,1647.3218975999625,1647.3218975999625,1647.3218975999625,1647.3218975999625,1647.3218975999625,1647.3218975999625,1647.3218975999625,1647.3218975999625,None,None,None,,,,,,,,,,,1630.9159032999887,1630.9159032999887,None,,,,1645.8936718999757,1645.8936718999757,1645.8936718999757,n,1.2496445000288077,1630.9159032999887,1630.9159032999887,1642.8224890999845,1644.8332627000054,1645.8936718999757,13,001,2024-07-09_14h05.17.473,robot_sternberg_sign,2022.2.5,59.94632405748674,
"['S', 'H', 'J', 'Q', 'C', 'Z']",False,V,6,letter,2,False,True,"['robot_stimuli\\\\filler.mp4', 'robot_stimuli\\\\filler.mp4', 'robot_stimuli\\\\filler.mp4', 'robot_stimuli\\\\filler.mp4', 'robot_stimuli\\\\filler.mp4', 'robot_stimuli\\\\filler.mp4']",robot_stimuli\\filler.mp4,13,,,,,,,,,,,,,0,59,59,59,,,,,,,,,,,,,,,,,1661.4294322999776,1662.5001154000056,,,,,,,,,1664.3556468999595,1673.9536428999854,1664.3556468999595,1673.9536428999854,1664.3556468999595,1673.9536428999854,1664.3556468999595,1673.9536428999854,15.18518518518518,8.053033499978483,space,,,9.539447600021958,,,,,,,,1647.3218975999625,1647.3218975999625,None,,,,1662.5001154000056,1662.5001154000056,1662.5001154000056,n,1.6915390000212938,1647.3218975999625,1647.3218975999625,1659.2119502999703,1661.4294322999776,1662.5001154000056,13,001,2024-07-09_14h05.17.473,robot_sternberg_sign,2022.2.5,59.94632405748674,
"['R_Base_X_For', 'R_Arm_Z_Back', 'R_Head_Y_Back', 'L_Arm_Y_For']",False,R_Torso_Z_For,4,robot,3,True,False,"['robot_stimuli\\R_Base_X_For.mp4', 'robot_stimuli\\R_Arm_Z_Back.mp4', 'robot_stimuli\\R_Head_Y_Back.mp4', 'robot_stimuli\\L_Arm_Y_For.mp4']",robot_stimuli\R_Torso_Z_For.mp4,13,,,,,,,,,,,,,0,60,60,60,,,,,,,,,,,,,,,,,1695.8929524999694,1681.15699519997,,,,,,,,,1704.399324900005,1704.399324900005,1704.399324900005,1704.399324900005,1704.399324900005,1704.399324900005,1704.399324900005,1704.399324900005,None,None,None,,,,,,,,,,,1673.9536428999854,1673.9536428999854,space,6.101891099999193,1692.250854199985,1696.9836177999969,1696.9836177999969,1696.9836177999969,1696.9836177999969,c,7.376668599958066,,,,,,13,001,2024-07-09_14h05.17.473,robot_sternberg_sign,2022.2.5,59.94632405748674,
"['R_Base_X_Back', 'R_Torso_X_Back', 'R_Head_Y_Back', 'L_Base_X_Back']",True,R_Torso_X_Back,4,robot,3,False,False,"['robot_stimuli\\R_Base_X_Back.mp4', 'robot_stimuli\\R_Torso_X_Back.mp4', 'robot_stimuli\\R_Head_Y_Back.mp4', 'robot_stimuli\\L_Base_X_Back.mp4']",robot_stimuli\R_Torso_X_Back.mp4,13,,,,,,,,,,,,,0,61,61,61,,,,,,,,,,,,,,,,,1720.2611415999709,1721.3532264999812,,,,,,,,,1726.4311102000065,1726.4311102000065,1726.4311102000065,1726.4311102000065,1726.4311102000065,1726.4311102000065,1726.4311102000065,1726.4311102000065,None,None,None,,,,,,,,,,,1704.399324900005,1704.399324900005,None,,1716.6647973000072,1721.3532264999812,1721.3532264999812,1721.3532264999812,1721.3532264999812,n,5.053490899968892,1704.399324900005,1704.399324900005,,,,13,001,2024-07-09_14h05.17.473,robot_sternberg_sign,2022.2.5,59.94632405748674,
"['R_Base_Y_For', 'R_Base_X_Back', 'L_Torso_Y_For', 'L_Base_Y_Back']",False,R_Base_Z_For,4,robot,3,False,False,"['robot_stimuli\\R_Base_Y_For.mp4', 'robot_stimuli\\R_Base_X_Back.mp4', 'robot_stimuli\\L_Torso_Y_For.mp4', 'robot_stimuli\\L_Base_Y_Back.mp4']",robot_stimuli\R_Base_Z_For.mp4,13,,,,,,,,,,,,,0,62,62,62,,,,,,,,,,,,,,,,,1742.2466365,1743.3348633999703,,,,,,,,,1747.489425799984,1747.489425799984,1747.489425799984,1747.489425799984,1747.489425799984,1747.489425799984,1747.489425799984,1747.489425799984,None,None,None,,,,,,,,,,,1726.4311102000065,1726.4311102000065,None,,1738.6779995999532,1743.3348633999703,1743.3348633999703,1743.3348633999703,1743.3348633999703,c,4.112935199984349,1726.4311102000065,1726.4311102000065,,,,13,001,2024-07-09_14h05.17.473,robot_sternberg_sign,2022.2.5,59.94632405748674,
"['L_Base_Z_For', 'L_Arm_Y_Back', 'R_Torso_Z_For', 'L_Arm_X_For']",False,R_Base_X_For,4,robot,3,False,False,"['robot_stimuli\\L_Base_Z_For.mp4', 'robot_stimuli\\L_Arm_Y_Back.mp4', 'robot_stimuli\\R_Torso_Z_For.mp4', 'robot_stimuli\\L_Arm_X_For.mp4']",robot_stimuli\R_Base_X_For.mp4,13,,,,,,,,,,,,,0,63,63,63,,,,,,,,,,,,,,,,,1763.3795365999686,1764.468214499997,,,,,,,,,1772.014519499964,1772.014519499964,1772.014519499964,1772.014519499964,1772.014519499964,1772.014519499964,1772.014519499964,1772.014519499964,None,None,None,,,,,,,,,,,1747.489425799984,1747.489425799984,None,,1759.7505464999704,1764.468214499997,1764.468214499997,1764.468214499997,1764.468214499997,c,7.523171100008767,1747.489425799984,1747.489425799984,,,,13,001,2024-07-09_14h05.17.473,robot_sternberg_sign,2022.2.5,59.94632405748674,
"['R_Arm_Z_For', 'R_Head_Y_Back', 'R_Head_Y_For', 'R_Head_X_Back']",False,L_Arm_Y_Back,4,robot,3,False,False,"['robot_stimuli\\R_Arm_Z_For.mp4', 'robot_stimuli\\R_Head_Y_Back.mp4', 'robot_stimuli\\R_Head_Y_For.mp4', 'robot_stimuli\\R_Head_X_Back.mp4']",robot_stimuli\L_Arm_Y_Back.mp4,13,,,,,,,,,,,,,0,64,64,64,,,,,,,,,,,,,,,,,1787.9094959999784,1773.0970862999675,,,,,,,,,1794.086710100004,1794.086710100004,1794.086710100004,1794.086710100004,1794.086710100004,1794.086710100004,1794.086710100004,1794.086710100004,None,None,None,,,,,,,,,,,1772.014519499964,1772.014519499964,None,,1784.2680494000087,1789.001275799994,1789.001275799994,1789.001275799994,1789.001275799994,n,5.045607399952132,1772.014519499964,1772.014519499964,,,,13,001,2024-07-09_14h05.17.473,robot_sternberg_sign,2022.2.5,59.94632405748674,
"['L_Torso_X_For', 'L_Base_X_For', 'R_Arm_Y_For', 'L_Torso_Y_For']",False,R_Head_X_For,4,robot,3,False,False,"['robot_stimuli\\L_Torso_X_For.mp4', 'robot_stimuli\\L_Base_X_For.mp4', 'robot_stimuli\\R_Arm_Y_For.mp4', 'robot_stimuli\\L_Torso_Y_For.mp4']",robot_stimuli\R_Head_X_For.mp4,13,,,,,,,,,,,,,0,65,65,65,,,,,,,,,,,,,,,,,1809.7637530000065,1810.8499072999693,,,,,,,,,1814.4892558999709,1814.4892558999709,1814.4892558999709,1814.4892558999709,1814.4892558999709,1814.4892558999709,1814.4892558999709,1814.4892558999709,None,None,None,,,,,,,,,,,1794.086710100004,1794.086710100004,None,,1806.1332330000005,1810.8499072999693,1810.8499072999693,1810.8499072999693,1810.8499072999693,n,2.0217264000093564,1794.086710100004,1794.086710100004,,,,13,001,2024-07-09_14h05.17.473,robot_sternberg_sign,2022.2.5,59.94632405748674,
"['L_Base_X_Back', 'L_Base_X_For', 'R_Arm_Y_For', 'L_Arm_Z_For']",True,L_Arm_Z_For,4,robot,3,False,False,"['robot_stimuli\\L_Base_X_Back.mp4', 'robot_stimuli\\L_Base_X_For.mp4', 'robot_stimuli\\R_Arm_Y_For.mp4', 'robot_stimuli\\L_Arm_Z_For.mp4']",robot_stimuli\L_Arm_Z_For.mp4,13,,,,,,,,,,,,,0,66,66,66,,,,,,,,,,,,,,,,,1830.1254507999984,1815.566363299964,,,,,,,,,1835.754252099956,1835.754252099956,1835.754252099956,1835.754252099956,1835.754252099956,1835.754252099956,1835.754252099956,1835.754252099956,None,None,None,,,,,,,,,,,1814.4892558999709,1814.4892558999709,None,,1826.4952949999715,1831.2152096999926,1831.2152096999926,1831.2152096999926,1831.2152096999926,c,4.496359099983238,1814.4892558999709,1814.4892558999709,,,,13,001,2024-07-09_14h05.17.473,robot_sternberg_sign,2022.2.5,59.94632405748674,
"['R_Torso_X_For', 'L_Arm_Y_Back', 'L_Base_X_For', 'R_Arm_Y_Back']",True,L_Base_X_For,4,robot,3,False,False,"['robot_stimuli\\R_Torso_X_For.mp4', 'robot_stimuli\\L_Arm_Y_Back.mp4', 'robot_stimuli\\L_Base_X_For.mp4', 'robot_stimuli\\R_Arm_Y_Back.mp4']",robot_stimuli\L_Base_X_For.mp4,13,,,,,,,,,,,,,0,67,67,67,,,,,,,,,,,,,,,,,1851.576808999991,1836.8299662999925,,,,,,,,,1856.620271199965,1856.620271199965,1856.620271199965,1856.620271199965,1856.620271199965,1856.620271199965,1856.620271199965,1856.620271199965,None,None,None,,,,,,,,,,,1835.754252099956,1835.754252099956,None,,1847.9354748000042,1852.667155699979,1852.667155699979,1852.667155699979,1852.667155699979,c,3.9249992999830283,1835.754252099956,1835.754252099956,,,,13,001,2024-07-09_14h05.17.473,robot_sternberg_sign,2022.2.5,59.94632405748674,
"['R_Arm_Z_For', 'R_Base_Y_Back', 'L_Torso_Z_Back', 'R_Arm_X_For']",True,L_Torso_Z_Back,4,robot,3,False,False,"['robot_stimuli\\R_Arm_Z_For.mp4', 'robot_stimuli\\R_Base_Y_Back.mp4', 'robot_stimuli\\L_Torso_Z_Back.mp4', 'robot_stimuli\\R_Arm_X_For.mp4']",robot_stimuli\L_Torso_Z_Back.mp4,13,,,,,,,,,,,,,0,68,68,68,,,,,,,,,,,,,,,,,1872.3436214999529,1857.6934865000076,,,,,,,,,1877.2468550999765,1877.2468550999765,1877.2468550999765,1877.2468550999765,1877.2468550999765,1877.2468550999765,1877.2468550999765,1877.2468550999765,None,None,None,,,,,,,,,,,1856.620271199965,1856.620271199965,None,,1868.7124276999966,1873.434781399963,1873.434781399963,1873.434781399963,1873.434781399963,c,3.7887283000163734,1856.620271199965,1856.620271199965,,,,13,001,2024-07-09_14h05.17.473,robot_sternberg_sign,2022.2.5,59.94632405748674,
"['R_Torso_Z_Back', 'R_Head_Y_Back', 'R_Head_X_Back', 'L_Torso_X_Back']",True,L_Torso_X_Back,4,robot,3,False,True,"['robot_stimuli\\R_Torso_Z_Back.mp4', 'robot_stimuli\\R_Head_Y_Back.mp4', 'robot_stimuli\\R_Head_X_Back.mp4', 'robot_stimuli\\L_Torso_X_Back.mp4']",robot_stimuli\L_Torso_X_Back.mp4,13,,,,,,,,,,,,,0,69,69,69,,,,,,,,,,,,,,,,,1893.1272642999538,1894.2169004000025,,,,,,,,,1902.6837826999836,1909.3325063000084,1902.6837826999836,1909.3325063000084,1902.6837826999836,1909.3325063000084,1902.6837826999836,1909.3325063000084,42.03703703703703,4.741238499991596,space,,,6.603888999961782,,,,,,,,1877.2468550999765,1877.2468550999765,None,,1889.4962685999926,1894.2169004000025,1894.2169004000025,1894.2169004000025,1894.2169004000025,c,8.399959199945442,1877.2468550999765,1877.2468550999765,,,,13,001,2024-07-09_14h05.17.473,robot_sternberg_sign,2022.2.5,59.94632405748674,
"['L_Torso_Z_For', 'R_Base_Y_For', 'L_Head_Z_For', 'R_Arm_X_Back', 'R_Torso_X_Back', 'L_Base_Z_Back']",False,L_Torso_X_Back,6,robot,3,True,False,"['robot_stimuli\\L_Torso_Z_For.mp4', 'robot_stimuli\\R_Base_Y_For.mp4', 'robot_stimuli\\L_Head_Z_For.mp4', 'robot_stimuli\\R_Arm_X_Back.mp4', 'robot_stimuli\\R_Torso_X_Back.mp4', 'robot_stimuli\\L_Base_Z_Back.mp4']",robot_stimuli\L_Torso_X_Back.mp4,13,,,,,,,,,,,,,0,70,70,70,,,,,,,,,,,,,,,,,1954.6127646999666,1955.699143899954,,,,,,,,,1961.6840943999705,1961.6840943999705,1961.6840943999705,1961.6840943999705,1961.6840943999705,1961.6840943999705,1961.6840943999705,1961.6840943999705,None,None,None,,,,,,,,,,,1909.3325063000084,1909.3325063000084,space,21.924172599974554,1950.9705886999727,1955.699143899954,1955.699143899954,1955.699143899954,1955.699143899954,n,5.949064000044018,,,,,,13,001,2024-07-09_14h05.17.473,robot_sternberg_sign,2022.2.5,59.94632405748674,
"['R_Arm_Z_For', 'L_Torso_Z_Back', 'R_Head_Z_For', 'R_Arm_Z_Back', 'R_Torso_Y_Back', 'R_Torso_Z_For']",True,R_Arm_Z_Back,6,robot,3,False,False,"['robot_stimuli\\R_Arm_Z_For.mp4', 'robot_stimuli\\L_Torso_Z_Back.mp4', 'robot_stimuli\\R_Head_Z_For.mp4', 'robot_stimuli\\R_Arm_Z_Back.mp4', 'robot_stimuli\\R_Torso_Y_Back.mp4', 'robot_stimuli\\R_Torso_Z_For.mp4']",robot_stimuli\R_Arm_Z_Back.mp4,13,,,,,,,,,,,,,0,71,71,71,,,,,,,,,,,,,,,,,1984.8970108999638,1985.9848262000014,,,,,,,,,1991.364787300001,1991.364787300001,1991.364787300001,1991.364787300001,1991.364787300001,1991.364787300001,1991.364787300001,1991.364787300001,None,None,None,,,,,,,,,,,1961.6840943999705,1961.6840943999705,None,,1981.2617112000007,1985.9848262000014,1985.9848262000014,1985.9848262000014,1985.9848262000014,c,5.342020600044634,1961.6840943999705,1961.6840943999705,,,,13,001,2024-07-09_14h05.17.473,robot_sternberg_sign,2022.2.5,59.94632405748674,
"['L_Arm_X_Back', 'L_Base_Y_Back', 'L_Base_Z_Back', 'L_Head_Y_For', 'L_Base_X_For', 'R_Torso_Y_Back']",True,L_Base_X_For,6,robot,3,False,False,"['robot_stimuli\\L_Arm_X_Back.mp4', 'robot_stimuli\\L_Base_Y_Back.mp4', 'robot_stimuli\\L_Base_Z_Back.mp4', 'robot_stimuli\\L_Head_Y_For.mp4', 'robot_stimuli\\L_Base_X_For.mp4', 'robot_stimuli\\R_Torso_Y_Back.mp4']",robot_stimuli\L_Base_X_For.mp4,13,,,,,,,,,,,,,0,72,72,72,,,,,,,,,,,,,,,,,2014.5449947000016,2015.635586599994,,,,,,,,,2022.649008599983,2022.649008599983,2022.649008599983,2022.649008599983,2022.649008599983,2022.649008599983,2022.649008599983,2022.649008599983,None,None,None,,,,,,,,,,,1991.364787300001,1991.364787300001,None,,2010.9153342999634,2015.635586599994,2015.635586599994,2015.635586599994,2015.635586599994,c,6.980281300027855,1991.364787300001,1991.364787300001,,,,13,001,2024-07-09_14h05.17.473,robot_sternberg_sign,2022.2.5,59.94632405748674,
"['L_Base_Y_Back', 'R_Torso_X_Back', 'L_Head_Z_Back', 'R_Base_X_Back', 'L_Head_Z_For', 'L_Base_Y_For']",False,L_Arm_Y_For,6,robot,3,False,False,"['robot_stimuli\\L_Base_Y_Back.mp4', 'robot_stimuli\\R_Torso_X_Back.mp4', 'robot_stimuli\\L_Head_Z_Back.mp4', 'robot_stimuli\\R_Base_X_Back.mp4', 'robot_stimuli\\L_Head_Z_For.mp4', 'robot_stimuli\\L_Base_Y_For.mp4']",robot_stimuli\L_Arm_Y_For.mp4,13,,,,,,,,,,,,,0,73,73,73,,,,,,,,,,,,,,,,,2045.8310865999665,2046.9175119999563,,,,,,,,,2055.7827495000092,2055.7827495000092,2055.7827495000092,2055.7827495000092,2055.7827495000092,2055.7827495000092,2055.7827495000092,2055.7827495000092,None,None,None,,,,,,,,,,,2022.649008599983,2022.649008599983,None,,2042.298716899997,2046.9175119999563,2046.9175119999563,2046.9175119999563,2046.9175119999563,c,8.826388799992856,2022.649008599983,2022.649008599983,,,,13,001,2024-07-09_14h05.17.473,robot_sternberg_sign,2022.2.5,59.94632405748674,
"['R_Torso_X_Back', 'L_Torso_X_For', 'L_Head_Y_For', 'R_Base_Y_Back', 'R_Base_Y_For', 'L_Head_X_For']",False,L_Base_Y_For,6,robot,3,False,False,"['robot_stimuli\\R_Torso_X_Back.mp4', 'robot_stimuli\\L_Torso_X_For.mp4', 'robot_stimuli\\L_Head_Y_For.mp4', 'robot_stimuli\\R_Base_Y_Back.mp4', 'robot_stimuli\\R_Base_Y_For.mp4', 'robot_stimuli\\L_Head_X_For.mp4']",robot_stimuli\L_Base_Y_For.mp4,13,,,,,,,,,,,,,0,74,74,74,,,,,,,,,,,,,,,,,2079.0455496999784,2080.1350636999705,,,,,,,,,2087.4553645999986,2087.4553645999986,2087.4553645999986,2087.4553645999986,2087.4553645999986,2087.4553645999986,2087.4553645999986,2087.4553645999986,None,None,None,,,,,,,,,,,2055.7827495000092,2055.7827495000092,None,,2075.4805444999947,2080.1350636999705,2080.1350636999705,2080.1350636999705,2080.1350636999705,n,7.288486199977342,2055.7827495000092,2055.7827495000092,,,,13,001,2024-07-09_14h05.17.473,robot_sternberg_sign,2022.2.5,59.94632405748674,
"['R_Torso_Y_For', 'L_Head_X_Back', 'R_Base_Y_For', 'L_Torso_Z_Back', 'L_Arm_Y_Back', 'L_Head_Z_For']",True,R_Base_Y_For,6,robot,3,False,False,"['robot_stimuli\\R_Torso_Y_For.mp4', 'robot_stimuli\\L_Head_X_Back.mp4', 'robot_stimuli\\R_Base_Y_For.mp4', 'robot_stimuli\\L_Torso_Z_Back.mp4', 'robot_stimuli\\L_Arm_Y_Back.mp4', 'robot_stimuli\\L_Head_Z_For.mp4']",robot_stimuli\R_Base_Y_For.mp4,13,,,,,,,,,,,,,0,75,75,75,,,,,,,,,,,,,,,,,2110.626949199999,2088.533959899971,,,,,,,,,2115.486029499967,2115.486029499967,2115.486029499967,2115.486029499967,2115.486029499967,2115.486029499967,2115.486029499967,2115.486029499967,None,None,None,,,,,,,,,,,2087.4553645999986,2087.4553645999986,None,,2106.9862299999804,2111.715591199987,2111.715591199987,2111.715591199987,2111.715591199987,c,3.74022859998513,2087.4553645999986,2087.4553645999986,,,,13,001,2024-07-09_14h05.17.473,robot_sternberg_sign,2022.2.5,59.94632405748674,
"['R_Torso_Z_Back', 'L_Arm_Z_For', 'L_Head_Z_For', 'L_Arm_X_Back', 'L_Arm_Y_Back', 'R_Arm_Z_For']",True,R_Torso_Z_Back,6,robot,3,False,False,"['robot_stimuli\\R_Torso_Z_Back.mp4', 'robot_stimuli\\L_Arm_Z_For.mp4', 'robot_stimuli\\L_Head_Z_For.mp4', 'robot_stimuli\\L_Arm_X_Back.mp4', 'robot_stimuli\\L_Arm_Y_Back.mp4', 'robot_stimuli\\R_Arm_Z_For.mp4']",robot_stimuli\R_Torso_Z_Back.mp4,13,,,,,,,,,,,,,0,76,76,76,,,,,,,,,,,,,,,,,2138.8303570999997,2139.919125699962,,,,,,,,,2144.9824570000055,2144.9824570000055,2144.9824570000055,2144.9824570000055,2144.9824570000055,2144.9824570000055,2144.9824570000055,2144.9824570000055,None,None,None,,,,,,,,,,,2115.486029499967,2115.486029499967,None,,2135.2000206999946,2139.919125699962,2139.919125699962,2139.919125699962,2139.919125699962,n,5.031803200021386,2115.486029499967,2115.486029499967,,,,13,001,2024-07-09_14h05.17.473,robot_sternberg_sign,2022.2.5,59.94632405748674,
"['L_Torso_Y_For', 'R_Torso_X_For', 'R_Base_Y_Back', 'L_Arm_Z_Back', 'R_Arm_Z_Back', 'L_Base_Z_For']",False,L_Torso_Z_Back,6,robot,3,False,False,"['robot_stimuli\\L_Torso_Y_For.mp4', 'robot_stimuli\\R_Torso_X_For.mp4', 'robot_stimuli\\R_Base_Y_Back.mp4', 'robot_stimuli\\L_Arm_Z_Back.mp4', 'robot_stimuli\\R_Arm_Z_Back.mp4', 'robot_stimuli\\L_Base_Z_For.mp4']",robot_stimuli\L_Torso_Z_Back.mp4,13,,,,,,,,,,,,,0,77,77,77,,,,,,,,,,,,,,,,,2168.3116512999986,2169.4034002999542,,,,,,,,,2173.5676149000064,2173.5676149000064,2173.5676149000064,2173.5676149000064,2173.5676149000064,2173.5676149000064,2173.5676149000064,2173.5676149000064,None,None,None,,,,,,,,,,,2144.9824570000055,2144.9824570000055,None,,2164.680632399977,2169.4034002999542,2169.4034002999542,2169.4034002999542,2169.4034002999542,n,4.123575500037987,2144.9824570000055,2144.9824570000055,,,,13,001,2024-07-09_14h05.17.473,robot_sternberg_sign,2022.2.5,59.94632405748674,
"['L_Head_Y_Back', 'R_Torso_X_For', 'R_Torso_X_Back', 'R_Base_Y_For', 'R_Arm_X_For', 'L_Head_X_Back']",True,R_Torso_X_For,6,robot,3,False,False,"['robot_stimuli\\L_Head_Y_Back.mp4', 'robot_stimuli\\R_Torso_X_For.mp4', 'robot_stimuli\\R_Torso_X_Back.mp4', 'robot_stimuli\\R_Base_Y_For.mp4', 'robot_stimuli\\R_Arm_X_For.mp4', 'robot_stimuli\\L_Head_X_Back.mp4']",robot_stimuli\R_Torso_X_For.mp4,13,,,,,,,,,,,,,0,78,78,78,,,,,,,,,,,,,,,,,2196.9271074999706,2174.6449132999987,,,,,,,,,2206.7646311999997,2206.7646311999997,2206.7646311999997,2206.7646311999997,2206.7646311999997,2206.7646311999997,2206.7646311999997,2206.7646311999997,None,None,None,,,,,,,,,,,2173.5676149000064,2173.5676149000064,None,,2193.2828134999727,2198.038973799965,2198.038973799965,2198.038973799965,2198.038973799965,c,8.68876900000032,2173.5676149000064,2173.5676149000064,,,,13,001,2024-07-09_14h05.17.473,robot_sternberg_sign,2022.2.5,59.94632405748674,
"['R_Base_Z_For', 'L_Torso_Z_For', 'R_Arm_Y_For', 'R_Arm_X_For', 'L_Base_Y_Back', 'L_Head_Z_Back']",False,R_Base_X_Back,6,robot,3,False,True,"['robot_stimuli\\R_Base_Z_For.mp4', 'robot_stimuli\\L_Torso_Z_For.mp4', 'robot_stimuli\\R_Arm_Y_For.mp4', 'robot_stimuli\\R_Arm_X_For.mp4', 'robot_stimuli\\L_Base_Y_Back.mp4', 'robot_stimuli\\L_Head_Z_Back.mp4']",robot_stimuli\R_Base_X_Back.mp4,13,,,,,,,,,,,,,0,79,79,79,,,,,,,,,,,,,,,,,2229.9295591999544,2231.024904799997,,,,,,,,,2235.7314960999647,2241.8635846999823,2235.7314960999647,2241.8635846999823,2235.7314960999647,2241.8635846999823,2235.7314960999647,2241.8635846999823,56.69753086419753,4.076237300003413,space,,,6.0837716000387445,,,,,,,,2206.7646311999997,2206.7646311999997,None,,2226.286592999997,2231.024904799997,2231.024904799997,2231.024904799997,2231.024904799997,c,4.622031999984756,2206.7646311999997,2206.7646311999997,,,,13,001,2024-07-09_14h05.17.473,robot_sternberg_sign,2022.2.5,59.94632405748674,
"['R_Arm_Z_For', 'L_Arm_Z_For']",False,L_Base_Z_For,2,robot,3,True,False,"['robot_stimuli\\R_Arm_Z_For.mp4', 'robot_stimuli\\L_Arm_Z_For.mp4']",robot_stimuli\L_Base_Z_For.mp4,13,,,,,,,,,,,,,0,80,80,80,,,,,,,,,,,,,,,,,2253.912396800006,2255.0016581999953,,,,,,,,,2258.6397879999713,2258.6397879999713,2258.6397879999713,2258.6397879999713,2258.6397879999713,2258.6397879999713,2258.6397879999713,2258.6397879999713,None,None,None,,,,,,,,,,,2241.8635846999823,2241.8635846999823,space,3.6086709999945015,2250.2830456999945,2255.0016581999953,2255.0016581999953,2255.0016581999953,2255.0016581999953,n,2.5662392000085674,,,,,,13,001,2024-07-09_14h05.17.473,robot_sternberg_sign,2022.2.5,59.94632405748674,
"['L_Torso_Y_Back', 'R_Arm_X_For']",True,R_Arm_X_For,2,robot,3,False,False,"['robot_stimuli\\L_Torso_Y_Back.mp4', 'robot_stimuli\\R_Arm_X_For.mp4']",robot_stimuli\R_Arm_X_For.mp4,13,,,,,,,,,,,,,0,81,81,81,,,,,,,,,,,,,,,,,2266.9446295999805,2268.030917199969,,,,,,,,,2271.6742492999765,2271.6742492999765,2271.6742492999765,2271.6742492999765,2271.6742492999765,2271.6742492999765,2271.6742492999765,2271.6742492999765,None,None,None,,,,,,,,,,,2258.6397879999713,2258.6397879999713,None,,2263.3046654000063,2268.030917199969,2268.030917199969,2268.030917199969,2268.030917199969,c,3.249465200002305,2258.6397879999713,2258.6397879999713,,,,13,001,2024-07-09_14h05.17.473,robot_sternberg_sign,2022.2.5,59.94632405748674,
"['L_Torso_X_For', 'R_Head_Z_For']",True,R_Head_Z_For,2,robot,3,False,False,"['robot_stimuli\\L_Torso_X_For.mp4', 'robot_stimuli\\R_Head_Z_For.mp4']",robot_stimuli\R_Head_Z_For.mp4,13,,,,,,,,,,,,,0,82,82,82,,,,,,,,,,,,,,,,,2280.111689499987,2281.201391199953,,,,,,,,,2284.9970224999706,2284.9970224999706,2284.9970224999706,2284.9970224999706,2284.9970224999706,2284.9970224999706,2284.9970224999706,2284.9970224999706,None,None,None,,,,,,,,,,,2271.6742492999765,2271.6742492999765,None,,2276.4721596000018,2281.201391199953,2281.201391199953,2281.201391199953,2281.201391199953,c,3.765631999995094,2271.6742492999765,2271.6742492999765,,,,13,001,2024-07-09_14h05.17.473,robot_sternberg_sign,2022.2.5,59.94632405748674,
"['R_Base_Z_For', 'R_Base_X_Back']",False,R_Base_Y_Back,2,robot,3,False,False,"['robot_stimuli\\R_Base_Z_For.mp4', 'robot_stimuli\\R_Base_X_Back.mp4']",robot_stimuli\R_Base_Y_Back.mp4,13,,,,,,,,,,,,,0,83,83,83,,,,,,,,,,,,,,,,,2293.44960599998,2294.549946199986,,,,,,,,,2299.4389583999873,2299.4389583999873,2299.4389583999873,2299.4389583999873,2299.4389583999873,2299.4389583999873,2299.4389583999873,2299.4389583999873,None,None,None,,,,,,,,,,,2284.9970224999706,2284.9970224999706,None,,2289.8021552999853,2294.549946199986,2294.549946199986,2294.549946199986,2294.549946199986,n,4.850250699964818,2284.9970224999706,2284.9970224999706,,,,13,001,2024-07-09_14h05.17.473,robot_sternberg_sign,2022.2.5,59.94632405748674,
"['L_Base_Z_Back', 'L_Torso_X_For']",True,L_Base_Z_Back,2,robot,3,False,False,"['robot_stimuli\\L_Base_Z_Back.mp4', 'robot_stimuli\\L_Torso_X_For.mp4']",robot_stimuli\L_Base_Z_Back.mp4,13,,,,,,,,,,,,,0,84,84,84,,,,,,,,,,,,,,,,,2307.8826928999624,2308.9694142999942,,,,,,,,,2312.683362299984,2312.683362299984,2312.683362299984,2312.683362299984,2312.683362299984,2312.683362299984,2312.683362299984,2312.683362299984,None,None,None,,,,,,,,,,,2299.4389583999873,2299.4389583999873,None,,2304.2532466999837,2308.9694142999942,2308.9694142999942,2308.9694142999942,2308.9694142999942,c,3.687619399977848,2299.4389583999873,2299.4389583999873,,,,13,001,2024-07-09_14h05.17.473,robot_sternberg_sign,2022.2.5,59.94632405748674,
"['L_Head_Y_For', 'L_Torso_Y_Back']",True,L_Head_Y_For,2,robot,3,False,False,"['robot_stimuli\\L_Head_Y_For.mp4', 'robot_stimuli\\L_Torso_Y_Back.mp4']",robot_stimuli\L_Head_Y_For.mp4,13,,,,,,,,,,,,,0,85,85,85,,,,,,,,,,,,,,,,,2321.0115523999557,2322.1022971000057,,,,,,,,,2326.2410715000005,2326.2410715000005,2326.2410715000005,2326.2410715000005,2326.2410715000005,2326.2410715000005,2326.2410715000005,2326.2410715000005,None,None,None,,,,,,,,,,,2312.683362299984,2312.683362299984,None,,2317.5048404999543,2322.1022971000057,2322.1022971000057,2322.1022971000057,2322.1022971000057,c,4.104845700028818,2312.683362299984,2312.683362299984,,,,13,001,2024-07-09_14h05.17.473,robot_sternberg_sign,2022.2.5,59.94632405748674,
"['L_Arm_Y_For', 'L_Torso_Y_For']",False,L_Arm_Z_For,2,robot,3,False,False,"['robot_stimuli\\L_Arm_Y_For.mp4', 'robot_stimuli\\L_Torso_Y_For.mp4']",robot_stimuli\L_Arm_Z_For.mp4,13,,,,,,,,,,,,,0,86,86,86,,,,,,,,,,,,,,,,,2334.6775849999976,2327.3121710999985,,,,,,,,,2339.669092199998,2339.669092199998,2339.669092199998,2339.669092199998,2339.669092199998,2339.669092199998,2339.669092199998,2339.669092199998,None,None,None,,,,,,,,,,,2326.2410715000005,2326.2410715000005,None,,2331.0384235999663,2335.7632759999833,2335.7632759999833,2335.7632759999833,2335.7632759999833,c,3.877037099970039,2326.2410715000005,2326.2410715000005,,,,13,001,2024-07-09_14h05.17.473,robot_sternberg_sign,2022.2.5,59.94632405748674,
"['R_Torso_Z_For', 'R_Base_Y_For']",False,R_Torso_X_For,2,robot,3,False,False,"['robot_stimuli\\R_Torso_Z_For.mp4', 'robot_stimuli\\R_Base_Y_For.mp4']",robot_stimuli\R_Torso_X_For.mp4,13,,,,,,,,,,,,,0,87,87,87,,,,,,,,,,,,,,,,,2348.1134585999534,2349.2030700999894,,,,,,,,,2355.201050499978,2355.201050499978,2355.201050499978,2355.201050499978,2355.201050499978,2355.201050499978,2355.201050499978,2355.201050499978,None,None,None,,,,,,,,,,,2339.669092199998,2339.669092199998,None,,2344.475301600003,2349.2030700999894,2349.2030700999894,2349.2030700999894,2349.2030700999894,c,5.972994499956258,2339.669092199998,2339.669092199998,,,,13,001,2024-07-09_14h05.17.473,robot_sternberg_sign,2022.2.5,59.94632405748674,
"['R_Head_Y_Back', 'R_Arm_X_For']",False,R_Arm_Z_For,2,robot,3,False,False,"['robot_stimuli\\R_Head_Y_Back.mp4', 'robot_stimuli\\R_Arm_X_For.mp4']",robot_stimuli\R_Arm_Z_For.mp4,13,,,,,,,,,,,,,0,88,88,88,,,,,,,,,,,,,,,,,2363.6306627999875,2364.717791199975,,,,,,,,,2370.023283699993,2370.023283699993,2370.023283699993,2370.023283699993,2370.023283699993,2370.023283699993,2370.023283699993,2370.023283699993,None,None,None,,,,,,,,,,,2355.201050499978,2355.201050499978,None,,2360.003698799992,2364.717791199975,2364.717791199975,2364.717791199975,2364.717791199975,n,5.274418100016192,2355.201050499978,2355.201050499978,,,,13,001,2024-07-09_14h05.17.473,robot_sternberg_sign,2022.2.5,59.94632405748674,
"['L_Arm_Z_Back', 'L_Torso_Y_For']",True,L_Arm_Z_Back,2,robot,3,False,True,"['robot_stimuli\\L_Arm_Z_Back.mp4', 'robot_stimuli\\L_Torso_Y_For.mp4']",robot_stimuli\L_Arm_Z_Back.mp4,13,,,,,,,,,,,,,0,89,89,89,,,,,,,,,,,,,,,,,2378.46286889998,2379.553014200006,,,,,,,,,2394.496747999976,2400.407073999988,2394.496747999976,2400.407073999988,2394.496747999976,2400.407073999988,2394.496747999976,2400.407073999988,42.345679012345684,3.9128134000347927,space,,,5.854323100007605,,,,,,,,2370.023283699993,2370.023283699993,None,,2374.822139099997,2379.553014200006,2379.553014200006,2379.553014200006,2379.553014200006,c,14.887079500011168,2370.023283699993,2370.023283699993,,,,13,001,2024-07-09_14h05.17.473,robot_sternberg_sign,2022.2.5,59.94632405748674,
"['J', 'L']",True,J,2,letter,4,True,False,"['robot_stimuli\\\\filler.mp4', 'robot_stimuli\\\\filler.mp4']",robot_stimuli\\filler.mp4,13,,,,,,,,,,,,,0,90,90,90,,,,,,,,,,,,,,,,,2407.5768332000007,2403.2921519000083,,,,,,,,,2410.279063299997,2410.279063299997,2410.279063299997,2410.279063299997,2410.279063299997,2410.279063299997,2410.279063299997,2410.279063299997,None,None,None,,,,,,,,,,,2400.407073999988,2400.407073999988,space,1.8003362999879755,,,2408.645021300006,2408.645021300006,2408.645021300006,c,1.5221828000503592,,,2405.5747083000024,2407.5768332000007,2408.645021300006,13,001,2024-07-09_14h05.17.473,robot_sternberg_sign,2022.2.5,59.94632405748674,
"['G', 'D']",False,N,2,letter,4,False,False,"['robot_stimuli\\\\filler.mp4', 'robot_stimuli\\\\filler.mp4']",robot_stimuli\\filler.mp4,13,,,,,,,,,,,,,0,91,91,91,,,,,,,,,,,,,,,,,2415.8430537999957,2411.350796499988,,,,,,,,,2418.1394841999863,2418.1394841999863,2418.1394841999863,2418.1394841999863,2418.1394841999863,2418.1394841999863,2418.1394841999863,2418.1394841999863,None,None,None,,,,,,,,,,,2410.279063299997,2410.279063299997,None,,,,2416.911575099977,2416.911575099977,2416.911575099977,n,1.0639983000000939,2410.279063299997,2410.279063299997,2413.631629899959,2415.8430537999957,2416.911575099977,13,001,2024-07-09_14h05.17.473,robot_sternberg_sign,2022.2.5,59.94632405748674,
"['C', 'Q']",False,J,2,letter,4,False,False,"['robot_stimuli\\\\filler.mp4', 'robot_stimuli\\\\filler.mp4']",robot_stimuli\\filler.mp4,13,,,,,,,,,,,,,0,92,92,92,,,,,,,,,,,,,,,,,2423.5000286999857,2424.561843100004,,,,,,,,,2425.7881478999625,2425.7881478999625,2425.7881478999625,2425.7881478999625,2425.7881478999625,2425.7881478999625,2425.7881478999625,2425.7881478999625,None,None,None,,,,,,,,,,,2418.1394841999863,2418.1394841999863,None,,,,2424.561843100004,2424.561843100004,2424.561843100004,n,1.0551568000228144,2418.1394841999863,2418.1394841999863,2421.4870094999787,2423.5000286999857,2424.561843100004,13,001,2024-07-09_14h05.17.473,robot_sternberg_sign,2022.2.5,59.94632405748674,
"['M', 'S']",True,M,2,letter,4,False,False,"['robot_stimuli\\\\filler.mp4', 'robot_stimuli\\\\filler.mp4']",robot_stimuli\\filler.mp4,13,,,,,,,,,,,,,0,93,93,93,,,,,,,,,,,,,,,,,2431.3498724999954,2432.411564000009,,,,,,,,,2433.6373545000097,2433.6373545000097,2433.6373545000097,2433.6373545000097,2433.6373545000097,2433.6373545000097,2433.6373545000097,2433.6373545000097,None,None,None,,,,,,,,,,,2425.7881478999625,2425.7881478999625,None,,,,2432.411564000009,2432.411564000009,2432.411564000009,c,1.0042013000347652,2425.7881478999625,2425.7881478999625,2429.1285249000066,2431.3498724999954,2432.411564000009,13,001,2024-07-09_14h05.17.473,robot_sternberg_sign,2022.2.5,59.94632405748674,
"['G', 'M']",True,M,2,letter,4,False,False,"['robot_stimuli\\\\filler.mp4', 'robot_stimuli\\\\filler.mp4']",robot_stimuli\\filler.mp4,13,,,,,,,,,,,,,0,94,94,94,,,,,,,,,,,,,,,,,2439.0208574999706,2440.076637799968,,,,,,,,,2441.0985000999644,2441.0985000999644,2441.0985000999644,2441.0985000999644,2441.0985000999644,2441.0985000999644,2441.0985000999644,2441.0985000999644,None,None,None,,,,,,,,,,,2433.6373545000097,2433.6373545000097,None,,,,2440.076637799968,2440.076637799968,2440.076637799968,c,0.9468953000032343,2433.6373545000097,2433.6373545000097,2437.0008536999812,2439.0208574999706,2440.076637799968,13,001,2024-07-09_14h05.17.473,robot_sternberg_sign,2022.2.5,59.94632405748674,
"['F', 'L']",True,F,2,letter,4,False,False,"['robot_stimuli\\\\filler.mp4', 'robot_stimuli\\\\filler.mp4']",robot_stimuli\\filler.mp4,13,,,,,,,,,,,,,0,95,95,95,,,,,,,,,,,,,,,,,2446.470487499959,2447.5282987999963,,,,,,,,,2448.3534011999727,2448.3534011999727,2448.3534011999727,2448.3534011999727,2448.3534011999727,2448.3534011999727,2448.3534011999727,2448.3534011999727,None,None,None,,,,,,,,,,,2441.0985000999644,2441.0985000999644,None,,,,2447.5282987999963,2447.5282987999963,2447.5282987999963,c,0.6882757999701425,2441.0985000999644,2441.0985000999644,2444.453081399959,2446.470487499959,2447.5282987999963,13,001,2024-07-09_14h05.17.473,robot_sternberg_sign,2022.2.5,59.94632405748674,
"['R', 'F']",False,Z,2,letter,4,False,False,"['robot_stimuli\\\\filler.mp4', 'robot_stimuli\\\\filler.mp4']",robot_stimuli\\filler.mp4,13,,,,,,,,,,,,,0,96,96,96,,,,,,,,,,,,,,,,,2453.7124786999775,2454.777464099985,,,,,,,,,2456.0075743999914,2456.0075743999914,2456.0075743999914,2456.0075743999914,2456.0075743999914,2456.0075743999914,2456.0075743999914,2456.0075743999914,None,None,None,,,,,,,,,,,2448.3534011999727,2448.3534011999727,None,,,,2454.777464099985,2454.777464099985,2454.777464099985,n,1.055532000027597,2448.3534011999727,2448.3534011999727,2451.7043660999625,2453.7124786999775,2454.777464099985,13,001,2024-07-09_14h05.17.473,robot_sternberg_sign,2022.2.5,59.94632405748674,
"['P', 'S']",False,G,2,letter,4,False,False,"['robot_stimuli\\\\filler.mp4', 'robot_stimuli\\\\filler.mp4']",robot_stimuli\\filler.mp4,13,,,,,,,,,,,,,0,97,97,97,,,,,,,,,,,,,,,,,2461.3655503999908,2462.4281080999644,,,,,,,,,2463.658763399988,2463.658763399988,2463.658763399988,2463.658763399988,2463.658763399988,2463.658763399988,2463.658763399988,2463.658763399988,None,None,None,,,,,,,,,,,2456.0075743999914,2456.0075743999914,None,,,,2462.4281080999644,2462.4281080999644,2462.4281080999644,n,0.9956232000258751,2456.0075743999914,2456.0075743999914,2459.349994499993,2461.3655503999908,2462.4281080999644,13,001,2024-07-09_14h05.17.473,robot_sternberg_sign,2022.2.5,59.94632405748674,
"['B', 'M']",False,Q,2,letter,4,False,False,"['robot_stimuli\\\\filler.mp4', 'robot_stimuli\\\\filler.mp4']",robot_stimuli\\filler.mp4,13,,,,,,,,,,,,,0,98,98,98,,,,,,,,,,,,,,,,,2469.022046600003,2470.0773919000058,,,,,,,,,2471.0982111999765,2471.0982111999765,2471.0982111999765,2471.0982111999765,2471.0982111999765,2471.0982111999765,2471.0982111999765,2471.0982111999765,None,None,None,,,,,,,,,,,2463.658763399988,2463.658763399988,None,,,,2470.0773919000058,2470.0773919000058,2470.0773919000058,n,0.9230210999958217,2463.658763399988,2463.658763399988,2467.0051505999872,2469.022046600003,2470.0773919000058,13,001,2024-07-09_14h05.17.473,robot_sternberg_sign,2022.2.5,59.94632405748674,
"['D', 'S']",True,S,2,letter,4,False,True,"['robot_stimuli\\\\filler.mp4', 'robot_stimuli\\\\filler.mp4']",robot_stimuli\\filler.mp4,13,,,,,,,,,,,,,0,99,99,99,,,,,,,,,,,,,,,,,2476.4836431999574,2477.5450224999804,,,,,,,,,2478.6020661999937,2483.5926136999624,2478.6020661999937,2483.5926136999624,2478.6020661999937,2483.5926136999624,2478.6020661999937,2483.5926136999624,6.080246913580237,4.411863199959043,space,,,4.925131700001657,,,,,,,,2471.0982111999765,2471.0982111999765,None,,,,2477.5450224999804,2477.5450224999804,2477.5450224999804,c,0.9187575000105426,2471.0982111999765,2471.0982111999765,2474.465489999973,2476.4836431999574,2477.5450224999804,13,001,2024-07-09_14h05.17.473,robot_sternberg_sign,2022.2.5,59.94632405748674,
"['M', 'N', 'G', 'V']",False,J,4,letter,4,True,False,"['robot_stimuli\\\\filler.mp4', 'robot_stimuli\\\\filler.mp4', 'robot_stimuli\\\\filler.mp4', 'robot_stimuli\\\\filler.mp4']",robot_stimuli\\filler.mp4,13,,,,,,,,,,,,,0,100,100,100,,,,,,,,,,,,,,,,,2495.040190299973,2496.096933099965,,,,,,,,,2497.322131599998,2497.322131599998,2497.322131599998,2497.322131599998,2497.322131599998,2497.322131599998,2497.322131599998,2497.322131599998,None,None,None,,,,,,,,,,,2483.5926136999624,2483.5926136999624,space,1.479073399968911,,,2496.096933099965,2496.096933099965,2496.096933099965,n,1.0305518999812193,,,2492.831333499984,2495.040190299973,2496.096933099965,13,001,2024-07-09_14h05.17.473,robot_sternberg_sign,2022.2.5,59.94632405748674,
"['S', 'B', 'L', 'J']",False,P,4,letter,4,False,False,"['robot_stimuli\\\\filler.mp4', 'robot_stimuli\\\\filler.mp4', 'robot_stimuli\\\\filler.mp4', 'robot_stimuli\\\\filler.mp4']",robot_stimuli\\filler.mp4,13,,,,,,,,,,,,,0,101,101,101,,,,,,,,,,,,,,,,,2507.463272199966,2508.5288452999666,,,,,,,,,2509.5516950999736,2509.5516950999736,2509.5516950999736,2509.5516950999736,2509.5516950999736,2509.5516950999736,2509.5516950999736,2509.5516950999736,None,None,None,,,,,,,,,,,2497.322131599998,2497.322131599998,None,,,,2508.5288452999666,2508.5288452999666,2508.5288452999666,n,0.9118142999941483,2497.322131599998,2497.322131599998,2505.252692399954,2507.463272199966,2508.5288452999666,13,001,2024-07-09_14h05.17.473,robot_sternberg_sign,2022.2.5,59.94632405748674,
"['B', 'C', 'H', 'K']",True,H,4,letter,4,False,False,"['robot_stimuli\\\\filler.mp4', 'robot_stimuli\\\\filler.mp4', 'robot_stimuli\\\\filler.mp4', 'robot_stimuli\\\\filler.mp4']",robot_stimuli\\filler.mp4,13,,,,,,,,,,,,,0,102,102,102,,,,,,,,,,,,,,,,,2519.1049016999896,2520.161259699962,,,,,,,,,2521.3935256999684,2521.3935256999684,2521.3935256999684,2521.3935256999684,2521.3935256999684,2521.3935256999684,2521.3935256999684,2521.3935256999684,None,None,None,,,,,,,,,,,2509.5516950999736,2509.5516950999736,None,,,,2520.161259699962,2520.161259699962,2520.161259699962,c,1.159362600010354,2509.5516950999736,2509.5516950999736,2517.087885599991,2519.1049016999896,2520.161259699962,13,001,2024-07-09_14h05.17.473,robot_sternberg_sign,2022.2.5,59.94632405748674,
"['R', 'K', 'L', 'G']",True,K,4,letter,4,False,False,"['robot_stimuli\\\\filler.mp4', 'robot_stimuli\\\\filler.mp4', 'robot_stimuli\\\\filler.mp4', 'robot_stimuli\\\\filler.mp4']",robot_stimuli\\filler.mp4,13,,,,,,,,,,,,,0,103,103,103,,,,,,,,,,,,,,,,,2531.157784799987,2532.213942500006,,,,,,,,,2533.434084599954,2533.434084599954,2533.434084599954,2533.434084599954,2533.434084599954,2533.434084599954,2533.434084599954,2533.434084599954,None,None,None,,,,,,,,,,,2521.3935256999684,2521.3935256999684,None,,,,2532.213942500006,2532.213942500006,2532.213942500006,c,1.1371278000297025,2521.3935256999684,2521.3935256999684,2528.947288599971,2531.157784799987,2532.213942500006,13,001,2024-07-09_14h05.17.473,robot_sternberg_sign,2022.2.5,59.94632405748674,
