sequence,is_true,target,condition,stimuli,block,is_block_beginning,is_block_ending,sequence_fnames,target_fname,subject,retraining.thisRepN,retraining.thisTrialN,retraining.thisN,retraining.thisIndex,training.thisRepN,training.thisTrialN,training.thisN,training.thisIndex,training_sequence_loop.thisRepN,training_sequence_loop.thisTrialN,training_sequence_loop.thisN,training_sequence_loop.thisIndex,trials.thisRepN,trials.thisTrialN,trials.thisN,trials.thisIndex,sequence_loop.thisRepN,sequence_loop.thisTrialN,sequence_loop.thisN,sequence_loop.thisIndex,langage_text.started,langage_key.started,langage_key.keys,langage_key.rt,intro_text.started,intro_key.started,intro_key.keys,intro_key.rt,training_intro_text.started,training_intro_key.started,training_intro_key.keys,training_intro_key.rt,polygon.started,polygon.stopped,training_presentation_letter.started,training_presentation_letter.stopped,training_recall_letter.started,training_recall_key.started,training_recall_question.started,training_recall_answer.started,training_recall_key.keys,training_recall_key.rt,RSME_labels.started,RSME_labels.stopped,RSME_ticks.started,RSME_ticks.stopped,RSME_text.started,RSME_text.stopped,RSME_key.started,RSME_key.stopped,RSME_ticks.response,RSME_ticks.rt,RSME_key.keys,training_intro_text.stopped,training_intro_key.stopped,RSME_key.rt,training_presentation_movie.started,training_recall_movie.started,experiment_beginning_text.started,experiment_beginning_keys.started,experiment_beginning_key.started,experiment_beginning_key.keys,experiment_beginning_key.rt,block_intro_text.started,block_intro_key.started,block_intro_key.keys,block_intro_key.rt,presentation_movie.started,recall_movie.started,recall_key.started,recall_question.started,recall_answer.started,recall_key.keys,recall_key.rt,block_intro_text.stopped,block_intro_key.stopped,presentation_letter.started,presentation_letter.stopped,recall_letter.started,participant,session,date,expName,psychopyVersion,frameRate,
,,,,,,,,,,,,,,,,,,,,,,,,,,,,,,,15.464835599999986,15.464835599999986,f,0.8029079999999738,,,,,,,,,,,,,,,,,,,,,,,,,,,,,,,,,,,,,,,,,,,,,,,,,,,,,,,,17,001,2024-07-29_13h19.16.194,robot_sternberg_sign,2022.2.5,60.08384099171855,
,,,,,,,,,,,,,,,,,,,,,,,,,,,,,,,,,,,16.319785600000017,16.319785600000017,space,86.62915570000004,,,,,,,,,,,,,,,,,,,,,,,,,,,,,,,,,,,,,,,,,,,,,,,,,,,,17,001,2024-07-29_13h19.16.194,robot_sternberg_sign,2022.2.5,60.08384099171855,
"['T', 'F']",False,V,2,letter,2,True,False,"['robot_stimuli\\\\filler.mp4', 'robot_stimuli\\\\filler.mp4']",robot_stimuli\\filler.mp4,17,0,0,0,0,0,0,0,0,,,,,,,,,,,,,,,,,,,,,102.98558260000001,102.98558260000001,space,1.4200856999999871,110.0305185,111.12300280000002,108.01444990000002,110.0305185,111.12300280000002,111.12300280000002,111.12300280000002,111.12300280000002,n,1.8330154999999593,113.23991750000002,113.23991750000002,113.23991750000002,113.23991750000002,113.23991750000002,113.23991750000002,113.23991750000002,113.23991750000002,None,None,None,,,,,,,,,,,,,,,,,,,,,,,,,,,17,001,2024-07-29_13h19.16.194,robot_sternberg_sign,2022.2.5,60.08384099171855,
"['J', 'Z']",True,J,2,letter,2,False,False,"['robot_stimuli\\\\filler.mp4', 'robot_stimuli\\\\filler.mp4']",robot_stimuli\\filler.mp4,17,0,0,0,0,0,1,1,1,,,,,,,,,,,,,,,,,,,,,113.23991750000002,113.23991750000002,None,,118.64875250000003,119.71511890000002,116.43817870000001,118.64875250000003,119.71511890000002,119.71511890000002,119.71511890000002,119.71511890000002,c,0.9610446999999738,120.7428285,120.7428285,120.7428285,120.7428285,120.7428285,120.7428285,120.7428285,120.7428285,None,None,None,113.23991750000002,113.23991750000002,,,,,,,,,,,,,,,,,,,,,,,,,17,001,2024-07-29_13h19.16.194,robot_sternberg_sign,2022.2.5,60.08384099171855,
"['L', 'K']",True,L,2,letter,2,False,True,"['robot_stimuli\\\\filler.mp4', 'robot_stimuli\\\\filler.mp4']",robot_stimuli\\filler.mp4,17,0,0,0,0,0,2,2,2,,,,,,,,,,,,,,,,,,,,,120.7428285,120.7428285,None,,126.14671239999998,127.21544480000003,123.9372744,126.14671239999998,127.21544480000003,127.21544480000003,127.21544480000003,127.21544480000003,c,0.6700423000000058,128.09873940000003,131.8106534,128.09873940000003,131.8106534,128.09873940000003,131.8106534,128.09873940000003,131.8106534,11.481481481481476,2.6367136000000073,space,120.7428285,120.7428285,3.64138159999996,,,,,,,,,,,,,,,,,,,,,,,,17,001,2024-07-29_13h19.16.194,robot_sternberg_sign,2022.2.5,60.08384099171855,
"['F', 'C', 'T', 'M']",True,T,4,letter,2,True,False,"['robot_stimuli\\\\filler.mp4', 'robot_stimuli\\\\filler.mp4', 'robot_stimuli\\\\filler.mp4', 'robot_stimuli\\\\filler.mp4']",robot_stimuli\\filler.mp4,17,0,0,0,0,0,3,3,3,,,,,,,,,,,,,,,,,,,,,131.8106534,131.8106534,space,0.8259152999999912,142.46628030000002,143.53371690000003,140.4460094,142.46628030000002,143.53371690000003,143.53371690000003,143.53371690000003,143.53371690000003,c,0.7914611999999863,144.5624809,144.5624809,144.5624809,144.5624809,144.5624809,144.5624809,144.5624809,144.5624809,None,None,None,,,,,,,,,,,,,,,,,,,,,,,,,,,17,001,2024-07-29_13h19.16.194,robot_sternberg_sign,2022.2.5,60.08384099171855,
"['S', 'N', 'K', 'F']",True,S,4,letter,2,False,False,"['robot_stimuli\\\\filler.mp4', 'robot_stimuli\\\\filler.mp4', 'robot_stimuli\\\\filler.mp4', 'robot_stimuli\\\\filler.mp4']",robot_stimuli\\filler.mp4,17,0,0,0,0,0,4,4,4,,,,,,,,,,,,,,,,,,,,,144.5624809,144.5624809,None,,154.5576523,155.63069249999998,152.33712069999999,154.5576523,155.63069249999998,155.63069249999998,155.63069249999998,155.63069249999998,c,0.6465123000000119,156.4624251,156.4624251,156.4624251,156.4624251,156.4624251,156.4624251,156.4624251,156.4624251,None,None,None,144.5624809,144.5624809,,,,,,,,,,,,,,,,,,,,,,,,,17,001,2024-07-29_13h19.16.194,robot_sternberg_sign,2022.2.5,60.08384099171855,
"['R', 'W', 'J', 'X']",False,F,4,letter,2,False,True,"['robot_stimuli\\\\filler.mp4', 'robot_stimuli\\\\filler.mp4', 'robot_stimuli\\\\filler.mp4', 'robot_stimuli\\\\filler.mp4']",robot_stimuli\\filler.mp4,17,0,0,0,0,0,5,5,5,,,,,,,,,,,,,,,,,,,,,156.4624251,156.4624251,None,,166.26663729999999,167.331673,164.24751890000002,166.26663729999999,167.331673,167.331673,167.331673,167.331673,n,0.7211901000000296,168.1933172,170.68757860000002,168.1933172,170.68757860000002,168.1933172,170.68757860000002,168.1933172,170.68757860000002,24.290123456790123,1.8562747999999942,space,156.4624251,156.4624251,2.442887900000045,,,,,,,,,,,,,,,,,,,,,,,,17,001,2024-07-29_13h19.16.194,robot_sternberg_sign,2022.2.5,60.08384099171855,
"['P', 'H', 'Z', 'C', 'Q', 'K']",True,C,6,letter,2,True,False,"['robot_stimuli\\\\filler.mp4', 'robot_stimuli\\\\filler.mp4', 'robot_stimuli\\\\filler.mp4', 'robot_stimuli\\\\filler.mp4', 'robot_stimuli\\\\filler.mp4', 'robot_stimuli\\\\filler.mp4']",robot_stimuli\\filler.mp4,17,0,0,0,0,0,6,6,6,,,,,,,,,,,,,,,,,,,,,170.68757860000002,170.68757860000002,space,0.7980439000000104,185.7278909,186.79748830000003,183.71423059999998,185.7278909,186.79748830000003,186.79748830000003,186.79748830000003,186.79748830000003,c,0.8476503000000264,187.82432530000003,187.82432530000003,187.82432530000003,187.82432530000003,187.82432530000003,187.82432530000003,187.82432530000003,187.82432530000003,None,None,None,,,,,,,,,,,,,,,,,,,,,,,,,,,17,001,2024-07-29_13h19.16.194,robot_sternberg_sign,2022.2.5,60.08384099171855,
"['H', 'L', 'S', 'F', 'R', 'V']",True,R,6,letter,2,False,False,"['robot_stimuli\\\\filler.mp4', 'robot_stimuli\\\\filler.mp4', 'robot_stimuli\\\\filler.mp4', 'robot_stimuli\\\\filler.mp4', 'robot_stimuli\\\\filler.mp4', 'robot_stimuli\\\\filler.mp4']",robot_stimuli\\filler.mp4,17,0,0,0,0,0,7,7,7,,,,,,,,,,,,,,,,,,,,,187.82432530000003,187.82432530000003,None,,201.7884218,202.86404480000002,199.57134699999997,201.7884218,202.86404480000002,202.86404480000002,202.86404480000002,202.86404480000002,c,0.7240683000000274,203.68908280000002,203.68908280000002,203.68908280000002,203.68908280000002,203.68908280000002,203.68908280000002,203.68908280000002,203.68908280000002,None,None,None,187.82432530000003,187.82432530000003,,,,,,,,,,,,,,,,,,,,,,,,,17,001,2024-07-29_13h19.16.194,robot_sternberg_sign,2022.2.5,60.08384099171855,
"['H', 'Z', 'N', 'L', 'Q', 'W']",False,M,6,letter,2,False,True,"['robot_stimuli\\\\filler.mp4', 'robot_stimuli\\\\filler.mp4', 'robot_stimuli\\\\filler.mp4', 'robot_stimuli\\\\filler.mp4', 'robot_stimuli\\\\filler.mp4', 'robot_stimuli\\\\filler.mp4']",robot_stimuli\\filler.mp4,17,0,0,0,0,0,8,8,8,,,,,,,,,,,,,,,,,,,,,203.68908280000002,203.68908280000002,None,,217.8432877,218.9156439,215.62003330000002,217.8432877,218.9156439,218.9156439,218.9156439,218.9156439,n,0.8726441000000307,219.965479,224.77635060000003,219.965479,224.77635060000003,219.965479,224.77635060000003,219.965479,224.77635060000003,34.78395061728394,4.361364499999979,space,203.68908280000002,203.68908280000002,4.750680399999993,,,,,,,,,,,,,,,,,,,,,,,,17,001,2024-07-29_13h19.16.194,robot_sternberg_sign,2022.2.5,60.08384099171855,
"['R_Arm_Z_Back', 'R_Torso_Z_For']",True,R_Arm_Z_Back,2,robot,1,True,False,"['robot_stimuli\\R_Arm_Z_Back.mp4', 'robot_stimuli\\R_Torso_Z_For.mp4']",robot_stimuli\R_Arm_Z_Back.mp4,17,0,0,0,0,0,9,9,9,,,,,,,,,,,,,,,,,,,,,224.77635060000003,224.77635060000003,space,0.9008502999999735,234.15689319999998,235.2467048,,,,235.2467048,235.2467048,235.2467048,c,2.0291960999999503,238.9012953,238.9012953,238.9012953,238.9012953,238.9012953,238.9012953,238.9012953,238.9012953,None,None,None,,,,230.5172716,235.2467048,,,,,,,,,,,,,,,,,,,,,,17,001,2024-07-29_13h19.16.194,robot_sternberg_sign,2022.2.5,60.08384099171855,
"['L_Head_Y_For', 'L_Head_Z_Back']",True,L_Head_Y_For,2,robot,1,False,False,"['robot_stimuli\\L_Head_Y_For.mp4', 'robot_stimuli\\L_Head_Z_Back.mp4']",robot_stimuli\L_Head_Y_For.mp4,17,0,0,0,0,0,10,10,10,,,,,,,,,,,,,,,,,,,,,238.9012953,238.9012953,None,,247.35765999999998,248.4515368,,,,248.4515368,248.4515368,248.4515368,c,2.3528174000000206,252.0954424,252.0954424,252.0954424,252.0954424,252.0954424,252.0954424,252.0954424,252.0954424,None,None,None,238.9012953,238.9012953,,243.7262132,248.4515368,,,,,,,,,,,,,,,,,,,,,,17,001,2024-07-29_13h19.16.194,robot_sternberg_sign,2022.2.5,60.08384099171855,
"['R_Base_Y_Back', 'R_Head_Y_Back']",False,L_Arm_Z_Back,2,robot,1,False,True,"['robot_stimuli\\R_Base_Y_Back.mp4', 'robot_stimuli\\R_Head_Y_Back.mp4']",robot_stimuli\L_Arm_Z_Back.mp4,17,0,0,0,0,0,11,11,11,,,,,,,,,,,,,,,,,,,,,252.0954424,252.0954424,None,,260.56764680000003,261.6496082,,,,261.6496082,261.6496082,261.6496082,n,1.8179612999999506,265.3290022,269.3057586,265.3290022,269.3057586,265.3290022,269.3057586,265.3290022,269.3057586,22.12962962962963,3.6440349000000083,space,252.0954424,252.0954424,3.9310618000000375,256.9477118,261.6496082,,,,,,,,,,,,,,,,,,,,,,17,001,2024-07-29_13h19.16.194,robot_sternberg_sign,2022.2.5,60.08384099171855,
"['L_Head_Z_Back', 'R_Arm_Z_Back', 'L_Base_X_For', 'R_Base_X_For']",True,L_Base_X_For,4,robot,1,True,False,"['robot_stimuli\\L_Head_Z_Back.mp4', 'robot_stimuli\\R_Arm_Z_Back.mp4', 'robot_stimuli\\L_Base_X_For.mp4', 'robot_stimuli\\R_Base_X_For.mp4']",robot_stimuli\L_Base_X_For.mp4,17,0,0,0,0,0,12,12,12,,,,,,,,,,,,,,,,,,,,,269.3057586,269.3057586,space,0.48288269999997624,285.5579627000001,286.6482913,,,,286.6482913,286.6482913,286.6482913,c,2.1240606999999443,290.2318632,290.2318632,290.2318632,290.2318632,290.2318632,290.2318632,290.2318632,290.2318632,None,None,None,,,,282.01597530000004,286.6482913,,,,,,,,,,,,,,,,,,,,,,17,001,2024-07-29_13h19.16.194,robot_sternberg_sign,2022.2.5,60.08384099171855,
"['L_Head_Y_For', 'L_Torso_Y_Back', 'L_Arm_Z_For', 'R_Head_X_For']",False,R_Torso_Z_For,4,robot,1,False,False,"['robot_stimuli\\L_Head_Y_For.mp4', 'robot_stimuli\\L_Torso_Y_Back.mp4', 'robot_stimuli\\L_Arm_Z_For.mp4', 'robot_stimuli\\R_Head_X_For.mp4']",robot_stimuli\R_Torso_Z_For.mp4,17,0,0,0,0,0,13,13,13,,,,,,,,,,,,,,,,,,,,,290.2318632,290.2318632,None,,305.9857316,291.3071252000001,,,,307.0832822,307.0832822,307.0832822,c,2.760394399999967,310.7275910000001,310.7275910000001,310.7275910000001,310.7275910000001,310.7275910000001,310.7275910000001,310.7275910000001,310.7275910000001,None,None,None,290.2318632,290.2318632,,302.35227110000005,307.0832822,,,,,,,,,,,,,,,,,,,,,,17,001,2024-07-29_13h19.16.194,robot_sternberg_sign,2022.2.5,60.08384099171855,
"['L_Base_X_Back', 'R_Arm_Y_For', 'L_Arm_Y_Back', 'R_Base_X_For']",True,L_Arm_Y_Back,4,robot,1,False,True,"['robot_stimuli\\L_Base_X_Back.mp4', 'robot_stimuli\\R_Arm_Y_For.mp4', 'robot_stimuli\\L_Arm_Y_Back.mp4', 'robot_stimuli\\R_Base_X_For.mp4']",robot_stimuli\L_Arm_Y_Back.mp4,17,0,0,0,0,0,14,14,14,,,,,,,,,,,,,,,,,,,,,310.7275910000001,310.7275910000001,None,,326.3429876,327.4377918,,,,327.4377918,327.4377918,327.4377918,c,2.2458271999999795,331.1157783,333.84056670000007,331.1157783,333.84056670000007,331.1157783,333.84056670000007,331.1157783,333.84056670000007,37.71604938271605,2.1370792000000165,space,310.7275910000001,310.7275910000001,2.6488301000000263,322.8023548,327.4377918,,,,,,,,,,,,,,,,,,,,,,17,001,2024-07-29_13h19.16.194,robot_sternberg_sign,2022.2.5,60.08384099171855,
"['R_Torso_X_For', 'L_Arm_Y_For', 'R_Torso_Z_For', 'R_Arm_Y_Back', 'L_Base_X_Back', 'L_Base_Y_Back']",True,R_Torso_X_For,6,robot,1,True,False,"['robot_stimuli\\R_Torso_X_For.mp4', 'robot_stimuli\\L_Arm_Y_For.mp4', 'robot_stimuli\\R_Torso_Z_For.mp4', 'robot_stimuli\\R_Arm_Y_Back.mp4', 'robot_stimuli\\L_Base_X_Back.mp4', 'robot_stimuli\\L_Base_Y_Back.mp4']",robot_stimuli\R_Torso_X_For.mp4,17,0,0,0,0,0,15,15,15,,,,,,,,,,,,,,,,,,,,,333.84056670000007,333.84056670000007,space,0.7472557000000677,357.8343919,358.9088034,,,,358.9088034,358.9088034,358.9088034,c,2.0162234000000296,362.55068800000004,362.55068800000004,362.55068800000004,362.55068800000004,362.55068800000004,362.55068800000004,362.55068800000004,362.55068800000004,None,None,None,,,,354.2785749000001,358.9088034,,,,,,,,,,,,,,,,,,,,,,17,001,2024-07-29_13h19.16.194,robot_sternberg_sign,2022.2.5,60.08384099171855,
"['R_Head_X_Back', 'L_Base_Z_Back', 'R_Base_X_Back', 'L_Head_Y_For', 'R_Torso_X_For', 'R_Head_X_For']",True,R_Head_X_Back,6,robot,1,False,False,"['robot_stimuli\\R_Head_X_Back.mp4', 'robot_stimuli\\L_Base_Z_Back.mp4', 'robot_stimuli\\R_Base_X_Back.mp4', 'robot_stimuli\\L_Head_Y_For.mp4', 'robot_stimuli\\R_Torso_X_For.mp4', 'robot_stimuli\\R_Head_X_For.mp4']",robot_stimuli\R_Head_X_Back.mp4,17,0,0,0,0,0,16,16,16,,,,,,,,,,,,,,,,,,,,,362.55068800000004,362.55068800000004,None,,385.86971600000004,363.62587470000005,,,,386.96259710000004,386.96259710000004,386.96259710000004,c,2.21686710000003,390.59230390000005,390.59230390000005,390.59230390000005,390.59230390000005,390.59230390000005,390.59230390000005,390.59230390000005,390.59230390000005,None,None,None,362.55068800000004,362.55068800000004,,382.2337557000001,386.96259710000004,,,,,,,,,,,,,,,,,,,,,,17,001,2024-07-29_13h19.16.194,robot_sternberg_sign,2022.2.5,60.08384099171855,
"['L_Arm_Z_For', 'L_Head_X_For', 'R_Torso_Y_For', 'R_Arm_X_For', 'R_Torso_X_For', 'L_Base_X_Back']",False,R_Base_X_Back,6,robot,1,False,True,"['robot_stimuli\\L_Arm_Z_For.mp4', 'robot_stimuli\\L_Head_X_For.mp4', 'robot_stimuli\\R_Torso_Y_For.mp4', 'robot_stimuli\\R_Arm_X_For.mp4', 'robot_stimuli\\R_Torso_X_For.mp4', 'robot_stimuli\\L_Base_X_Back.mp4']",robot_stimuli\R_Base_X_Back.mp4,17,0,0,0,0,0,17,17,17,,,,,,,,,,,,,,,,,,,,,390.59230390000005,390.59230390000005,None,,413.83935040000006,414.9261311,,,,414.9261311,414.9261311,414.9261311,c,2.4707512999999324,418.5957364000001,420.9929439,418.5957364000001,420.9929439,418.5957364000001,420.9929439,418.5957364000001,420.9929439,52.376543209876544,2.1709675000000743,space,390.59230390000005,390.59230390000005,2.33627629999998,410.22953000000007,414.9261311,,,,,,,,,,,,,,,,,,,,,,17,001,2024-07-29_13h19.16.194,robot_sternberg_sign,2022.2.5,60.08384099171855,
,,,,,,,,,,,0,0,0,0,,,,,,,,,,,,,,,,,,,,,,,,,,,,,,,,,,,,,,,,,,,,,,,,,,,,,,,420.9929439,420.9929439,420.9929439,c,1.4357081000000278,,,,,,,,,,,,,,,,,17,001,2024-07-29_13h19.16.194,robot_sternberg_sign,2022.2.5,60.08384099171855,
"['L_Head_Z_For', 'L_Base_Y_For', 'R_Base_Y_For', 'R_Arm_Z_For']",True,L_Base_Y_For,4,robot,1,True,False,"['robot_stimuli\\L_Head_Z_For.mp4', 'robot_stimuli\\L_Base_Y_For.mp4', 'robot_stimuli\\R_Base_Y_For.mp4', 'robot_stimuli\\R_Arm_Z_For.mp4']",robot_stimuli\L_Base_Y_For.mp4,17,,,,,,,,,,,,,0,0,0,0,,,,,,,,,,,,,,,,,442.1252418,443.213717,,,,,,,,,446.763903,446.763903,446.763903,446.763903,446.763903,446.763903,446.763903,446.763903,None,None,None,,,,,,,,,,,422.4645776,422.4645776,space,3.8284147999999902,438.4934717,443.213717,443.213717,443.213717,443.213717,c,2.414859199999995,,,,,,17,001,2024-07-29_13h19.16.194,robot_sternberg_sign,2022.2.5,60.08384099171855,
"['R_Arm_Y_For', 'L_Torso_Y_Back', 'L_Arm_Y_Back', 'L_Arm_Y_For']",True,L_Arm_Y_For,4,robot,1,False,False,"['robot_stimuli\\R_Arm_Y_For.mp4', 'robot_stimuli\\L_Torso_Y_Back.mp4', 'robot_stimuli\\L_Arm_Y_Back.mp4', 'robot_stimuli\\L_Arm_Y_For.mp4']",robot_stimuli\L_Arm_Y_For.mp4,17,,,,,,,,,,,,,0,1,1,1,,,,,,,,,,,,,,,,,462.37210530000004,463.4644187,,,,,,,,,467.3576921,467.3576921,467.3576921,467.3576921,467.3576921,467.3576921,467.3576921,467.3576921,None,None,None,,,,,,,,,,,446.763903,446.763903,None,,458.74039430000005,463.4644187,463.4644187,463.4644187,463.4644187,c,3.8669644000000005,446.763903,446.763903,,,,17,001,2024-07-29_13h19.16.194,robot_sternberg_sign,2022.2.5,60.08384099171855,
"['R_Head_X_For', 'R_Head_Y_Back', 'R_Base_Y_Back', 'R_Head_Z_Back']",False,L_Arm_Z_For,4,robot,1,False,False,"['robot_stimuli\\R_Head_X_For.mp4', 'robot_stimuli\\R_Head_Y_Back.mp4', 'robot_stimuli\\R_Base_Y_Back.mp4', 'robot_stimuli\\R_Head_Z_Back.mp4']",robot_stimuli\L_Arm_Z_For.mp4,17,,,,,,,,,,,,,0,2,2,2,,,,,,,,,,,,,,,,,483.2176783,484.29449740000007,,,,,,,,,487.9332039000001,487.9332039000001,487.9332039000001,487.9332039000001,487.9332039000001,487.9332039000001,487.9332039000001,487.9332039000001,None,None,None,,,,,,,,,,,467.3576921,467.3576921,None,,479.59505480000007,484.29449740000007,484.29449740000007,484.29449740000007,484.29449740000007,n,2.7022553999999843,467.3576921,467.3576921,,,,17,001,2024-07-29_13h19.16.194,robot_sternberg_sign,2022.2.5,60.08384099171855,
"['R_Arm_X_For', 'L_Head_Y_Back', 'R_Base_Z_Back', 'L_Arm_Y_For']",True,L_Head_Y_Back,4,robot,1,False,False,"['robot_stimuli\\R_Arm_X_For.mp4', 'robot_stimuli\\L_Head_Y_Back.mp4', 'robot_stimuli\\R_Base_Z_Back.mp4', 'robot_stimuli\\L_Arm_Y_For.mp4']",robot_stimuli\L_Head_Y_Back.mp4,17,,,,,,,,,,,,,0,3,3,3,,,,,,,,,,,,,,,,,503.73433410000007,504.8128203,,,,,,,,,508.4409653,508.4409653,508.4409653,508.4409653,508.4409653,508.4409653,508.4409653,508.4409653,None,None,None,,,,,,,,,,,487.9332039000001,487.9332039000001,None,,500.10014150000006,504.8128203,504.8128203,504.8128203,504.8128203,c,2.607628900000094,487.9332039000001,487.9332039000001,,,,17,001,2024-07-29_13h19.16.194,robot_sternberg_sign,2022.2.5,60.08384099171855,
"['R_Torso_Z_For', 'R_Arm_Z_For', 'L_Arm_X_For', 'L_Base_Z_Back']",True,R_Arm_Z_For,4,robot,1,False,False,"['robot_stimuli\\R_Torso_Z_For.mp4', 'robot_stimuli\\R_Arm_Z_For.mp4', 'robot_stimuli\\L_Arm_X_For.mp4', 'robot_stimuli\\L_Base_Z_Back.mp4']",robot_stimuli\R_Arm_Z_For.mp4,17,,,,,,,,,,,,,0,4,4,4,,,,,,,,,,,,,,,,,524.3344658,525.4116754,,,,,,,,,529.0523635000001,529.0523635000001,529.0523635000001,529.0523635000001,529.0523635000001,529.0523635000001,529.0523635000001,529.0523635000001,None,None,None,,,,,,,,,,,508.4409653,508.4409653,None,,520.7102234,525.4116754,525.4116754,525.4116754,525.4116754,c,3.3531500000000563,508.4409653,508.4409653,,,,17,001,2024-07-29_13h19.16.194,robot_sternberg_sign,2022.2.5,60.08384099171855,
"['R_Arm_X_Back', 'L_Head_Z_Back', 'R_Torso_X_Back', 'R_Torso_X_For']",False,R_Base_Z_Back,4,robot,1,False,False,"['robot_stimuli\\R_Arm_X_Back.mp4', 'robot_stimuli\\L_Head_Z_Back.mp4', 'robot_stimuli\\R_Torso_X_Back.mp4', 'robot_stimuli\\R_Torso_X_For.mp4']",robot_stimuli\R_Base_Z_Back.mp4,17,,,,,,,,,,,,,0,5,5,5,,,,,,,,,,,,,,,,,544.92647,546.0261138000001,,,,,,,,,549.5651868,549.5651868,549.5651868,549.5651868,549.5651868,549.5651868,549.5651868,549.5651868,None,None,None,,,,,,,,,,,529.0523635000001,529.0523635000001,None,,541.2902692,546.0261138000001,546.0261138000001,546.0261138000001,546.0261138000001,n,2.465376399999883,529.0523635000001,529.0523635000001,,,,17,001,2024-07-29_13h19.16.194,robot_sternberg_sign,2022.2.5,60.08384099171855,
"['R_Arm_Z_Back', 'L_Head_X_For', 'L_Base_Y_For', 'L_Arm_Z_Back']",False,R_Head_Y_For,4,robot,1,False,False,"['robot_stimuli\\R_Arm_Z_Back.mp4', 'robot_stimuli\\L_Head_X_For.mp4', 'robot_stimuli\\L_Base_Y_For.mp4', 'robot_stimuli\\L_Arm_Z_Back.mp4']",robot_stimuli\R_Head_Y_For.mp4,17,,,,,,,,,,,,,0,6,6,6,,,,,,,,,,,,,,,,,565.2879999,566.3770508,,,,,,,,,570.0299257,570.0299257,570.0299257,570.0299257,570.0299257,570.0299257,570.0299257,570.0299257,None,None,None,,,,,,,,,,,549.5651868,549.5651868,None,,561.6459921000001,566.3770508,566.3770508,566.3770508,566.3770508,n,1.3304525999998589,549.5651868,549.5651868,,,,17,001,2024-07-29_13h19.16.194,robot_sternberg_sign,2022.2.5,60.08384099171855,
"['L_Torso_Z_For', 'R_Arm_Y_Back', 'L_Torso_Z_Back', 'L_Base_X_Back']",False,R_Arm_X_Back,4,robot,1,False,False,"['robot_stimuli\\L_Torso_Z_For.mp4', 'robot_stimuli\\R_Arm_Y_Back.mp4', 'robot_stimuli\\L_Torso_Z_Back.mp4', 'robot_stimuli\\L_Base_X_Back.mp4']",robot_stimuli\R_Arm_X_Back.mp4,17,,,,,,,,,,,,,0,7,7,7,,,,,,,,,,,,,,,,,585.7581477,586.8456295000001,,,,,,,,,590.484295,590.484295,590.484295,590.484295,590.484295,590.484295,590.484295,590.484295,None,None,None,,,,,,,,,,,570.0299257,570.0299257,None,,582.1473357,586.8456295000001,586.8456295000001,586.8456295000001,586.8456295000001,c,2.605754200000007,570.0299257,570.0299257,,,,17,001,2024-07-29_13h19.16.194,robot_sternberg_sign,2022.2.5,60.08384099171855,
"['L_Base_Z_Back', 'L_Arm_X_Back', 'L_Arm_Z_Back', 'R_Head_Z_Back']",False,L_Base_X_For,4,robot,1,False,False,"['robot_stimuli\\L_Base_Z_Back.mp4', 'robot_stimuli\\L_Arm_X_Back.mp4', 'robot_stimuli\\L_Arm_Z_Back.mp4', 'robot_stimuli\\R_Head_Z_Back.mp4']",robot_stimuli\L_Base_X_For.mp4,17,,,,,,,,,,,,,0,8,8,8,,,,,,,,,,,,,,,,,606.3715988,607.4632911,,,,,,,,,611.0493903,611.0493903,611.0493903,611.0493903,611.0493903,611.0493903,611.0493903,611.0493903,None,None,None,,,,,,,,,,,590.484295,590.484295,None,,602.7399308,607.4632911,607.4632911,607.4632911,607.4632911,n,2.789318399999871,590.484295,590.484295,,,,17,001,2024-07-29_13h19.16.194,robot_sternberg_sign,2022.2.5,60.08384099171855,
"['L_Base_Y_For', 'R_Base_Y_Back', 'R_Head_Z_For', 'R_Arm_X_Back']",True,R_Head_Z_For,4,robot,1,False,True,"['robot_stimuli\\L_Base_Y_For.mp4', 'robot_stimuli\\R_Base_Y_Back.mp4', 'robot_stimuli\\R_Head_Z_For.mp4', 'robot_stimuli\\R_Arm_X_Back.mp4']",robot_stimuli\R_Head_Z_For.mp4,17,,,,,,,,,,,,,0,9,9,9,,,,,,,,,,,,,,,,,626.8345305,627.9113106,,,,,,,,,631.5842601,641.7510567,631.5842601,641.7510567,631.5842601,641.7510567,631.5842601,641.7510567,49.29012345679013,9.906448000000069,space,,,10.099548499999997,,,,,,,,611.0493903,611.0493903,None,,623.2121970000001,627.9113106,627.9113106,627.9113106,627.9113106,c,2.3339547000000778,611.0493903,611.0493903,,,,17,001,2024-07-29_13h19.16.194,robot_sternberg_sign,2022.2.5,60.08384099171855,
"['R_Base_Y_For', 'L_Base_Y_Back']",False,L_Base_Z_For,2,robot,1,True,False,"['robot_stimuli\\R_Base_Y_For.mp4', 'robot_stimuli\\L_Base_Y_Back.mp4']",robot_stimuli\L_Base_Z_For.mp4,17,,,,,,,,,,,,,0,10,10,10,,,,,,,,,,,,,,,,,651.3754996,652.4640596,,,,,,,,,656.1124608,656.1124608,656.1124608,656.1124608,656.1124608,656.1124608,656.1124608,656.1124608,None,None,None,,,,,,,,,,,641.7510567,641.7510567,space,1.2457971999999984,647.8135043,652.4640596,652.4640596,652.4640596,652.4640596,n,2.0847927999998603,,,,,,17,001,2024-07-29_13h19.16.194,robot_sternberg_sign,2022.2.5,60.08384099171855,
"['R_Base_Z_For', 'R_Head_X_Back']",True,R_Head_X_Back,2,robot,1,False,False,"['robot_stimuli\\R_Base_Z_For.mp4', 'robot_stimuli\\R_Head_X_Back.mp4']",robot_stimuli\R_Head_X_Back.mp4,17,,,,,,,,,,,,,0,11,11,11,,,,,,,,,,,,,,,,,664.557806,665.6449624,,,,,,,,,669.2840424,669.2840424,669.2840424,669.2840424,669.2840424,669.2840424,669.2840424,669.2840424,None,None,None,,,,,,,,,,,656.1124608,656.1124608,None,,660.9182628,665.6449624,665.6449624,665.6449624,665.6449624,c,1.8954721000000347,656.1124608,656.1124608,,,,17,001,2024-07-29_13h19.16.194,robot_sternberg_sign,2022.2.5,60.08384099171855,
"['R_Base_Z_Back', 'R_Torso_X_For']",True,R_Torso_X_For,2,robot,1,False,False,"['robot_stimuli\\R_Base_Z_Back.mp4', 'robot_stimuli\\R_Torso_X_For.mp4']",robot_stimuli\R_Torso_X_For.mp4,17,,,,,,,,,,,,,0,12,12,12,,,,,,,,,,,,,,,,,677.6012698000001,678.6810179,,,,,,,,,682.3325528,682.3325528,682.3325528,682.3325528,682.3325528,682.3325528,682.3325528,682.3325528,None,None,None,,,,,,,,,,,669.2840424,669.2840424,None,,673.9812748,678.6810179,678.6810179,678.6810179,678.6810179,c,2.3547882999999104,669.2840424,669.2840424,,,,17,001,2024-07-29_13h19.16.194,robot_sternberg_sign,2022.2.5,60.08384099171855,
"['L_Torso_Z_Back', 'L_Base_Y_Back']",False,R_Base_Z_Back,2,robot,1,False,False,"['robot_stimuli\\L_Torso_Z_Back.mp4', 'robot_stimuli\\L_Base_Y_Back.mp4']",robot_stimuli\R_Base_Z_Back.mp4,17,,,,,,,,,,,,,0,13,13,13,,,,,,,,,,,,,,,,,690.5723101,691.6632857000001,,,,,,,,,695.2116543000001,695.2116543000001,695.2116543000001,695.2116543000001,695.2116543000001,695.2116543000001,695.2116543000001,695.2116543000001,None,None,None,,,,,,,,,,,682.3325528,682.3325528,None,,686.9990863,691.6632857000001,691.6632857000001,691.6632857000001,691.6632857000001,n,1.308292200000011,682.3325528,682.3325528,,,,17,001,2024-07-29_13h19.16.194,robot_sternberg_sign,2022.2.5,60.08384099171855,
"['R_Arm_Y_For', 'L_Base_Z_Back']",True,R_Arm_Y_For,2,robot,1,False,False,"['robot_stimuli\\R_Arm_Y_For.mp4', 'robot_stimuli\\L_Base_Z_Back.mp4']",robot_stimuli\R_Arm_Y_For.mp4,17,,,,,,,,,,,,,0,14,14,14,,,,,,,,,,,,,,,,,703.5403170000001,704.6296867,,,,,,,,,708.1489166,708.1489166,708.1489166,708.1489166,708.1489166,708.1489166,708.1489166,708.1489166,None,None,None,,,,,,,,,,,695.2116543000001,695.2116543000001,None,,699.9004724,704.6296867,704.6296867,704.6296867,704.6296867,c,2.1991040000000623,695.2116543000001,695.2116543000001,,,,17,001,2024-07-29_13h19.16.194,robot_sternberg_sign,2022.2.5,60.08384099171855,
"['L_Head_Z_For', 'L_Arm_Z_Back']",False,L_Arm_Z_For,2,robot,1,False,False,"['robot_stimuli\\L_Head_Z_For.mp4', 'robot_stimuli\\L_Arm_Z_Back.mp4']",robot_stimuli\L_Arm_Z_For.mp4,17,,,,,,,,,,,,,0,15,15,15,,,,,,,,,,,,,,,,,716.592271,717.6771788,,,,,,,,,721.3286310000001,721.3286310000001,721.3286310000001,721.3286310000001,721.3286310000001,721.3286310000001,721.3286310000001,721.3286310000001,None,None,None,,,,,,,,,,,708.1489166,708.1489166,None,,712.9634954,717.6771788,717.6771788,717.6771788,717.6771788,c,2.568092000000121,708.1489166,708.1489166,,,,17,001,2024-07-29_13h19.16.194,robot_sternberg_sign,2022.2.5,60.08384099171855,
"['L_Arm_Z_Back', 'R_Torso_Z_For']",False,L_Arm_Y_Back,2,robot,1,False,False,"['robot_stimuli\\L_Arm_Z_Back.mp4', 'robot_stimuli\\R_Torso_Z_For.mp4']",robot_stimuli\L_Arm_Y_Back.mp4,17,,,,,,,,,,,,,0,16,16,16,,,,,,,,,,,,,,,,,729.7767327,730.8627427,,,,,,,,,734.4909564000001,734.4909564000001,734.4909564000001,734.4909564000001,734.4909564000001,734.4909564000001,734.4909564000001,734.4909564000001,None,None,None,,,,,,,,,,,721.3286310000001,721.3286310000001,None,,726.13386,730.8627427,730.8627427,730.8627427,730.8627427,n,2.35732909999993,721.3286310000001,721.3286310000001,,,,17,001,2024-07-29_13h19.16.194,robot_sternberg_sign,2022.2.5,60.08384099171855,
"['R_Base_X_Back', 'L_Head_Y_For']",True,L_Head_Y_For,2,robot,1,False,False,"['robot_stimuli\\R_Base_X_Back.mp4', 'robot_stimuli\\L_Head_Y_For.mp4']",robot_stimuli\L_Head_Y_For.mp4,17,,,,,,,,,,,,,0,17,17,17,,,,,,,,,,,,,,,,,742.9426943000001,744.0290785000001,,,,,,,,,747.6577781000001,747.6577781000001,747.6577781000001,747.6577781000001,747.6577781000001,747.6577781000001,747.6577781000001,747.6577781000001,None,None,None,,,,,,,,,,,734.4909564000001,734.4909564000001,None,,739.3138949,744.0290785000001,744.0290785000001,744.0290785000001,744.0290785000001,c,1.8552621999999985,734.4909564000001,734.4909564000001,,,,17,001,2024-07-29_13h19.16.194,robot_sternberg_sign,2022.2.5,60.08384099171855,
"['L_Base_Z_Back', 'R_Torso_Z_For']",True,L_Base_Z_Back,2,robot,1,False,False,"['robot_stimuli\\L_Base_Z_Back.mp4', 'robot_stimuli\\R_Torso_Z_For.mp4']",robot_stimuli\L_Base_Z_Back.mp4,17,,,,,,,,,,,,,0,18,18,18,,,,,,,,,,,,,,,,,756.0846352,757.1569191,,,,,,,,,760.7990605,760.7990605,760.7990605,760.7990605,760.7990605,760.7990605,760.7990605,760.7990605,None,None,None,,,,,,,,,,,747.6577781000001,747.6577781000001,None,,752.4644367000001,757.1569191,757.1569191,757.1569191,757.1569191,c,2.1270544000000484,747.6577781000001,747.6577781000001,,,,17,001,2024-07-29_13h19.16.194,robot_sternberg_sign,2022.2.5,60.08384099171855,
"['L_Torso_Y_Back', 'R_Arm_X_For']",False,L_Base_Z_Back,2,robot,1,False,True,"['robot_stimuli\\L_Torso_Y_Back.mp4', 'robot_stimuli\\R_Arm_X_For.mp4']",robot_stimuli\L_Base_Z_Back.mp4,17,,,,,,,,,,,,,0,19,19,19,,,,,,,,,,,,,,,,,769.086764,761.8773619,,,,,,,,,773.8433208,776.8002268,773.8433208,776.8002268,773.8433208,776.8002268,773.8433208,776.8002268,40.80246913580247,2.5364794000000757,space,,,2.90466619999998,,,,,,,,760.7990605,760.7990605,None,,765.4571430000001,770.1746249,770.1746249,770.1746249,770.1746249,n,2.5906635000000335,760.7990605,760.7990605,,,,17,001,2024-07-29_13h19.16.194,robot_sternberg_sign,2022.2.5,60.08384099171855,
"['R_Head_Z_Back', 'R_Arm_X_Back', 'L_Base_Z_Back', 'R_Head_Z_For', 'L_Arm_Z_Back', 'L_Torso_X_For']",False,L_Base_Y_For,6,robot,1,True,False,"['robot_stimuli\\R_Head_Z_Back.mp4', 'robot_stimuli\\R_Arm_X_Back.mp4', 'robot_stimuli\\L_Base_Z_Back.mp4', 'robot_stimuli\\R_Head_Z_For.mp4', 'robot_stimuli\\L_Arm_Z_Back.mp4', 'robot_stimuli\\L_Torso_X_For.mp4']",robot_stimuli\L_Base_Y_For.mp4,17,,,,,,,,,,,,,0,20,20,20,,,,,,,,,,,,,,,,,802.0180235000001,803.0953509,,,,,,,,,806.6245124999999,806.6245124999999,806.6245124999999,806.6245124999999,806.6245124999999,806.6245124999999,806.6245124999999,806.6245124999999,None,None,None,,,,,,,,,,,776.8002268,776.8002268,space,1.9071763000002022,798.3949096,803.0953509,803.0953509,803.0953509,803.0953509,n,2.3647379000000512,,,,,,17,001,2024-07-29_13h19.16.194,robot_sternberg_sign,2022.2.5,60.08384099171855,
"['L_Head_Z_Back', 'L_Base_Z_For', 'R_Torso_Y_For', 'L_Arm_Y_For', 'R_Head_X_For', 'R_Base_Y_Back']",True,R_Head_X_For,6,robot,1,False,False,"['robot_stimuli\\L_Head_Z_Back.mp4', 'robot_stimuli\\L_Base_Z_For.mp4', 'robot_stimuli\\R_Torso_Y_For.mp4', 'robot_stimuli\\L_Arm_Y_For.mp4', 'robot_stimuli\\R_Head_X_For.mp4', 'robot_stimuli\\R_Base_Y_Back.mp4']",robot_stimuli\R_Head_X_For.mp4,17,,,,,,,,,,,,,0,21,21,21,,,,,,,,,,,,,,,,,829.9564015,831.0462973,,,,,,,,,834.6968768,834.6968768,834.6968768,834.6968768,834.6968768,834.6968768,834.6968768,834.6968768,None,None,None,,,,,,,,,,,806.6245124999999,806.6245124999999,None,,826.3121387,831.0462973,831.0462973,831.0462973,831.0462973,c,1.4700390000001846,806.6245124999999,806.6245124999999,,,,17,001,2024-07-29_13h19.16.194,robot_sternberg_sign,2022.2.5,60.08384099171855,
"['L_Arm_X_For', 'L_Arm_Z_Back', 'R_Torso_Z_For', 'R_Arm_X_Back', 'R_Head_X_Back', 'R_Torso_Y_Back']",True,R_Head_X_Back,6,robot,1,False,False,"['robot_stimuli\\L_Arm_X_For.mp4', 'robot_stimuli\\L_Arm_Z_Back.mp4', 'robot_stimuli\\R_Torso_Z_For.mp4', 'robot_stimuli\\R_Arm_X_Back.mp4', 'robot_stimuli\\R_Head_X_Back.mp4', 'robot_stimuli\\R_Torso_Y_Back.mp4']",robot_stimuli\R_Head_X_Back.mp4,17,,,,,,,,,,,,,0,22,22,22,,,,,,,,,,,,,,,,,858.0513636,859.1292993999999,,,,,,,,,862.7672272000001,862.7672272000001,862.7672272000001,862.7672272000001,862.7672272000001,862.7672272000001,862.7672272000001,862.7672272000001,None,None,None,,,,,,,,,,,834.6968768,834.6968768,None,,854.4291524000001,859.1292993999999,859.1292993999999,859.1292993999999,859.1292993999999,c,1.923100699999992,834.6968768,834.6968768,,,,17,001,2024-07-29_13h19.16.194,robot_sternberg_sign,2022.2.5,60.08384099171855,
"['R_Base_Y_Back', 'R_Base_Y_For', 'L_Base_Z_For', 'L_Base_Y_For', 'R_Arm_Y_For', 'L_Head_Y_For']",False,R_Arm_Y_Back,6,robot,1,False,False,"['robot_stimuli\\R_Base_Y_Back.mp4', 'robot_stimuli\\R_Base_Y_For.mp4', 'robot_stimuli\\L_Base_Z_For.mp4', 'robot_stimuli\\L_Base_Y_For.mp4', 'robot_stimuli\\R_Arm_Y_For.mp4', 'robot_stimuli\\L_Head_Y_For.mp4']",robot_stimuli\R_Arm_Y_Back.mp4,17,,,,,,,,,,,,,0,23,23,23,,,,,,,,,,,,,,,,,885.8718252,886.9630586,,,,,,,,,890.6120339,890.6120339,890.6120339,890.6120339,890.6120339,890.6120339,890.6120339,890.6120339,None,None,None,,,,,,,,,,,862.7672272000001,862.7672272000001,None,,882.2259344,886.9630586,886.9630586,886.9630586,886.9630586,n,2.59329940000012,862.7672272000001,862.7672272000001,,,,17,001,2024-07-29_13h19.16.194,robot_sternberg_sign,2022.2.5,60.08384099171855,
"['R_Base_Z_Back', 'L_Head_X_For', 'L_Torso_Y_For', 'L_Base_X_Back', 'L_Head_Y_Back', 'R_Arm_X_For']",False,L_Torso_Y_Back,6,robot,1,False,False,"['robot_stimuli\\R_Base_Z_Back.mp4', 'robot_stimuli\\L_Head_X_For.mp4', 'robot_stimuli\\L_Torso_Y_For.mp4', 'robot_stimuli\\L_Base_X_Back.mp4', 'robot_stimuli\\L_Head_Y_Back.mp4', 'robot_stimuli\\R_Arm_X_For.mp4']",robot_stimuli\L_Torso_Y_Back.mp4,17,,,,,,,,,,,,,0,24,24,24,,,,,,,,,,,,,,,,,913.70701,914.7991726000001,,,,,,,,,918.3137086,918.3137086,918.3137086,918.3137086,918.3137086,918.3137086,918.3137086,918.3137086,None,None,None,,,,,,,,,,,890.6120339,890.6120339,None,,910.0750437,914.7991726000001,914.7991726000001,914.7991726000001,914.7991726000001,c,2.588239399999935,890.6120339,890.6120339,,,,17,001,2024-07-29_13h19.16.194,robot_sternberg_sign,2022.2.5,60.08384099171855,
"['L_Base_Y_Back', 'L_Torso_X_For', 'L_Head_X_Back', 'R_Head_X_For', 'R_Torso_Y_Back', 'R_Base_Y_For']",False,L_Torso_Y_For,6,robot,1,False,False,"['robot_stimuli\\L_Base_Y_Back.mp4', 'robot_stimuli\\L_Torso_X_For.mp4', 'robot_stimuli\\L_Head_X_Back.mp4', 'robot_stimuli\\R_Head_X_For.mp4', 'robot_stimuli\\R_Torso_Y_Back.mp4', 'robot_stimuli\\R_Base_Y_For.mp4']",robot_stimuli\L_Torso_Y_For.mp4,17,,,,,,,,,,,,,0,25,25,25,,,,,,,,,,,,,,,,,941.5422402,942.6281233000001,,,,,,,,,946.2676209,946.2676209,946.2676209,946.2676209,946.2676209,946.2676209,946.2676209,946.2676209,None,None,None,,,,,,,,,,,918.3137086,918.3137086,None,,937.9100526999999,942.6281233000001,942.6281233000001,942.6281233000001,942.6281233000001,c,2.3436568999999565,918.3137086,918.3137086,,,,17,001,2024-07-29_13h19.16.194,robot_sternberg_sign,2022.2.5,60.08384099171855,
"['L_Base_Y_For', 'L_Arm_Z_Back', 'R_Arm_Z_For', 'L_Head_X_For', 'R_Base_Y_Back', 'R_Torso_X_For']",True,L_Base_Y_For,6,robot,1,False,False,"['robot_stimuli\\L_Base_Y_For.mp4', 'robot_stimuli\\L_Arm_Z_Back.mp4', 'robot_stimuli\\R_Arm_Z_For.mp4', 'robot_stimuli\\L_Head_X_For.mp4', 'robot_stimuli\\R_Base_Y_Back.mp4', 'robot_stimuli\\R_Torso_X_For.mp4']",robot_stimuli\L_Base_Y_For.mp4,17,,,,,,,,,,,,,0,26,26,26,,,,,,,,,,,,,,,,,969.4409002000001,970.5316025999999,,,,,,,,,974.0823074000001,974.0823074000001,974.0823074000001,974.0823074000001,974.0823074000001,974.0823074000001,974.0823074000001,974.0823074000001,None,None,None,,,,,,,,,,,946.2676209,946.2676209,None,,965.8060629,970.5316025999999,970.5316025999999,970.5316025999999,970.5316025999999,n,2.9125487999998825,946.2676209,946.2676209,,,,17,001,2024-07-29_13h19.16.194,robot_sternberg_sign,2022.2.5,60.08384099171855,
"['R_Torso_Z_Back', 'L_Torso_Y_Back', 'L_Head_Y_Back', 'L_Torso_Z_For', 'R_Torso_Z_For', 'R_Head_Y_Back']",False,R_Arm_X_Back,6,robot,1,False,False,"['robot_stimuli\\R_Torso_Z_Back.mp4', 'robot_stimuli\\L_Torso_Y_Back.mp4', 'robot_stimuli\\L_Head_Y_Back.mp4', 'robot_stimuli\\L_Torso_Z_For.mp4', 'robot_stimuli\\R_Torso_Z_For.mp4', 'robot_stimuli\\R_Head_Y_Back.mp4']",robot_stimuli\R_Arm_X_Back.mp4,17,,,,,,,,,,,,,0,27,27,27,,,,,,,,,,,,,,,,,997.2681934999999,998.3463415,,,,,,,,,1001.9847444000001,1001.9847444000001,1001.9847444000001,1001.9847444000001,1001.9847444000001,1001.9847444000001,1001.9847444000001,1001.9847444000001,None,None,None,,,,,,,,,,,974.0823074000001,974.0823074000001,None,,993.6454812000001,998.3463415,998.3463415,998.3463415,998.3463415,n,2.833477699999918,974.0823074000001,974.0823074000001,,,,17,001,2024-07-29_13h19.16.194,robot_sternberg_sign,2022.2.5,60.08384099171855,
"['L_Base_Z_Back', 'R_Base_Y_Back', 'R_Torso_X_For', 'R_Torso_X_Back', 'R_Arm_X_Back', 'R_Base_Z_Back']",True,R_Arm_X_Back,6,robot,1,False,False,"['robot_stimuli\\L_Base_Z_Back.mp4', 'robot_stimuli\\R_Base_Y_Back.mp4', 'robot_stimuli\\R_Torso_X_For.mp4', 'robot_stimuli\\R_Torso_X_Back.mp4', 'robot_stimuli\\R_Arm_X_Back.mp4', 'robot_stimuli\\R_Base_Z_Back.mp4']",robot_stimuli\R_Arm_X_Back.mp4,17,,,,,,,,,,,,,0,28,28,28,,,,,,,,,,,,,,,,,1025.2731356,1026.3587472,,,,,,,,,1029.9964716,1029.9964716,1029.9964716,1029.9964716,1029.9964716,1029.9964716,1029.9964716,1029.9964716,None,None,None,,,,,,,,,,,1001.9847444000001,1001.9847444000001,None,,1021.7300343,1026.3587472,1026.3587472,1026.3587472,1026.3587472,c,2.709096100000039,1001.9847444000001,1001.9847444000001,,,,17,001,2024-07-29_13h19.16.194,robot_sternberg_sign,2022.2.5,60.08384099171855,
"['R_Arm_Y_Back', 'L_Torso_Z_Back', 'R_Base_Z_For', 'L_Arm_Y_For', 'R_Base_Z_Back', 'L_Arm_X_Back']",True,L_Arm_X_Back,6,robot,1,False,True,"['robot_stimuli\\R_Arm_Y_Back.mp4', 'robot_stimuli\\L_Torso_Z_Back.mp4', 'robot_stimuli\\R_Base_Z_For.mp4', 'robot_stimuli\\L_Arm_Y_For.mp4', 'robot_stimuli\\R_Base_Z_Back.mp4', 'robot_stimuli\\L_Arm_X_Back.mp4']",robot_stimuli\L_Arm_X_Back.mp4,17,,,,,,,,,,,,,0,29,29,29,,,,,,,,,,,,,,,,,1053.0603532,1054.1451525999998,,,,,,,,,1057.8177681,1061.6346240999999,1057.8177681,1061.6346240999999,1057.8177681,1061.6346240999999,1057.8177681,1061.6346240999999,52.0679012345679,3.2203816999999617,space,,,3.770278500000046,,,,,,,,1029.9964716,1029.9964716,None,,1049.4273802,1054.1451525999998,1054.1451525999998,1054.1451525999998,1054.1451525999998,c,2.81162800000007,1029.9964716,1029.9964716,,,,17,001,2024-07-29_13h19.16.194,robot_sternberg_sign,2022.2.5,60.08384099171855,
"['D', 'Q', 'Z', 'K']",True,Z,4,letter,2,True,False,"['robot_stimuli\\\\filler.mp4', 'robot_stimuli\\\\filler.mp4', 'robot_stimuli\\\\filler.mp4', 'robot_stimuli\\\\filler.mp4']",robot_stimuli\\filler.mp4,17,,,,,,,,,,,,,0,30,30,30,,,,,,,,,,,,,,,,,1072.3450255,1073.4052488,,,,,,,,,1074.4275539999999,1074.4275539999999,1074.4275539999999,1074.4275539999999,1074.4275539999999,1074.4275539999999,1074.4275539999999,1074.4275539999999,None,None,None,,,,,,,,,,,1061.6346240999999,1061.6346240999999,space,0.9525482000000522,,,1073.4052488,1073.4052488,1073.4052488,c,0.8707874000000686,,,1070.328121,1072.3450255,1073.4052488,17,001,2024-07-29_13h19.16.194,robot_sternberg_sign,2022.2.5,60.08384099171855,
"['M', 'B', 'Z', 'H']",True,M,4,letter,2,False,False,"['robot_stimuli\\\\filler.mp4', 'robot_stimuli\\\\filler.mp4', 'robot_stimuli\\\\filler.mp4', 'robot_stimuli\\\\filler.mp4']",robot_stimuli\\filler.mp4,17,,,,,,,,,,,,,0,31,31,31,,,,,,,,,,,,,,,,,1084.5527674999998,1075.4891860999999,,,,,,,,,1086.2516395,1086.2516395,1086.2516395,1086.2516395,1086.2516395,1086.2516395,1086.2516395,1086.2516395,None,None,None,,,,,,,,,,,1074.4275539999999,1074.4275539999999,None,,,,1085.6217222,1085.6217222,1085.6217222,c,0.5574493000000587,1074.4275539999999,1074.4275539999999,1082.3412548,1084.5527674999998,1085.6217222,17,001,2024-07-29_13h19.16.194,robot_sternberg_sign,2022.2.5,60.08384099171855,
"['Z', 'L', 'G', 'D']",True,L,4,letter,2,False,False,"['robot_stimuli\\\\filler.mp4', 'robot_stimuli\\\\filler.mp4', 'robot_stimuli\\\\filler.mp4', 'robot_stimuli\\\\filler.mp4']",robot_stimuli\\filler.mp4,17,,,,,,,,,,,,,0,32,32,32,,,,,,,,,,,,,,,,,1095.9824626999998,1097.0386993,,,,,,,,,1097.8594564,1097.8594564,1097.8594564,1097.8594564,1097.8594564,1097.8594564,1097.8594564,1097.8594564,None,None,None,,,,,,,,,,,1086.2516395,1086.2516395,None,,,,1097.0386993,1097.0386993,1097.0386993,c,0.5892854000000227,1086.2516395,1086.2516395,1093.9649135,1095.9824626999998,1097.0386993,17,001,2024-07-29_13h19.16.194,robot_sternberg_sign,2022.2.5,60.08384099171855,
"['T', 'W', 'J', 'Z']",False,B,4,letter,2,False,False,"['robot_stimuli\\\\filler.mp4', 'robot_stimuli\\\\filler.mp4', 'robot_stimuli\\\\filler.mp4', 'robot_stimuli\\\\filler.mp4']",robot_stimuli\\filler.mp4,17,,,,,,,,,,,,,0,33,33,33,,,,,,,,,,,,,,,,,1107.3992478,1108.4545036,,,,,,,,,1109.2745125,1109.2745125,1109.2745125,1109.2745125,1109.2745125,1109.2745125,1109.2745125,1109.2745125,None,None,None,,,,,,,,,,,1097.8594564,1097.8594564,None,,,,1108.4545036,1108.4545036,1108.4545036,n,0.6615114000002507,1097.8594564,1097.8594564,1105.3856967,1107.3992478,1108.4545036,17,001,2024-07-29_13h19.16.194,robot_sternberg_sign,2022.2.5,60.08384099171855,
"['T', 'F', 'P', 'W']",True,T,4,letter,2,False,False,"['robot_stimuli\\\\filler.mp4', 'robot_stimuli\\\\filler.mp4', 'robot_stimuli\\\\filler.mp4', 'robot_stimuli\\\\filler.mp4']",robot_stimuli\\filler.mp4,17,,,,,,,,,,,,,0,34,34,34,,,,,,,,,,,,,,,,,1119.0240385,1120.0885732,,,,,,,,,1120.7138705999998,1120.7138705999998,1120.7138705999998,1120.7138705999998,1120.7138705999998,1120.7138705999998,1120.7138705999998,1120.7138705999998,None,None,None,,,,,,,,,,,1109.2745125,1109.2745125,None,,,,1120.0885732,1120.0885732,1120.0885732,c,0.4117276999999433,1109.2745125,1109.2745125,1117.0080412,1119.0240385,1120.0885732,17,001,2024-07-29_13h19.16.194,robot_sternberg_sign,2022.2.5,60.08384099171855,
"['D', 'X', 'M', 'J']",False,T,4,letter,2,False,False,"['robot_stimuli\\\\filler.mp4', 'robot_stimuli\\\\filler.mp4', 'robot_stimuli\\\\filler.mp4', 'robot_stimuli\\\\filler.mp4']",robot_stimuli\\filler.mp4,17,,,,,,,,,,,,,0,35,35,35,,,,,,,,,,,,,,,,,1130.6678679,1131.7204672999999,,,,,,,,,1132.7501894,1132.7501894,1132.7501894,1132.7501894,1132.7501894,1132.7501894,1132.7501894,1132.7501894,None,None,None,,,,,,,,,,,1120.7138705999998,1120.7138705999998,None,,,,1131.7204672999999,1131.7204672999999,1131.7204672999999,n,0.8441594000002226,1120.7138705999998,1120.7138705999998,1128.4553941,1130.6678679,1131.7204672999999,17,001,2024-07-29_13h19.16.194,robot_sternberg_sign,2022.2.5,60.08384099171855,
"['B', 'V', 'C', 'Q']",False,W,4,letter,2,False,False,"['robot_stimuli\\\\filler.mp4', 'robot_stimuli\\\\filler.mp4', 'robot_stimuli\\\\filler.mp4', 'robot_stimuli\\\\filler.mp4']",robot_stimuli\\filler.mp4,17,,,,,,,,,,,,,0,36,36,36,,,,,,,,,,,,,,,,,1142.0732263,1143.1421489,,,,,,,,,1143.9608426,1143.9608426,1143.9608426,1143.9608426,1143.9608426,1143.9608426,1143.9608426,1143.9608426,None,None,None,,,,,,,,,,,1132.7501894,1132.7501894,None,,,,1143.1421489,1143.1421489,1143.1421489,n,0.6295209000001307,1132.7501894,1132.7501894,1140.0629574,1142.0732263,1143.1421489,17,001,2024-07-29_13h19.16.194,robot_sternberg_sign,2022.2.5,60.08384099171855,
"['L', 'C', 'T', 'X']",False,D,4,letter,2,False,False,"['robot_stimuli\\\\filler.mp4', 'robot_stimuli\\\\filler.mp4', 'robot_stimuli\\\\filler.mp4', 'robot_stimuli\\\\filler.mp4']",robot_stimuli\\filler.mp4,17,,,,,,,,,,,,,0,37,37,37,,,,,,,,,,,,,,,,,1153.7011132,1154.7549159,,,,,,,,,1155.577438,1155.577438,1155.577438,1155.577438,1155.577438,1155.577438,1155.577438,1155.577438,None,None,None,,,,,,,,,,,1143.9608426,1143.9608426,None,,,,1154.7549159,1154.7549159,1154.7549159,n,0.6161403000000121,1143.9608426,1143.9608426,1151.5081951999998,1153.7011132,1154.7549159,17,001,2024-07-29_13h19.16.194,robot_sternberg_sign,2022.2.5,60.08384099171855,
"['R', 'D', 'S', 'Z']",False,B,4,letter,2,False,False,"['robot_stimuli\\\\filler.mp4', 'robot_stimuli\\\\filler.mp4', 'robot_stimuli\\\\filler.mp4', 'robot_stimuli\\\\filler.mp4']",robot_stimuli\\filler.mp4,17,,,,,,,,,,,,,0,38,38,38,,,,,,,,,,,,,,,,,1165.50869,1166.5721632,,,,,,,,,1167.3956913,1167.3956913,1167.3956913,1167.3956913,1167.3956913,1167.3956913,1167.3956913,1167.3956913,None,None,None,,,,,,,,,,,1155.577438,1155.577438,None,,,,1166.5721632,1166.5721632,1166.5721632,n,0.6162235000000749,1155.577438,1155.577438,1163.2884765,1165.50869,1166.5721632,17,001,2024-07-29_13h19.16.194,robot_sternberg_sign,2022.2.5,60.08384099171855,
"['W', 'D', 'R', 'H']",True,H,4,letter,2,False,True,"['robot_stimuli\\\\filler.mp4', 'robot_stimuli\\\\filler.mp4', 'robot_stimuli\\\\filler.mp4', 'robot_stimuli\\\\filler.mp4']",robot_stimuli\\filler.mp4,17,,,,,,,,,,,,,0,39,39,39,,,,,,,,,,,,,,,,,1176.9314216,1177.9898517,,,,,,,,,1179.2415548,1183.0168826,1179.2415548,1183.0168826,1179.2415548,1183.0168826,1179.2415548,1183.0168826,27.53086419753086,2.647836600000119,space,,,3.7215583999999637,,,,,,,,1167.3956913,1167.3956913,None,,,,1177.9898517,1177.9898517,1177.9898517,c,1.126520700000043,1167.3956913,1167.3956913,1174.919163,1176.9314216,1177.9898517,17,001,2024-07-29_13h19.16.194,robot_sternberg_sign,2022.2.5,60.08384099171855,
"['H', 'M']",True,M,2,letter,2,True,False,"['robot_stimuli\\\\filler.mp4', 'robot_stimuli\\\\filler.mp4']",robot_stimuli\\filler.mp4,17,,,,,,,,,,,,,0,40,40,40,,,,,,,,,,,,,,,,,1189.4672062999998,1190.5222950999998,,,,,,,,,1191.3503501,1191.3503501,1191.3503501,1191.3503501,1191.3503501,1191.3503501,1191.3503501,1191.3503501,None,None,None,,,,,,,,,,,1183.0168826,1183.0168826,space,0.859396299999986,,,1190.5222950999998,1190.5222950999998,1190.5222950999998,c,0.6899721000001193,,,1187.2527903999999,1189.4672062999998,1190.5222950999998,17,001,2024-07-29_13h19.16.194,robot_sternberg_sign,2022.2.5,60.08384099171855,
"['H', 'F']",False,W,2,letter,2,False,False,"['robot_stimuli\\\\filler.mp4', 'robot_stimuli\\\\filler.mp4']",robot_stimuli\\filler.mp4,17,,,,,,,,,,,,,0,41,41,41,,,,,,,,,,,,,,,,,1196.7158909,1197.7719072999998,,,,,,,,,1198.5981391,1198.5981391,1198.5981391,1198.5981391,1198.5981391,1198.5981391,1198.5981391,1198.5981391,None,None,None,,,,,,,,,,,1191.3503501,1191.3503501,None,,,,1197.7719072999998,1197.7719072999998,1197.7719072999998,n,0.6478194000000315,1191.3503501,1191.3503501,1194.6922502999998,1196.7158909,1197.7719072999998,17,001,2024-07-29_13h19.16.194,robot_sternberg_sign,2022.2.5,60.08384099171855,
"['R', 'X']",True,X,2,letter,2,False,False,"['robot_stimuli\\\\filler.mp4', 'robot_stimuli\\\\filler.mp4']",robot_stimuli\\filler.mp4,17,,,,,,,,,,,,,0,42,42,42,,,,,,,,,,,,,,,,,1203.9653864,1205.0216083999999,,,,,,,,,1205.8449727,1205.8449727,1205.8449727,1205.8449727,1205.8449727,1205.8449727,1205.8449727,1205.8449727,None,None,None,,,,,,,,,,,1198.5981391,1198.5981391,None,,,,1205.0216083999999,1205.0216083999999,1205.0216083999999,c,0.6942653000000121,1198.5981391,1198.5981391,1201.9410784,1203.9653864,1205.0216083999999,17,001,2024-07-29_13h19.16.194,robot_sternberg_sign,2022.2.5,60.08384099171855,
"['L', 'M']",False,P,2,letter,2,False,False,"['robot_stimuli\\\\filler.mp4', 'robot_stimuli\\\\filler.mp4']",robot_stimuli\\filler.mp4,17,,,,,,,,,,,,,0,43,43,43,,,,,,,,,,,,,,,,,1211.2204210999998,1206.9048933,,,,,,,,,1213.1112653,1213.1112653,1213.1112653,1213.1112653,1213.1112653,1213.1112653,1213.1112653,1213.1112653,None,None,None,,,,,,,,,,,1205.8449727,1205.8449727,None,,,,1212.2867182,1212.2867182,1212.2867182,n,0.6614570999999216,1205.8449727,1205.8449727,1209.1971565,1211.2204210999998,1212.2867182,17,001,2024-07-29_13h19.16.194,robot_sternberg_sign,2022.2.5,60.08384099171855,
"['M', 'Q']",True,M,2,letter,2,False,False,"['robot_stimuli\\\\filler.mp4', 'robot_stimuli\\\\filler.mp4']",robot_stimuli\\filler.mp4,17,,,,,,,,,,,,,0,44,44,44,,,,,,,,,,,,,,,,,1218.476336,1219.5378852,,,,,,,,,1220.3647009,1220.3647009,1220.3647009,1220.3647009,1220.3647009,1220.3647009,1220.3647009,1220.3647009,None,None,None,,,,,,,,,,,1213.1112653,1213.1112653,None,,,,1219.5378852,1219.5378852,1219.5378852,c,0.777164499999941,1213.1112653,1213.1112653,1216.4612161999999,1218.476336,1219.5378852,17,001,2024-07-29_13h19.16.194,robot_sternberg_sign,2022.2.5,60.08384099171855,
"['N', 'Z']",False,H,2,letter,2,False,False,"['robot_stimuli\\\\filler.mp4', 'robot_stimuli\\\\filler.mp4']",robot_stimuli\\filler.mp4,17,,,,,,,,,,,,,0,45,45,45,,,,,,,,,,,,,,,,,1225.7300874999999,1226.7891677999999,,,,,,,,,1227.4128601,1227.4128601,1227.4128601,1227.4128601,1227.4128601,1227.4128601,1227.4128601,1227.4128601,None,None,None,,,,,,,,,,,1220.3647009,1220.3647009,None,,,,1226.7891677999999,1226.7891677999999,1226.7891677999999,n,0.5664909000001046,1220.3647009,1220.3647009,1223.7145553999999,1225.7300874999999,1226.7891677999999,17,001,2024-07-29_13h19.16.194,robot_sternberg_sign,2022.2.5,60.08384099171855,
"['J', 'Q']",True,Q,2,letter,2,False,False,"['robot_stimuli\\\\filler.mp4', 'robot_stimuli\\\\filler.mp4']",robot_stimuli\\filler.mp4,17,,,,,,,,,,,,,0,46,46,46,,,,,,,,,,,,,,,,,1232.7697684,1228.4716437,,,,,,,,,1234.4657198999998,1234.4657198999998,1234.4657198999998,1234.4657198999998,1234.4657198999998,1234.4657198999998,1234.4657198999998,1234.4657198999998,None,None,None,,,,,,,,,,,1227.4128601,1227.4128601,None,,,,1233.8382493,1233.8382493,1233.8382493,c,0.5646034999998903,1227.4128601,1227.4128601,1230.5553034,1232.7697684,1233.8382493,17,001,2024-07-29_13h19.16.194,robot_sternberg_sign,2022.2.5,60.08384099171855,
"['B', 'R']",False,G,2,letter,2,False,False,"['robot_stimuli\\\\filler.mp4', 'robot_stimuli\\\\filler.mp4']",robot_stimuli\\filler.mp4,17,,,,,,,,,,,,,0,47,47,47,,,,,,,,,,,,,,,,,1239.8301517,1240.8986453,,,,,,,,,1241.5225547,1241.5225547,1241.5225547,1241.5225547,1241.5225547,1241.5225547,1241.5225547,1241.5225547,None,None,None,,,,,,,,,,,1234.4657198999998,1234.4657198999998,None,,,,1240.8986453,1240.8986453,1240.8986453,n,0.5529149999998992,1234.4657198999998,1234.4657198999998,1237.8108682999998,1239.8301517,1240.8986453,17,001,2024-07-29_13h19.16.194,robot_sternberg_sign,2022.2.5,60.08384099171855,
"['Q', 'X']",True,Q,2,letter,2,False,False,"['robot_stimuli\\\\filler.mp4', 'robot_stimuli\\\\filler.mp4']",robot_stimuli\\filler.mp4,17,,,,,,,,,,,,,0,48,48,48,,,,,,,,,,,,,,,,,1247.0920809,1248.1576536999999,,,,,,,,,1248.7733984,1248.7733984,1248.7733984,1248.7733984,1248.7733984,1248.7733984,1248.7733984,1248.7733984,None,None,None,,,,,,,,,,,1241.5225547,1241.5225547,None,,,,1248.1576536999999,1248.1576536999999,1248.1576536999999,c,0.5583170999999822,1241.5225547,1241.5225547,1244.8707075999998,1247.0920809,1248.1576536999999,17,001,2024-07-29_13h19.16.194,robot_sternberg_sign,2022.2.5,60.08384099171855,
"['J', 'M']",False,P,2,letter,2,False,True,"['robot_stimuli\\\\filler.mp4', 'robot_stimuli\\\\filler.mp4']",robot_stimuli\\filler.mp4,17,,,,,,,,,,,,,0,49,49,49,,,,,,,,,,,,,,,,,1254.1462316,1255.2048261,,,,,,,,,1255.8587814,1258.8612022999998,1255.8587814,1258.8612022999998,1255.8587814,1258.8612022999998,1255.8587814,1258.8612022999998,24.135802469135797,2.5147009999998318,space,,,2.9605848000000208,,,,,,,,1248.7733984,1248.7733984,None,,,,1255.2048261,1255.2048261,1255.2048261,n,0.5752410999999995,1248.7733984,1248.7733984,1252.1291681999999,1254.1462316,1255.2048261,17,001,2024-07-29_13h19.16.194,robot_sternberg_sign,2022.2.5,60.08384099171855,
"['F', 'X', 'J', 'K', 'B', 'V']",False,C,6,letter,2,True,False,"['robot_stimuli\\\\filler.mp4', 'robot_stimuli\\\\filler.mp4', 'robot_stimuli\\\\filler.mp4', 'robot_stimuli\\\\filler.mp4', 'robot_stimuli\\\\filler.mp4', 'robot_stimuli\\\\filler.mp4']",robot_stimuli\\filler.mp4,17,,,,,,,,,,,,,0,50,50,50,,,,,,,,,,,,,,,,,1283.7647858999999,1284.8212938,,,,,,,,,1286.2516140999999,1286.2516140999999,1286.2516140999999,1286.2516140999999,1286.2516140999999,1286.2516140999999,1286.2516140999999,1286.2516140999999,None,None,None,,,,,,,,,,,1258.8612022999998,1258.8612022999998,space,10.774808300000046,,,1284.8212938,1284.8212938,1284.8212938,n,1.2298992000000055,,,1281.7476500999999,1283.7647858999999,1284.8212938,17,001,2024-07-29_13h19.16.194,robot_sternberg_sign,2022.2.5,60.08384099171855,
"['W', 'F', 'M', 'K', 'H', 'L']",True,K,6,letter,2,False,False,"['robot_stimuli\\\\filler.mp4', 'robot_stimuli\\\\filler.mp4', 'robot_stimuli\\\\filler.mp4', 'robot_stimuli\\\\filler.mp4', 'robot_stimuli\\\\filler.mp4', 'robot_stimuli\\\\filler.mp4']",robot_stimuli\\filler.mp4,17,,,,,,,,,,,,,0,51,51,51,,,,,,,,,,,,,,,,,1300.5466863,1301.6067569,,,,,,,,,1302.6328274999998,1302.6328274999998,1302.6328274999998,1302.6328274999998,1302.6328274999998,1302.6328274999998,1302.6328274999998,1302.6328274999998,None,None,None,,,,,,,,,,,1286.2516140999999,1286.2516140999999,None,,,,1301.6067569,1301.6067569,1301.6067569,c,0.7959944000000689,1286.2516140999999,1286.2516140999999,1298.5295856,1300.5466863,1301.6067569,17,001,2024-07-29_13h19.16.194,robot_sternberg_sign,2022.2.5,60.08384099171855,
"['G', 'C', 'L', 'S', 'N', 'J']",False,B,6,letter,2,False,False,"['robot_stimuli\\\\filler.mp4', 'robot_stimuli\\\\filler.mp4', 'robot_stimuli\\\\filler.mp4', 'robot_stimuli\\\\filler.mp4', 'robot_stimuli\\\\filler.mp4', 'robot_stimuli\\\\filler.mp4']",robot_stimuli\\filler.mp4,17,,,,,,,,,,,,,0,52,52,52,,,,,,,,,,,,,,,,,1317.1270421,1318.1895891,,,,,,,,,1318.8176589,1318.8176589,1318.8176589,1318.8176589,1318.8176589,1318.8176589,1318.8176589,1318.8176589,None,None,None,,,,,,,,,,,1302.6328274999998,1302.6328274999998,None,,,,1318.1895891,1318.1895891,1318.1895891,n,0.5332904000000838,1302.6328274999998,1302.6328274999998,1314.9108614,1317.1270421,1318.1895891,17,001,2024-07-29_13h19.16.194,robot_sternberg_sign,2022.2.5,60.08384099171855,
"['S', 'T', 'N', 'K', 'Z', 'D']",False,G,6,letter,2,False,False,"['robot_stimuli\\\\filler.mp4', 'robot_stimuli\\\\filler.mp4', 'robot_stimuli\\\\filler.mp4', 'robot_stimuli\\\\filler.mp4', 'robot_stimuli\\\\filler.mp4', 'robot_stimuli\\\\filler.mp4']",robot_stimuli\\filler.mp4,17,,,,,,,,,,,,,0,53,53,53,,,,,,,,,,,,,,,,,1333.3149434,1334.3716436999998,,,,,,,,,1335.3947074,1335.3947074,1335.3947074,1335.3947074,1335.3947074,1335.3947074,1335.3947074,1335.3947074,None,None,None,,,,,,,,,,,1318.8176589,1318.8176589,None,,,,1334.3716436999998,1334.3716436999998,1334.3716436999998,n,0.8407928000000595,1318.8176589,1318.8176589,1331.2992107999999,1333.3149434,1334.3716436999998,17,001,2024-07-29_13h19.16.194,robot_sternberg_sign,2022.2.5,60.08384099171855,
"['Z', 'M', 'Q', 'D', 'R', 'X']",True,Z,6,letter,2,False,False,"['robot_stimuli\\\\filler.mp4', 'robot_stimuli\\\\filler.mp4', 'robot_stimuli\\\\filler.mp4', 'robot_stimuli\\\\filler.mp4', 'robot_stimuli\\\\filler.mp4', 'robot_stimuli\\\\filler.mp4']",robot_stimuli\\filler.mp4,17,,,,,,,,,,,,,0,54,54,54,,,,,,,,,,,,,,,,,1349.5208159,1336.4544933,,,,,,,,,1351.4154213,1351.4154213,1351.4154213,1351.4154213,1351.4154213,1351.4154213,1351.4154213,1351.4154213,None,None,None,,,,,,,,,,,1335.3947074,1335.3947074,None,,,,1350.5884414999998,1350.5884414999998,1350.5884414999998,c,0.6144668999999396,1335.3947074,1335.3947074,1347.3119783999998,1349.5208159,1350.5884414999998,17,001,2024-07-29_13h19.16.194,robot_sternberg_sign,2022.2.5,60.08384099171855,
"['R', 'B', 'D', 'P', 'M', 'C']",True,M,6,letter,2,False,False,"['robot_stimuli\\\\filler.mp4', 'robot_stimuli\\\\filler.mp4', 'robot_stimuli\\\\filler.mp4', 'robot_stimuli\\\\filler.mp4', 'robot_stimuli\\\\filler.mp4', 'robot_stimuli\\\\filler.mp4']",robot_stimuli\\filler.mp4,17,,,,,,,,,,,,,0,55,55,55,,,,,,,,,,,,,,,,,1365.3320347,1366.3935926,,,,,,,,,1367.2139321,1367.2139321,1367.2139321,1367.2139321,1367.2139321,1367.2139321,1367.2139321,1367.2139321,None,None,None,,,,,,,,,,,1351.4154213,1351.4154213,None,,,,1366.3935926,1366.3935926,1366.3935926,c,0.6338683000000458,1351.4154213,1351.4154213,1363.3138275,1365.3320347,1366.3935926,17,001,2024-07-29_13h19.16.194,robot_sternberg_sign,2022.2.5,60.08384099171855,
"['F', 'T', 'R', 'V', 'B', 'M']",False,G,6,letter,2,False,False,"['robot_stimuli\\\\filler.mp4', 'robot_stimuli\\\\filler.mp4', 'robot_stimuli\\\\filler.mp4', 'robot_stimuli\\\\filler.mp4', 'robot_stimuli\\\\filler.mp4', 'robot_stimuli\\\\filler.mp4']",robot_stimuli\\filler.mp4,17,,,,,,,,,,,,,0,56,56,56,,,,,,,,,,,,,,,,,1381.3539756999999,1368.2725398,,,,,,,,,1383.2447720999999,1383.2447720999999,1383.2447720999999,1383.2447720999999,1383.2447720999999,1383.2447720999999,1383.2447720999999,1383.2447720999999,None,None,None,,,,,,,,,,,1367.2139321,1367.2139321,None,,,,1382.4235259999998,1382.4235259999998,1382.4235259999998,n,0.6204354000000478,1367.2139321,1367.2139321,1379.1408364,1381.3539756999999,1382.4235259999998,17,001,2024-07-29_13h19.16.194,robot_sternberg_sign,2022.2.5,60.08384099171855,
"['X', 'B', 'N', 'R', 'W', 'M']",True,W,6,letter,2,False,False,"['robot_stimuli\\\\filler.mp4', 'robot_stimuli\\\\filler.mp4', 'robot_stimuli\\\\filler.mp4', 'robot_stimuli\\\\filler.mp4', 'robot_stimuli\\\\filler.mp4', 'robot_stimuli\\\\filler.mp4']",robot_stimuli\\filler.mp4,17,,,,,,,,,,,,,0,57,57,57,,,,,,,,,,,,,,,,,1397.7713847999999,1398.8415416,,,,,,,,,1399.6563644999999,1399.6563644999999,1399.6563644999999,1399.6563644999999,1399.6563644999999,1399.6563644999999,1399.6563644999999,1399.6563644999999,None,None,None,,,,,,,,,,,1383.2447720999999,1383.2447720999999,None,,,,1398.8415416,1398.8415416,1398.8415416,c,0.7301184000001797,1383.2447720999999,1383.2447720999999,1395.5553235,1397.7713847999999,1398.8415416,17,001,2024-07-29_13h19.16.194,robot_sternberg_sign,2022.2.5,60.08384099171855,
"['N', 'R', 'T', 'W', 'L', 'V']",False,B,6,letter,2,False,False,"['robot_stimuli\\\\filler.mp4', 'robot_stimuli\\\\filler.mp4', 'robot_stimuli\\\\filler.mp4', 'robot_stimuli\\\\filler.mp4', 'robot_stimuli\\\\filler.mp4', 'robot_stimuli\\\\filler.mp4']",robot_stimuli\\filler.mp4,17,,,,,,,,,,,,,0,58,58,58,,,,,,,,,,,,,,,,,1413.5710771,1400.7228074,,,,,,,,,1415.6615554,1415.6615554,1415.6615554,1415.6615554,1415.6615554,1415.6615554,1415.6615554,1415.6615554,None,None,None,,,,,,,,,,,1399.6563644999999,1399.6563644999999,None,,,,1414.6379175999998,1414.6379175999998,1414.6379175999998,n,0.8545069999999271,1399.6563644999999,1399.6563644999999,1411.5477205999998,1413.5710771,1414.6379175999998,17,001,2024-07-29_13h19.16.194,robot_sternberg_sign,2022.2.5,60.08384099171855,
"['Q', 'L', 'N', 'F', 'P', 'X']",True,L,6,letter,2,False,True,"['robot_stimuli\\\\filler.mp4', 'robot_stimuli\\\\filler.mp4', 'robot_stimuli\\\\filler.mp4', 'robot_stimuli\\\\filler.mp4', 'robot_stimuli\\\\filler.mp4', 'robot_stimuli\\\\filler.mp4']",robot_stimuli\\filler.mp4,17,,,,,,,,,,,,,0,59,59,59,,,,,,,,,,,,,,,,,1429.7674187999999,1430.8221131999999,,,,,,,,,1431.675926,1434.2642268,1431.675926,1434.2642268,1431.675926,1434.2642268,1431.675926,1434.2642268,47.28395061728395,2.233939599999985,space,,,2.527339699999999,,,,,,,,1415.6615554,1415.6615554,None,,,,1430.8221131999999,1430.8221131999999,1430.8221131999999,c,0.6618215000000021,1415.6615554,1415.6615554,1427.5568572999998,1429.7674187999999,1430.8221131999999,17,001,2024-07-29_13h19.16.194,robot_sternberg_sign,2022.2.5,60.08384099171855,
"['R_Base_Z_Back', 'L_Head_Z_Back', 'R_Torso_Z_For', 'L_Base_Z_Back']",False,L_Torso_X_For,4,robot,3,True,False,"['robot_stimuli\\R_Base_Z_Back.mp4', 'robot_stimuli\\L_Head_Z_Back.mp4', 'robot_stimuli\\R_Torso_Z_For.mp4', 'robot_stimuli\\L_Base_Z_Back.mp4']",robot_stimuli\L_Torso_X_For.mp4,17,,,,,,,,,,,,,0,60,60,60,,,,,,,,,,,,,,,,,1453.3063746999999,1454.3970508,,,,,,,,,1458.0463128,1458.0463128,1458.0463128,1458.0463128,1458.0463128,1458.0463128,1458.0463128,1458.0463128,None,None,None,,,,,,,,,,,1434.2642268,1434.2642268,space,3.2353007000000673,1449.6744689999998,1454.3970508,1454.3970508,1454.3970508,1454.3970508,n,2.230311299999954,,,,,,17,001,2024-07-29_13h19.16.194,robot_sternberg_sign,2022.2.5,60.08384099171855,
"['L_Torso_Z_For', 'L_Head_X_For', 'R_Head_X_Back', 'L_Base_X_Back']",False,L_Head_X_Back,4,robot,3,False,False,"['robot_stimuli\\L_Torso_Z_For.mp4', 'robot_stimuli\\L_Head_X_For.mp4', 'robot_stimuli\\R_Head_X_Back.mp4', 'robot_stimuli\\L_Base_X_Back.mp4']",robot_stimuli\L_Head_X_Back.mp4,17,,,,,,,,,,,,,0,61,61,61,,,,,,,,,,,,,,,,,1473.8533040999998,1459.1225255,,,,,,,,,1478.5952465,1478.5952465,1478.5952465,1478.5952465,1478.5952465,1478.5952465,1478.5952465,1478.5952465,None,None,None,,,,,,,,,,,1458.0463128,1458.0463128,None,,1470.2560554,1474.9468009,1474.9468009,1474.9468009,1474.9468009,c,2.4253055999999162,1458.0463128,1458.0463128,,,,17,001,2024-07-29_13h19.16.194,robot_sternberg_sign,2022.2.5,60.08384099171855,
"['L_Head_Y_For', 'R_Base_X_For', 'R_Base_Z_Back', 'R_Base_Y_For']",True,L_Head_Y_For,4,robot,3,False,False,"['robot_stimuli\\L_Head_Y_For.mp4', 'robot_stimuli\\R_Base_X_For.mp4', 'robot_stimuli\\R_Base_Z_Back.mp4', 'robot_stimuli\\R_Base_Y_For.mp4']",robot_stimuli\L_Head_Y_For.mp4,17,,,,,,,,,,,,,0,62,62,62,,,,,,,,,,,,,,,,,1494.2871860999999,1479.6773094999999,,,,,,,,,1499.0175548999998,1499.0175548999998,1499.0175548999998,1499.0175548999998,1499.0175548999998,1499.0175548999998,1499.0175548999998,1499.0175548999998,None,None,None,,,,,,,,,,,1478.5952465,1478.5952465,None,,1490.6535443999999,1495.375084,1495.375084,1495.375084,1495.375084,c,1.9891200000000993,1478.5952465,1478.5952465,,,,17,001,2024-07-29_13h19.16.194,robot_sternberg_sign,2022.2.5,60.08384099171855,
"['L_Torso_X_Back', 'R_Torso_X_For', 'L_Base_Z_For', 'L_Arm_Y_For']",False,L_Torso_Y_Back,4,robot,3,False,False,"['robot_stimuli\\L_Torso_X_Back.mp4', 'robot_stimuli\\R_Torso_X_For.mp4', 'robot_stimuli\\L_Base_Z_For.mp4', 'robot_stimuli\\L_Arm_Y_For.mp4']",robot_stimuli\L_Torso_Y_Back.mp4,17,,,,,,,,,,,,,0,63,63,63,,,,,,,,,,,,,,,,,1514.9017689999998,1515.9850275,,,,,,,,,1519.5015824,1519.5015824,1519.5015824,1519.5015824,1519.5015824,1519.5015824,1519.5015824,1519.5015824,None,None,None,,,,,,,,,,,1499.0175548999998,1499.0175548999998,None,,1511.2691733,1515.9850275,1515.9850275,1515.9850275,1515.9850275,n,2.635262700000027,1499.0175548999998,1499.0175548999998,,,,17,001,2024-07-29_13h19.16.194,robot_sternberg_sign,2022.2.5,60.08384099171855,
"['L_Arm_Y_For', 'L_Torso_Y_For', 'L_Head_Y_Back', 'R_Head_Z_Back']",True,R_Head_Z_Back,4,robot,3,False,False,"['robot_stimuli\\L_Arm_Y_For.mp4', 'robot_stimuli\\L_Torso_Y_For.mp4', 'robot_stimuli\\L_Head_Y_Back.mp4', 'robot_stimuli\\R_Head_Z_Back.mp4']",robot_stimuli\R_Head_Z_Back.mp4,17,,,,,,,,,,,,,0,64,64,64,,,,,,,,,,,,,,,,,1535.3776953,1536.4762913999998,,,,,,,,,1540.1152043999998,1540.1152043999998,1540.1152043999998,1540.1152043999998,1540.1152043999998,1540.1152043999998,1540.1152043999998,1540.1152043999998,None,None,None,,,,,,,,,,,1519.5015824,1519.5015824,None,,1531.7415435999999,1536.4762913999998,1536.4762913999998,1536.4762913999998,1536.4762913999998,c,2.1440047000000106,1519.5015824,1519.5015824,,,,17,001,2024-07-29_13h19.16.194,robot_sternberg_sign,2022.2.5,60.08384099171855,
"['L_Arm_X_Back', 'L_Torso_X_Back', 'R_Base_X_For', 'R_Base_Y_For']",False,R_Torso_X_Back,4,robot,3,False,False,"['robot_stimuli\\L_Arm_X_Back.mp4', 'robot_stimuli\\L_Torso_X_Back.mp4', 'robot_stimuli\\R_Base_X_For.mp4', 'robot_stimuli\\R_Base_Y_For.mp4']",robot_stimuli\R_Torso_X_Back.mp4,17,,,,,,,,,,,,,0,65,65,65,,,,,,,,,,,,,,,,,1555.8849670999998,1556.9642082999999,,,,,,,,,1560.6015665999998,1560.6015665999998,1560.6015665999998,1560.6015665999998,1560.6015665999998,1560.6015665999998,1560.6015665999998,1560.6015665999998,None,None,None,,,,,,,,,,,1540.1152043999998,1540.1152043999998,None,,1552.252213,1556.9642082999999,1556.9642082999999,1556.9642082999999,1556.9642082999999,n,3.086961699999989,1540.1152043999998,1540.1152043999998,,,,17,001,2024-07-29_13h19.16.194,robot_sternberg_sign,2022.2.5,60.08384099171855,
"['L_Arm_Y_For', 'L_Base_X_For', 'R_Arm_Z_For', 'L_Head_Z_Back']",False,R_Base_Y_Back,4,robot,3,False,False,"['robot_stimuli\\L_Arm_Y_For.mp4', 'robot_stimuli\\L_Base_X_For.mp4', 'robot_stimuli\\R_Arm_Z_For.mp4', 'robot_stimuli\\L_Head_Z_Back.mp4']",robot_stimuli\R_Base_Y_Back.mp4,17,,,,,,,,,,,,,0,66,66,66,,,,,,,,,,,,,,,,,1576.4016855999998,1577.4786007999999,,,,,,,,,1581.1179273999999,1581.1179273999999,1581.1179273999999,1581.1179273999999,1581.1179273999999,1581.1179273999999,1581.1179273999999,1581.1179273999999,None,None,None,,,,,,,,,,,1560.6015665999998,1560.6015665999998,None,,1572.7787377,1577.4786007999999,1577.4786007999999,1577.4786007999999,1577.4786007999999,n,2.269138100000106,1560.6015665999998,1560.6015665999998,,,,17,001,2024-07-29_13h19.16.194,robot_sternberg_sign,2022.2.5,60.08384099171855,
"['L_Base_Z_Back', 'R_Head_Y_Back', 'L_Arm_X_Back', 'R_Head_Z_For']",True,L_Base_Z_Back,4,robot,3,False,False,"['robot_stimuli\\L_Base_Z_Back.mp4', 'robot_stimuli\\R_Head_Y_Back.mp4', 'robot_stimuli\\L_Arm_X_Back.mp4', 'robot_stimuli\\R_Head_Z_For.mp4']",robot_stimuli\L_Base_Z_Back.mp4,17,,,,,,,,,,,,,0,67,67,67,,,,,,,,,,,,,,,,,1597.004994,1582.1930439,,,,,,,,,1601.7264504999998,1601.7264504999998,1601.7264504999998,1601.7264504999998,1601.7264504999998,1601.7264504999998,1601.7264504999998,1601.7264504999998,None,None,None,,,,,,,,,,,1581.1179273999999,1581.1179273999999,None,,1593.3640065999998,1598.0973222,1598.0973222,1598.0973222,1598.0973222,c,3.105462200000062,1581.1179273999999,1581.1179273999999,,,,17,001,2024-07-29_13h19.16.194,robot_sternberg_sign,2022.2.5,60.08384099171855,
"['R_Torso_Y_Back', 'R_Torso_Z_For', 'L_Torso_X_For', 'R_Base_X_Back']",True,R_Torso_Z_For,4,robot,3,False,False,"['robot_stimuli\\R_Torso_Y_Back.mp4', 'robot_stimuli\\R_Torso_Z_For.mp4', 'robot_stimuli\\L_Torso_X_For.mp4', 'robot_stimuli\\R_Base_X_Back.mp4']",robot_stimuli\R_Torso_Z_For.mp4,17,,,,,,,,,,,,,0,68,68,68,,,,,,,,,,,,,,,,,1617.6229695,1618.7112167,,,,,,,,,1622.3494884,1622.3494884,1622.3494884,1622.3494884,1622.3494884,1622.3494884,1622.3494884,1622.3494884,None,None,None,,,,,,,,,,,1601.7264504999998,1601.7264504999998,None,,1613.9928909,1618.7112167,1618.7112167,1618.7112167,1618.7112167,n,2.923542600000161,1601.7264504999998,1601.7264504999998,,,,17,001,2024-07-29_13h19.16.194,robot_sternberg_sign,2022.2.5,60.08384099171855,
"['L_Head_Y_For', 'L_Base_X_For', 'R_Base_Y_For', 'R_Arm_Z_For']",True,L_Base_X_For,4,robot,3,False,True,"['robot_stimuli\\L_Head_Y_For.mp4', 'robot_stimuli\\L_Base_X_For.mp4', 'robot_stimuli\\R_Base_Y_For.mp4', 'robot_stimuli\\R_Arm_Z_For.mp4']",robot_stimuli\L_Base_X_For.mp4,17,,,,,,,,,,,,,0,69,69,69,,,,,,,,,,,,,,,,,1638.1752592999999,1639.2633512,,,,,,,,,1643.1349487,1647.5338095999998,1643.1349487,1647.5338095999998,1643.1349487,1647.5338095999998,1643.1349487,1647.5338095999998,48.20987654320988,2.7569694000001164,space,,,4.340616099999949,,,,,,,,1622.3494884,1622.3494884,None,,1634.5440864999998,1639.2633512,1639.2633512,1639.2633512,1639.2633512,c,3.7954000000001145,1622.3494884,1622.3494884,,,,17,001,2024-07-29_13h19.16.194,robot_sternberg_sign,2022.2.5,60.08384099171855,
"['R_Torso_X_Back', 'L_Arm_Y_For']",False,R_Torso_Z_For,2,robot,3,True,False,"['robot_stimuli\\R_Torso_X_Back.mp4', 'robot_stimuli\\L_Arm_Y_For.mp4']",robot_stimuli\R_Torso_Z_For.mp4,17,,,,,,,,,,,,,0,70,70,70,,,,,,,,,,,,,,,,,1662.7017483999998,1663.7810651,,,,,,,,,1667.4290260999999,1667.4290260999999,1667.4290260999999,1667.4290260999999,1667.4290260999999,1667.4290260999999,1667.4290260999999,1667.4290260999999,None,None,None,,,,,,,,,,,1647.5338095999998,1647.5338095999998,space,6.726108299999993,1659.0812400999998,1663.7810651,1663.7810651,1663.7810651,1663.7810651,n,1.950685499999878,,,,,,17,001,2024-07-29_13h19.16.194,robot_sternberg_sign,2022.2.5,60.08384099171855,
"['L_Base_Z_Back', 'L_Head_Z_For']",True,L_Base_Z_Back,2,robot,3,False,False,"['robot_stimuli\\L_Base_Z_Back.mp4', 'robot_stimuli\\L_Head_Z_For.mp4']",robot_stimuli\L_Base_Z_Back.mp4,17,,,,,,,,,,,,,0,71,71,71,,,,,,,,,,,,,,,,,1675.8732945,1676.9628615,,,,,,,,,1680.6015762999998,1680.6015762999998,1680.6015762999998,1680.6015762999998,1680.6015762999998,1680.6015762999998,1680.6015762999998,1680.6015762999998,None,None,None,,,,,,,,,,,1667.4290260999999,1667.4290260999999,None,,1672.2314563999998,1676.9628615,1676.9628615,1676.9628615,1676.9628615,c,2.12096440000019,1667.4290260999999,1667.4290260999999,,,,17,001,2024-07-29_13h19.16.194,robot_sternberg_sign,2022.2.5,60.08384099171855,
"['R_Arm_Y_Back', 'R_Arm_X_Back']",True,R_Arm_Y_Back,2,robot,3,False,False,"['robot_stimuli\\R_Arm_Y_Back.mp4', 'robot_stimuli\\R_Arm_X_Back.mp4']",robot_stimuli\R_Arm_Y_Back.mp4,17,,,,,,,,,,,,,0,72,72,72,,,,,,,,,,,,,,,,,1689.0261887,1690.1127838,,,,,,,,,1693.7422338,1693.7422338,1693.7422338,1693.7422338,1693.7422338,1693.7422338,1693.7422338,1693.7422338,None,None,None,,,,,,,,,,,1680.6015762999998,1680.6015762999998,None,,1685.3960783,1690.1127838,1690.1127838,1690.1127838,1690.1127838,c,3.1150779999999543,1680.6015762999998,1680.6015762999998,,,,17,001,2024-07-29_13h19.16.194,robot_sternberg_sign,2022.2.5,60.08384099171855,
"['R_Arm_Y_For', 'R_Base_Z_For']",True,R_Arm_Y_For,2,robot,3,False,False,"['robot_stimuli\\R_Arm_Y_For.mp4', 'robot_stimuli\\R_Base_Z_For.mp4']",robot_stimuli\R_Arm_Y_For.mp4,17,,,,,,,,,,,,,0,73,73,73,,,,,,,,,,,,,,,,,1702.0550544999999,1703.1467616999998,,,,,,,,,1706.6511564,1706.6511564,1706.6511564,1706.6511564,1706.6511564,1706.6511564,1706.6511564,1706.6511564,None,None,None,,,,,,,,,,,1693.7422338,1693.7422338,None,,1698.4155288,1703.1467616999998,1703.1467616999998,1703.1467616999998,1703.1467616999998,c,1.9361293000000899,1693.7422338,1693.7422338,,,,17,001,2024-07-29_13h19.16.194,robot_sternberg_sign,2022.2.5,60.08384099171855,
"['L_Base_Y_Back', 'R_Head_Y_For']",True,R_Head_Y_For,2,robot,3,False,False,"['robot_stimuli\\L_Base_Y_Back.mp4', 'robot_stimuli\\R_Head_Y_For.mp4']",robot_stimuli\R_Head_Y_For.mp4,17,,,,,,,,,,,,,0,74,74,74,,,,,,,,,,,,,,,,,1715.0220858,1716.1109657999998,,,,,,,,,1719.7618765,1719.7618765,1719.7618765,1719.7618765,1719.7618765,1719.7618765,1719.7618765,1719.7618765,None,None,None,,,,,,,,,,,1706.6511564,1706.6511564,None,,1711.3825481,1716.1109657999998,1716.1109657999998,1716.1109657999998,1716.1109657999998,c,2.0926535000000115,1706.6511564,1706.6511564,,,,17,001,2024-07-29_13h19.16.194,robot_sternberg_sign,2022.2.5,60.08384099171855,
"['L_Torso_Z_Back', 'L_Base_Z_For']",False,R_Head_X_Back,2,robot,3,False,False,"['robot_stimuli\\L_Torso_Z_Back.mp4', 'robot_stimuli\\L_Base_Z_For.mp4']",robot_stimuli\R_Head_X_Back.mp4,17,,,,,,,,,,,,,0,75,75,75,,,,,,,,,,,,,,,,,1728.0720233,1729.1647143,,,,,,,,,1732.8145955,1732.8145955,1732.8145955,1732.8145955,1732.8145955,1732.8145955,1732.8145955,1732.8145955,None,None,None,,,,,,,,,,,1719.7618765,1719.7618765,None,,1724.4320788,1729.1647143,1729.1647143,1729.1647143,1729.1647143,n,1.2475973000001943,1719.7618765,1719.7618765,,,,17,001,2024-07-29_13h19.16.194,robot_sternberg_sign,2022.2.5,60.08384099171855,
"['L_Base_Y_For', 'R_Head_Y_Back']",True,R_Head_Y_Back,2,robot,3,False,False,"['robot_stimuli\\L_Base_Y_For.mp4', 'robot_stimuli\\R_Head_Y_Back.mp4']",robot_stimuli\R_Head_Y_Back.mp4,17,,,,,,,,,,,,,0,76,76,76,,,,,,,,,,,,,,,,,1741.1542385,1733.8906554,,,,,,,,,1745.8849856,1745.8849856,1745.8849856,1745.8849856,1745.8849856,1745.8849856,1745.8849856,1745.8849856,None,None,None,,,,,,,,,,,1732.8145955,1732.8145955,None,,1737.5148932999998,1742.2466746,1742.2466746,1742.2466746,1742.2466746,c,1.9815122000001395,1732.8145955,1732.8145955,,,,17,001,2024-07-29_13h19.16.194,robot_sternberg_sign,2022.2.5,60.08384099171855,
"['L_Torso_Y_For', 'L_Arm_X_For']",False,R_Arm_X_Back,2,robot,3,False,False,"['robot_stimuli\\L_Torso_Y_For.mp4', 'robot_stimuli\\L_Arm_X_For.mp4']",robot_stimuli\R_Arm_X_Back.mp4,17,,,,,,,,,,,,,0,77,77,77,,,,,,,,,,,,,,,,,1754.3086985999998,1755.3967303,,,,,,,,,1759.0454508,1759.0454508,1759.0454508,1759.0454508,1759.0454508,1759.0454508,1759.0454508,1759.0454508,None,None,None,,,,,,,,,,,1745.8849856,1745.8849856,None,,1750.6797731,1755.3967303,1755.3967303,1755.3967303,1755.3967303,n,1.8474407000000213,1745.8849856,1745.8849856,,,,17,001,2024-07-29_13h19.16.194,robot_sternberg_sign,2022.2.5,60.08384099171855,
"['L_Base_Y_Back', 'L_Head_X_For']",False,R_Arm_X_Back,2,robot,3,False,False,"['robot_stimuli\\L_Base_Y_Back.mp4', 'robot_stimuli\\L_Head_X_For.mp4']",robot_stimuli\R_Arm_X_Back.mp4,17,,,,,,,,,,,,,0,78,78,78,,,,,,,,,,,,,,,,,1767.3544771,1760.1261471,,,,,,,,,1772.0844319,1772.0844319,1772.0844319,1772.0844319,1772.0844319,1772.0844319,1772.0844319,1772.0844319,None,None,None,,,,,,,,,,,1759.0454508,1759.0454508,None,,1763.7824905,1768.4438734999999,1768.4438734999999,1768.4438734999999,1768.4438734999999,n,1.984125999999975,1759.0454508,1759.0454508,,,,17,001,2024-07-29_13h19.16.194,robot_sternberg_sign,2022.2.5,60.08384099171855,
"['L_Torso_Y_Back', 'L_Arm_X_For']",False,R_Base_Z_For,2,robot,3,False,True,"['robot_stimuli\\L_Torso_Y_Back.mp4', 'robot_stimuli\\L_Arm_X_For.mp4']",robot_stimuli\R_Base_Z_For.mp4,17,,,,,,,,,,,,,0,79,79,79,,,,,,,,,,,,,,,,,1780.3923338999998,1781.4959511,,,,,,,,,1785.1683845999999,1790.7919072,1785.1683845999999,1790.7919072,1785.1683845999999,1790.7919072,1785.1683845999999,1790.7919072,27.993827160493826,2.3500067999998464,space,,,5.554829900000101,,,,,,,,1772.0844319,1772.0844319,None,,1776.7594225999999,1781.4959511,1781.4959511,1781.4959511,1781.4959511,n,1.3160535000000948,1772.0844319,1772.0844319,,,,17,001,2024-07-29_13h19.16.194,robot_sternberg_sign,2022.2.5,60.08384099171855,
"['L_Torso_Y_Back', 'L_Head_X_For', 'L_Head_Y_Back', 'R_Head_Z_Back', 'R_Torso_Y_Back', 'L_Base_Z_For']",True,R_Torso_Y_Back,6,robot,3,True,False,"['robot_stimuli\\L_Torso_Y_Back.mp4', 'robot_stimuli\\L_Head_X_For.mp4', 'robot_stimuli\\L_Head_Y_Back.mp4', 'robot_stimuli\\R_Head_Z_Back.mp4', 'robot_stimuli\\R_Torso_Y_Back.mp4', 'robot_stimuli\\L_Base_Z_For.mp4']",robot_stimuli\R_Torso_Y_Back.mp4,17,,,,,,,,,,,,,0,80,80,80,,,,,,,,,,,,,,,,,1815.3047646,1793.25541,,,,,,,,,1820.0289908,1820.0289908,1820.0289908,1820.0289908,1820.0289908,1820.0289908,1820.0289908,1820.0289908,None,None,None,,,,,,,,,,,1790.7919072,1790.7919072,space,1.372028400000005,1811.663078,1816.3958681999998,1816.3958681999998,1816.3958681999998,1816.3958681999998,n,2.638691600000044,,,,,,17,001,2024-07-29_13h19.16.194,robot_sternberg_sign,2022.2.5,60.08384099171855,
"['R_Torso_Z_Back', 'R_Arm_X_Back', 'L_Torso_X_For', 'L_Base_Z_For', 'R_Base_Z_Back', 'R_Torso_Y_Back']",False,L_Head_Z_For,6,robot,3,False,False,"['robot_stimuli\\R_Torso_Z_Back.mp4', 'robot_stimuli\\R_Arm_X_Back.mp4', 'robot_stimuli\\L_Torso_X_For.mp4', 'robot_stimuli\\L_Base_Z_For.mp4', 'robot_stimuli\\R_Base_Z_Back.mp4', 'robot_stimuli\\R_Torso_Y_Back.mp4']",robot_stimuli\L_Head_Z_For.mp4,17,,,,,,,,,,,,,0,81,81,81,,,,,,,,,,,,,,,,,1843.2684704999997,1844.3475702,,,,,,,,,1847.9846297999998,1847.9846297999998,1847.9846297999998,1847.9846297999998,1847.9846297999998,1847.9846297999998,1847.9846297999998,1847.9846297999998,None,None,None,,,,,,,,,,,1820.0289908,1820.0289908,None,,1839.6454865,1844.3475702,1844.3475702,1844.3475702,1844.3475702,n,2.631975400000016,1820.0289908,1820.0289908,,,,17,001,2024-07-29_13h19.16.194,robot_sternberg_sign,2022.2.5,60.08384099171855,
"['L_Base_Y_For', 'L_Arm_X_For', 'L_Torso_X_Back', 'L_Base_Z_For', 'R_Head_Z_For', 'L_Head_X_Back']",False,R_Arm_Z_For,6,robot,3,False,False,"['robot_stimuli\\L_Base_Y_For.mp4', 'robot_stimuli\\L_Arm_X_For.mp4', 'robot_stimuli\\L_Torso_X_Back.mp4', 'robot_stimuli\\L_Base_Z_For.mp4', 'robot_stimuli\\R_Head_Z_For.mp4', 'robot_stimuli\\L_Head_X_Back.mp4']",robot_stimuli\R_Arm_Z_For.mp4,17,,,,,,,,,,,,,0,82,82,82,,,,,,,,,,,,,,,,,1871.2196193999998,1849.0586788,,,,,,,,,1875.9514441000001,1875.9514441000001,1875.9514441000001,1875.9514441000001,1875.9514441000001,1875.9514441000001,1875.9514441000001,1875.9514441000001,None,None,None,,,,,,,,,,,1847.9846297999998,1847.9846297999998,None,,1867.5797256,1872.3137899999997,1872.3137899999997,1872.3137899999997,1872.3137899999997,n,2.2019229000001417,1847.9846297999998,1847.9846297999998,,,,17,001,2024-07-29_13h19.16.194,robot_sternberg_sign,2022.2.5,60.08384099171855,
"['R_Arm_X_For', 'R_Base_X_For', 'R_Base_Z_Back', 'R_Arm_Z_Back', 'R_Arm_X_Back', 'L_Torso_Z_For']",True,R_Arm_X_Back,6,robot,3,False,False,"['robot_stimuli\\R_Arm_X_For.mp4', 'robot_stimuli\\R_Base_X_For.mp4', 'robot_stimuli\\R_Base_Z_Back.mp4', 'robot_stimuli\\R_Arm_Z_Back.mp4', 'robot_stimuli\\R_Arm_X_Back.mp4', 'robot_stimuli\\L_Torso_Z_For.mp4']",robot_stimuli\R_Arm_X_Back.mp4,17,,,,,,,,,,,,,0,83,83,83,,,,,,,,,,,,,,,,,1899.0760735999997,1900.1634629,,,,,,,,,1903.8017802,1903.8017802,1903.8017802,1903.8017802,1903.8017802,1903.8017802,1903.8017802,1903.8017802,None,None,None,,,,,,,,,,,1875.9514441000001,1875.9514441000001,None,,1895.4443889999998,1900.1634629,1900.1634629,1900.1634629,1900.1634629,c,3.2311864000002117,1875.9514441000001,1875.9514441000001,,,,17,001,2024-07-29_13h19.16.194,robot_sternberg_sign,2022.2.5,60.08384099171855,
"['R_Head_Y_For', 'L_Torso_Z_Back', 'R_Base_X_For', 'R_Arm_Y_Back', 'L_Arm_Z_Back', 'R_Base_Z_For']",True,R_Base_Z_For,6,robot,3,False,False,"['robot_stimuli\\R_Head_Y_For.mp4', 'robot_stimuli\\L_Torso_Z_Back.mp4', 'robot_stimuli\\R_Base_X_For.mp4', 'robot_stimuli\\R_Arm_Y_Back.mp4', 'robot_stimuli\\L_Arm_Z_Back.mp4', 'robot_stimuli\\R_Base_Z_For.mp4']",robot_stimuli\R_Base_Z_For.mp4,17,,,,,,,,,,,,,0,84,84,84,,,,,,,,,,,,,,,,,1926.9056261,1927.9953717999997,,,,,,,,,1931.6333921,1931.6333921,1931.6333921,1931.6333921,1931.6333921,1931.6333921,1931.6333921,1931.6333921,None,None,None,,,,,,,,,,,1903.8017802,1903.8017802,None,,1923.2630679999997,1927.9953717999997,1927.9953717999997,1927.9953717999997,1927.9953717999997,c,2.1681327000000294,1903.8017802,1903.8017802,,,,17,001,2024-07-29_13h19.16.194,robot_sternberg_sign,2022.2.5,60.08384099171855,
"['R_Torso_X_For', 'R_Base_Z_For', 'L_Arm_Z_Back', 'R_Head_Y_For', 'L_Arm_X_Back', 'R_Torso_Z_For']",True,R_Head_Y_For,6,robot,3,False,False,"['robot_stimuli\\R_Torso_X_For.mp4', 'robot_stimuli\\R_Base_Z_For.mp4', 'robot_stimuli\\L_Arm_Z_Back.mp4', 'robot_stimuli\\R_Head_Y_For.mp4', 'robot_stimuli\\L_Arm_X_Back.mp4', 'robot_stimuli\\R_Torso_Z_For.mp4']",robot_stimuli\R_Head_Y_For.mp4,17,,,,,,,,,,,,,0,85,85,85,,,,,,,,,,,,,,,,,1954.9607029999997,1956.0486843999997,,,,,,,,,1959.6969679,1959.6969679,1959.6969679,1959.6969679,1959.6969679,1959.6969679,1959.6969679,1959.6969679,None,None,None,,,,,,,,,,,1931.6333921,1931.6333921,None,,1951.3250635,1956.0486843999997,1956.0486843999997,1956.0486843999997,1956.0486843999997,c,1.8026580000004344,1931.6333921,1931.6333921,,,,17,001,2024-07-29_13h19.16.194,robot_sternberg_sign,2022.2.5,60.08384099171855,
"['L_Head_X_Back', 'R_Head_X_Back', 'R_Torso_Z_For', 'L_Arm_X_For', 'R_Base_Y_For', 'L_Head_Z_Back']",True,L_Head_X_Back,6,robot,3,False,False,"['robot_stimuli\\L_Head_X_Back.mp4', 'robot_stimuli\\R_Head_X_Back.mp4', 'robot_stimuli\\R_Torso_Z_For.mp4', 'robot_stimuli\\L_Arm_X_For.mp4', 'robot_stimuli\\R_Base_Y_For.mp4', 'robot_stimuli\\L_Head_Z_Back.mp4']",robot_stimuli\L_Head_X_Back.mp4,17,,,,,,,,,,,,,0,86,86,86,,,,,,,,,,,,,,,,,1983.0581228,1984.1463635999999,,,,,,,,,1987.7744574999997,1987.7744574999997,1987.7744574999997,1987.7744574999997,1987.7744574999997,1987.7744574999997,1987.7744574999997,1987.7744574999997,None,None,None,,,,,,,,,,,1959.6969679,1959.6969679,None,,1979.4160164999998,1984.1463635999999,1984.1463635999999,1984.1463635999999,1984.1463635999999,c,1.7853473000003817,1959.6969679,1959.6969679,,,,17,001,2024-07-29_13h19.16.194,robot_sternberg_sign,2022.2.5,60.08384099171855,
"['L_Head_Y_For', 'L_Base_Y_Back', 'R_Head_Z_For', 'R_Torso_X_Back', 'L_Arm_X_For', 'R_Torso_Z_For']",False,R_Base_X_Back,6,robot,3,False,False,"['robot_stimuli\\L_Head_Y_For.mp4', 'robot_stimuli\\L_Base_Y_Back.mp4', 'robot_stimuli\\R_Head_Z_For.mp4', 'robot_stimuli\\R_Torso_X_Back.mp4', 'robot_stimuli\\L_Arm_X_For.mp4', 'robot_stimuli\\R_Torso_Z_For.mp4']",robot_stimuli\R_Base_X_Back.mp4,17,,,,,,,,,,,,,0,87,87,87,,,,,,,,,,,,,,,,,2011.0594169,2012.1474392,,,,,,,,,2015.7851436,2015.7851436,2015.7851436,2015.7851436,2015.7851436,2015.7851436,2015.7851436,2015.7851436,None,None,None,,,,,,,,,,,1987.7744574999997,1987.7744574999997,None,,2007.4169075999998,2012.1474392,2012.1474392,2012.1474392,2012.1474392,n,2.280620500000083,1987.7744574999997,1987.7744574999997,,,,17,001,2024-07-29_13h19.16.194,robot_sternberg_sign,2022.2.5,60.08384099171855,
"['R_Head_Y_For', 'R_Base_Z_Back', 'L_Arm_Y_For', 'R_Torso_Y_For', 'R_Arm_Y_For', 'R_Torso_Y_Back']",False,R_Torso_Z_Back,6,robot,3,False,False,"['robot_stimuli\\R_Head_Y_For.mp4', 'robot_stimuli\\R_Base_Z_Back.mp4', 'robot_stimuli\\L_Arm_Y_For.mp4', 'robot_stimuli\\R_Torso_Y_For.mp4', 'robot_stimuli\\R_Arm_Y_For.mp4', 'robot_stimuli\\R_Torso_Y_Back.mp4']",robot_stimuli\R_Torso_Z_Back.mp4,17,,,,,,,,,,,,,0,88,88,88,,,,,,,,,,,,,,,,,2038.856839,2039.9480668,,,,,,,,,2044.0184706,2044.0184706,2044.0184706,2044.0184706,2044.0184706,2044.0184706,2044.0184706,2044.0184706,None,None,None,,,,,,,,,,,2015.7851436,2015.7851436,None,,2035.2257083,2039.9480668,2039.9480668,2039.9480668,2039.9480668,n,4.038477800000152,2015.7851436,2015.7851436,,,,17,001,2024-07-29_13h19.16.194,robot_sternberg_sign,2022.2.5,60.08384099171855,
"['L_Head_X_Back', 'L_Arm_X_For', 'R_Torso_X_Back', 'R_Arm_X_For', 'R_Head_X_For', 'R_Head_Y_For']",False,L_Head_Z_For,6,robot,3,False,True,"['robot_stimuli\\L_Head_X_Back.mp4', 'robot_stimuli\\L_Arm_X_For.mp4', 'robot_stimuli\\R_Torso_X_Back.mp4', 'robot_stimuli\\R_Arm_X_For.mp4', 'robot_stimuli\\R_Head_X_For.mp4', 'robot_stimuli\\R_Head_Y_For.mp4']",robot_stimuli\L_Head_Z_For.mp4,17,,,,,,,,,,,,,0,89,89,89,,,,,,,,,,,,,,,,,2067.3564489,2068.4520469,,,,,,,,,2072.1341156,2074.8939069,2072.1341156,2074.8939069,2072.1341156,2074.8939069,2072.1341156,2074.8939069,51.141975308641975,2.315133500000229,space,,,2.7166719000000796,,,,,,,,2044.0184706,2044.0184706,None,,2063.7140922999997,2068.4520469,2068.4520469,2068.4520469,2068.4520469,n,2.095718000000403,2044.0184706,2044.0184706,,,,17,001,2024-07-29_13h19.16.194,robot_sternberg_sign,2022.2.5,60.08384099171855,
"['J', 'H']",True,J,2,letter,4,True,False,"['robot_stimuli\\\\filler.mp4', 'robot_stimuli\\\\filler.mp4']",robot_stimuli\\filler.mp4,17,,,,,,,,,,,,,0,90,90,90,,,,,,,,,,,,,,,,,2086.7773226,2087.8424557,,,,,,,,,2088.4655181,2088.4655181,2088.4655181,2088.4655181,2088.4655181,2088.4655181,2088.4655181,2088.4655181,None,None,None,,,,,,,,,,,2074.8939069,2074.8939069,space,6.493075300000243,,,2087.8424557,2087.8424557,2087.8424557,c,0.5212660999999628,,,2084.7637203,2086.7773226,2087.8424557,17,001,2024-07-29_13h19.16.194,robot_sternberg_sign,2022.2.5,60.08384099171855,
"['X', 'G']",False,H,2,letter,4,False,False,"['robot_stimuli\\\\filler.mp4', 'robot_stimuli\\\\filler.mp4']",robot_stimuli\\filler.mp4,17,,,,,,,,,,,,,0,91,91,91,,,,,,,,,,,,,,,,,2093.6204663999997,2089.5245205,,,,,,,,,2095.3084442,2095.3084442,2095.3084442,2095.3084442,2095.3084442,2095.3084442,2095.3084442,2095.3084442,None,None,None,,,,,,,,,,,2088.4655181,2088.4655181,None,,,,2094.6897463,2094.6897463,2094.6897463,n,0.5059334000001456,2088.4655181,2088.4655181,2091.6118455,2093.6204663999997,2094.6897463,17,001,2024-07-29_13h19.16.194,robot_sternberg_sign,2022.2.5,60.08384099171855,
"['W', 'C']",True,C,2,letter,4,False,False,"['robot_stimuli\\\\filler.mp4', 'robot_stimuli\\\\filler.mp4']",robot_stimuli\\filler.mp4,17,,,,,,,,,,,,,0,92,92,92,,,,,,,,,,,,,,,,,2100.6866393,2096.3729656,,,,,,,,,2102.3767227,2102.3767227,2102.3767227,2102.3767227,2102.3767227,2102.3767227,2102.3767227,2102.3767227,None,None,None,,,,,,,,,,,2095.3084442,2095.3084442,None,,,,2101.7569217,2101.7569217,2101.7569217,c,0.39872330000017087,2095.3084442,2095.3084442,2098.4706655,2100.6866393,2101.7569217,17,001,2024-07-29_13h19.16.194,robot_sternberg_sign,2022.2.5,60.08384099171855,
"['C', 'T']",False,V,2,letter,4,False,False,"['robot_stimuli\\\\filler.mp4', 'robot_stimuli\\\\filler.mp4']",robot_stimuli\\filler.mp4,17,,,,,,,,,,,,,0,93,93,93,,,,,,,,,,,,,,,,,2107.749019,2108.8064328,,,,,,,,,2109.6280696,2109.6280696,2109.6280696,2109.6280696,2109.6280696,2109.6280696,2109.6280696,2109.6280696,None,None,None,,,,,,,,,,,2102.3767227,2102.3767227,None,,,,2108.8064328,2108.8064328,2108.8064328,n,0.5806427999999926,2102.3767227,2102.3767227,2105.7337248,2107.749019,2108.8064328,17,001,2024-07-29_13h19.16.194,robot_sternberg_sign,2022.2.5,60.08384099171855,
"['J', 'G']",False,T,2,letter,4,False,False,"['robot_stimuli\\\\filler.mp4', 'robot_stimuli\\\\filler.mp4']",robot_stimuli\\filler.mp4,17,,,,,,,,,,,,,0,94,94,94,,,,,,,,,,,,,,,,,2114.9985361999998,2116.0625569999997,,,,,,,,,2116.8785064999997,2116.8785064999997,2116.8785064999997,2116.8785064999997,2116.8785064999997,2116.8785064999997,2116.8785064999997,2116.8785064999997,None,None,None,,,,,,,,,,,2109.6280696,2109.6280696,None,,,,2116.0625569999997,2116.0625569999997,2116.0625569999997,n,0.7077921999997727,2109.6280696,2109.6280696,2112.9825667,2114.9985361999998,2116.0625569999997,17,001,2024-07-29_13h19.16.194,robot_sternberg_sign,2022.2.5,60.08384099171855,
"['D', 'R']",False,H,2,letter,4,False,False,"['robot_stimuli\\\\filler.mp4', 'robot_stimuli\\\\filler.mp4']",robot_stimuli\\filler.mp4,17,,,,,,,,,,,,,0,95,95,95,,,,,,,,,,,,,,,,,2122.2502302,2123.306076,,,,,,,,,2124.1276051,2124.1276051,2124.1276051,2124.1276051,2124.1276051,2124.1276051,2124.1276051,2124.1276051,None,None,None,,,,,,,,,,,2116.8785064999997,2116.8785064999997,None,,,,2123.306076,2123.306076,2123.306076,n,0.6094372999999962,2116.8785064999997,2116.8785064999997,2120.2312097999998,2122.2502302,2123.306076,17,001,2024-07-29_13h19.16.194,robot_sternberg_sign,2022.2.5,60.08384099171855,
"['B', 'N']",True,B,2,letter,4,False,False,"['robot_stimuli\\\\filler.mp4', 'robot_stimuli\\\\filler.mp4']",robot_stimuli\\filler.mp4,17,,,,,,,,,,,,,0,96,96,96,,,,,,,,,,,,,,,,,2129.7008934,2130.7561071,,,,,,,,,2131.5768327,2131.5768327,2131.5768327,2131.5768327,2131.5768327,2131.5768327,2131.5768327,2131.5768327,None,None,None,,,,,,,,,,,2124.1276051,2124.1276051,None,,,,2130.7561071,2130.7561071,2130.7561071,c,0.6314310000001626,2124.1276051,2124.1276051,2127.4877836,2129.7008934,2130.7561071,17,001,2024-07-29_13h19.16.194,robot_sternberg_sign,2022.2.5,60.08384099171855,
"['H', 'M']",True,M,2,letter,4,False,False,"['robot_stimuli\\\\filler.mp4', 'robot_stimuli\\\\filler.mp4']",robot_stimuli\\filler.mp4,17,,,,,,,,,,,,,0,97,97,97,,,,,,,,,,,,,,,,,2136.9426737999997,2138.0052109,,,,,,,,,2138.8352437,2138.8352437,2138.8352437,2138.8352437,2138.8352437,2138.8352437,2138.8352437,2138.8352437,None,None,None,,,,,,,,,,,2131.5768327,2131.5768327,None,,,,2138.0052109,2138.0052109,2138.0052109,c,0.6933850999998015,2131.5768327,2131.5768327,2134.9343675,2136.9426737999997,2138.0052109,17,001,2024-07-29_13h19.16.194,robot_sternberg_sign,2022.2.5,60.08384099171855,
"['C', 'T']",False,G,2,letter,4,False,False,"['robot_stimuli\\\\filler.mp4', 'robot_stimuli\\\\filler.mp4']",robot_stimuli\\filler.mp4,17,,,,,,,,,,,,,0,98,98,98,,,,,,,,,,,,,,,,,2144.1930374,2145.2561207,,,,,,,,,2145.8797612999997,2145.8797612999997,2145.8797612999997,2145.8797612999997,2145.8797612999997,2145.8797612999997,2145.8797612999997,2145.8797612999997,None,None,None,,,,,,,,,,,2138.8352437,2138.8352437,None,,,,2145.2561207,2145.2561207,2145.2561207,n,0.44377079999995317,2138.8352437,2138.8352437,2142.1826591999998,2144.1930374,2145.2561207,17,001,2024-07-29_13h19.16.194,robot_sternberg_sign,2022.2.5,60.08384099171855,
"['F', 'J']",True,J,2,letter,4,False,True,"['robot_stimuli\\\\filler.mp4', 'robot_stimuli\\\\filler.mp4']",robot_stimuli\\filler.mp4,17,,,,,,,,,,,,,0,99,99,99,,,,,,,,,,,,,,,,,2151.2541996,2146.9389088,,,,,,,,,2153.3760097,2156.1344086,2153.3760097,2156.1344086,2153.3760097,2156.1344086,2153.3760097,2156.1344086,24.135802469135797,2.677232699999877,space,,,2.690163900000158,,,,,,,,2145.8797612999997,2145.8797612999997,None,,,,2152.322106,2152.322106,2152.322106,c,0.8646079999997767,2145.8797612999997,2145.8797612999997,2149.2360331,2151.2541996,2152.322106,17,001,2024-07-29_13h19.16.194,robot_sternberg_sign,2022.2.5,60.08384099171855,
"['C', 'Q', 'M', 'P', 'K', 'J']",False,R,6,letter,4,True,False,"['robot_stimuli\\\\filler.mp4', 'robot_stimuli\\\\filler.mp4', 'robot_stimuli\\\\filler.mp4', 'robot_stimuli\\\\filler.mp4', 'robot_stimuli\\\\filler.mp4', 'robot_stimuli\\\\filler.mp4']",robot_stimuli\\filler.mp4,17,,,,,,,,,,,,,0,100,100,100,,,,,,,,,,,,,,,,,2171.4473548,2172.5077673,,,,,,,,,2173.1321391,2173.1321391,2173.1321391,2173.1321391,2173.1321391,2173.1321391,2173.1321391,2173.1321391,None,None,None,,,,,,,,,,,2156.1344086,2156.1344086,space,1.18104619999977,,,2172.5077673,2172.5077673,2172.5077673,n,0.5754235000003121,,,2169.2372984,2171.4473548,2172.5077673,17,001,2024-07-29_13h19.16.194,robot_sternberg_sign,2022.2.5,60.08384099171855,
"['L', 'H', 'X', 'J', 'P', 'S']",True,X,6,letter,4,False,False,"['robot_stimuli\\\\filler.mp4', 'robot_stimuli\\\\filler.mp4', 'robot_stimuli\\\\filler.mp4', 'robot_stimuli\\\\filler.mp4', 'robot_stimuli\\\\filler.mp4', 'robot_stimuli\\\\filler.mp4']",robot_stimuli\\filler.mp4,17,,,,,,,,,,,,,0,101,101,101,,,,,,,,,,,,,,,,,2187.2564852,2188.3223947,,,,,,,,,2189.5488474999997,2189.5488474999997,2189.5488474999997,2189.5488474999997,2189.5488474999997,2189.5488474999997,2189.5488474999997,2189.5488474999997,None,None,None,,,,,,,,,,,2173.1321391,2173.1321391,None,,,,2188.3223947,2188.3223947,2188.3223947,c,1.0009882999997046,2173.1321391,2173.1321391,2185.0395347,2187.2564852,2188.3223947,17,001,2024-07-29_13h19.16.194,robot_sternberg_sign,2022.2.5,60.08384099171855,
"['B', 'T', 'J', 'G', 'L', 'W']",True,G,6,letter,4,False,False,"['robot_stimuli\\\\filler.mp4', 'robot_stimuli\\\\filler.mp4', 'robot_stimuli\\\\filler.mp4', 'robot_stimuli\\\\filler.mp4', 'robot_stimuli\\\\filler.mp4', 'robot_stimuli\\\\filler.mp4']",robot_stimuli\\filler.mp4,17,,,,,,,,,,,,,0,102,102,102,,,,,,,,,,,,,,,,,2203.6608621,2204.7255314999998,,,,,,,,,2205.3510126,2205.3510126,2205.3510126,2205.3510126,2205.3510126,2205.3510126,2205.3510126,2205.3510126,None,None,None,,,,,,,,,,,2189.5488474999997,2189.5488474999997,None,,,,2204.7255314999998,2204.7255314999998,2204.7255314999998,c,0.5088310000000149,2189.5488474999997,2189.5488474999997,2201.6442584,2203.6608621,2204.7255314999998,17,001,2024-07-29_13h19.16.194,robot_sternberg_sign,2022.2.5,60.08384099171855,
"['J', 'R', 'F', 'W', 'Z', 'T']",False,B,6,letter,4,False,False,"['robot_stimuli\\\\filler.mp4', 'robot_stimuli\\\\filler.mp4', 'robot_stimuli\\\\filler.mp4', 'robot_stimuli\\\\filler.mp4', 'robot_stimuli\\\\filler.mp4', 'robot_stimuli\\\\filler.mp4']",robot_stimuli\\filler.mp4,17,,,,,,,,,,,,,0,103,103,103,,,,,,,,,,,,,,,,,2219.4714825,2220.5383194,,,,,,,,,2221.1603288,2221.1603288,2221.1603288,2221.1603288,2221.1603288,2221.1603288,2221.1603288,2221.1603288,None,None,None,,,,,,,,,,,2205.3510126,2205.3510126,None,,,,2220.5383194,2220.5383194,2220.5383194,n,0.5686285999999257,2205.3510126,2205.3510126,2217.2548103,2219.4714825,2220.5383194,17,001,2024-07-29_13h19.16.194,robot_sternberg_sign,2022.2.5,60.08384099171855,
"['K', 'G', 'N', 'V', 'Q', 'T']",True,G,6,letter,4,False,False,"['robot_stimuli\\\\filler.mp4', 'robot_stimuli\\\\filler.mp4', 'robot_stimuli\\\\filler.mp4', 'robot_stimuli\\\\filler.mp4', 'robot_stimuli\\\\filler.mp4', 'robot_stimuli\\\\filler.mp4']",robot_stimuli\\filler.mp4,17,,,,,,,,,,,,,0,104,104,104,,,,,,,,,,,,,,,,,2235.0812873,2236.1389719999997,,,,,,,,,2237.1657517,2237.1657517,2237.1657517,2237.1657517,2237.1657517,2237.1657517,2237.1657517,2237.1657517,None,None,None,,,,,,,,,,,2221.1603288,2221.1603288,None,,,,2236.1389719999997,2236.1389719999997,2236.1389719999997,n,0.791721099999819,2221.1603288,2221.1603288,2233.0688364,2235.0812873,2236.1389719999997,17,001,2024-07-29_13h19.16.194,robot_sternberg_sign,2022.2.5,60.08384099171855,
"['R', 'H', 'M', 'Z', 'B', 'N']",False,V,6,letter,4,False,False,"['robot_stimuli\\\\filler.mp4', 'robot_stimuli\\\\filler.mp4', 'robot_stimuli\\\\filler.mp4', 'robot_stimuli\\\\filler.mp4', 'robot_stimuli\\\\filler.mp4', 'robot_stimuli\\\\filler.mp4']",robot_stimuli\\filler.mp4,17,,,,,,,,,,,,,0,105,105,105,,,,,,,,,,,,,,,,,2251.260518,2252.3240464,,,,,,,,,2253.3483052,2253.3483052,2253.3483052,2253.3483052,2253.3483052,2253.3483052,2253.3483052,2253.3483052,None,None,None,,,,,,,,,,,2237.1657517,2237.1657517,None,,,,2252.3240464,2252.3240464,2252.3240464,n,0.8222090000002993,2237.1657517,2237.1657517,2249.2463468,2251.260518,2252.3240464,17,001,2024-07-29_13h19.16.194,robot_sternberg_sign,2022.2.5,60.08384099171855,
"['F', 'D', 'X', 'V', 'G', 'W']",False,B,6,letter,4,False,False,"['robot_stimuli\\\\filler.mp4', 'robot_stimuli\\\\filler.mp4', 'robot_stimuli\\\\filler.mp4', 'robot_stimuli\\\\filler.mp4', 'robot_stimuli\\\\filler.mp4', 'robot_stimuli\\\\filler.mp4']",robot_stimuli\\filler.mp4,17,,,,,,,,,,,,,0,106,106,106,,,,,,,,,,,,,,,,,2267.2538802999998,2254.406164,,,,,,,,,2269.5446478,2269.5446478,2269.5446478,2269.5446478,2269.5446478,2269.5446478,2269.5446478,2269.5446478,None,None,None,,,,,,,,,,,2253.3483052,2253.3483052,None,,,,2268.3231025,2268.3231025,2268.3231025,n,0.9842947999999581,2253.3483052,2253.3483052,2265.0368967,2267.2538802999998,2268.3231025,17,001,2024-07-29_13h19.16.194,robot_sternberg_sign,2022.2.5,60.08384099171855,
"['X', 'Z', 'Q', 'P', 'B', 'J']",True,Z,6,letter,4,False,False,"['robot_stimuli\\\\filler.mp4', 'robot_stimuli\\\\filler.mp4', 'robot_stimuli\\\\filler.mp4', 'robot_stimuli\\\\filler.mp4', 'robot_stimuli\\\\filler.mp4', 'robot_stimuli\\\\filler.mp4']",robot_stimuli\\filler.mp4,17,,,,,,,,,,,,,0,107,107,107,,,,,,,,,,,,,,,,,2283.8923188,2284.9585339,,,,,,,,,2286.7817317999998,2286.7817317999998,2286.7817317999998,2286.7817317999998,2286.7817317999998,2286.7817317999998,2286.7817317999998,2286.7817317999998,None,None,None,,,,,,,,,,,2269.5446478,2269.5446478,None,,,,2284.9585339,2284.9585339,2284.9585339,c,1.7329903000003526,2269.5446478,2269.5446478,2281.8777592,2283.8923188,2284.9585339,17,001,2024-07-29_13h19.16.194,robot_sternberg_sign,2022.2.5,60.08384099171855,
"['N', 'K', 'R', 'F', 'H', 'T']",True,F,6,letter,4,False,False,"['robot_stimuli\\\\filler.mp4', 'robot_stimuli\\\\filler.mp4', 'robot_stimuli\\\\filler.mp4', 'robot_stimuli\\\\filler.mp4', 'robot_stimuli\\\\filler.mp4', 'robot_stimuli\\\\filler.mp4']",robot_stimuli\\filler.mp4,17,,,,,,,,,,,,,0,108,108,108,,,,,,,,,,,,,,,,,2300.4818067,2301.5387634,,,,,,,,,2302.568171,2302.568171,2302.568171,2302.568171,2302.568171,2302.568171,2302.568171,2302.568171,None,None,None,,,,,,,,,,,2286.7817317999998,2286.7817317999998,None,,,,2301.5387634,2301.5387634,2301.5387634,c,0.9356443000000638,2286.7817317999998,2286.7817317999998,2298.4671387,2300.4818067,2301.5387634,17,001,2024-07-29_13h19.16.194,robot_sternberg_sign,2022.2.5,60.08384099171855,
"['D', 'V', 'W', 'K', 'J', 'F']",False,S,6,letter,4,False,True,"['robot_stimuli\\\\filler.mp4', 'robot_stimuli\\\\filler.mp4', 'robot_stimuli\\\\filler.mp4', 'robot_stimuli\\\\filler.mp4', 'robot_stimuli\\\\filler.mp4', 'robot_stimuli\\\\filler.mp4']",robot_stimuli\\filler.mp4,17,,,,,,,,,,,,,0,109,109,109,,,,,,,,,,,,,,,,,2316.4682285999997,2317.5222119,,,,,,,,,2318.1764436999997,2321.5251425,2318.1764436999997,2321.5251425,2318.1764436999997,2321.5251425,2318.1764436999997,2321.5251425,50.52469135802469,2.971472399999584,space,,,3.306375199999735,,,,,,,,2302.568171,2302.568171,None,,,,2317.5222119,2317.5222119,2317.5222119,n,0.5695202000000847,2302.568171,2302.568171,2314.2625591,2316.4682285999997,2317.5222119,17,001,2024-07-29_13h19.16.194,robot_sternberg_sign,2022.2.5,60.08384099171855,
"['R', 'L', 'C', 'D']",False,H,4,letter,4,True,False,"['robot_stimuli\\\\filler.mp4', 'robot_stimuli\\\\filler.mp4', 'robot_stimuli\\\\filler.mp4', 'robot_stimuli\\\\filler.mp4']",robot_stimuli\\filler.mp4,17,,,,,,,,,,,,,0,110,110,110,,,,,,,,,,,,,,,,,2332.7743373,2333.8405239,,,,,,,,,2334.6633395,2334.6633395,2334.6633395,2334.6633395,2334.6633395,2334.6633395,2334.6633395,2334.6633395,None,None,None,,,,,,,,,,,2321.5251425,2321.5251425,space,1.1009990999999957,,,2333.8405239,2333.8405239,2333.8405239,n,0.7064813000000925,,,2330.5616794,2332.7743373,2333.8405239,17,001,2024-07-29_13h19.16.194,robot_sternberg_sign,2022.2.5,60.08384099171855,
"['L', 'Q', 'R', 'D']",True,R,4,letter,4,False,False,"['robot_stimuli\\\\filler.mp4', 'robot_stimuli\\\\filler.mp4', 'robot_stimuli\\\\filler.mp4', 'robot_stimuli\\\\filler.mp4']",robot_stimuli\\filler.mp4,17,,,,,,,,,,,,,0,111,111,111,,,,,,,,,,,,,,,,,2344.4062673,2345.4731939,,,,,,,,,2346.294699,2346.294699,2346.294699,2346.294699,2346.294699,2346.294699,2346.294699,2346.294699,None,None,None,,,,,,,,,,,2334.6633395,2334.6633395,None,,,,2345.4731939,2345.4731939,2345.4731939,c,0.7545401000001277,2334.6633395,2334.6633395,2342.1912993,2344.4062673,2345.4731939,17,001,2024-07-29_13h19.16.194,robot_sternberg_sign,2022.2.5,60.08384099171855,
"['T', 'P', 'F', 'V']",False,S,4,letter,4,False,False,"['robot_stimuli\\\\filler.mp4', 'robot_stimuli\\\\filler.mp4', 'robot_stimuli\\\\filler.mp4', 'robot_stimuli\\\\filler.mp4']",robot_stimuli\\filler.mp4,17,,,,,,,,,,,,,0,112,112,112,,,,,,,,,,,,,,,,,2355.8306672,2356.8922175,,,,,,,,,2357.5068287,2357.5068287,2357.5068287,2357.5068287,2357.5068287,2357.5068287,2357.5068287,2357.5068287,None,None,None,,,,,,,,,,,2346.294699,2346.294699,None,,,,2356.8922175,2356.8922175,2356.8922175,n,0.5504997000001879,2346.294699,2346.294699,2353.8146619999998,2355.8306672,2356.8922175,17,001,2024-07-29_13h19.16.194,robot_sternberg_sign,2022.2.5,60.08384099171855,
"['X', 'C', 'J', 'B']",False,Q,4,letter,4,False,False,"['robot_stimuli\\\\filler.mp4', 'robot_stimuli\\\\filler.mp4', 'robot_stimuli\\\\filler.mp4', 'robot_stimuli\\\\filler.mp4']",robot_stimuli\\filler.mp4,17,,,,,,,,,,,,,0,113,113,113,,,,,,,,,,,,,,,,,2367.2550689,2358.5731467,,,,,,,,,2369.1447788,2369.1447788,2369.1447788,2369.1447788,2369.1447788,2369.1447788,2369.1447788,2369.1447788,None,None,None,,,,,,,,,,,2357.5068287,2357.5068287,None,,,,2368.326769,2368.326769,2368.326769,n,0.7241356000003236,2357.5068287,2357.5068287,2365.0437094999997,2367.2550689,2368.326769,17,001,2024-07-29_13h19.16.194,robot_sternberg_sign,2022.2.5,60.08384099171855,
"['S', 'T', 'W', 'B']",False,R,4,letter,4,False,False,"['robot_stimuli\\\\filler.mp4', 'robot_stimuli\\\\filler.mp4', 'robot_stimuli\\\\filler.mp4', 'robot_stimuli\\\\filler.mp4']",robot_stimuli\\filler.mp4,17,,,,,,,,,,,,,0,114,114,114,,,,,,,,,,,,,,,,,2378.8955562,2379.9555465999997,,,,,,,,,2380.5828407999998,2380.5828407999998,2380.5828407999998,2380.5828407999998,2380.5828407999998,2380.5828407999998,2380.5828407999998,2380.5828407999998,None,None,None,,,,,,,,,,,2369.1447788,2369.1447788,None,,,,2379.9555465999997,2379.9555465999997,2379.9555465999997,n,0.4627564000001314,2369.1447788,2369.1447788,2376.6947022,2378.8955562,2379.9555465999997,17,001,2024-07-29_13h19.16.194,robot_sternberg_sign,2022.2.5,60.08384099171855,
"['G', 'J', 'W', 'N']",False,R,4,letter,4,False,False,"['robot_stimuli\\\\filler.mp4', 'robot_stimuli\\\\filler.mp4', 'robot_stimuli\\\\filler.mp4', 'robot_stimuli\\\\filler.mp4']",robot_stimuli\\filler.mp4,17,,,,,,,,,,,,,0,115,115,115,,,,,,,,,,,,,,,,,2390.5022444,2391.5539528,,,,,,,,,2392.1797745,2392.1797745,2392.1797745,2392.1797745,2392.1797745,2392.1797745,2392.1797745,2392.1797745,None,None,None,,,,,,,,,,,2380.5828407999998,2380.5828407999998,None,,,,2391.5539528,2391.5539528,2391.5539528,n,0.552303599999874,2380.5828407999998,2380.5828407999998,2388.29018,2390.5022444,2391.5539528,17,001,2024-07-29_13h19.16.194,robot_sternberg_sign,2022.2.5,60.08384099171855,
