sequence,is_target,condition,stimuli,block,is_block_beginning,is_block_ending,fname,subject,retraining.thisRepN,retraining.thisTrialN,retraining.thisN,retraining.thisIndex,training.thisRepN,training.thisTrialN,training.thisN,training.thisIndex,trials.thisRepN,trials.thisTrialN,trials.thisN,trials.thisIndex,langage_text.started,langage_key.started,langage_key.keys,langage_key.rt,intro_text.started,intro_key.started,intro_key.keys,intro_key.rt,training_robot_intro_text.started,training_robot_intro_key.started,training_robot_intro_key.keys,training_robot_intro_key.rt,cross.started,cross.stopped,training_letter.started,training_robot_key.started,training_robot_question.started,training_robot_keys.started,training_letter.stopped,training_robot_key.keys,RSME_labels.started,RSME_labels.stopped,RSME_ticks.started,RSME_ticks.stopped,RSME_text.started,RSME_text.stopped,RSME_key.started,RSME_key.stopped,RSME_ticks.response,RSME_ticks.rt,RSME_key.keys,training_robot_intro_text.stopped,training_robot_intro_key.stopped,training_robot_key.rt,RSME_key.rt,training_robot_movie.started,experiment_beginning_text.started,experiment_beginning_keys.started,experiment_beginning_key.started,experiment_beginning_key.keys,experiment_beginning_key.rt,block_intro_text.started,block_intro_key.started,block_intro_key.keys,block_intro_key.rt,letter.started,key.started,letter.stopped,key.keys,block_intro_text.stopped,block_intro_key.stopped,key.rt,movie.started,participant,session,date,expName,psychopyVersion,frameRate,
,,,,,,,,,,,,,,,,,,,,,23.466118299999835,23.466118299999835,f,746.9460035999991,,,,,,,,,,,,,,,,,,,,,,,,,,,,,,,,,,,,,,,,,,,,,,,,,,8,001,2024-06-13_14h42.35.897,robot_nback_sign,2022.2.5,59.83634758934138,
,,,,,,,,,,,,,,,,,,,,,,,,,770.4817091000004,770.4817091000004,space,83.8917137999997,,,,,,,,,,,,,,,,,,,,,,,,,,,,,,,,,,,,,,,,,,,,,,8,001,2024-06-13_14h42.35.897,robot_nback_sign,2022.2.5,59.83634758934138,
C,False,1,letter,1,True,False,robot_stimuli\\filler.mp4,8,0,0,0,0,0,0,0,0,,,,,,,,,,,,,854.4126023999997,854.4126023999997,space,57.01603319999958,911.4607235000003,912.8063124,912.8063124,912.8063124,912.8063124,912.8063124,915.1136471,None,915.1136471,915.1136471,915.1136471,915.1136471,915.1136471,915.1136471,915.1136471,915.1136471,None,None,None,,,,,,,,,,,,,,,,,,,,,,,8,001,2024-06-13_14h42.35.897,robot_nback_sign,2022.2.5,59.83634758934138,
Q,False,1,letter,1,False,False,robot_stimuli\\filler.mp4,8,0,0,0,0,0,1,1,1,,,,,,,,,,,,,915.1136471,915.1136471,None,,915.1136471,,916.1951467999997,916.1951467999997,916.1951467999997,916.1951467999997,918.2242064000002,n,918.2242064000002,918.2242064000002,918.2242064000002,918.2242064000002,918.2242064000002,918.2242064000002,918.2242064000002,918.2242064000002,None,None,None,915.1136471,915.1136471,1.314585199999783,,,,,,,,,,,,,,,,,,,,8,001,2024-06-13_14h42.35.897,robot_nback_sign,2022.2.5,59.83634758934138,
W,False,1,letter,1,False,False,robot_stimuli\\filler.mp4,8,0,0,0,0,0,2,2,2,,,,,,,,,,,,,918.2242064000002,918.2242064000002,None,,918.2242064000002,919.2951297999998,919.2951297999998,919.2951297999998,919.2951297999998,919.2951297999998,921.3265627999999,n,921.3265627999999,921.3265627999999,921.3265627999999,921.3265627999999,921.3265627999999,921.3265627999999,921.3265627999999,921.3265627999999,None,None,None,918.2242064000002,918.2242064000002,1.0617769999998927,,,,,,,,,,,,,,,,,,,,8,001,2024-06-13_14h42.35.897,robot_nback_sign,2022.2.5,59.83634758934138,
W,True,1,letter,1,False,False,robot_stimuli\\filler.mp4,8,0,0,0,0,0,3,3,3,,,,,,,,,,,,,921.3265627999999,921.3265627999999,None,,921.3265627999999,922.3958284999999,922.3958284999999,922.3958284999999,922.3958284999999,922.3958284999999,924.6253445000002,c,924.6253445000002,924.6253445000002,924.6253445000002,924.6253445000002,924.6253445000002,924.6253445000002,924.6253445000002,924.6253445000002,None,None,None,921.3265627999999,921.3265627999999,0.8246164999991379,,,,,,,,,,,,,,,,,,,,8,001,2024-06-13_14h42.35.897,robot_nback_sign,2022.2.5,59.83634758934138,
C,False,1,letter,1,False,False,robot_stimuli\\filler.mp4,8,0,0,0,0,0,4,4,4,,,,,,,,,,,,,924.6253445000002,924.6253445000002,None,,924.6253445000002,925.6987176000002,925.6987176000002,925.6987176000002,925.6987176000002,925.6987176000002,927.9292633000005,n,927.9292633000005,927.9292633000005,927.9292633000005,927.9292633000005,927.9292633000005,927.9292633000005,927.9292633000005,927.9292633000005,None,None,None,924.6253445000002,924.6253445000002,0.8973529999993843,,,,,,,,,,,,,,,,,,,,8,001,2024-06-13_14h42.35.897,robot_nback_sign,2022.2.5,59.83634758934138,
C,True,1,letter,1,False,True,robot_stimuli\\filler.mp4,8,0,0,0,0,0,5,5,5,,,,,,,,,,,,,927.9292633000005,927.9292633000005,None,,927.9292633000005,,929.0073365999997,929.0073365999997,929.0073365999997,929.0073365999997,931.1052577,c,931.1052577,947.2421580999999,931.1052577,947.2421580999999,931.1052577,947.2421580999999,931.1052577,947.2421580999999,10.09259259259259,9.720593299999564,space,927.9292633000005,927.9292633000005,0.8854334999996354,16.091197499999907,,,,,,,,,,,,,,,,,,,8,001,2024-06-13_14h42.35.897,robot_nback_sign,2022.2.5,59.83634758934138,
D,False,2,letter,1,True,False,robot_stimuli\\filler.mp4,8,0,0,0,0,0,6,6,6,,,,,,,,,,,,,947.2421580999999,947.2421580999999,space,6.00374599999941,953.2775147000002,954.3538569000002,954.3538569000002,954.3538569000002,954.3538569000002,954.3538569000002,956.3766856000002,n,956.3766856000002,956.3766856000002,956.3766856000002,956.3766856000002,956.3766856000002,956.3766856000002,956.3766856000002,956.3766856000002,None,None,None,,,1.8033316000000923,,,,,,,,,,,,,,,,,,,,8,001,2024-06-13_14h42.35.897,robot_nback_sign,2022.2.5,59.83634758934138,
X,False,2,letter,1,False,False,robot_stimuli\\filler.mp4,8,0,0,0,0,0,7,7,7,,,,,,,,,,,,,956.3766856000002,956.3766856000002,None,,956.3766856000002,957.4494722,957.4494722,957.4494722,957.4494722,957.4494722,959.6774252000005,n,959.6774252000005,959.6774252000005,959.6774252000005,959.6774252000005,959.6774252000005,959.6774252000005,959.6774252000005,959.6774252000005,None,None,None,956.3766856000002,956.3766856000002,0.7148054999997839,,,,,,,,,,,,,,,,,,,,8,001,2024-06-13_14h42.35.897,robot_nback_sign,2022.2.5,59.83634758934138,
D,True,2,letter,1,False,False,robot_stimuli\\filler.mp4,8,0,0,0,0,0,8,8,8,,,,,,,,,,,,,959.6774252000005,959.6774252000005,None,,959.6774252000005,960.7424220000003,960.7424220000003,960.7424220000003,960.7424220000003,960.7424220000003,962.7703885999999,c,962.7703885999999,962.7703885999999,962.7703885999999,962.7703885999999,962.7703885999999,962.7703885999999,962.7703885999999,962.7703885999999,None,None,None,959.6774252000005,959.6774252000005,0.9507006999992882,,,,,,,,,,,,,,,,,,,,8,001,2024-06-13_14h42.35.897,robot_nback_sign,2022.2.5,59.83634758934138,
X,True,2,letter,1,False,False,robot_stimuli\\filler.mp4,8,0,0,0,0,0,9,9,9,,,,,,,,,,,,,962.7703885999999,962.7703885999999,None,,962.7703885999999,963.8466365000004,963.8466365000004,963.8466365000004,963.8466365000004,963.8466365000004,966.0758674999997,c,966.0758674999997,966.0758674999997,966.0758674999997,966.0758674999997,966.0758674999997,966.0758674999997,966.0758674999997,966.0758674999997,None,None,None,962.7703885999999,962.7703885999999,0.9262054000000717,,,,,,,,,,,,,,,,,,,,8,001,2024-06-13_14h42.35.897,robot_nback_sign,2022.2.5,59.83634758934138,
F,False,2,letter,1,False,False,robot_stimuli\\filler.mp4,8,0,0,0,0,0,10,10,10,,,,,,,,,,,,,966.0758674999997,966.0758674999997,None,,966.0758674999997,967.1512465000005,967.1512465000005,967.1512465000005,967.1512465000005,967.1512465000005,969.1852141999998,n,969.1852141999998,969.1852141999998,969.1852141999998,969.1852141999998,969.1852141999998,969.1852141999998,969.1852141999998,969.1852141999998,None,None,None,966.0758674999997,966.0758674999997,0.7420954999997775,,,,,,,,,,,,,,,,,,,,8,001,2024-06-13_14h42.35.897,robot_nback_sign,2022.2.5,59.83634758934138,
T,False,2,letter,1,False,True,robot_stimuli\\filler.mp4,8,0,0,0,0,0,11,11,11,,,,,,,,,,,,,969.1852141999998,969.1852141999998,None,,969.1852141999998,970.2670014000005,970.2670014000005,970.2670014000005,970.2670014000005,970.2670014000005,972.3300185999997,n,972.3300185999997,978.2605737000004,972.3300185999997,978.2605737000004,972.3300185999997,978.2605737000004,972.3300185999997,978.2605737000004,20.586419753086417,4.475202599999648,space,969.1852141999998,969.1852141999998,0.8987476999991486,5.882235899999614,,,,,,,,,,,,,,,,,,,8,001,2024-06-13_14h42.35.897,robot_nback_sign,2022.2.5,59.83634758934138,
M,False,3,letter,1,True,False,robot_stimuli\\filler.mp4,8,0,0,0,0,0,12,12,12,,,,,,,,,,,,,978.2605737000004,978.2605737000004,space,4.288925299999391,982.5778982000002,983.6501250000001,983.6501250000001,983.6501250000001,983.6501250000001,983.6501250000001,985.8774196000004,n,985.8774196000004,985.8774196000004,985.8774196000004,985.8774196000004,985.8774196000004,985.8774196000004,985.8774196000004,985.8774196000004,None,None,None,,,1.499374699999862,,,,,,,,,,,,,,,,,,,,8,001,2024-06-13_14h42.35.897,robot_nback_sign,2022.2.5,59.83634758934138,
L,False,3,letter,1,False,False,robot_stimuli\\filler.mp4,8,0,0,0,0,0,13,13,13,,,,,,,,,,,,,985.8774196000004,985.8774196000004,None,,985.8774196000004,986.9489009999998,986.9489009999998,986.9489009999998,986.9489009999998,986.9489009999998,988.9830269000004,n,988.9830269000004,988.9830269000004,988.9830269000004,988.9830269000004,988.9830269000004,988.9830269000004,988.9830269000004,988.9830269000004,None,None,None,985.8774196000004,985.8774196000004,0.6479509999999209,,,,,,,,,,,,,,,,,,,,8,001,2024-06-13_14h42.35.897,robot_nback_sign,2022.2.5,59.83634758934138,
P,False,3,letter,1,False,False,robot_stimuli\\filler.mp4,8,0,0,0,0,0,14,14,14,,,,,,,,,,,,,988.9830269000004,988.9830269000004,None,,988.9830269000004,990.0615632999998,990.0615632999998,990.0615632999998,990.0615632999998,990.0615632999998,992.0980501000004,n,992.0980501000004,992.0980501000004,992.0980501000004,992.0980501000004,992.0980501000004,992.0980501000004,992.0980501000004,992.0980501000004,None,None,None,988.9830269000004,988.9830269000004,0.7041342999991684,,,,,,,,,,,,,,,,,,,,8,001,2024-06-13_14h42.35.897,robot_nback_sign,2022.2.5,59.83634758934138,
M,True,3,letter,1,False,False,robot_stimuli\\filler.mp4,8,0,0,0,0,0,15,15,15,,,,,,,,,,,,,992.0980501000004,992.0980501000004,None,,992.0980501000004,993.1769745000001,993.1769745000001,993.1769745000001,993.1769745000001,993.1769745000001,995.2082651000001,c,995.2082651000001,995.2082651000001,995.2082651000001,995.2082651000001,995.2082651000001,995.2082651000001,995.2082651000001,995.2082651000001,None,None,None,992.0980501000004,992.0980501000004,0.8042679000000135,,,,,,,,,,,,,,,,,,,,8,001,2024-06-13_14h42.35.897,robot_nback_sign,2022.2.5,59.83634758934138,
L,True,3,letter,1,False,False,robot_stimuli\\filler.mp4,8,0,0,0,0,0,16,16,16,,,,,,,,,,,,,995.2082651000001,995.2082651000001,None,,995.2082651000001,996.2768629000002,996.2768629000002,996.2768629000002,996.2768629000002,996.2768629000002,998.3106778000001,c,998.3106778000001,998.3106778000001,998.3106778000001,998.3106778000001,998.3106778000001,998.3106778000001,998.3106778000001,998.3106778000001,None,None,None,995.2082651000001,995.2082651000001,1.0234011000002283,,,,,,,,,,,,,,,,,,,,8,001,2024-06-13_14h42.35.897,robot_nback_sign,2022.2.5,59.83634758934138,
G,False,3,letter,1,False,True,robot_stimuli\\filler.mp4,8,0,0,0,0,0,17,17,17,,,,,,,,,,,,,998.3106778000001,998.3106778000001,None,,998.3106778000001,999.3790471000002,999.3790471000002,999.3790471000002,999.3790471000002,999.3790471000002,1001.6383268999998,n,1001.6383268999998,1007.6658895999999,1001.6383268999998,1007.6658895999999,1001.6383268999998,1007.6658895999999,1001.6383268999998,1007.6658895999999,30.61728395061728,4.484016899999915,space,998.3106778000001,998.3106778000001,0.7071335000000545,5.966002199999821,,,,,,,,,,,,,,,,,,,8,001,2024-06-13_14h42.35.897,robot_nback_sign,2022.2.5,59.83634758934138,
R_Torso_X_For,False,1,robot,2,True,False,robot_stimuli\R_Torso_X_For.mp4,8,0,0,0,0,0,18,18,18,,,,,,,,,,,,,1007.6658895999999,1007.6658895999999,space,5.394852200000059,1013.0775211999999,1014.1961182000005,,1014.1961182000005,1014.1961182000005,1014.1961182000005,,n,1017.8285447999997,1017.8285447999997,1017.8285447999997,1017.8285447999997,1017.8285447999997,1017.8285447999997,1017.8285447999997,1017.8285447999997,None,None,None,,,3.0176964000002044,,1014.1961182000005,,,,,,,,,,,,,,,,,,8,001,2024-06-13_14h42.35.897,robot_nback_sign,2022.2.5,59.83634758934138,
R_Torso_X_For,True,1,robot,2,False,False,robot_stimuli\R_Torso_X_For.mp4,8,0,0,0,0,0,19,19,19,,,,,,,,,,,,,1017.8285447999997,1017.8285447999997,None,,1017.8285447999997,1018.9190949000003,,1018.9190949000003,1018.9190949000003,1018.9190949000003,,c,1022.5540043999999,1022.5540043999999,1022.5540043999999,1022.5540043999999,1022.5540043999999,1022.5540043999999,1022.5540043999999,1022.5540043999999,None,None,None,1017.8285447999997,1017.8285447999997,3.1824051000003237,,1018.9190949000003,,,,,,,,,,,,,,,,,,8,001,2024-06-13_14h42.35.897,robot_nback_sign,2022.2.5,59.83634758934138,
R_Torso_X_For,True,1,robot,2,False,False,robot_stimuli\R_Torso_X_For.mp4,8,0,0,0,0,0,20,20,20,,,,,,,,,,,,,1022.5540043999999,1022.5540043999999,None,,1022.5540043999999,1023.6524916999997,,1023.6524916999997,1023.6524916999997,1023.6524916999997,,None,1027.2982596000002,1027.2982596000002,1027.2982596000002,1027.2982596000002,1027.2982596000002,1027.2982596000002,1027.2982596000002,1027.2982596000002,None,None,None,1022.5540043999999,1022.5540043999999,,,1023.6524916999997,,,,,,,,,,,,,,,,,,8,001,2024-06-13_14h42.35.897,robot_nback_sign,2022.2.5,59.83634758934138,
L_Torso_X_Back,False,1,robot,2,False,False,robot_stimuli\L_Torso_X_Back.mp4,8,0,0,0,0,0,21,21,21,,,,,,,,,,,,,1027.2982596000002,1027.2982596000002,None,,1027.2982596000002,1028.4136979000004,,1028.4136979000004,1028.4136979000004,1028.4136979000004,,n,1032.0590597999999,1032.0590597999999,1032.0590597999999,1032.0590597999999,1032.0590597999999,1032.0590597999999,1032.0590597999999,1032.0590597999999,None,None,None,1027.2982596000002,1027.2982596000002,1.4963283999995838,,1028.4136979000004,,,,,,,,,,,,,,,,,,8,001,2024-06-13_14h42.35.897,robot_nback_sign,2022.2.5,59.83634758934138,
R_Arm_Z_For,False,1,robot,2,False,False,robot_stimuli\R_Arm_Z_For.mp4,8,0,0,0,0,0,22,22,22,,,,,,,,,,,,,1032.0590597999999,1032.0590597999999,None,,1032.0590597999999,1033.1655913000004,,1033.1655913000004,1033.1655913000004,1033.1655913000004,,n,1036.8094772000004,1036.8094772000004,1036.8094772000004,1036.8094772000004,1036.8094772000004,1036.8094772000004,1036.8094772000004,1036.8094772000004,None,None,None,1032.0590597999999,1032.0590597999999,2.03163399999994,,1033.1655913000004,,,,,,,,,,,,,,,,,,8,001,2024-06-13_14h42.35.897,robot_nback_sign,2022.2.5,59.83634758934138,
L_Torso_X_Back,False,1,robot,2,False,True,robot_stimuli\L_Torso_X_Back.mp4,8,0,0,0,0,0,23,23,23,,,,,,,,,,,,,1036.8094772000004,1036.8094772000004,None,,1036.8094772000004,1037.9040962,,1037.9040962,1037.9040962,1037.9040962,,n,1041.5764092,1047.5718889999998,1041.5764092,1047.5718889999998,1041.5764092,1047.5718889999998,1041.5764092,1047.5718889999998,18.580246913580243,4.303761299999678,space,1036.8094772000004,1036.8094772000004,1.9806816999998773,5.933553900000334,1037.9040962,,,,,,,,,,,,,,,,,,8,001,2024-06-13_14h42.35.897,robot_nback_sign,2022.2.5,59.83634758934138,
L_Base_Y_Back,False,2,robot,2,True,False,robot_stimuli\L_Base_Y_Back.mp4,8,0,0,0,0,0,24,24,24,,,,,,,,,,,,,1047.5718889999998,1047.5718889999998,space,5.049445900000137,1052.6443424999998,1053.7449820000002,,1053.7449820000002,1053.7449820000002,1053.7449820000002,,None,1057.3303522000006,1057.3303522000006,1057.3303522000006,1057.3303522000006,1057.3303522000006,1057.3303522000006,1057.3303522000006,1057.3303522000006,None,None,None,,,,,1053.7449820000002,,,,,,,,,,,,,,,,,,8,001,2024-06-13_14h42.35.897,robot_nback_sign,2022.2.5,59.83634758934138,
R_Head_X_For,False,2,robot,2,False,False,robot_stimuli\R_Head_X_For.mp4,8,0,0,0,0,0,25,25,25,,,,,,,,,,,,,1057.3303522000006,1057.3303522000006,None,,1057.3303522000006,,,1058.4402765000004,1058.4402765000004,1058.4402765000004,,None,1062.0986626000004,1062.0986626000004,1062.0986626000004,1062.0986626000004,1062.0986626000004,1062.0986626000004,1062.0986626000004,1062.0986626000004,None,None,None,1057.3303522000006,1057.3303522000006,,,1058.4402765000004,,,,,,,,,,,,,,,,,,8,001,2024-06-13_14h42.35.897,robot_nback_sign,2022.2.5,59.83634758934138,
L_Torso_Z_Back,False,2,robot,2,False,False,robot_stimuli\L_Torso_Z_Back.mp4,8,0,0,0,0,0,26,26,26,,,,,,,,,,,,,1062.0986626000004,1062.0986626000004,None,,1062.0986626000004,1063.2040610000004,,1063.2040610000004,1063.2040610000004,1063.2040610000004,,c,1066.7129780000005,1066.7129780000005,1066.7129780000005,1066.7129780000005,1066.7129780000005,1066.7129780000005,1066.7129780000005,1066.7129780000005,None,None,None,1062.0986626000004,1062.0986626000004,2.856229899999562,,1063.2040610000004,,,,,,,,,,,,,,,,,,8,001,2024-06-13_14h42.35.897,robot_nback_sign,2022.2.5,59.83634758934138,
R_Arm_Z_Back,False,2,robot,2,False,False,robot_stimuli\R_Arm_Z_Back.mp4,8,0,0,0,0,0,27,27,27,,,,,,,,,,,,,1066.7129780000005,1066.7129780000005,None,,1066.7129780000005,,,1067.8199757000002,1067.8199757000002,1067.8199757000002,,n,1071.4552543999998,1071.4552543999998,1071.4552543999998,1071.4552543999998,1071.4552543999998,1071.4552543999998,1071.4552543999998,1071.4552543999998,None,None,None,1066.7129780000005,1066.7129780000005,1.3211176999993768,,1067.8199757000002,,,,,,,,,,,,,,,,,,8,001,2024-06-13_14h42.35.897,robot_nback_sign,2022.2.5,59.83634758934138,
L_Torso_Z_Back,True,2,robot,2,False,False,robot_stimuli\L_Torso_Z_Back.mp4,8,0,0,0,0,0,28,28,28,,,,,,,,,,,,,1071.4552543999998,1071.4552543999998,None,,1071.4552543999998,1072.5534601,,1072.5534601,1072.5534601,1072.5534601,,c,1076.0639581000005,1076.0639581000005,1076.0639581000005,1076.0639581000005,1076.0639581000005,1076.0639581000005,1076.0639581000005,1076.0639581000005,None,None,None,1071.4552543999998,1071.4552543999998,1.8826155999995535,,1072.5534601,,,,,,,,,,,,,,,,,,8,001,2024-06-13_14h42.35.897,robot_nback_sign,2022.2.5,59.83634758934138,
R_Arm_Z_Back,True,2,robot,2,False,True,robot_stimuli\R_Arm_Z_Back.mp4,8,0,0,0,0,0,29,29,29,,,,,,,,,,,,,1076.0639581000005,1076.0639581000005,None,,1076.0639581000005,,,1077.1693003999999,1077.1693003999999,1077.1693003999999,,c,1080.8399258,1085.7194672000005,1080.8399258,1085.7194672000005,1080.8399258,1085.7194672000005,1080.8399258,1085.7194672000005,41.7283950617284,2.749192100000073,space,1076.0639581000005,1076.0639581000005,3.4277431999998953,4.836328200000025,1077.1693003999999,,,,,,,,,,,,,,,,,,8,001,2024-06-13_14h42.35.897,robot_nback_sign,2022.2.5,59.83634758934138,
L_Arm_Z_Back,False,3,robot,2,True,False,robot_stimuli\L_Arm_Z_Back.mp4,8,0,0,0,0,0,30,30,30,,,,,,,,,,,,,1085.7194672000005,1085.7194672000005,space,2.2373889000000418,1087.9775250000002,1089.0616639999998,,1089.0616639999998,1089.0616639999998,1089.0616639999998,,None,1092.7137109000005,1092.7137109000005,1092.7137109000005,1092.7137109000005,1092.7137109000005,1092.7137109000005,1092.7137109000005,1092.7137109000005,None,None,None,,,,,1089.0616639999998,,,,,,,,,,,,,,,,,,8,001,2024-06-13_14h42.35.897,robot_nback_sign,2022.2.5,59.83634758934138,
R_Arm_X_Back,False,3,robot,2,False,False,robot_stimuli\R_Arm_X_Back.mp4,8,0,0,0,0,0,31,31,31,,,,,,,,,,,,,1092.7137109000005,1092.7137109000005,None,,1092.7137109000005,,,1093.8205163000002,1093.8205163000002,1093.8205163000002,,None,1097.4617612000002,1097.4617612000002,1097.4617612000002,1097.4617612000002,1097.4617612000002,1097.4617612000002,1097.4617612000002,1097.4617612000002,None,None,None,1092.7137109000005,1092.7137109000005,,,1093.8205163000002,,,,,,,,,,,,,,,,,,8,001,2024-06-13_14h42.35.897,robot_nback_sign,2022.2.5,59.83634758934138,
L_Head_Y_Back,False,3,robot,2,False,False,robot_stimuli\L_Head_Y_Back.mp4,8,0,0,0,0,0,32,32,32,,,,,,,,,,,,,1097.4617612000002,1097.4617612000002,None,,1097.4617612000002,1098.5447445999998,,1098.5447445999998,1098.5447445999998,1098.5447445999998,,None,1102.1864267,1102.1864267,1102.1864267,1102.1864267,1102.1864267,1102.1864267,1102.1864267,1102.1864267,None,None,None,1097.4617612000002,1097.4617612000002,,,1098.5447445999998,,,,,,,,,,,,,,,,,,8,001,2024-06-13_14h42.35.897,robot_nback_sign,2022.2.5,59.83634758934138,
L_Arm_Z_Back,True,3,robot,2,False,False,robot_stimuli\L_Arm_Z_Back.mp4,8,0,0,0,0,0,33,33,33,,,,,,,,,,,,,1102.1864267,1102.1864267,None,,1102.1864267,1103.2788325000001,,1103.2788325000001,1103.2788325000001,1103.2788325000001,,c,1106.9304350000002,1106.9304350000002,1106.9304350000002,1106.9304350000002,1106.9304350000002,1106.9304350000002,1106.9304350000002,1106.9304350000002,None,None,None,1102.1864267,1102.1864267,1.8295901999999842,,1103.2788325000001,,,,,,,,,,,,,,,,,,8,001,2024-06-13_14h42.35.897,robot_nback_sign,2022.2.5,59.83634758934138,
L_Head_Y_Back,False,3,robot,2,False,False,robot_stimuli\L_Head_Y_Back.mp4,8,0,0,0,0,0,34,34,34,,,,,,,,,,,,,1106.9304350000002,1106.9304350000002,None,,1106.9304350000002,,,1108.0267768000003,1108.0267768000003,1108.0267768000003,,n,1111.6763717000003,1111.6763717000003,1111.6763717000003,1111.6763717000003,1111.6763717000003,1111.6763717000003,1111.6763717000003,1111.6763717000003,None,None,None,1106.9304350000002,1106.9304350000002,2.521627599999192,,1108.0267768000003,,,,,,,,,,,,,,,,,,8,001,2024-06-13_14h42.35.897,robot_nback_sign,2022.2.5,59.83634758934138,
L_Head_Y_Back,True,3,robot,2,False,True,robot_stimuli\L_Head_Y_Back.mp4,8,0,0,0,0,0,35,35,35,,,,,,,,,,,,,1111.6763717000003,1111.6763717000003,None,,1111.6763717000003,1112.7595004000004,,1112.7595004000004,1112.7595004000004,1112.7595004000004,,n,1116.4407356000002,1122.9056857000005,1116.4407356000002,1122.9056857000005,1116.4407356000002,1122.9056857000005,1116.4407356000002,1122.9056857000005,56.38888888888889,3.4678384999997434,space,1111.6763717000003,1111.6763717000003,2.2704438999999184,6.411739999999554,1112.7595004000004,,,,,,,,,,,,,,,,,,8,001,2024-06-13_14h42.35.897,robot_nback_sign,2022.2.5,59.83634758934138,
,,,,,,,,,0,0,0,0,,,,,,,,,,,,,,,,,,,,,,,,,,,,,,,,,,,,,,,,,,,,,1122.9056857000005,1122.9056857000005,1122.9056857000005,c,30.610658099999455,,,,,,,,,,,,,8,001,2024-06-13_14h42.35.897,robot_nback_sign,2022.2.5,59.83634758934138,
G,False,3,letter,1,True,False,robot_stimuli\\filler.mp4,8,,,,,,,,,0,0,0,0,,,,,,,,,,,,,1158.2942942999998,1159.3494779000002,,,,,,,1161.5842610999998,1161.5842610999998,1161.5842610999998,1161.5842610999998,1161.5842610999998,1161.5842610999998,1161.5842610999998,1161.5842610999998,None,None,None,,,,,,,,,,,1153.5840669,1153.5840669,space,4.684272299999975,1159.3494779000002,1159.3494779000002,1161.5842610999998,None,,,,,8,001,2024-06-13_14h42.35.897,robot_nback_sign,2022.2.5,59.83634758934138,
N,False,3,letter,1,False,False,robot_stimuli\\filler.mp4,8,,,,,,,,,0,1,1,1,,,,,,,,,,,,,1161.5842610999998,1162.6611377,,,,,,,1164.6954579000003,1164.6954579000003,1164.6954579000003,1164.6954579000003,1164.6954579000003,1164.6954579000003,1164.6954579000003,1164.6954579000003,None,None,None,,,,,,,,,,,1161.5842610999998,1161.5842610999998,None,,1162.6611377,1162.6611377,1164.6954579000003,None,1161.5842610999998,1161.5842610999998,,,8,001,2024-06-13_14h42.35.897,robot_nback_sign,2022.2.5,59.83634758934138,
X,False,3,letter,1,False,False,robot_stimuli\\filler.mp4,8,,,,,,,,,0,2,2,2,,,,,,,,,,,,,1164.6954579000003,1165.7476933999997,,,,,,,1167.9807169000005,1167.9807169000005,1167.9807169000005,1167.9807169000005,1167.9807169000005,1167.9807169000005,1167.9807169000005,1167.9807169000005,None,None,None,,,,,,,,,,,1164.6954579000003,1164.6954579000003,None,,1165.7476933999997,1165.7476933999997,1167.9807169000005,None,1164.6954579000003,1164.6954579000003,,,8,001,2024-06-13_14h42.35.897,robot_nback_sign,2022.2.5,59.83634758934138,
T,False,3,letter,1,False,False,robot_stimuli\\filler.mp4,8,,,,,,,,,0,3,3,3,,,,,,,,,,,,,1167.9807169000005,,,,,,,,1171.2817610000002,1171.2817610000002,1171.2817610000002,1171.2817610000002,1171.2817610000002,1171.2817610000002,1171.2817610000002,1171.2817610000002,None,None,None,,,,,,,,,,,1167.9807169000005,1167.9807169000005,None,,1169.0483736000006,1169.0483736000006,1171.2817610000002,n,1167.9807169000005,1167.9807169000005,0.6528033999993568,,8,001,2024-06-13_14h42.35.897,robot_nback_sign,2022.2.5,59.83634758934138,
N,True,3,letter,1,False,False,robot_stimuli\\filler.mp4,8,,,,,,,,,0,4,4,4,,,,,,,,,,,,,1171.2817610000002,1172.3480983999998,,,,,,,1174.5754901,1174.5754901,1174.5754901,1174.5754901,1174.5754901,1174.5754901,1174.5754901,1174.5754901,None,None,None,,,,,,,,,,,1171.2817610000002,1171.2817610000002,None,,1172.3480983999998,1172.3480983999998,1174.5754901,c,1171.2817610000002,1171.2817610000002,1.4240265999997064,,8,001,2024-06-13_14h42.35.897,robot_nback_sign,2022.2.5,59.83634758934138,
X,True,3,letter,1,False,False,robot_stimuli\\filler.mp4,8,,,,,,,,,0,5,5,5,,,,,,,,,,,,,1174.5754901,1175.6322608,,,,,,,1177.8603132999997,1177.8603132999997,1177.8603132999997,1177.8603132999997,1177.8603132999997,1177.8603132999997,1177.8603132999997,1177.8603132999997,None,None,None,,,,,,,,,,,1174.5754901,1174.5754901,None,,1175.6322608,1175.6322608,1177.8603132999997,c,1174.5754901,1174.5754901,1.293628099999296,,8,001,2024-06-13_14h42.35.897,robot_nback_sign,2022.2.5,59.83634758934138,
Z,False,3,letter,1,False,False,robot_stimuli\\filler.mp4,8,,,,,,,,,0,6,6,6,,,,,,,,,,,,,1177.8603132999997,1178.9150504999998,,,,,,,1181.1469581000001,1181.1469581000001,1181.1469581000001,1181.1469581000001,1181.1469581000001,1181.1469581000001,1181.1469581000001,1181.1469581000001,None,None,None,,,,,,,,,,,1177.8603132999997,1177.8603132999997,None,,1178.9150504999998,1178.9150504999998,1181.1469581000001,n,1177.8603132999997,1177.8603132999997,0.714712299999519,,8,001,2024-06-13_14h42.35.897,robot_nback_sign,2022.2.5,59.83634758934138,
N,True,3,letter,1,False,False,robot_stimuli\\filler.mp4,8,,,,,,,,,0,7,7,7,,,,,,,,,,,,,1181.1469581000001,,,,,,,,1184.2464295999998,1184.2464295999998,1184.2464295999998,1184.2464295999998,1184.2464295999998,1184.2464295999998,1184.2464295999998,1184.2464295999998,None,None,None,,,,,,,,,,,1181.1469581000001,1181.1469581000001,None,,1182.2150571000002,1182.2150571000002,1184.2464295999998,c,1181.1469581000001,1181.1469581000001,1.0613327999999456,,8,001,2024-06-13_14h42.35.897,robot_nback_sign,2022.2.5,59.83634758934138,
C,False,3,letter,1,False,False,robot_stimuli\\filler.mp4,8,,,,,,,,,0,8,8,8,,,,,,,,,,,,,1184.2464295999998,,,,,,,,1187.5496816000004,1187.5496816000004,1187.5496816000004,1187.5496816000004,1187.5496816000004,1187.5496816000004,1187.5496816000004,1187.5496816000004,None,None,None,,,,,,,,,,,1184.2464295999998,1184.2464295999998,None,,1185.3148806999998,1185.3148806999998,1187.5496816000004,n,1184.2464295999998,1184.2464295999998,1.106365800000276,,8,001,2024-06-13_14h42.35.897,robot_nback_sign,2022.2.5,59.83634758934138,
V,False,3,letter,1,False,False,robot_stimuli\\filler.mp4,8,,,,,,,,,0,9,9,9,,,,,,,,,,,,,1187.5496816000004,1188.6171513999998,,,,,,,1190.6437065999999,1190.6437065999999,1190.6437065999999,1190.6437065999999,1190.6437065999999,1190.6437065999999,1190.6437065999999,1190.6437065999999,None,None,None,,,,,,,,,,,1187.5496816000004,1187.5496816000004,None,,1188.6171513999998,1188.6171513999998,1190.6437065999999,n,1187.5496816000004,1187.5496816000004,0.7084305999997014,,8,001,2024-06-13_14h42.35.897,robot_nback_sign,2022.2.5,59.83634758934138,
Q,False,3,letter,1,False,False,robot_stimuli\\filler.mp4,8,,,,,,,,,0,10,10,10,,,,,,,,,,,,,1190.6437065999999,1191.6977293,,,,,,,1193.9237727999998,1193.9237727999998,1193.9237727999998,1193.9237727999998,1193.9237727999998,1193.9237727999998,1193.9237727999998,1193.9237727999998,None,None,None,,,,,,,,,,,1190.6437065999999,1190.6437065999999,None,,1191.6977293,1191.6977293,1193.9237727999998,n,1190.6437065999999,1190.6437065999999,0.60391940000045,,8,001,2024-06-13_14h42.35.897,robot_nback_sign,2022.2.5,59.83634758934138,
G,False,3,letter,1,False,False,robot_stimuli\\filler.mp4,8,,,,,,,,,0,11,11,11,,,,,,,,,,,,,1193.9237727999998,1194.9808571000003,,,,,,,1197.2095225000003,1197.2095225000003,1197.2095225000003,1197.2095225000003,1197.2095225000003,1197.2095225000003,1197.2095225000003,1197.2095225000003,None,None,None,,,,,,,,,,,1193.9237727999998,1193.9237727999998,None,,1194.9808571000003,1194.9808571000003,1197.2095225000003,n,1193.9237727999998,1193.9237727999998,1.06511429999955,,8,001,2024-06-13_14h42.35.897,robot_nback_sign,2022.2.5,59.83634758934138,
X,False,3,letter,1,False,False,robot_stimuli\\filler.mp4,8,,,,,,,,,0,12,12,12,,,,,,,,,,,,,1197.2095225000003,1198.2653085000002,,,,,,,1200.4895612,1200.4895612,1200.4895612,1200.4895612,1200.4895612,1200.4895612,1200.4895612,1200.4895612,None,None,None,,,,,,,,,,,1197.2095225000003,1197.2095225000003,None,,1198.2653085000002,1198.2653085000002,1200.4895612,n,1197.2095225000003,1197.2095225000003,0.9402659999996104,,8,001,2024-06-13_14h42.35.897,robot_nback_sign,2022.2.5,59.83634758934138,
Q,True,3,letter,1,False,False,robot_stimuli\\filler.mp4,8,,,,,,,,,0,13,13,13,,,,,,,,,,,,,1200.4895612,1201.5490854,,,,,,,1203.5832898999997,1203.5832898999997,1203.5832898999997,1203.5832898999997,1203.5832898999997,1203.5832898999997,1203.5832898999997,1203.5832898999997,None,None,None,,,,,,,,,,,1200.4895612,1200.4895612,None,,1201.5490854,1201.5490854,1203.5832898999997,c,1200.4895612,1200.4895612,0.8962880999988556,,8,001,2024-06-13_14h42.35.897,robot_nback_sign,2022.2.5,59.83634758934138,
M,False,3,letter,1,False,False,robot_stimuli\\filler.mp4,8,,,,,,,,,0,14,14,14,,,,,,,,,,,,,1203.5832898999997,1204.6484047000004,,,,,,,1206.8820235000003,1206.8820235000003,1206.8820235000003,1206.8820235000003,1206.8820235000003,1206.8820235000003,1206.8820235000003,1206.8820235000003,None,None,None,,,,,,,,,,,1203.5832898999997,1203.5832898999997,None,,1204.6484047000004,1204.6484047000004,1206.8820235000003,n,1203.5832898999997,1203.5832898999997,0.8213744000004226,,8,001,2024-06-13_14h42.35.897,robot_nback_sign,2022.2.5,59.83634758934138,
V,False,3,letter,1,False,False,robot_stimuli\\filler.mp4,8,,,,,,,,,0,15,15,15,,,,,,,,,,,,,1206.8820235000003,1207.9481117000005,,,,,,,1209.9815010000002,1209.9815010000002,1209.9815010000002,1209.9815010000002,1209.9815010000002,1209.9815010000002,1209.9815010000002,1209.9815010000002,None,None,None,,,,,,,,,,,1206.8820235000003,1206.8820235000003,None,,1207.9481117000005,1207.9481117000005,1209.9815010000002,n,1206.8820235000003,1206.8820235000003,0.6099823999993532,,8,001,2024-06-13_14h42.35.897,robot_nback_sign,2022.2.5,59.83634758934138,
S,False,3,letter,1,False,False,robot_stimuli\\filler.mp4,8,,,,,,,,,0,16,16,16,,,,,,,,,,,,,1209.9815010000002,1211.0517258,,,,,,,1213.0769792,1213.0769792,1213.0769792,1213.0769792,1213.0769792,1213.0769792,1213.0769792,1213.0769792,None,None,None,,,,,,,,,,,1209.9815010000002,1209.9815010000002,None,,1211.0517258,1211.0517258,1213.0769792,n,1209.9815010000002,1209.9815010000002,0.7451639999999315,,8,001,2024-06-13_14h42.35.897,robot_nback_sign,2022.2.5,59.83634758934138,
S,False,3,letter,1,False,False,robot_stimuli\\filler.mp4,8,,,,,,,,,0,17,17,17,,,,,,,,,,,,,1213.0769792,1214.1297295000004,,,,,,,1216.3566004000004,1216.3566004000004,1216.3566004000004,1216.3566004000004,1216.3566004000004,1216.3566004000004,1216.3566004000004,1216.3566004000004,None,None,None,,,,,,,,,,,1213.0769792,1213.0769792,None,,1214.1297295000004,1214.1297295000004,1216.3566004000004,n,1213.0769792,1213.0769792,0.9717793999998321,,8,001,2024-06-13_14h42.35.897,robot_nback_sign,2022.2.5,59.83634758934138,
J,False,3,letter,1,False,False,robot_stimuli\\filler.mp4,8,,,,,,,,,0,18,18,18,,,,,,,,,,,,,1216.3566004000004,1217.4205713000001,,,,,,,1219.4450383000003,1219.4450383000003,1219.4450383000003,1219.4450383000003,1219.4450383000003,1219.4450383000003,1219.4450383000003,1219.4450383000003,None,None,None,,,,,,,,,,,1216.3566004000004,1216.3566004000004,None,,1217.4205713000001,1217.4205713000001,1219.4450383000003,n,1216.3566004000004,1216.3566004000004,0.7195671999998012,,8,001,2024-06-13_14h42.35.897,robot_nback_sign,2022.2.5,59.83634758934138,
H,False,3,letter,1,False,False,robot_stimuli\\filler.mp4,8,,,,,,,,,0,19,19,19,,,,,,,,,,,,,1219.4450383000003,1220.4990958999997,,,,,,,1222.7314875000002,1222.7314875000002,1222.7314875000002,1222.7314875000002,1222.7314875000002,1222.7314875000002,1222.7314875000002,1222.7314875000002,None,None,None,,,,,,,,,,,1219.4450383000003,1219.4450383000003,None,,1220.4990958999997,1220.4990958999997,1222.7314875000002,n,1219.4450383000003,1219.4450383000003,0.6891410999996879,,8,001,2024-06-13_14h42.35.897,robot_nback_sign,2022.2.5,59.83634758934138,
D,False,3,letter,1,False,False,robot_stimuli\\filler.mp4,8,,,,,,,,,0,20,20,20,,,,,,,,,,,,,1222.7314875000002,1223.7969837,,,,,,,1225.8292550000006,1225.8292550000006,1225.8292550000006,1225.8292550000006,1225.8292550000006,1225.8292550000006,1225.8292550000006,1225.8292550000006,None,None,None,,,,,,,,,,,1222.7314875000002,1222.7314875000002,None,,1223.7969837,1223.7969837,1225.8292550000006,n,1222.7314875000002,1222.7314875000002,0.6559023999998317,,8,001,2024-06-13_14h42.35.897,robot_nback_sign,2022.2.5,59.83634758934138,
F,False,3,letter,1,False,False,robot_stimuli\\filler.mp4,8,,,,,,,,,0,21,21,21,,,,,,,,,,,,,1225.8292550000006,,,,,,,,1228.9343774999998,1228.9343774999998,1228.9343774999998,1228.9343774999998,1228.9343774999998,1228.9343774999998,1228.9343774999998,1228.9343774999998,None,None,None,,,,,,,,,,,1225.8292550000006,1225.8292550000006,None,,1226.9012801,1226.9012801,1228.9343774999998,n,1225.8292550000006,1225.8292550000006,0.5845288999998957,,8,001,2024-06-13_14h42.35.897,robot_nback_sign,2022.2.5,59.83634758934138,
V,False,3,letter,1,False,False,robot_stimuli\\filler.mp4,8,,,,,,,,,0,22,22,22,,,,,,,,,,,,,1228.9343774999998,1229.9989464999999,,,,,,,1232.2282755000006,1232.2282755000006,1232.2282755000006,1232.2282755000006,1232.2282755000006,1232.2282755000006,1232.2282755000006,1232.2282755000006,None,None,None,,,,,,,,,,,1228.9343774999998,1228.9343774999998,None,,1229.9989464999999,1229.9989464999999,1232.2282755000006,n,1228.9343774999998,1228.9343774999998,0.9811138999994,,8,001,2024-06-13_14h42.35.897,robot_nback_sign,2022.2.5,59.83634758934138,
Q,False,3,letter,1,False,False,robot_stimuli\\filler.mp4,8,,,,,,,,,0,23,23,23,,,,,,,,,,,,,1232.2282755000006,1233.2944018999997,,,,,,,1235.3181960000002,1235.3181960000002,1235.3181960000002,1235.3181960000002,1235.3181960000002,1235.3181960000002,1235.3181960000002,1235.3181960000002,None,None,None,,,,,,,,,,,1232.2282755000006,1232.2282755000006,None,,1233.2944018999997,1233.2944018999997,1235.3181960000002,n,1232.2282755000006,1232.2282755000006,0.6715898000002198,,8,001,2024-06-13_14h42.35.897,robot_nback_sign,2022.2.5,59.83634758934138,
Z,False,3,letter,1,False,False,robot_stimuli\\filler.mp4,8,,,,,,,,,0,24,24,24,,,,,,,,,,,,,1235.3181960000002,1236.3818700000002,,,,,,,1238.6090589000005,1238.6090589000005,1238.6090589000005,1238.6090589000005,1238.6090589000005,1238.6090589000005,1238.6090589000005,1238.6090589000005,None,None,None,,,,,,,,,,,1235.3181960000002,1235.3181960000002,None,,1236.3818700000002,1236.3818700000002,1238.6090589000005,n,1235.3181960000002,1235.3181960000002,0.6464750999994067,,8,001,2024-06-13_14h42.35.897,robot_nback_sign,2022.2.5,59.83634758934138,
T,False,3,letter,1,False,False,robot_stimuli\\filler.mp4,8,,,,,,,,,0,25,25,25,,,,,,,,,,,,,1238.6090589000005,1239.6682565,,,,,,,1241.8964115999997,1241.8964115999997,1241.8964115999997,1241.8964115999997,1241.8964115999997,1241.8964115999997,1241.8964115999997,1241.8964115999997,None,None,None,,,,,,,,,,,1238.6090589000005,1238.6090589000005,None,,1239.6682565,1239.6682565,1241.8964115999997,n,1238.6090589000005,1238.6090589000005,0.7124868000000788,,8,001,2024-06-13_14h42.35.897,robot_nback_sign,2022.2.5,59.83634758934138,
Q,True,3,letter,1,False,False,robot_stimuli\\filler.mp4,8,,,,,,,,,0,26,26,26,,,,,,,,,,,,,1241.8964115999997,,,,,,,,1245.1950748999998,1245.1950748999998,1245.1950748999998,1245.1950748999998,1245.1950748999998,1245.1950748999998,1245.1950748999998,1245.1950748999998,None,None,None,,,,,,,,,,,1241.8964115999997,1241.8964115999997,None,,1242.9639819000004,1242.9639819000004,1245.1950748999998,c,1241.8964115999997,1241.8964115999997,0.8492960000003222,,8,001,2024-06-13_14h42.35.897,robot_nback_sign,2022.2.5,59.83634758934138,
L,False,3,letter,1,False,False,robot_stimuli\\filler.mp4,8,,,,,,,,,0,27,27,27,,,,,,,,,,,,,1245.1950748999998,1246.2469690999997,,,,,,,1248.4804931999997,1248.4804931999997,1248.4804931999997,1248.4804931999997,1248.4804931999997,1248.4804931999997,1248.4804931999997,1248.4804931999997,None,None,None,,,,,,,,,,,1245.1950748999998,1245.1950748999998,None,,1246.2469690999997,1246.2469690999997,1248.4804931999997,n,1245.1950748999998,1245.1950748999998,0.6066768999999113,,8,001,2024-06-13_14h42.35.897,robot_nback_sign,2022.2.5,59.83634758934138,
R,False,3,letter,1,False,False,robot_stimuli\\filler.mp4,8,,,,,,,,,0,28,28,28,,,,,,,,,,,,,1248.4804931999997,,,,,,,,1251.7768050000004,1251.7768050000004,1251.7768050000004,1251.7768050000004,1251.7768050000004,1251.7768050000004,1251.7768050000004,1251.7768050000004,None,None,None,,,,,,,,,,,1248.4804931999997,1248.4804931999997,None,,1249.5473257000003,1249.5473257000003,1251.7768050000004,n,1248.4804931999997,1248.4804931999997,0.7859903999997186,,8,001,2024-06-13_14h42.35.897,robot_nback_sign,2022.2.5,59.83634758934138,
T,False,3,letter,1,False,False,robot_stimuli\\filler.mp4,8,,,,,,,,,0,29,29,29,,,,,,,,,,,,,1251.7768050000004,1252.8414752999997,,,,,,,1254.8670766000005,1254.8670766000005,1254.8670766000005,1254.8670766000005,1254.8670766000005,1254.8670766000005,1254.8670766000005,1254.8670766000005,None,None,None,,,,,,,,,,,1251.7768050000004,1251.7768050000004,None,,1252.8414752999997,1252.8414752999997,1254.8670766000005,n,1251.7768050000004,1251.7768050000004,0.8836667999994461,,8,001,2024-06-13_14h42.35.897,robot_nback_sign,2022.2.5,59.83634758934138,
C,False,3,letter,1,False,False,robot_stimuli\\filler.mp4,8,,,,,,,,,0,30,30,30,,,,,,,,,,,,,1254.8670766000005,1255.9327545000006,,,,,,,1258.1584699000005,1258.1584699000005,1258.1584699000005,1258.1584699000005,1258.1584699000005,1258.1584699000005,1258.1584699000005,1258.1584699000005,None,None,None,,,,,,,,,,,1254.8670766000005,1254.8670766000005,None,,1255.9327545000006,1255.9327545000006,1258.1584699000005,n,1254.8670766000005,1254.8670766000005,0.937428700000055,,8,001,2024-06-13_14h42.35.897,robot_nback_sign,2022.2.5,59.83634758934138,
R,True,3,letter,1,False,False,robot_stimuli\\filler.mp4,8,,,,,,,,,0,31,31,31,,,,,,,,,,,,,1258.1584699000005,1259.2151898000002,,,,,,,1261.4461904999998,1261.4461904999998,1261.4461904999998,1261.4461904999998,1261.4461904999998,1261.4461904999998,1261.4461904999998,1261.4461904999998,None,None,None,,,,,,,,,,,1258.1584699000005,1258.1584699000005,None,,1259.2151898000002,1259.2151898000002,1261.4461904999998,c,1258.1584699000005,1258.1584699000005,0.941632799999752,,8,001,2024-06-13_14h42.35.897,robot_nback_sign,2022.2.5,59.83634758934138,
T,True,3,letter,1,False,False,robot_stimuli\\filler.mp4,8,,,,,,,,,0,32,32,32,,,,,,,,,,,,,1261.4461904999998,,,,,,,,1264.7376904000002,1264.7376904000002,1264.7376904000002,1264.7376904000002,1264.7376904000002,1264.7376904000002,1264.7376904000002,1264.7376904000002,None,None,None,,,,,,,,,,,1261.4461904999998,1261.4461904999998,None,,1262.5146492000003,1262.5146492000003,1264.7376904000002,c,1261.4461904999998,1261.4461904999998,1.0825049999994008,,8,001,2024-06-13_14h42.35.897,robot_nback_sign,2022.2.5,59.83634758934138,
X,False,3,letter,1,False,False,robot_stimuli\\filler.mp4,8,,,,,,,,,0,33,33,33,,,,,,,,,,,,,1264.7376904000002,1265.7981140000002,,,,,,,1268.0279111999998,1268.0279111999998,1268.0279111999998,1268.0279111999998,1268.0279111999998,1268.0279111999998,1268.0279111999998,1268.0279111999998,None,None,None,,,,,,,,,,,1264.7376904000002,1264.7376904000002,None,,1265.7981140000002,1265.7981140000002,1268.0279111999998,n,1264.7376904000002,1264.7376904000002,0.5907881999992242,,8,001,2024-06-13_14h42.35.897,robot_nback_sign,2022.2.5,59.83634758934138,
J,False,3,letter,1,False,False,robot_stimuli\\filler.mp4,8,,,,,,,,,0,34,34,34,,,,,,,,,,,,,1268.0279111999998,1269.0811586999998,,,,,,,1271.3078743000005,1271.3078743000005,1271.3078743000005,1271.3078743000005,1271.3078743000005,1271.3078743000005,1271.3078743000005,1271.3078743000005,None,None,None,,,,,,,,,,,1268.0279111999998,1268.0279111999998,None,,1269.0811586999998,1269.0811586999998,1271.3078743000005,n,1268.0279111999998,1268.0279111999998,0.6356805999994322,,8,001,2024-06-13_14h42.35.897,robot_nback_sign,2022.2.5,59.83634758934138,
L,False,3,letter,1,False,False,robot_stimuli\\filler.mp4,8,,,,,,,,,0,35,35,35,,,,,,,,,,,,,1271.3078743000005,1272.3657576000005,,,,,,,1274.5955425000002,1274.5955425000002,1274.5955425000002,1274.5955425000002,1274.5955425000002,1274.5955425000002,1274.5955425000002,1274.5955425000002,None,None,None,,,,,,,,,,,1271.3078743000005,1271.3078743000005,None,,1272.3657576000005,1272.3657576000005,1274.5955425000002,n,1271.3078743000005,1271.3078743000005,0.6556921999990664,,8,001,2024-06-13_14h42.35.897,robot_nback_sign,2022.2.5,59.83634758934138,
P,False,3,letter,1,False,False,robot_stimuli\\filler.mp4,8,,,,,,,,,0,36,36,36,,,,,,,,,,,,,1274.5955425000002,,,,,,,,1277.8941345000003,1277.8941345000003,1277.8941345000003,1277.8941345000003,1277.8941345000003,1277.8941345000003,1277.8941345000003,1277.8941345000003,None,None,None,,,,,,,,,,,1274.5955425000002,1274.5955425000002,None,,1275.6660723000005,1275.6660723000005,1277.8941345000003,n,1274.5955425000002,1274.5955425000002,0.4107728999997562,,8,001,2024-06-13_14h42.35.897,robot_nback_sign,2022.2.5,59.83634758934138,
J,True,3,letter,1,False,False,robot_stimuli\\filler.mp4,8,,,,,,,,,0,37,37,37,,,,,,,,,,,,,1277.8941345000003,1278.9503413000002,,,,,,,1281.1752748,1281.1752748,1281.1752748,1281.1752748,1281.1752748,1281.1752748,1281.1752748,1281.1752748,None,None,None,,,,,,,,,,,1277.8941345000003,1277.8941345000003,None,,1278.9503413000002,1278.9503413000002,1281.1752748,n,1277.8941345000003,1277.8941345000003,1.182059400000071,,8,001,2024-06-13_14h42.35.897,robot_nback_sign,2022.2.5,59.83634758934138,
G,False,3,letter,1,False,False,robot_stimuli\\filler.mp4,8,,,,,,,,,0,38,38,38,,,,,,,,,,,,,1281.1752748,1282.2341601999997,,,,,,,1284.2668475,1284.2668475,1284.2668475,1284.2668475,1284.2668475,1284.2668475,1284.2668475,1284.2668475,None,None,None,,,,,,,,,,,1281.1752748,1281.1752748,None,,1282.2341601999997,1282.2341601999997,1284.2668475,n,1281.1752748,1281.1752748,0.9308910999998261,,8,001,2024-06-13_14h42.35.897,robot_nback_sign,2022.2.5,59.83634758934138,
P,True,3,letter,1,False,False,robot_stimuli\\filler.mp4,8,,,,,,,,,0,39,39,39,,,,,,,,,,,,,1284.2668475,1285.3343481000002,,,,,,,1287.5629477000002,1287.5629477000002,1287.5629477000002,1287.5629477000002,1287.5629477000002,1287.5629477000002,1287.5629477000002,1287.5629477000002,None,None,None,,,,,,,,,,,1284.2668475,1284.2668475,None,,1285.3343481000002,1285.3343481000002,1287.5629477000002,c,1284.2668475,1284.2668475,1.189943499999572,,8,001,2024-06-13_14h42.35.897,robot_nback_sign,2022.2.5,59.83634758934138,
Q,False,3,letter,1,False,False,robot_stimuli\\filler.mp4,8,,,,,,,,,0,40,40,40,,,,,,,,,,,,,1287.5629477000002,,,,,,,,1290.8629431999998,1290.8629431999998,1290.8629431999998,1290.8629431999998,1290.8629431999998,1290.8629431999998,1290.8629431999998,1290.8629431999998,None,None,None,,,,,,,,,,,1287.5629477000002,1287.5629477000002,None,,1288.6318307000001,1288.6318307000001,1290.8629431999998,n,1287.5629477000002,1287.5629477000002,0.7335035999994943,,8,001,2024-06-13_14h42.35.897,robot_nback_sign,2022.2.5,59.83634758934138,
T,False,3,letter,1,False,False,robot_stimuli\\filler.mp4,8,,,,,,,,,0,41,41,41,,,,,,,,,,,,,1290.8629431999998,,,,,,,,1294.1646098,1294.1646098,1294.1646098,1294.1646098,1294.1646098,1294.1646098,1294.1646098,1294.1646098,None,None,None,,,,,,,,,,,1290.8629431999998,1290.8629431999998,None,,1291.9305612999997,1291.9305612999997,1294.1646098,n,1290.8629431999998,1290.8629431999998,0.5868770999995832,,8,001,2024-06-13_14h42.35.897,robot_nback_sign,2022.2.5,59.83634758934138,
N,False,3,letter,1,False,False,robot_stimuli\\filler.mp4,8,,,,,,,,,0,42,42,42,,,,,,,,,,,,,1294.1646098,,,,,,,,1297.2663002,1297.2663002,1297.2663002,1297.2663002,1297.2663002,1297.2663002,1297.2663002,1297.2663002,None,None,None,,,,,,,,,,,1294.1646098,1294.1646098,None,,1295.2324471000002,1295.2324471000002,1297.2663002,n,1294.1646098,1294.1646098,0.6122116999995342,,8,001,2024-06-13_14h42.35.897,robot_nback_sign,2022.2.5,59.83634758934138,
H,False,3,letter,1,False,False,robot_stimuli\\filler.mp4,8,,,,,,,,,0,43,43,43,,,,,,,,,,,,,1297.2663002,1298.3311289000003,,,,,,,1300.5601238999998,1300.5601238999998,1300.5601238999998,1300.5601238999998,1300.5601238999998,1300.5601238999998,1300.5601238999998,1300.5601238999998,None,None,None,,,,,,,,,,,1297.2663002,1297.2663002,None,,1298.3311289000003,1298.3311289000003,1300.5601238999998,n,1297.2663002,1297.2663002,0.6429013999995732,,8,001,2024-06-13_14h42.35.897,robot_nback_sign,2022.2.5,59.83634758934138,
T,True,3,letter,1,False,False,robot_stimuli\\filler.mp4,8,,,,,,,,,0,44,44,44,,,,,,,,,,,,,1300.5601238999998,1301.6217446,,,,,,,1303.6474370000005,1303.6474370000005,1303.6474370000005,1303.6474370000005,1303.6474370000005,1303.6474370000005,1303.6474370000005,1303.6474370000005,None,None,None,,,,,,,,,,,1300.5601238999998,1300.5601238999998,None,,1301.6217446,1301.6217446,1303.6474370000005,c,1300.5601238999998,1300.5601238999998,1.5264087999994445,,8,001,2024-06-13_14h42.35.897,robot_nback_sign,2022.2.5,59.83634758934138,
V,False,3,letter,1,False,False,robot_stimuli\\filler.mp4,8,,,,,,,,,0,45,45,45,,,,,,,,,,,,,1303.6474370000005,,,,,,,,1306.7444888,1306.7444888,1306.7444888,1306.7444888,1306.7444888,1306.7444888,1306.7444888,1306.7444888,None,None,None,,,,,,,,,,,1303.6474370000005,1303.6474370000005,None,,1304.7157994,1304.7157994,1306.7444888,n,1303.6474370000005,1303.6474370000005,0.7610817999993742,,8,001,2024-06-13_14h42.35.897,robot_nback_sign,2022.2.5,59.83634758934138,
P,False,3,letter,1,False,False,robot_stimuli\\filler.mp4,8,,,,,,,,,0,46,46,46,,,,,,,,,,,,,1306.7444888,1307.8000898999999,,,,,,,1309.8324332000002,1309.8324332000002,1309.8324332000002,1309.8324332000002,1309.8324332000002,1309.8324332000002,1309.8324332000002,1309.8324332000002,None,None,None,,,,,,,,,,,1306.7444888,1306.7444888,None,,1307.8000898999999,1307.8000898999999,1309.8324332000002,n,1306.7444888,1306.7444888,1.2360928999996759,,8,001,2024-06-13_14h42.35.897,robot_nback_sign,2022.2.5,59.83634758934138,
D,False,3,letter,1,False,False,robot_stimuli\\filler.mp4,8,,,,,,,,,0,47,47,47,,,,,,,,,,,,,1309.8324332000002,1310.8988336000002,,,,,,,1312.9297019000005,1312.9297019000005,1312.9297019000005,1312.9297019000005,1312.9297019000005,1312.9297019000005,1312.9297019000005,1312.9297019000005,None,None,None,,,,,,,,,,,1309.8324332000002,1309.8324332000002,None,,1310.8988336000002,1310.8988336000002,1312.9297019000005,n,1309.8324332000002,1309.8324332000002,0.8181586000000607,,8,001,2024-06-13_14h42.35.897,robot_nback_sign,2022.2.5,59.83634758934138,
R,False,3,letter,1,False,False,robot_stimuli\\filler.mp4,8,,,,,,,,,0,48,48,48,,,,,,,,,,,,,1312.9297019000005,,,,,,,,1316.0276958000004,1316.0276958000004,1316.0276958000004,1316.0276958000004,1316.0276958000004,1316.0276958000004,1316.0276958000004,1316.0276958000004,None,None,None,,,,,,,,,,,1312.9297019000005,1312.9297019000005,None,,1314.0001788,1314.0001788,1316.0276958000004,n,1312.9297019000005,1312.9297019000005,0.7806468999997378,,8,001,2024-06-13_14h42.35.897,robot_nback_sign,2022.2.5,59.83634758934138,
G,False,3,letter,1,False,True,robot_stimuli\\filler.mp4,8,,,,,,,,,0,49,49,49,,,,,,,,,,,,,1316.0276958000004,1317.0827305000003,,,,,,,1319.3463761000003,1344.6514797,1319.3463761000003,1344.6514797,1319.3463761000003,1344.6514797,1319.3463761000003,1344.6514797,28.76543209876543,6.558165000000372,space,,,,25.23440219999975,,,,,,,1316.0276958000004,1316.0276958000004,None,,1317.0827305000003,1317.0827305000003,1319.3463761000003,n,1316.0276958000004,1316.0276958000004,0.5216599999994287,,8,001,2024-06-13_14h42.35.897,robot_nback_sign,2022.2.5,59.83634758934138,
Q,False,2,letter,1,True,False,robot_stimuli\\filler.mp4,8,,,,,,,,,0,50,50,50,,,,,,,,,,,,,1348.3776499000005,1349.4363163999997,,,,,,,1351.4567244,1351.4567244,1351.4567244,1351.4567244,1351.4567244,1351.4567244,1351.4567244,1351.4567244,None,None,None,,,,,,,,,,,1344.6514797,1344.6514797,space,3.6973943999992116,1349.4363163999997,1349.4363163999997,1351.4567244,n,,,1.3840696999995998,,8,001,2024-06-13_14h42.35.897,robot_nback_sign,2022.2.5,59.83634758934138,
P,False,2,letter,1,False,False,robot_stimuli\\filler.mp4,8,,,,,,,,,0,51,51,51,,,,,,,,,,,,,1351.4567244,1352.5229415000003,,,,,,,1354.5512866999998,1354.5512866999998,1354.5512866999998,1354.5512866999998,1354.5512866999998,1354.5512866999998,1354.5512866999998,1354.5512866999998,None,None,None,,,,,,,,,,,1351.4567244,1351.4567244,None,,1352.5229415000003,1352.5229415000003,1354.5512866999998,n,1351.4567244,1351.4567244,0.8255294999999023,,8,001,2024-06-13_14h42.35.897,robot_nback_sign,2022.2.5,59.83634758934138,
W,False,2,letter,1,False,False,robot_stimuli\\filler.mp4,8,,,,,,,,,0,52,52,52,,,,,,,,,,,,,1354.5512866999998,1355.6163396000002,,,,,,,1357.6487601999997,1357.6487601999997,1357.6487601999997,1357.6487601999997,1357.6487601999997,1357.6487601999997,1357.6487601999997,1357.6487601999997,None,None,None,,,,,,,,,,,1354.5512866999998,1354.5512866999998,None,,1355.6163396000002,1355.6163396000002,1357.6487601999997,n,1354.5512866999998,1354.5512866999998,0.900159399999211,,8,001,2024-06-13_14h42.35.897,robot_nback_sign,2022.2.5,59.83634758934138,
P,True,2,letter,1,False,False,robot_stimuli\\filler.mp4,8,,,,,,,,,0,53,53,53,,,,,,,,,,,,,1357.6487601999997,1358.7242428,,,,,,,1360.7516154000004,1360.7516154000004,1360.7516154000004,1360.7516154000004,1360.7516154000004,1360.7516154000004,1360.7516154000004,1360.7516154000004,None,None,None,,,,,,,,,,,1357.6487601999997,1357.6487601999997,None,,1358.7242428,1358.7242428,1360.7516154000004,c,1357.6487601999997,1357.6487601999997,1.0726243999988583,,8,001,2024-06-13_14h42.35.897,robot_nback_sign,2022.2.5,59.83634758934138,
W,True,2,letter,1,False,False,robot_stimuli\\filler.mp4,8,,,,,,,,,0,54,54,54,,,,,,,,,,,,,1360.7516154000004,1361.8198299000005,,,,,,,1364.0441669000002,1364.0441669000002,1364.0441669000002,1364.0441669000002,1364.0441669000002,1364.0441669000002,1364.0441669000002,1364.0441669000002,None,None,None,,,,,,,,,,,1360.7516154000004,1360.7516154000004,None,,1361.8198299000005,1361.8198299000005,1364.0441669000002,c,1360.7516154000004,1360.7516154000004,0.6174023999992642,,8,001,2024-06-13_14h42.35.897,robot_nback_sign,2022.2.5,59.83634758934138,
T,False,2,letter,1,False,False,robot_stimuli\\filler.mp4,8,,,,,,,,,0,55,55,55,,,,,,,,,,,,,1364.0441669000002,1365.0988537000003,,,,,,,1367.1347025000005,1367.1347025000005,1367.1347025000005,1367.1347025000005,1367.1347025000005,1367.1347025000005,1367.1347025000005,1367.1347025000005,None,None,None,,,,,,,,,,,1364.0441669000002,1364.0441669000002,None,,1365.0988537000003,1365.0988537000003,1367.1347025000005,n,1364.0441669000002,1364.0441669000002,0.7063742999998794,,8,001,2024-06-13_14h42.35.897,robot_nback_sign,2022.2.5,59.83634758934138,
G,False,2,letter,1,False,False,robot_stimuli\\filler.mp4,8,,,,,,,,,0,56,56,56,,,,,,,,,,,,,1367.1347025000005,1368.2046447000002,,,,,,,1370.236414,1370.236414,1370.236414,1370.236414,1370.236414,1370.236414,1370.236414,1370.236414,None,None,None,,,,,,,,,,,1367.1347025000005,1367.1347025000005,None,,1368.2046447000002,1368.2046447000002,1370.236414,n,1367.1347025000005,1367.1347025000005,0.8401235000001179,,8,001,2024-06-13_14h42.35.897,robot_nback_sign,2022.2.5,59.83634758934138,
K,False,2,letter,1,False,False,robot_stimuli\\filler.mp4,8,,,,,,,,,0,57,57,57,,,,,,,,,,,,,1370.236414,1371.3023596000003,,,,,,,1373.3393138000001,1373.3393138000001,1373.3393138000001,1373.3393138000001,1373.3393138000001,1373.3393138000001,1373.3393138000001,1373.3393138000001,None,None,None,,,,,,,,,,,1370.236414,1370.236414,None,,1371.3023596000003,1371.3023596000003,1373.3393138000001,n,1370.236414,1370.236414,0.6314180999997916,,8,001,2024-06-13_14h42.35.897,robot_nback_sign,2022.2.5,59.83634758934138,
R,False,2,letter,1,False,False,robot_stimuli\\filler.mp4,8,,,,,,,,,0,58,58,58,,,,,,,,,,,,,1373.3393138000001,1374.3986895999997,,,,,,,1376.4244816,1376.4244816,1376.4244816,1376.4244816,1376.4244816,1376.4244816,1376.4244816,1376.4244816,None,None,None,,,,,,,,,,,1373.3393138000001,1373.3393138000001,None,,1374.3986895999997,1374.3986895999997,1376.4244816,n,1373.3393138000001,1373.3393138000001,0.4781830000001719,,8,001,2024-06-13_14h42.35.897,robot_nback_sign,2022.2.5,59.83634758934138,
N,False,2,letter,1,False,False,robot_stimuli\\filler.mp4,8,,,,,,,,,0,59,59,59,,,,,,,,,,,,,1376.4244816,1377.4802264,,,,,,,1379.5108956000004,1379.5108956000004,1379.5108956000004,1379.5108956000004,1379.5108956000004,1379.5108956000004,1379.5108956000004,1379.5108956000004,None,None,None,,,,,,,,,,,1376.4244816,1376.4244816,None,,1377.4802264,1377.4802264,1379.5108956000004,n,1376.4244816,1376.4244816,0.4840212999997675,,8,001,2024-06-13_14h42.35.897,robot_nback_sign,2022.2.5,59.83634758934138,
R,True,2,letter,1,False,False,robot_stimuli\\filler.mp4,8,,,,,,,,,0,60,60,60,,,,,,,,,,,,,1379.5108956000004,1380.5652013,,,,,,,1382.7941259999998,1382.7941259999998,1382.7941259999998,1382.7941259999998,1382.7941259999998,1382.7941259999998,1382.7941259999998,1382.7941259999998,None,None,None,,,,,,,,,,,1379.5108956000004,1379.5108956000004,None,,1380.5652013,1380.5652013,1382.7941259999998,c,1379.5108956000004,1379.5108956000004,0.855865200000153,,8,001,2024-06-13_14h42.35.897,robot_nback_sign,2022.2.5,59.83634758934138,
Z,False,2,letter,1,False,False,robot_stimuli\\filler.mp4,8,,,,,,,,,0,61,61,61,,,,,,,,,,,,,1382.7941259999998,1383.8477594000005,,,,,,,1386.0761918999997,1386.0761918999997,1386.0761918999997,1386.0761918999997,1386.0761918999997,1386.0761918999997,1386.0761918999997,1386.0761918999997,None,None,None,,,,,,,,,,,1382.7941259999998,1382.7941259999998,None,,1383.8477594000005,1383.8477594000005,1386.0761918999997,n,1382.7941259999998,1382.7941259999998,0.7004875999991782,,8,001,2024-06-13_14h42.35.897,robot_nback_sign,2022.2.5,59.83634758934138,
C,False,2,letter,1,False,False,robot_stimuli\\filler.mp4,8,,,,,,,,,0,62,62,62,,,,,,,,,,,,,1386.0761918999997,1387.132372,,,,,,,1389.1610036000002,1389.1610036000002,1389.1610036000002,1389.1610036000002,1389.1610036000002,1389.1610036000002,1389.1610036000002,1389.1610036000002,None,None,None,,,,,,,,,,,1386.0761918999997,1386.0761918999997,None,,1387.132372,1387.132372,1389.1610036000002,n,1386.0761918999997,1386.0761918999997,0.4979689999991024,,8,001,2024-06-13_14h42.35.897,robot_nback_sign,2022.2.5,59.83634758934138,
J,False,2,letter,1,False,False,robot_stimuli\\filler.mp4,8,,,,,,,,,0,63,63,63,,,,,,,,,,,,,1389.1610036000002,1390.2152666000002,,,,,,,1392.4495371000003,1392.4495371000003,1392.4495371000003,1392.4495371000003,1392.4495371000003,1392.4495371000003,1392.4495371000003,1392.4495371000003,None,None,None,,,,,,,,,,,1389.1610036000002,1389.1610036000002,None,,1390.2152666000002,1390.2152666000002,1392.4495371000003,n,1389.1610036000002,1389.1610036000002,0.4368689999992057,,8,001,2024-06-13_14h42.35.897,robot_nback_sign,2022.2.5,59.83634758934138,
C,True,2,letter,1,False,False,robot_stimuli\\filler.mp4,8,,,,,,,,,0,64,64,64,,,,,,,,,,,,,1392.4495371000003,1393.5174527999998,,,,,,,1395.5505620000004,1395.5505620000004,1395.5505620000004,1395.5505620000004,1395.5505620000004,1395.5505620000004,1395.5505620000004,1395.5505620000004,None,None,None,,,,,,,,,,,1392.4495371000003,1392.4495371000003,None,,1393.5174527999998,1393.5174527999998,1395.5505620000004,c,1392.4495371000003,1392.4495371000003,0.6562592000000222,,8,001,2024-06-13_14h42.35.897,robot_nback_sign,2022.2.5,59.83634758934138,
H,False,2,letter,1,False,False,robot_stimuli\\filler.mp4,8,,,,,,,,,0,65,65,65,,,,,,,,,,,,,1395.5505620000004,1396.6170227000002,,,,,,,1398.8458716000005,1398.8458716000005,1398.8458716000005,1398.8458716000005,1398.8458716000005,1398.8458716000005,1398.8458716000005,1398.8458716000005,None,None,None,,,,,,,,,,,1395.5505620000004,1395.5505620000004,None,,1396.6170227000002,1396.6170227000002,1398.8458716000005,n,1395.5505620000004,1395.5505620000004,0.676371200000176,,8,001,2024-06-13_14h42.35.897,robot_nback_sign,2022.2.5,59.83634758934138,
C,True,2,letter,1,False,False,robot_stimuli\\filler.mp4,8,,,,,,,,,0,66,66,66,,,,,,,,,,,,,1398.8458716000005,,,,,,,,1401.9464804999998,1401.9464804999998,1401.9464804999998,1401.9464804999998,1401.9464804999998,1401.9464804999998,1401.9464804999998,1401.9464804999998,None,None,None,,,,,,,,,,,1398.8458716000005,1398.8458716000005,None,,1399.917931,1399.917931,1401.9464804999998,c,1398.8458716000005,1398.8458716000005,0.7115416999995432,,8,001,2024-06-13_14h42.35.897,robot_nback_sign,2022.2.5,59.83634758934138,
H,True,2,letter,1,False,False,robot_stimuli\\filler.mp4,8,,,,,,,,,0,67,67,67,,,,,,,,,,,,,1401.9464804999998,,,,,,,,1405.2462889999997,1405.2462889999997,1405.2462889999997,1405.2462889999997,1405.2462889999997,1405.2462889999997,1405.2462889999997,1405.2462889999997,None,None,None,,,,,,,,,,,1401.9464804999998,1401.9464804999998,None,,1403.0149491000002,1403.0149491000002,1405.2462889999997,c,1401.9464804999998,1401.9464804999998,0.5185049999990952,,8,001,2024-06-13_14h42.35.897,robot_nback_sign,2022.2.5,59.83634758934138,
W,False,2,letter,1,False,False,robot_stimuli\\filler.mp4,8,,,,,,,,,0,68,68,68,,,,,,,,,,,,,1405.2462889999997,,,,,,,,1408.5620188000003,1408.5620188000003,1408.5620188000003,1408.5620188000003,1408.5620188000003,1408.5620188000003,1408.5620188000003,1408.5620188000003,None,None,None,,,,,,,,,,,1405.2462889999997,1405.2462889999997,None,,1406.3295243000002,1406.3295243000002,1408.5620188000003,n,1405.2462889999997,1405.2462889999997,0.6365508999997473,,8,001,2024-06-13_14h42.35.897,robot_nback_sign,2022.2.5,59.83634758934138,
W,False,2,letter,1,False,False,robot_stimuli\\filler.mp4,8,,,,,,,,,0,69,69,69,,,,,,,,,,,,,1408.5620188000003,1409.6131678000002,,,,,,,1411.8441482999997,1411.8441482999997,1411.8441482999997,1411.8441482999997,1411.8441482999997,1411.8441482999997,1411.8441482999997,1411.8441482999997,None,None,None,,,,,,,,,,,1408.5620188000003,1408.5620188000003,None,,1409.6131678000002,1409.6131678000002,1411.8441482999997,n,1408.5620188000003,1408.5620188000003,0.8568508999996993,,8,001,2024-06-13_14h42.35.897,robot_nback_sign,2022.2.5,59.83634758934138,
R,False,2,letter,1,False,False,robot_stimuli\\filler.mp4,8,,,,,,,,,0,70,70,70,,,,,,,,,,,,,1411.8441482999997,1412.9013600999997,,,,,,,1414.9341129000004,1414.9341129000004,1414.9341129000004,1414.9341129000004,1414.9341129000004,1414.9341129000004,1414.9341129000004,1414.9341129000004,None,None,None,,,,,,,,,,,1411.8441482999997,1411.8441482999997,None,,1412.9013600999997,1412.9013600999997,1414.9341129000004,n,1411.8441482999997,1411.8441482999997,0.6310349999994287,,8,001,2024-06-13_14h42.35.897,robot_nback_sign,2022.2.5,59.83634758934138,
Q,False,2,letter,1,False,False,robot_stimuli\\filler.mp4,8,,,,,,,,,0,71,71,71,,,,,,,,,,,,,1414.9341129000004,1415.9977383000005,,,,,,,1418.2264326000004,1418.2264326000004,1418.2264326000004,1418.2264326000004,1418.2264326000004,1418.2264326000004,1418.2264326000004,1418.2264326000004,None,None,None,,,,,,,,,,,1414.9341129000004,1414.9341129000004,None,,1415.9977383000005,1415.9977383000005,1418.2264326000004,n,1414.9341129000004,1414.9341129000004,0.488007099999777,,8,001,2024-06-13_14h42.35.897,robot_nback_sign,2022.2.5,59.83634758934138,
D,False,2,letter,1,False,False,robot_stimuli\\filler.mp4,8,,,,,,,,,0,72,72,72,,,,,,,,,,,,,1418.2264326000004,1419.283265,,,,,,,1421.5138546999997,1421.5138546999997,1421.5138546999997,1421.5138546999997,1421.5138546999997,1421.5138546999997,1421.5138546999997,1421.5138546999997,None,None,None,,,,,,,,,,,1418.2264326000004,1418.2264326000004,None,,1419.283265,1419.283265,1421.5138546999997,n,1418.2264326000004,1418.2264326000004,0.482426999999916,,8,001,2024-06-13_14h42.35.897,robot_nback_sign,2022.2.5,59.83634758934138,
Q,True,2,letter,1,False,False,robot_stimuli\\filler.mp4,8,,,,,,,,,0,73,73,73,,,,,,,,,,,,,1421.5138546999997,,,,,,,,1424.61035,1424.61035,1424.61035,1424.61035,1424.61035,1424.61035,1424.61035,1424.61035,None,None,None,,,,,,,,,,,1421.5138546999997,1421.5138546999997,None,,1422.5841343000002,1422.5841343000002,1424.61035,c,1421.5138546999997,1421.5138546999997,0.7336066999996547,,8,001,2024-06-13_14h42.35.897,robot_nback_sign,2022.2.5,59.83634758934138,
R,False,2,letter,1,False,False,robot_stimuli\\filler.mp4,8,,,,,,,,,0,74,74,74,,,,,,,,,,,,,1424.61035,1425.6656516000003,,,,,,,1427.8924825000004,1427.8924825000004,1427.8924825000004,1427.8924825000004,1427.8924825000004,1427.8924825000004,1427.8924825000004,1427.8924825000004,None,None,None,,,,,,,,,,,1424.61035,1424.61035,None,,1425.6656516000003,1425.6656516000003,1427.8924825000004,n,1424.61035,1424.61035,0.6667424999996001,,8,001,2024-06-13_14h42.35.897,robot_nback_sign,2022.2.5,59.83634758934138,
S,False,2,letter,1,False,False,robot_stimuli\\filler.mp4,8,,,,,,,,,0,75,75,75,,,,,,,,,,,,,1427.8924825000004,1428.9483504999998,,,,,,,1430.9765038000005,1430.9765038000005,1430.9765038000005,1430.9765038000005,1430.9765038000005,1430.9765038000005,1430.9765038000005,1430.9765038000005,None,None,None,,,,,,,,,,,1427.8924825000004,1427.8924825000004,None,,1428.9483504999998,1428.9483504999998,1430.9765038000005,n,1427.8924825000004,1427.8924825000004,0.4970376999990549,,8,001,2024-06-13_14h42.35.897,robot_nback_sign,2022.2.5,59.83634758934138,
R,True,2,letter,1,False,False,robot_stimuli\\filler.mp4,8,,,,,,,,,0,76,76,76,,,,,,,,,,,,,1430.9765038000005,1432.0336924000003,,,,,,,1434.0674988,1434.0674988,1434.0674988,1434.0674988,1434.0674988,1434.0674988,1434.0674988,1434.0674988,None,None,None,,,,,,,,,,,1430.9765038000005,1430.9765038000005,None,,1432.0336924000003,1432.0336924000003,1434.0674988,c,1430.9765038000005,1430.9765038000005,0.5157319999998435,,8,001,2024-06-13_14h42.35.897,robot_nback_sign,2022.2.5,59.83634758934138,
V,False,2,letter,1,False,False,robot_stimuli\\filler.mp4,8,,,,,,,,,0,77,77,77,,,,,,,,,,,,,1434.0674988,1435.1330034000002,,,,,,,1437.3546004,1437.3546004,1437.3546004,1437.3546004,1437.3546004,1437.3546004,1437.3546004,1437.3546004,None,None,None,,,,,,,,,,,1434.0674988,1434.0674988,None,,1435.1330034000002,1435.1330034000002,1437.3546004,n,1434.0674988,1434.0674988,0.5046214999993026,,8,001,2024-06-13_14h42.35.897,robot_nback_sign,2022.2.5,59.83634758934138,
T,False,2,letter,1,False,False,robot_stimuli\\filler.mp4,8,,,,,,,,,0,78,78,78,,,,,,,,,,,,,1437.3546004,1438.4188277000003,,,,,,,1440.6407135,1440.6407135,1440.6407135,1440.6407135,1440.6407135,1440.6407135,1440.6407135,1440.6407135,None,None,None,,,,,,,,,,,1437.3546004,1437.3546004,None,,1438.4188277000003,1438.4188277000003,1440.6407135,n,1437.3546004,1437.3546004,0.5389900999998645,,8,001,2024-06-13_14h42.35.897,robot_nback_sign,2022.2.5,59.83634758934138,
N,False,2,letter,1,False,False,robot_stimuli\\filler.mp4,8,,,,,,,,,0,79,79,79,,,,,,,,,,,,,1440.6407135,1441.6981814,,,,,,,1443.9251240000003,1443.9251240000003,1443.9251240000003,1443.9251240000003,1443.9251240000003,1443.9251240000003,1443.9251240000003,1443.9251240000003,None,None,None,,,,,,,,,,,1440.6407135,1440.6407135,None,,1441.6981814,1441.6981814,1443.9251240000003,n,1440.6407135,1440.6407135,0.7709231999997428,,8,001,2024-06-13_14h42.35.897,robot_nback_sign,2022.2.5,59.83634758934138,
M,False,2,letter,1,False,False,robot_stimuli\\filler.mp4,8,,,,,,,,,0,80,80,80,,,,,,,,,,,,,1443.9251240000003,1444.9958595999997,,,,,,,1447.2321742000004,1447.2321742000004,1447.2321742000004,1447.2321742000004,1447.2321742000004,1447.2321742000004,1447.2321742000004,1447.2321742000004,None,None,None,,,,,,,,,,,1443.9251240000003,1443.9251240000003,None,,1444.9958595999997,1444.9958595999997,1447.2321742000004,n,1443.9251240000003,1443.9251240000003,0.5454115000002275,,8,001,2024-06-13_14h42.35.897,robot_nback_sign,2022.2.5,59.83634758934138,
Z,False,2,letter,1,False,False,robot_stimuli\\filler.mp4,8,,,,,,,,,0,81,81,81,,,,,,,,,,,,,1447.2321742000004,1448.2989839000002,,,,,,,1450.5221465000004,1450.5221465000004,1450.5221465000004,1450.5221465000004,1450.5221465000004,1450.5221465000004,1450.5221465000004,1450.5221465000004,None,None,None,,,,,,,,,,,1447.2321742000004,1447.2321742000004,None,,1448.2989839000002,1448.2989839000002,1450.5221465000004,n,1447.2321742000004,1447.2321742000004,0.5784032999999908,,8,001,2024-06-13_14h42.35.897,robot_nback_sign,2022.2.5,59.83634758934138,
F,False,2,letter,1,False,False,robot_stimuli\\filler.mp4,8,,,,,,,,,0,82,82,82,,,,,,,,,,,,,1450.5221465000004,1451.5837721999997,,,,,,,1453.6134049000002,1453.6134049000002,1453.6134049000002,1453.6134049000002,1453.6134049000002,1453.6134049000002,1453.6134049000002,1453.6134049000002,None,None,None,,,,,,,,,,,1450.5221465000004,1450.5221465000004,None,,1451.5837721999997,1451.5837721999997,1453.6134049000002,n,1450.5221465000004,1450.5221465000004,0.5581216000000495,,8,001,2024-06-13_14h42.35.897,robot_nback_sign,2022.2.5,59.83634758934138,
T,False,2,letter,1,False,False,robot_stimuli\\filler.mp4,8,,,,,,,,,0,83,83,83,,,,,,,,,,,,,1453.6134049000002,,,,,,,,1456.9062968999997,1456.9062968999997,1456.9062968999997,1456.9062968999997,1456.9062968999997,1456.9062968999997,1456.9062968999997,1456.9062968999997,None,None,None,,,,,,,,,,,1453.6134049000002,1453.6134049000002,None,,1454.6818378999997,1454.6818378999997,1456.9062968999997,n,1453.6134049000002,1453.6134049000002,0.46827329999905487,,8,001,2024-06-13_14h42.35.897,robot_nback_sign,2022.2.5,59.83634758934138,
P,False,2,letter,1,False,False,robot_stimuli\\filler.mp4,8,,,,,,,,,0,84,84,84,,,,,,,,,,,,,1456.9062968999997,1457.9682775,,,,,,,1460.1890147000004,1460.1890147000004,1460.1890147000004,1460.1890147000004,1460.1890147000004,1460.1890147000004,1460.1890147000004,1460.1890147000004,None,None,None,,,,,,,,,,,1456.9062968999997,1456.9062968999997,None,,1457.9682775,1457.9682775,1460.1890147000004,n,1456.9062968999997,1456.9062968999997,0.4370668999999907,,8,001,2024-06-13_14h42.35.897,robot_nback_sign,2022.2.5,59.83634758934138,
G,False,2,letter,1,False,False,robot_stimuli\\filler.mp4,8,,,,,,,,,0,85,85,85,,,,,,,,,,,,,1460.1890147000004,1461.2483465000005,,,,,,,1463.4767879,1463.4767879,1463.4767879,1463.4767879,1463.4767879,1463.4767879,1463.4767879,1463.4767879,None,None,None,,,,,,,,,,,1460.1890147000004,1460.1890147000004,None,,1461.2483465000005,1461.2483465000005,1463.4767879,n,1460.1890147000004,1460.1890147000004,0.5645991000001231,,8,001,2024-06-13_14h42.35.897,robot_nback_sign,2022.2.5,59.83634758934138,
M,False,2,letter,1,False,False,robot_stimuli\\filler.mp4,8,,,,,,,,,0,86,86,86,,,,,,,,,,,,,1463.4767879,1464.5335501999998,,,,,,,1466.5693486999999,1466.5693486999999,1466.5693486999999,1466.5693486999999,1466.5693486999999,1466.5693486999999,1466.5693486999999,1466.5693486999999,None,None,None,,,,,,,,,,,1463.4767879,1463.4767879,None,,1464.5335501999998,1464.5335501999998,1466.5693486999999,n,1463.4767879,1463.4767879,0.4467447999995784,,8,001,2024-06-13_14h42.35.897,robot_nback_sign,2022.2.5,59.83634758934138,
V,False,2,letter,1,False,False,robot_stimuli\\filler.mp4,8,,,,,,,,,0,87,87,87,,,,,,,,,,,,,1466.5693486999999,1467.6342985,,,,,,,1469.6625413000002,1469.6625413000002,1469.6625413000002,1469.6625413000002,1469.6625413000002,1469.6625413000002,1469.6625413000002,1469.6625413000002,None,None,None,,,,,,,,,,,1466.5693486999999,1466.5693486999999,None,,1467.6342985,1467.6342985,1469.6625413000002,n,1466.5693486999999,1466.5693486999999,0.35420609999982844,,8,001,2024-06-13_14h42.35.897,robot_nback_sign,2022.2.5,59.83634758934138,
D,False,2,letter,1,False,False,robot_stimuli\\filler.mp4,8,,,,,,,,,0,88,88,88,,,,,,,,,,,,,1469.6625413000002,,,,,,,,1472.7635071000004,1472.7635071000004,1472.7635071000004,1472.7635071000004,1472.7635071000004,1472.7635071000004,1472.7635071000004,1472.7635071000004,None,None,None,,,,,,,,,,,1469.6625413000002,1469.6625413000002,None,,1470.7306779,1470.7306779,1472.7635071000004,n,1469.6625413000002,1469.6625413000002,0.4276218999993944,,8,001,2024-06-13_14h42.35.897,robot_nback_sign,2022.2.5,59.83634758934138,
Q,False,2,letter,1,False,False,robot_stimuli\\filler.mp4,8,,,,,,,,,0,89,89,89,,,,,,,,,,,,,1472.7635071000004,,,,,,,,1475.8674314,1475.8674314,1475.8674314,1475.8674314,1475.8674314,1475.8674314,1475.8674314,1475.8674314,None,None,None,,,,,,,,,,,1472.7635071000004,1472.7635071000004,None,,1473.8317843000004,1473.8317843000004,1475.8674314,n,1472.7635071000004,1472.7635071000004,0.4842129999997269,,8,001,2024-06-13_14h42.35.897,robot_nback_sign,2022.2.5,59.83634758934138,
M,False,2,letter,1,False,False,robot_stimuli\\filler.mp4,8,,,,,,,,,0,90,90,90,,,,,,,,,,,,,1475.8674314,1476.9316881000004,,,,,,,1479.1565375,1479.1565375,1479.1565375,1479.1565375,1479.1565375,1479.1565375,1479.1565375,1479.1565375,None,None,None,,,,,,,,,,,1475.8674314,1475.8674314,None,,1476.9316881000004,1476.9316881000004,1479.1565375,n,1475.8674314,1475.8674314,0.40951459999996587,,8,001,2024-06-13_14h42.35.897,robot_nback_sign,2022.2.5,59.83634758934138,
S,False,2,letter,1,False,False,robot_stimuli\\filler.mp4,8,,,,,,,,,0,91,91,91,,,,,,,,,,,,,1479.1565375,1480.2146068000002,,,,,,,1482.4479741000005,1482.4479741000005,1482.4479741000005,1482.4479741000005,1482.4479741000005,1482.4479741000005,1482.4479741000005,1482.4479741000005,None,None,None,,,,,,,,,,,1479.1565375,1479.1565375,None,,1480.2146068000002,1480.2146068000002,1482.4479741000005,n,1479.1565375,1479.1565375,0.33350549999977375,,8,001,2024-06-13_14h42.35.897,robot_nback_sign,2022.2.5,59.83634758934138,
Q,False,2,letter,1,False,False,robot_stimuli\\filler.mp4,8,,,,,,,,,0,92,92,92,,,,,,,,,,,,,1482.4479741000005,,,,,,,,1485.741954,1485.741954,1485.741954,1485.741954,1485.741954,1485.741954,1485.741954,1485.741954,None,None,None,,,,,,,,,,,1482.4479741000005,1482.4479741000005,None,,1483.5147284000004,1483.5147284000004,1485.741954,n,1482.4479741000005,1482.4479741000005,0.48950539999987086,,8,001,2024-06-13_14h42.35.897,robot_nback_sign,2022.2.5,59.83634758934138,
C,False,2,letter,1,False,False,robot_stimuli\\filler.mp4,8,,,,,,,,,0,93,93,93,,,,,,,,,,,,,1485.741954,1486.7985055,,,,,,,1488.8229118999998,1488.8229118999998,1488.8229118999998,1488.8229118999998,1488.8229118999998,1488.8229118999998,1488.8229118999998,1488.8229118999998,None,None,None,,,,,,,,,,,1485.741954,1485.741954,None,,1486.7985055,1486.7985055,1488.8229118999998,n,1485.741954,1485.741954,0.5509180999997625,,8,001,2024-06-13_14h42.35.897,robot_nback_sign,2022.2.5,59.83634758934138,
B,False,2,letter,1,False,False,robot_stimuli\\filler.mp4,8,,,,,,,,,0,94,94,94,,,,,,,,,,,,,1488.8229118999998,1489.8817516,,,,,,,1491.9162784999999,1491.9162784999999,1491.9162784999999,1491.9162784999999,1491.9162784999999,1491.9162784999999,1491.9162784999999,1491.9162784999999,None,None,None,,,,,,,,,,,1488.8229118999998,1488.8229118999998,None,,1489.8817516,1489.8817516,1491.9162784999999,n,1488.8229118999998,1488.8229118999998,0.47597379999933764,,8,001,2024-06-13_14h42.35.897,robot_nback_sign,2022.2.5,59.83634758934138,
C,True,2,letter,1,False,False,robot_stimuli\\filler.mp4,8,,,,,,,,,0,95,95,95,,,,,,,,,,,,,1491.9162784999999,1492.9832652000005,,,,,,,1495.2153116,1495.2153116,1495.2153116,1495.2153116,1495.2153116,1495.2153116,1495.2153116,1495.2153116,None,None,None,,,,,,,,,,,1491.9162784999999,1491.9162784999999,None,,1492.9832652000005,1492.9832652000005,1495.2153116,c,1491.9162784999999,1491.9162784999999,0.8068905999998606,,8,001,2024-06-13_14h42.35.897,robot_nback_sign,2022.2.5,59.83634758934138,
C,False,2,letter,1,False,False,robot_stimuli\\filler.mp4,8,,,,,,,,,0,96,96,96,,,,,,,,,,,,,1495.2153116,1496.2814469000004,,,,,,,1498.5133910000004,1498.5133910000004,1498.5133910000004,1498.5133910000004,1498.5133910000004,1498.5133910000004,1498.5133910000004,1498.5133910000004,None,None,None,,,,,,,,,,,1495.2153116,1495.2153116,None,,1496.2814469000004,1496.2814469000004,1498.5133910000004,n,1495.2153116,1495.2153116,1.4125453999995443,,8,001,2024-06-13_14h42.35.897,robot_nback_sign,2022.2.5,59.83634758934138,
C,True,2,letter,1,False,False,robot_stimuli\\filler.mp4,8,,,,,,,,,0,97,97,97,,,,,,,,,,,,,1498.5133910000004,,,,,,,,1501.6124025999998,1501.6124025999998,1501.6124025999998,1501.6124025999998,1501.6124025999998,1501.6124025999998,1501.6124025999998,1501.6124025999998,None,None,None,,,,,,,,,,,1498.5133910000004,1498.5133910000004,None,,1499.5804079999998,1499.5804079999998,1501.6124025999998,c,1498.5133910000004,1498.5133910000004,0.6005757999992056,,8,001,2024-06-13_14h42.35.897,robot_nback_sign,2022.2.5,59.83634758934138,
Q,False,2,letter,1,False,False,robot_stimuli\\filler.mp4,8,,,,,,,,,0,98,98,98,,,,,,,,,,,,,1501.6124025999998,1502.6667231000001,,,,,,,1504.8953882000005,1504.8953882000005,1504.8953882000005,1504.8953882000005,1504.8953882000005,1504.8953882000005,1504.8953882000005,1504.8953882000005,None,None,None,,,,,,,,,,,1501.6124025999998,1501.6124025999998,None,,1502.6667231000001,1502.6667231000001,1504.8953882000005,n,1501.6124025999998,1501.6124025999998,0.5941439999996874,,8,001,2024-06-13_14h42.35.897,robot_nback_sign,2022.2.5,59.83634758934138,
Q,False,2,letter,1,False,True,robot_stimuli\\filler.mp4,8,,,,,,,,,0,99,99,99,,,,,,,,,,,,,1504.8953882000005,1505.9487435,,,,,,,1508.2059337,1516.564101,1508.2059337,1516.564101,1508.2059337,1516.564101,1508.2059337,1516.564101,18.580246913580243,4.318355299999894,space,,,,8.302638500000285,,,,,,,1504.8953882000005,1504.8953882000005,None,,1505.9487435,1505.9487435,1508.2059337,n,1504.8953882000005,1504.8953882000005,0.8642487999995865,,8,001,2024-06-13_14h42.35.897,robot_nback_sign,2022.2.5,59.83634758934138,
C,False,1,letter,1,True,False,robot_stimuli\\filler.mp4,8,,,,,,,,,0,100,100,100,,,,,,,,,,,,,1532.7448544999997,1533.8003655000002,,,,,,,1535.8228522,1535.8228522,1535.8228522,1535.8228522,1535.8228522,1535.8228522,1535.8228522,1535.8228522,None,None,None,,,,,,,,,,,1516.564101,1516.564101,space,16.160271899999316,1533.8003655000002,1533.8003655000002,1535.8228522,c,,,1.7884226999995008,,8,001,2024-06-13_14h42.35.897,robot_nback_sign,2022.2.5,59.83634758934138,
S,False,1,letter,1,False,False,robot_stimuli\\filler.mp4,8,,,,,,,,,0,101,101,101,,,,,,,,,,,,,1535.8228522,1536.8810834000005,,,,,,,1538.9085604000002,1538.9085604000002,1538.9085604000002,1538.9085604000002,1538.9085604000002,1538.9085604000002,1538.9085604000002,1538.9085604000002,None,None,None,,,,,,,,,,,1535.8228522,1535.8228522,None,,1536.8810834000005,1536.8810834000005,1538.9085604000002,n,1535.8228522,1535.8228522,0.6049843000000692,,8,001,2024-06-13_14h42.35.897,robot_nback_sign,2022.2.5,59.83634758934138,
W,False,1,letter,1,False,False,robot_stimuli\\filler.mp4,8,,,,,,,,,0,102,102,102,,,,,,,,,,,,,1538.9085604000002,1539.9659502000004,,,,,,,1542.1972344000005,1542.1972344000005,1542.1972344000005,1542.1972344000005,1542.1972344000005,1542.1972344000005,1542.1972344000005,1542.1972344000005,None,None,None,,,,,,,,,,,1538.9085604000002,1538.9085604000002,None,,1539.9659502000004,1539.9659502000004,1542.1972344000005,n,1538.9085604000002,1538.9085604000002,0.5509585999989213,,8,001,2024-06-13_14h42.35.897,robot_nback_sign,2022.2.5,59.83634758934138,
Z,False,1,letter,1,False,False,robot_stimuli\\filler.mp4,8,,,,,,,,,0,103,103,103,,,,,,,,,,,,,1542.1972344000005,,,,,,,,1545.2906413,1545.2906413,1545.2906413,1545.2906413,1545.2906413,1545.2906413,1545.2906413,1545.2906413,None,None,None,,,,,,,,,,,1542.1972344000005,1542.1972344000005,None,,1543.2645039999998,1543.2645039999998,1545.2906413,n,1542.1972344000005,1542.1972344000005,0.6449818999999479,,8,001,2024-06-13_14h42.35.897,robot_nback_sign,2022.2.5,59.83634758934138,
K,False,1,letter,1,False,False,robot_stimuli\\filler.mp4,8,,,,,,,,,0,104,104,104,,,,,,,,,,,,,1545.2906413,1546.3496516000005,,,,,,,1548.3744029,1548.3744029,1548.3744029,1548.3744029,1548.3744029,1548.3744029,1548.3744029,1548.3744029,None,None,None,,,,,,,,,,,1545.2906413,1545.2906413,None,,1546.3496516000005,1546.3496516000005,1548.3744029,n,1545.2906413,1545.2906413,0.656431800000064,,8,001,2024-06-13_14h42.35.897,robot_nback_sign,2022.2.5,59.83634758934138,
X,False,1,letter,1,False,False,robot_stimuli\\filler.mp4,8,,,,,,,,,0,105,105,105,,,,,,,,,,,,,1548.3744029,1549.4319814,,,,,,,1551.6588334999997,1551.6588334999997,1551.6588334999997,1551.6588334999997,1551.6588334999997,1551.6588334999997,1551.6588334999997,1551.6588334999997,None,None,None,,,,,,,,,,,1548.3744029,1548.3744029,None,,1549.4319814,1549.4319814,1551.6588334999997,n,1548.3744029,1548.3744029,0.4762874999996711,,8,001,2024-06-13_14h42.35.897,robot_nback_sign,2022.2.5,59.83634758934138,
X,True,1,letter,1,False,False,robot_stimuli\\filler.mp4,8,,,,,,,,,0,106,106,106,,,,,,,,,,,,,1551.6588334999997,1552.7153147999998,,,,,,,1554.9466118,1554.9466118,1554.9466118,1554.9466118,1554.9466118,1554.9466118,1554.9466118,1554.9466118,None,None,None,,,,,,,,,,,1551.6588334999997,1551.6588334999997,None,,1552.7153147999998,1552.7153147999998,1554.9466118,c,1551.6588334999997,1551.6588334999997,0.46484979999968346,,8,001,2024-06-13_14h42.35.897,robot_nback_sign,2022.2.5,59.83634758934138,
S,False,1,letter,1,False,False,robot_stimuli\\filler.mp4,8,,,,,,,,,0,107,107,107,,,,,,,,,,,,,1554.9466118,,,,,,,,1558.2423017,1558.2423017,1558.2423017,1558.2423017,1558.2423017,1558.2423017,1558.2423017,1558.2423017,None,None,None,,,,,,,,,,,1554.9466118,1554.9466118,None,,1556.0152340000004,1556.0152340000004,1558.2423017,n,1554.9466118,1554.9466118,0.49414509999951406,,8,001,2024-06-13_14h42.35.897,robot_nback_sign,2022.2.5,59.83634758934138,
S,True,1,letter,1,False,False,robot_stimuli\\filler.mp4,8,,,,,,,,,0,108,108,108,,,,,,,,,,,,,1558.2423017,1559.296781,,,,,,,1561.5301304000004,1561.5301304000004,1561.5301304000004,1561.5301304000004,1561.5301304000004,1561.5301304000004,1561.5301304000004,1561.5301304000004,None,None,None,,,,,,,,,,,1558.2423017,1558.2423017,None,,1559.296781,1559.296781,1561.5301304000004,c,1558.2423017,1558.2423017,0.5474247000001924,,8,001,2024-06-13_14h42.35.897,robot_nback_sign,2022.2.5,59.83634758934138,
T,False,1,letter,1,False,False,robot_stimuli\\filler.mp4,8,,,,,,,,,0,109,109,109,,,,,,,,,,,,,1561.5301304000004,,,,,,,,1564.6262721000003,1564.6262721000003,1564.6262721000003,1564.6262721000003,1564.6262721000003,1564.6262721000003,1564.6262721000003,1564.6262721000003,None,None,None,,,,,,,,,,,1561.5301304000004,1561.5301304000004,None,,1562.5986685999997,1562.5986685999997,1564.6262721000003,n,1561.5301304000004,1561.5301304000004,0.4615569999996296,,8,001,2024-06-13_14h42.35.897,robot_nback_sign,2022.2.5,59.83634758934138,
Q,False,1,letter,1,False,False,robot_stimuli\\filler.mp4,8,,,,,,,,,0,110,110,110,,,,,,,,,,,,,1564.6262721000003,1565.6808884000002,,,,,,,1567.9083012,1567.9083012,1567.9083012,1567.9083012,1567.9083012,1567.9083012,1567.9083012,1567.9083012,None,None,None,,,,,,,,,,,1564.6262721000003,1564.6262721000003,None,,1565.6808884000002,1565.6808884000002,1567.9083012,n,1564.6262721000003,1564.6262721000003,0.5481864000003043,,8,001,2024-06-13_14h42.35.897,robot_nback_sign,2022.2.5,59.83634758934138,
P,False,1,letter,1,False,False,robot_stimuli\\filler.mp4,8,,,,,,,,,0,111,111,111,,,,,,,,,,,,,1567.9083012,1568.9659743000002,,,,,,,1571.1982544000002,1571.1982544000002,1571.1982544000002,1571.1982544000002,1571.1982544000002,1571.1982544000002,1571.1982544000002,1571.1982544000002,None,None,None,,,,,,,,,,,1567.9083012,1567.9083012,None,,1568.9659743000002,1568.9659743000002,1571.1982544000002,n,1567.9083012,1567.9083012,0.6079251000001022,,8,001,2024-06-13_14h42.35.897,robot_nback_sign,2022.2.5,59.83634758934138,
L,False,1,letter,1,False,False,robot_stimuli\\filler.mp4,8,,,,,,,,,0,112,112,112,,,,,,,,,,,,,1571.1982544000002,1572.2646526999997,,,,,,,1574.2968511,1574.2968511,1574.2968511,1574.2968511,1574.2968511,1574.2968511,1574.2968511,1574.2968511,None,None,None,,,,,,,,,,,1571.1982544000002,1571.1982544000002,None,,1572.2646526999997,1572.2646526999997,1574.2968511,n,1571.1982544000002,1571.1982544000002,0.5317244999996547,,8,001,2024-06-13_14h42.35.897,robot_nback_sign,2022.2.5,59.83634758934138,
H,False,1,letter,1,False,False,robot_stimuli\\filler.mp4,8,,,,,,,,,0,113,113,113,,,,,,,,,,,,,1574.2968511,,,,,,,,1577.5996193,1577.5996193,1577.5996193,1577.5996193,1577.5996193,1577.5996193,1577.5996193,1577.5996193,None,None,None,,,,,,,,,,,1574.2968511,1574.2968511,None,,1575.3633737,1575.3633737,1577.5996193,n,1574.2968511,1574.2968511,0.5462012999996659,,8,001,2024-06-13_14h42.35.897,robot_nback_sign,2022.2.5,59.83634758934138,
C,False,1,letter,1,False,False,robot_stimuli\\filler.mp4,8,,,,,,,,,0,114,114,114,,,,,,,,,,,,,1577.5996193,1578.6654858000002,,,,,,,1580.8920758000004,1580.8920758000004,1580.8920758000004,1580.8920758000004,1580.8920758000004,1580.8920758000004,1580.8920758000004,1580.8920758000004,None,None,None,,,,,,,,,,,1577.5996193,1577.5996193,None,,1578.6654858000002,1578.6654858000002,1580.8920758000004,n,1577.5996193,1577.5996193,0.683410300000105,,8,001,2024-06-13_14h42.35.897,robot_nback_sign,2022.2.5,59.83634758934138,
C,True,1,letter,1,False,False,robot_stimuli\\filler.mp4,8,,,,,,,,,0,115,115,115,,,,,,,,,,,,,1580.8920758000004,1581.9462703,,,,,,,1584.1743390000001,1584.1743390000001,1584.1743390000001,1584.1743390000001,1584.1743390000001,1584.1743390000001,1584.1743390000001,1584.1743390000001,None,None,None,,,,,,,,,,,1580.8920758000004,1580.8920758000004,None,,1581.9462703,1581.9462703,1584.1743390000001,c,1580.8920758000004,1580.8920758000004,0.5778365999995003,,8,001,2024-06-13_14h42.35.897,robot_nback_sign,2022.2.5,59.83634758934138,
N,False,1,letter,1,False,False,robot_stimuli\\filler.mp4,8,,,,,,,,,0,116,116,116,,,,,,,,,,,,,1584.1743390000001,1585.2433879,,,,,,,1587.2730307000002,1587.2730307000002,1587.2730307000002,1587.2730307000002,1587.2730307000002,1587.2730307000002,1587.2730307000002,1587.2730307000002,None,None,None,,,,,,,,,,,1584.1743390000001,1584.1743390000001,None,,1585.2433879,1585.2433879,1587.2730307000002,n,1584.1743390000001,1584.1743390000001,0.6175051999998686,,8,001,2024-06-13_14h42.35.897,robot_nback_sign,2022.2.5,59.83634758934138,
G,False,1,letter,1,False,False,robot_stimuli\\filler.mp4,8,,,,,,,,,0,117,117,117,,,,,,,,,,,,,1587.2730307000002,1588.3317286000001,,,,,,,1590.5585272999997,1590.5585272999997,1590.5585272999997,1590.5585272999997,1590.5585272999997,1590.5585272999997,1590.5585272999997,1590.5585272999997,None,None,None,,,,,,,,,,,1587.2730307000002,1587.2730307000002,None,,1588.3317286000001,1588.3317286000001,1590.5585272999997,n,1587.2730307000002,1587.2730307000002,0.5286483999998381,,8,001,2024-06-13_14h42.35.897,robot_nback_sign,2022.2.5,59.83634758934138,
P,False,1,letter,1,False,False,robot_stimuli\\filler.mp4,8,,,,,,,,,0,118,118,118,,,,,,,,,,,,,1590.5585272999997,1591.6154679,,,,,,,1593.6398006999998,1593.6398006999998,1593.6398006999998,1593.6398006999998,1593.6398006999998,1593.6398006999998,1593.6398006999998,1593.6398006999998,None,None,None,,,,,,,,,,,1590.5585272999997,1590.5585272999997,None,,1591.6154679,1591.6154679,1593.6398006999998,n,1590.5585272999997,1590.5585272999997,0.6220792999993137,,8,001,2024-06-13_14h42.35.897,robot_nback_sign,2022.2.5,59.83634758934138,
S,False,1,letter,1,False,False,robot_stimuli\\filler.mp4,8,,,,,,,,,0,119,119,119,,,,,,,,,,,,,1593.6398006999998,1594.6987221999998,,,,,,,1596.7341469000003,1596.7341469000003,1596.7341469000003,1596.7341469000003,1596.7341469000003,1596.7341469000003,1596.7341469000003,1596.7341469000003,None,None,None,,,,,,,,,,,1593.6398006999998,1593.6398006999998,None,,1594.6987221999998,1594.6987221999998,1596.7341469000003,n,1593.6398006999998,1593.6398006999998,0.5694177999994281,,8,001,2024-06-13_14h42.35.897,robot_nback_sign,2022.2.5,59.83634758934138,
J,False,1,letter,1,False,False,robot_stimuli\\filler.mp4,8,,,,,,,,,0,120,120,120,,,,,,,,,,,,,1596.7341469000003,1597.7987078000006,,,,,,,1599.8279021999997,1599.8279021999997,1599.8279021999997,1599.8279021999997,1599.8279021999997,1599.8279021999997,1599.8279021999997,1599.8279021999997,None,None,None,,,,,,,,,,,1596.7341469000003,1596.7341469000003,None,,1597.7987078000006,1597.7987078000006,1599.8279021999997,n,1596.7341469000003,1596.7341469000003,0.5659861999993154,,8,001,2024-06-13_14h42.35.897,robot_nback_sign,2022.2.5,59.83634758934138,
D,False,1,letter,1,False,False,robot_stimuli\\filler.mp4,8,,,,,,,,,0,121,121,121,,,,,,,,,,,,,1599.8279021999997,1600.8812150000003,,,,,,,1603.1166242999998,1603.1166242999998,1603.1166242999998,1603.1166242999998,1603.1166242999998,1603.1166242999998,1603.1166242999998,1603.1166242999998,None,None,None,,,,,,,,,,,1599.8279021999997,1599.8279021999997,None,,1600.8812150000003,1600.8812150000003,1603.1166242999998,n,1599.8279021999997,1599.8279021999997,0.6126460999994379,,8,001,2024-06-13_14h42.35.897,robot_nback_sign,2022.2.5,59.83634758934138,
S,False,1,letter,1,False,False,robot_stimuli\\filler.mp4,8,,,,,,,,,0,122,122,122,,,,,,,,,,,,,1603.1166242999998,1604.1916520000004,,,,,,,1606.2164997999998,1606.2164997999998,1606.2164997999998,1606.2164997999998,1606.2164997999998,1606.2164997999998,1606.2164997999998,1606.2164997999998,None,None,None,,,,,,,,,,,1603.1166242999998,1603.1166242999998,None,,1604.1916520000004,1604.1916520000004,1606.2164997999998,n,1603.1166242999998,1603.1166242999998,0.5175693999990472,,8,001,2024-06-13_14h42.35.897,robot_nback_sign,2022.2.5,59.83634758934138,
D,False,1,letter,1,False,False,robot_stimuli\\filler.mp4,8,,,,,,,,,0,123,123,123,,,,,,,,,,,,,1606.2164997999998,1607.281551,,,,,,,1609.5139301,1609.5139301,1609.5139301,1609.5139301,1609.5139301,1609.5139301,1609.5139301,1609.5139301,None,None,None,,,,,,,,,,,1606.2164997999998,1606.2164997999998,None,,1607.281551,1607.281551,1609.5139301,n,1606.2164997999998,1606.2164997999998,0.8271490999995876,,8,001,2024-06-13_14h42.35.897,robot_nback_sign,2022.2.5,59.83634758934138,
F,False,1,letter,1,False,False,robot_stimuli\\filler.mp4,8,,,,,,,,,0,124,124,124,,,,,,,,,,,,,1609.5139301,,,,,,,,1612.6234558000006,1612.6234558000006,1612.6234558000006,1612.6234558000006,1612.6234558000006,1612.6234558000006,1612.6234558000006,1612.6234558000006,None,None,None,,,,,,,,,,,1609.5139301,1609.5139301,None,,1610.5888508999997,1610.5888508999997,1612.6234558000006,n,1609.5139301,1609.5139301,0.8005743999992774,,8,001,2024-06-13_14h42.35.897,robot_nback_sign,2022.2.5,59.83634758934138,
N,False,1,letter,1,False,False,robot_stimuli\\filler.mp4,8,,,,,,,,,0,125,125,125,,,,,,,,,,,,,1612.6234558000006,1613.6815449000005,,,,,,,1615.9144905000003,1615.9144905000003,1615.9144905000003,1615.9144905000003,1615.9144905000003,1615.9144905000003,1615.9144905000003,1615.9144905000003,None,None,None,,,,,,,,,,,1612.6234558000006,1612.6234558000006,None,,1613.6815449000005,1613.6815449000005,1615.9144905000003,n,1612.6234558000006,1612.6234558000006,0.6276325999997425,,8,001,2024-06-13_14h42.35.897,robot_nback_sign,2022.2.5,59.83634758934138,
N,True,1,letter,1,False,False,robot_stimuli\\filler.mp4,8,,,,,,,,,0,126,126,126,,,,,,,,,,,,,1615.9144905000003,,,,,,,,1619.0131405000002,1619.0131405000002,1619.0131405000002,1619.0131405000002,1619.0131405000002,1619.0131405000002,1619.0131405000002,1619.0131405000002,None,None,None,,,,,,,,,,,1615.9144905000003,1615.9144905000003,None,,1616.9822505000002,1616.9822505000002,1619.0131405000002,c,1615.9144905000003,1615.9144905000003,0.5994817999999213,,8,001,2024-06-13_14h42.35.897,robot_nback_sign,2022.2.5,59.83634758934138,
N,True,1,letter,1,False,False,robot_stimuli\\filler.mp4,8,,,,,,,,,0,127,127,127,,,,,,,,,,,,,1619.0131405000002,,,,,,,,1622.3104234000002,1622.3104234000002,1622.3104234000002,1622.3104234000002,1622.3104234000002,1622.3104234000002,1622.3104234000002,1622.3104234000002,None,None,None,,,,,,,,,,,1619.0131405000002,1619.0131405000002,None,,1620.0795008000005,1620.0795008000005,1622.3104234000002,c,1619.0131405000002,1619.0131405000002,0.6294367999989845,,8,001,2024-06-13_14h42.35.897,robot_nback_sign,2022.2.5,59.83634758934138,
N,True,1,letter,1,False,False,robot_stimuli\\filler.mp4,8,,,,,,,,,0,128,128,128,,,,,,,,,,,,,1622.3104234000002,1623.3633156000005,,,,,,,1625.5872421000004,1625.5872421000004,1625.5872421000004,1625.5872421000004,1625.5872421000004,1625.5872421000004,1625.5872421000004,1625.5872421000004,None,None,None,,,,,,,,,,,1622.3104234000002,1622.3104234000002,None,,1623.3633156000005,1623.3633156000005,1625.5872421000004,c,1622.3104234000002,1622.3104234000002,0.4898280999996132,,8,001,2024-06-13_14h42.35.897,robot_nback_sign,2022.2.5,59.83634758934138,
Z,False,1,letter,1,False,False,robot_stimuli\\filler.mp4,8,,,,,,,,,0,129,129,129,,,,,,,,,,,,,1625.5872421000004,1626.6490487,,,,,,,1628.8764517,1628.8764517,1628.8764517,1628.8764517,1628.8764517,1628.8764517,1628.8764517,1628.8764517,None,None,None,,,,,,,,,,,1625.5872421000004,1625.5872421000004,None,,1626.6490487,1626.6490487,1628.8764517,n,1625.5872421000004,1625.5872421000004,0.5805215999998836,,8,001,2024-06-13_14h42.35.897,robot_nback_sign,2022.2.5,59.83634758934138,
F,False,1,letter,1,False,False,robot_stimuli\\filler.mp4,8,,,,,,,,,0,130,130,130,,,,,,,,,,,,,1628.8764517,1629.9325433000004,,,,,,,1632.1610269000003,1632.1610269000003,1632.1610269000003,1632.1610269000003,1632.1610269000003,1632.1610269000003,1632.1610269000003,1632.1610269000003,None,None,None,,,,,,,,,,,1628.8764517,1628.8764517,None,,1629.9325433000004,1629.9325433000004,1632.1610269000003,n,1628.8764517,1628.8764517,0.5601806999993642,,8,001,2024-06-13_14h42.35.897,robot_nback_sign,2022.2.5,59.83634758934138,
F,True,1,letter,1,False,False,robot_stimuli\\filler.mp4,8,,,,,,,,,0,131,131,131,,,,,,,,,,,,,1632.1610269000003,1633.2131002000006,,,,,,,1635.4381284,1635.4381284,1635.4381284,1635.4381284,1635.4381284,1635.4381284,1635.4381284,1635.4381284,None,None,None,,,,,,,,,,,1632.1610269000003,1632.1610269000003,None,,1633.2131002000006,1633.2131002000006,1635.4381284,c,1632.1610269000003,1632.1610269000003,0.6310739000000467,,8,001,2024-06-13_14h42.35.897,robot_nback_sign,2022.2.5,59.83634758934138,
Z,False,1,letter,1,False,False,robot_stimuli\\filler.mp4,8,,,,,,,,,0,132,132,132,,,,,,,,,,,,,1635.4381284,1636.5001503000003,,,,,,,1638.7275424,1638.7275424,1638.7275424,1638.7275424,1638.7275424,1638.7275424,1638.7275424,1638.7275424,None,None,None,,,,,,,,,,,1635.4381284,1635.4381284,None,,1636.5001503000003,1636.5001503000003,1638.7275424,n,1635.4381284,1635.4381284,0.5210802999999942,,8,001,2024-06-13_14h42.35.897,robot_nback_sign,2022.2.5,59.83634758934138,
X,False,1,letter,1,False,False,robot_stimuli\\filler.mp4,8,,,,,,,,,0,133,133,133,,,,,,,,,,,,,1638.7275424,1639.7810052000004,,,,,,,1642.0087512,1642.0087512,1642.0087512,1642.0087512,1642.0087512,1642.0087512,1642.0087512,1642.0087512,None,None,None,,,,,,,,,,,1638.7275424,1638.7275424,None,,1639.7810052000004,1639.7810052000004,1642.0087512,n,1638.7275424,1638.7275424,0.6077868000002127,,8,001,2024-06-13_14h42.35.897,robot_nback_sign,2022.2.5,59.83634758934138,
S,False,1,letter,1,False,False,robot_stimuli\\filler.mp4,8,,,,,,,,,0,134,134,134,,,,,,,,,,,,,1642.0087512,1643.0651257999998,,,,,,,1645.2987147000003,1645.2987147000003,1645.2987147000003,1645.2987147000003,1645.2987147000003,1645.2987147000003,1645.2987147000003,1645.2987147000003,None,None,None,,,,,,,,,,,1642.0087512,1642.0087512,None,,1643.0651257999998,1643.0651257999998,1645.2987147000003,n,1642.0087512,1642.0087512,0.5726431999992201,,8,001,2024-06-13_14h42.35.897,robot_nback_sign,2022.2.5,59.83634758934138,
K,False,1,letter,1,False,False,robot_stimuli\\filler.mp4,8,,,,,,,,,0,135,135,135,,,,,,,,,,,,,1645.2987147000003,1646.3654040000001,,,,,,,1648.5951757000003,1648.5951757000003,1648.5951757000003,1648.5951757000003,1648.5951757000003,1648.5951757000003,1648.5951757000003,1648.5951757000003,None,None,None,,,,,,,,,,,1645.2987147000003,1645.2987147000003,None,,1646.3654040000001,1646.3654040000001,1648.5951757000003,n,1645.2987147000003,1645.2987147000003,0.5032984999998007,,8,001,2024-06-13_14h42.35.897,robot_nback_sign,2022.2.5,59.83634758934138,
Q,False,1,letter,1,False,False,robot_stimuli\\filler.mp4,8,,,,,,,,,0,136,136,136,,,,,,,,,,,,,1648.5951757000003,1649.6489796000005,,,,,,,1651.8765988000005,1651.8765988000005,1651.8765988000005,1651.8765988000005,1651.8765988000005,1651.8765988000005,1651.8765988000005,1651.8765988000005,None,None,None,,,,,,,,,,,1648.5951757000003,1648.5951757000003,None,,1649.6489796000005,1649.6489796000005,1651.8765988000005,n,1648.5951757000003,1648.5951757000003,0.4848512999997183,,8,001,2024-06-13_14h42.35.897,robot_nback_sign,2022.2.5,59.83634758934138,
Q,True,1,letter,1,False,False,robot_stimuli\\filler.mp4,8,,,,,,,,,0,137,137,137,,,,,,,,,,,,,1651.8765988000005,1652.9295199999997,,,,,,,1655.1608502,1655.1608502,1655.1608502,1655.1608502,1655.1608502,1655.1608502,1655.1608502,1655.1608502,None,None,None,,,,,,,,,,,1651.8765988000005,1651.8765988000005,None,,1652.9295199999997,1652.9295199999997,1655.1608502,c,1651.8765988000005,1651.8765988000005,0.6441548000002513,,8,001,2024-06-13_14h42.35.897,robot_nback_sign,2022.2.5,59.83634758934138,
B,False,1,letter,1,False,False,robot_stimuli\\filler.mp4,8,,,,,,,,,0,138,138,138,,,,,,,,,,,,,1655.1608502,1656.2173763,,,,,,,1658.2439010999997,1658.2439010999997,1658.2439010999997,1658.2439010999997,1658.2439010999997,1658.2439010999997,1658.2439010999997,1658.2439010999997,None,None,None,,,,,,,,,,,1655.1608502,1655.1608502,None,,1656.2173763,1656.2173763,1658.2439010999997,n,1655.1608502,1655.1608502,0.5630215000001044,,8,001,2024-06-13_14h42.35.897,robot_nback_sign,2022.2.5,59.83634758934138,
P,False,1,letter,1,False,False,robot_stimuli\\filler.mp4,8,,,,,,,,,0,139,139,139,,,,,,,,,,,,,1658.2439010999997,1659.2984217000003,,,,,,,1661.5285284000001,1661.5285284000001,1661.5285284000001,1661.5285284000001,1661.5285284000001,1661.5285284000001,1661.5285284000001,1661.5285284000001,None,None,None,,,,,,,,,,,1658.2439010999997,1658.2439010999997,None,,1659.2984217000003,1659.2984217000003,1661.5285284000001,n,1658.2439010999997,1658.2439010999997,0.5556301999995412,,8,001,2024-06-13_14h42.35.897,robot_nback_sign,2022.2.5,59.83634758934138,
T,False,1,letter,1,False,False,robot_stimuli\\filler.mp4,8,,,,,,,,,0,140,140,140,,,,,,,,,,,,,1661.5285284000001,1662.5843320000004,,,,,,,1664.6170407,1664.6170407,1664.6170407,1664.6170407,1664.6170407,1664.6170407,1664.6170407,1664.6170407,None,None,None,,,,,,,,,,,1661.5285284000001,1661.5285284000001,None,,1662.5843320000004,1662.5843320000004,1664.6170407,n,1661.5285284000001,1661.5285284000001,0.47668139999950654,,8,001,2024-06-13_14h42.35.897,robot_nback_sign,2022.2.5,59.83634758934138,
T,True,1,letter,1,False,False,robot_stimuli\\filler.mp4,8,,,,,,,,,0,141,141,141,,,,,,,,,,,,,1664.6170407,1665.6791918999998,,,,,,,1667.7111579000002,1667.7111579000002,1667.7111579000002,1667.7111579000002,1667.7111579000002,1667.7111579000002,1667.7111579000002,1667.7111579000002,None,None,None,,,,,,,,,,,1664.6170407,1664.6170407,None,,1665.6791918999998,1665.6791918999998,1667.7111579000002,c,1664.6170407,1664.6170407,0.6702219999997396,,8,001,2024-06-13_14h42.35.897,robot_nback_sign,2022.2.5,59.83634758934138,
K,False,1,letter,1,False,False,robot_stimuli\\filler.mp4,8,,,,,,,,,0,142,142,142,,,,,,,,,,,,,1667.7111579000002,1668.7655762000004,,,,,,,1670.9970245000004,1670.9970245000004,1670.9970245000004,1670.9970245000004,1670.9970245000004,1670.9970245000004,1670.9970245000004,1670.9970245000004,None,None,None,,,,,,,,,,,1667.7111579000002,1667.7111579000002,None,,1668.7655762000004,1668.7655762000004,1670.9970245000004,n,1667.7111579000002,1667.7111579000002,0.6480190999991464,,8,001,2024-06-13_14h42.35.897,robot_nback_sign,2022.2.5,59.83634758934138,
V,False,1,letter,1,False,False,robot_stimuli\\filler.mp4,8,,,,,,,,,0,143,143,143,,,,,,,,,,,,,1670.9970245000004,,,,,,,,1674.2908281999999,1674.2908281999999,1674.2908281999999,1674.2908281999999,1674.2908281999999,1674.2908281999999,1674.2908281999999,1674.2908281999999,None,None,None,,,,,,,,,,,1670.9970245000004,1670.9970245000004,None,,1672.0652584,1672.0652584,1674.2908281999999,n,1670.9970245000004,1670.9970245000004,0.5805061000000933,,8,001,2024-06-13_14h42.35.897,robot_nback_sign,2022.2.5,59.83634758934138,
F,False,1,letter,1,False,False,robot_stimuli\\filler.mp4,8,,,,,,,,,0,144,144,144,,,,,,,,,,,,,1674.2908281999999,1675.3485761000002,,,,,,,1677.3849308,1677.3849308,1677.3849308,1677.3849308,1677.3849308,1677.3849308,1677.3849308,1677.3849308,None,None,None,,,,,,,,,,,1674.2908281999999,1674.2908281999999,None,,1675.3485761000002,1675.3485761000002,1677.3849308,n,1674.2908281999999,1674.2908281999999,0.5935733999995136,,8,001,2024-06-13_14h42.35.897,robot_nback_sign,2022.2.5,59.83634758934138,
Q,False,1,letter,1,False,False,robot_stimuli\\filler.mp4,8,,,,,,,,,0,145,145,145,,,,,,,,,,,,,1677.3849308,1678.4486392999997,,,,,,,1680.674043,1680.674043,1680.674043,1680.674043,1680.674043,1680.674043,1680.674043,1680.674043,None,None,None,,,,,,,,,,,1677.3849308,1677.3849308,None,,1678.4486392999997,1678.4486392999997,1680.674043,n,1677.3849308,1677.3849308,0.5881735000002664,,8,001,2024-06-13_14h42.35.897,robot_nback_sign,2022.2.5,59.83634758934138,
H,False,1,letter,1,False,False,robot_stimuli\\filler.mp4,8,,,,,,,,,0,146,146,146,,,,,,,,,,,,,1680.674043,1681.7317911999999,,,,,,,1683.7564266,1683.7564266,1683.7564266,1683.7564266,1683.7564266,1683.7564266,1683.7564266,1683.7564266,None,None,None,,,,,,,,,,,1680.674043,1680.674043,None,,1681.7317911999999,1681.7317911999999,1683.7564266,n,1680.674043,1680.674043,0.6086211999991065,,8,001,2024-06-13_14h42.35.897,robot_nback_sign,2022.2.5,59.83634758934138,
Q,False,1,letter,1,False,False,robot_stimuli\\filler.mp4,8,,,,,,,,,0,147,147,147,,,,,,,,,,,,,1683.7564266,1684.8142145000002,,,,,,,1687.0376828999997,1687.0376828999997,1687.0376828999997,1687.0376828999997,1687.0376828999997,1687.0376828999997,1687.0376828999997,1687.0376828999997,None,None,None,,,,,,,,,,,1683.7564266,1683.7564266,None,,1684.8142145000002,1684.8142145000002,1687.0376828999997,n,1683.7564266,1683.7564266,0.6220008999998754,,8,001,2024-06-13_14h42.35.897,robot_nback_sign,2022.2.5,59.83634758934138,
B,False,1,letter,1,False,False,robot_stimuli\\filler.mp4,8,,,,,,,,,0,148,148,148,,,,,,,,,,,,,1687.0376828999997,1688.1136599000001,,,,,,,1690.3473088,1690.3473088,1690.3473088,1690.3473088,1690.3473088,1690.3473088,1690.3473088,1690.3473088,None,None,None,,,,,,,,,,,1687.0376828999997,1687.0376828999997,None,,1688.1136599000001,1688.1136599000001,1690.3473088,n,1687.0376828999997,1687.0376828999997,0.6111100999996779,,8,001,2024-06-13_14h42.35.897,robot_nback_sign,2022.2.5,59.83634758934138,
B,True,1,letter,1,False,True,robot_stimuli\\filler.mp4,8,,,,,,,,,0,149,149,149,,,,,,,,,,,,,1690.3473088,,,,,,,,1693.6773774000003,1708.4833313,1693.6773774000003,1708.4833313,1693.6773774000003,1708.4833313,1693.6773774000003,1708.4833313,7.469135802469132,3.771822499999871,space,,,,14.751454399999602,,,,,,,1690.3473088,1690.3473088,None,,1691.4137835000001,1691.4137835000001,1693.6773774000003,c,1690.3473088,1690.3473088,0.5664872999996078,,8,001,2024-06-13_14h42.35.897,robot_nback_sign,2022.2.5,59.83634758934138,
