,sequence,is_true,target,condition,stimuli,block,is_block_beginning,is_block_ending,sequence_fnames,target_fname,subject,retraining.thisRepN,retraining.thisTrialN,retraining.thisN,retraining.thisIndex,training.thisRepN,training.thisTrialN,training.thisN,training.thisIndex,training_sequence_loop.thisRepN,training_sequence_loop.thisTrialN,training_sequence_loop.thisN,training_sequence_loop.thisIndex,trials.thisRepN,trials.thisTrialN,trials.thisN,trials.thisIndex,sequence_loop.thisRepN,sequence_loop.thisTrialN,sequence_loop.thisN,sequence_loop.thisIndex,langage_text.started,langage_key.started,langage_key.keys,langage_key.rt,intro_text.started,intro_key.started,intro_key.keys,intro_key.rt,training_intro_text.started,training_intro_key.started,training_intro_key.keys,training_intro_key.rt,polygon.started,polygon.stopped,training_presentation_letter.started,training_presentation_letter.stopped,training_recall_letter.started,training_recall_key.started,training_recall_question.started,training_recall_answer.started,training_recall_key.keys,training_recall_key.rt,RSME_labels.started,RSME_labels.stopped,RSME_ticks.started,RSME_ticks.stopped,RSME_text.started,RSME_text.stopped,RSME_key.started,RSME_key.stopped,RSME_ticks.response,RSME_ticks.rt,RSME_key.keys,training_intro_text.stopped,training_intro_key.stopped,RSME_key.rt,training_presentation_movie.started,training_recall_movie.started,experiment_beginning_text.started,experiment_beginning_keys.started,experiment_beginning_key.started,experiment_beginning_key.keys,experiment_beginning_key.rt,block_intro_text.started,block_intro_key.started,block_intro_key.keys,block_intro_key.rt,presentation_letter.started,presentation_letter.stopped,recall_letter.started,recall_key.started,recall_question.started,recall_answer.started,recall_key.keys,recall_key.rt,block_intro_text.stopped,block_intro_key.stopped,presentation_movie.started,recall_movie.started,participant,session,date,expName,psychopyVersion,frameRate,Unnamed: 94
0,,,,,,,,,,,,,,,,,,,,,,,,,,,,,,,,25.008233199999975,25.008233199999975,f,105.0746868,,,,,,,,,,,,,,,,,,,,,,,,,,,,,,,,,,,,,,,,,,,,,,,,,,,,,,,,23.0,1.0,2024-08-29_11h17.55.677,robot_sternberg_sign,2022.2.5,59.976597131794165,
1,,,,,,,,,,,,,,,,,,,,,,,,,,,,,,,,,,,,130.1383701,130.1383701,space,27.225239500000043,,,,,,,,,,,,,,,,,,,,,,,,,,,,,,,,,,,,,,,,,,,,,,,,,,,,23.0,1.0,2024-08-29_11h17.55.677,robot_sternberg_sign,2022.2.5,59.976597131794165,
2,"['H', 'J', 'K']",True,H,3.0,letter,1.0,True,False,"['robot_stimuli\\\\filler.mp4', 'robot_stimuli\\\\filler.mp4', 'robot_stimuli\\\\filler.mp4']",robot_stimuli\\filler.mp4,4.0,0.0,0.0,0.0,0.0,0.0,0.0,0.0,0.0,,,,,,,,,,,,,,,,,,,,,157.4022173,157.4022173,space,8.039778400000046,173.14287219999997,174.24243629999998,171.13106409999995,173.14287219999997,174.24243629999998,174.24243629999998,174.24243629999998,174.24243629999998,c,0.4811983000000168,174.95715099999998,174.95715099999998,174.95715099999998,174.95715099999998,174.95715099999998,174.95715099999998,174.95715099999998,174.95715099999998,,,,,,,,,,,,,,,,,,,,,,,,,,,,,,23.0,1.0,2024-08-29_11h17.55.677,robot_sternberg_sign,2022.2.5,59.976597131794165,
3,"['Z', 'M', 'J']",False,N,3.0,letter,1.0,False,False,"['robot_stimuli\\\\filler.mp4', 'robot_stimuli\\\\filler.mp4', 'robot_stimuli\\\\filler.mp4']",robot_stimuli\\filler.mp4,4.0,0.0,0.0,0.0,0.0,0.0,1.0,1.0,1.0,,,,,,,,,,,,,,,,,,,,,174.95715099999998,174.95715099999998,,,182.6570534,183.7329838,180.6374339,182.6570534,183.7329838,183.7329838,183.7329838,183.7329838,n,0.3498357999999939,184.1625804,184.1625804,184.1625804,184.1625804,184.1625804,184.1625804,184.1625804,184.1625804,,,,174.95715099999998,174.95715099999998,,,,,,,,,,,,,,,,,,,,,,,,,23.0,1.0,2024-08-29_11h17.55.677,robot_sternberg_sign,2022.2.5,59.976597131794165,
4,"['S', 'N', 'T']",True,N,3.0,letter,1.0,False,True,"['robot_stimuli\\\\filler.mp4', 'robot_stimuli\\\\filler.mp4', 'robot_stimuli\\\\filler.mp4']",robot_stimuli\\filler.mp4,4.0,0.0,0.0,0.0,0.0,0.0,2.0,2.0,2.0,,,,,,,,,,,,,,,,,,,,,184.1625804,184.1625804,,,191.668488,185.2371533,189.6424111,191.668488,192.7515181,192.7515181,192.7515181,192.7515181,n,0.4605975000000626,193.4433291,204.8404159,193.4433291,204.8404159,193.4433291,204.8404159,193.4433291,204.8404159,25.524691358024683,8.761891300000002,space,184.1625804,184.1625804,11.335527000000011,,,,,,,,,,,,,,,,,,,,,,,,23.0,1.0,2024-08-29_11h17.55.677,robot_sternberg_sign,2022.2.5,59.976597131794165,
5,"['D', 'Q', 'B', 'H']",True,Q,4.0,letter,1.0,True,False,"['robot_stimuli\\\\filler.mp4', 'robot_stimuli\\\\filler.mp4', 'robot_stimuli\\\\filler.mp4', 'robot_stimuli\\\\filler.mp4']",robot_stimuli\\filler.mp4,4.0,0.0,0.0,0.0,0.0,0.0,3.0,3.0,3.0,,,,,,,,,,,,,,,,,,,,,204.8404159,204.8404159,space,3.362146999999993,218.2372991,209.3060455,216.0248833,218.2372991,219.3155169,219.3155169,219.3155169,219.3155169,c,0.7033468999999855,220.148569,220.148569,220.148569,220.148569,220.148569,220.148569,220.148569,220.148569,,,,,,,,,,,,,,,,,,,,,,,,,,,,,,23.0,1.0,2024-08-29_11h17.55.677,robot_sternberg_sign,2022.2.5,59.976597131794165,
6,"['T', 'H', 'B', 'W']",True,H,4.0,letter,1.0,False,False,"['robot_stimuli\\\\filler.mp4', 'robot_stimuli\\\\filler.mp4', 'robot_stimuli\\\\filler.mp4', 'robot_stimuli\\\\filler.mp4']",robot_stimuli\\filler.mp4,4.0,0.0,0.0,0.0,0.0,0.0,4.0,4.0,4.0,,,,,,,,,,,,,,,,,,,,,220.148569,220.148569,,,229.9526826,221.2207261,227.7377958,229.9526826,231.0312262,231.0312262,231.0312262,231.0312262,c,0.4764033000000154,231.6626405,231.6626405,231.6626405,231.6626405,231.6626405,231.6626405,231.6626405,231.6626405,,,,220.148569,220.148569,,,,,,,,,,,,,,,,,,,,,,,,,23.0,1.0,2024-08-29_11h17.55.677,robot_sternberg_sign,2022.2.5,59.976597131794165,
7,"['H', 'G', 'P', 'M']",False,N,4.0,letter,1.0,False,True,"['robot_stimuli\\\\filler.mp4', 'robot_stimuli\\\\filler.mp4', 'robot_stimuli\\\\filler.mp4', 'robot_stimuli\\\\filler.mp4']",robot_stimuli\\filler.mp4,4.0,0.0,0.0,0.0,0.0,0.0,5.0,5.0,5.0,,,,,,,,,,,,,,,,,,,,,231.6626405,231.6626405,,,241.4643583,242.5381924,239.4494166,241.4643583,242.5381924,242.5381924,242.5381924,242.5381924,n,0.6246552000000065,243.3909805,249.1504499,243.3909805,249.1504499,243.3909805,249.1504499,243.3909805,249.1504499,26.91358024691357,3.0344491000000176,space,231.6626405,231.6626405,5.707091300000002,,,,,,,,,,,,,,,,,,,,,,,,23.0,1.0,2024-08-29_11h17.55.677,robot_sternberg_sign,2022.2.5,59.976597131794165,
8,"['S', 'V', 'W', 'Z', 'P']",True,V,5.0,letter,1.0,True,False,"['robot_stimuli\\\\filler.mp4', 'robot_stimuli\\\\filler.mp4', 'robot_stimuli\\\\filler.mp4', 'robot_stimuli\\\\filler.mp4', 'robot_stimuli\\\\filler.mp4']",robot_stimuli\\filler.mp4,4.0,0.0,0.0,0.0,0.0,0.0,6.0,6.0,6.0,,,,,,,,,,,,,,,,,,,,,249.1504499,249.1504499,space,1.6036144000000263,262.4634225,263.5361802,260.4416335,262.4634225,263.5361802,263.5361802,263.5361802,263.5361802,c,0.6821683999999948,264.363024,264.363024,264.363024,264.363024,264.363024,264.363024,264.363024,264.363024,,,,,,,,,,,,,,,,,,,,,,,,,,,,,,23.0,1.0,2024-08-29_11h17.55.677,robot_sternberg_sign,2022.2.5,59.976597131794165,
9,"['S', 'M', 'J', 'X', 'L']",False,G,5.0,letter,1.0,False,False,"['robot_stimuli\\\\filler.mp4', 'robot_stimuli\\\\filler.mp4', 'robot_stimuli\\\\filler.mp4', 'robot_stimuli\\\\filler.mp4', 'robot_stimuli\\\\filler.mp4']",robot_stimuli\\filler.mp4,4.0,0.0,0.0,0.0,0.0,0.0,7.0,7.0,7.0,,,,,,,,,,,,,,,,,,,,,264.363024,264.363024,,,276.43827220000003,277.5049468,274.219074,276.43827220000003,277.5049468,277.5049468,277.5049468,277.5049468,n,0.5932678000000635,278.3268049,278.3268049,278.3268049,278.3268049,278.3268049,278.3268049,278.3268049,278.3268049,,,,264.363024,264.363024,,,,,,,,,,,,,,,,,,,,,,,,,23.0,1.0,2024-08-29_11h17.55.677,robot_sternberg_sign,2022.2.5,59.976597131794165,
10,"['T', 'S', 'B', 'C', 'N']",True,T,5.0,letter,1.0,False,True,"['robot_stimuli\\\\filler.mp4', 'robot_stimuli\\\\filler.mp4', 'robot_stimuli\\\\filler.mp4', 'robot_stimuli\\\\filler.mp4', 'robot_stimuli\\\\filler.mp4']",robot_stimuli\\filler.mp4,4.0,0.0,0.0,0.0,0.0,0.0,8.0,8.0,8.0,,,,,,,,,,,,,,,,,,,,,278.3268049,278.3268049,,,290.39927279999995,291.4613899,288.190832,290.39927279999995,291.4613899,291.4613899,291.4613899,291.4613899,c,0.5087006000000258,292.1126104,298.4362244,292.1126104,298.4362244,292.1126104,298.4362244,292.1126104,298.4362244,32.932098765432094,5.831892899999957,space,278.3268049,278.3268049,6.24978310000003,,,,,,,,,,,,,,,,,,,,,,,,23.0,1.0,2024-08-29_11h17.55.677,robot_sternberg_sign,2022.2.5,59.976597131794165,
11,"['R_Base_Z_For', 'R_Head_Y_Back', 'R_Torso_X_Back']",False,R_Torso_X_For,3.0,robot,2.0,True,False,"['robot_stimuli\\R_Base_Z_For.mp4', 'robot_stimuli\\R_Head_Y_Back.mp4', 'robot_stimuli\\R_Torso_X_Back.mp4']",robot_stimuli\R_Torso_X_For.mp4,4.0,0.0,0.0,0.0,0.0,0.0,9.0,9.0,9.0,,,,,,,,,,,,,,,,,,,,,298.4362244,298.4362244,space,1.935028500000016,312.5877131,313.6829964,,,,313.6829964,313.6829964,313.6829964,c,1.9437570999999425,317.3362245999999,317.3362245999999,317.3362245999999,317.3362245999999,317.3362245999999,317.3362245999999,317.3362245999999,317.3362245999999,,,,,,,308.9538081999999,313.6829964,,,,,,,,,,,,,,,,,,,,,,23.0,1.0,2024-08-29_11h17.55.677,robot_sternberg_sign,2022.2.5,59.976597131794165,
12,"['R_Torso_Y_For', 'R_Base_Z_Back', 'R_Arm_X_For']",True,R_Torso_Y_For,3.0,robot,2.0,False,False,"['robot_stimuli\\R_Torso_Y_For.mp4', 'robot_stimuli\\R_Base_Z_Back.mp4', 'robot_stimuli\\R_Arm_X_For.mp4']",robot_stimuli\R_Torso_Y_For.mp4,4.0,0.0,0.0,0.0,0.0,0.0,10.0,10.0,10.0,,,,,,,,,,,,,,,,,,,,,317.3362245999999,317.3362245999999,,,329.4591902,330.5505551,,,,330.5505551,330.5505551,330.5505551,c,2.28424789999994,334.199983,334.199983,334.199983,334.199983,334.199983,334.199983,334.199983,334.199983,,,,317.3362245999999,317.3362245999999,,325.82517069999994,330.5505551,,,,,,,,,,,,,,,,,,,,,,23.0,1.0,2024-08-29_11h17.55.677,robot_sternberg_sign,2022.2.5,59.976597131794165,
13,"['R_Head_Y_For', 'L_Base_X_For', 'L_Head_Y_Back']",True,L_Base_X_For,3.0,robot,2.0,False,True,"['robot_stimuli\\R_Head_Y_For.mp4', 'robot_stimuli\\L_Base_X_For.mp4', 'robot_stimuli\\L_Head_Y_Back.mp4']",robot_stimuli\L_Base_X_For.mp4,4.0,0.0,0.0,0.0,0.0,0.0,11.0,11.0,11.0,,,,,,,,,,,,,,,,,,,,,334.199983,334.199983,,,346.3015333,335.2935119,,,,347.3956625999999,347.3956625999999,347.3956625999999,c,2.391564200000033,350.9963598999999,354.83088539999994,350.9963598999999,354.83088539999994,350.9963598999999,354.83088539999994,350.9963598999999,354.83088539999994,18.734567901234566,2.93467899999996,space,334.199983,334.199983,3.765804499999916,342.6671996,347.3956625999999,,,,,,,,,,,,,,,,,,,,,,23.0,1.0,2024-08-29_11h17.55.677,robot_sternberg_sign,2022.2.5,59.976597131794165,
14,"['L_Head_Z_Back', 'L_Head_X_Back', 'L_Head_X_For', 'R_Torso_Y_For']",False,R_Head_Z_Back,4.0,robot,2.0,True,False,"['robot_stimuli\\L_Head_Z_Back.mp4', 'robot_stimuli\\L_Head_X_Back.mp4', 'robot_stimuli\\L_Head_X_For.mp4', 'robot_stimuli\\R_Torso_Y_For.mp4']",robot_stimuli\R_Head_Z_Back.mp4,4.0,0.0,0.0,0.0,0.0,0.0,12.0,12.0,12.0,,,,,,,,,,,,,,,,,,,,,354.83088539999994,354.83088539999994,space,1.6362648999999865,372.3051742,373.4070866999999,,,,373.4070866999999,373.4070866999999,373.4070866999999,n,1.6911726000000442,377.0460094,377.0460094,377.0460094,377.0460094,377.0460094,377.0460094,377.0460094,377.0460094,,,,,,,368.6743723,373.4070866999999,,,,,,,,,,,,,,,,,,,,,,23.0,1.0,2024-08-29_11h17.55.677,robot_sternberg_sign,2022.2.5,59.976597131794165,
15,"['R_Torso_Y_For', 'R_Torso_Y_Back', 'R_Base_X_Back', 'R_Base_Y_For']",True,R_Base_Y_For,4.0,robot,2.0,False,False,"['robot_stimuli\\R_Torso_Y_For.mp4', 'robot_stimuli\\R_Torso_Y_Back.mp4', 'robot_stimuli\\R_Base_X_Back.mp4', 'robot_stimuli\\R_Base_Y_For.mp4']",robot_stimuli\R_Base_Y_For.mp4,4.0,0.0,0.0,0.0,0.0,0.0,13.0,13.0,13.0,,,,,,,,,,,,,,,,,,,,,377.0460094,377.0460094,,,392.9603168,394.0621609,,,,394.0621609,394.0621609,394.0621609,c,1.9804969999999853,397.7019603,397.7019603,397.7019603,397.7019603,397.7019603,397.7019603,397.7019603,397.7019603,,,,377.0460094,377.0460094,,389.313501,394.0621609,,,,,,,,,,,,,,,,,,,,,,23.0,1.0,2024-08-29_11h17.55.677,robot_sternberg_sign,2022.2.5,59.976597131794165,
16,"['R_Base_X_For', 'R_Head_X_For', 'L_Base_X_Back', 'L_Base_Y_Back']",True,R_Head_X_For,4.0,robot,2.0,False,True,"['robot_stimuli\\R_Base_X_For.mp4', 'robot_stimuli\\R_Head_X_For.mp4', 'robot_stimuli\\L_Base_X_Back.mp4', 'robot_stimuli\\L_Base_Y_Back.mp4']",robot_stimuli\R_Head_X_For.mp4,4.0,0.0,0.0,0.0,0.0,0.0,14.0,14.0,14.0,,,,,,,,,,,,,,,,,,,,,397.7019603,397.7019603,,,413.4550405,414.5457386999999,,,,414.5457386999999,414.5457386999999,414.5457386999999,c,1.632876600000003,418.2074994,424.826387,418.2074994,424.826387,418.2074994,424.826387,418.2074994,424.826387,17.34567901234567,4.552210800000012,space,397.7019603,397.7019603,6.570669299999935,409.8848191999999,414.5457386999999,,,,,,,,,,,,,,,,,,,,,,23.0,1.0,2024-08-29_11h17.55.677,robot_sternberg_sign,2022.2.5,59.976597131794165,
17,"['L_Torso_X_Back', 'R_Base_Y_For', 'L_Base_Z_Back', 'R_Torso_Z_Back', 'L_Arm_Z_For']",True,L_Torso_X_Back,5.0,robot,2.0,True,False,"['robot_stimuli\\L_Torso_X_Back.mp4', 'robot_stimuli\\R_Base_Y_For.mp4', 'robot_stimuli\\L_Base_Z_Back.mp4', 'robot_stimuli\\R_Torso_Z_Back.mp4', 'robot_stimuli\\L_Arm_Z_For.mp4']",robot_stimuli\L_Torso_X_Back.mp4,4.0,0.0,0.0,0.0,0.0,0.0,15.0,15.0,15.0,,,,,,,,,,,,,,,,,,,,,424.826387,424.826387,space,1.0638105000000166,445.5004772,446.5784997,,,,446.5784997,446.5784997,446.5784997,c,3.2634659999999656,450.2095594,450.2095594,450.2095594,450.2095594,450.2095594,450.2095594,450.2095594,450.2095594,,,,,,,441.8769805,446.5784997,,,,,,,,,,,,,,,,,,,,,,23.0,1.0,2024-08-29_11h17.55.677,robot_sternberg_sign,2022.2.5,59.976597131794165,
18,"['R_Torso_Y_Back', 'L_Base_Y_For', 'R_Head_Z_For', 'R_Base_X_For', 'L_Torso_Y_For']",False,L_Torso_X_Back,5.0,robot,2.0,False,False,"['robot_stimuli\\R_Torso_Y_Back.mp4', 'robot_stimuli\\L_Base_Y_For.mp4', 'robot_stimuli\\R_Head_Z_For.mp4', 'robot_stimuli\\R_Base_X_For.mp4', 'robot_stimuli\\L_Torso_Y_For.mp4']",robot_stimuli\L_Torso_X_Back.mp4,4.0,0.0,0.0,0.0,0.0,0.0,16.0,16.0,16.0,,,,,,,,,,,,,,,,,,,,,450.2095594,450.2095594,,,469.6669704,470.7436527,,,,470.7436527,470.7436527,470.7436527,c,4.675253100000049,475.442898,475.442898,475.442898,475.442898,475.442898,475.442898,475.442898,475.442898,,,,450.2095594,450.2095594,,466.0339909,470.7436527,,,,,,,,,,,,,,,,,,,,,,23.0,1.0,2024-08-29_11h17.55.677,robot_sternberg_sign,2022.2.5,59.976597131794165,
19,"['R_Base_Z_For', 'R_Head_Y_For', 'R_Base_X_For', 'L_Base_X_Back', 'R_Head_Z_For']",True,R_Base_Z_For,5.0,robot,2.0,False,True,"['robot_stimuli\\R_Base_Z_For.mp4', 'robot_stimuli\\R_Head_Y_For.mp4', 'robot_stimuli\\R_Base_X_For.mp4', 'robot_stimuli\\L_Base_X_Back.mp4', 'robot_stimuli\\R_Head_Z_For.mp4']",robot_stimuli\R_Base_Z_For.mp4,4.0,0.0,0.0,0.0,0.0,0.0,17.0,17.0,17.0,,,,,,,,,,,,,,,,,,,,,475.442898,475.442898,,,494.9226232,496.0135776,,,,496.0135776,496.0135776,496.0135776,c,3.5890685999999903,499.6937501,505.5208516,499.6937501,505.5208516,499.6937501,505.5208516,499.6937501,505.5208516,30.46296296296296,5.283295800000019,space,475.442898,475.442898,5.773140099999949,491.2926887,496.0135776,,,,,,,,,,,,,,,,,,,,,,23.0,1.0,2024-08-29_11h17.55.677,robot_sternberg_sign,2022.2.5,59.976597131794165,
20,,,,,,,,,,,,,,,,,,,,,,,,,,,,,,,,,,,,,,,,,,,,,,,,,,,,,,,,,,,,,,,,,,,,,,505.5208516,505.5208516,505.5208516,,,,,,,,,,,,,,,,,,,,,,,,,
6,"['R_Arm_Z_For', 'R_Torso_Y_Back', 'L_Torso_Z_For', 'R_Torso_Z_For']",False,R_Base_Z_For,4.0,robot,1.0,True,False,"['robot_stimuli\\R_Arm_Z_For.mp4', 'robot_stimuli\\R_Torso_Y_Back.mp4', 'robot_stimuli\\L_Torso_Z_For.mp4', 'robot_stimuli\\R_Torso_Z_For.mp4']",robot_stimuli\R_Base_Z_For.mp4,23.0,,,,,,,,,,,,,0.0,0.0,0.0,0.0,,,,,,,,,,,,,,,,,73.42810729999997,74.5312523,,,,,,,,,78.1786937999999,78.1786937999999,78.1786937999999,78.1786937999999,78.1786937999999,78.1786937999999,78.1786937999999,78.1786937999999,,,,,,,,,,,,,,54.44857329999991,54.44857329999991,space,2.967200600000069,,,,74.5312523,74.5312523,74.5312523,n,2.9636048000000983,,,69.79172599999993,74.5312523,23.0,1.0,2024-08-29_11h29.16.913,robot_sternberg_sign,2022.2.5,60.006900793607954,
7,"['R_Torso_Z_Back', 'R_Torso_X_For', 'R_Arm_X_For', 'R_Base_X_Back']",True,R_Arm_X_For,4.0,robot,1.0,False,False,"['robot_stimuli\\R_Torso_Z_Back.mp4', 'robot_stimuli\\R_Torso_X_For.mp4', 'robot_stimuli\\R_Arm_X_For.mp4', 'robot_stimuli\\R_Base_X_Back.mp4']",robot_stimuli\R_Arm_X_For.mp4,23.0,,,,,,,,,,,,,0.0,1.0,1.0,1.0,,,,,,,,,,,,,,,,,94.1765001,95.2772023,,,,,,,,,98.9121103,98.9121103,98.9121103,98.9121103,98.9121103,98.9121103,98.9121103,98.9121103,,,,,,,,,,,,,,78.1786937999999,78.1786937999999,,,,,,95.2772023,95.2772023,95.2772023,c,2.161369500000092,78.1786937999999,78.1786937999999,90.52964299999996,95.2772023,23.0,1.0,2024-08-29_11h29.16.913,robot_sternberg_sign,2022.2.5,60.006900793607954,
8,"['R_Base_X_For', 'R_Arm_X_For', 'R_Head_Y_Back', 'L_Head_Y_For']",False,L_Arm_X_Back,4.0,robot,1.0,False,False,"['robot_stimuli\\R_Base_X_For.mp4', 'robot_stimuli\\R_Arm_X_For.mp4', 'robot_stimuli\\R_Head_Y_Back.mp4', 'robot_stimuli\\L_Head_Y_For.mp4']",robot_stimuli\L_Arm_X_Back.mp4,23.0,,,,,,,,,,,,,0.0,2.0,2.0,2.0,,,,,,,,,,,,,,,,,114.77160479999998,115.87898889999995,,,,,,,,,119.5140866999999,119.5140866999999,119.5140866999999,119.5140866999999,119.5140866999999,119.5140866999999,119.5140866999999,119.5140866999999,,,,,,,,,,,,,,98.9121103,98.9121103,,,,,,115.87898889999995,115.87898889999995,115.87898889999995,n,1.455872500000055,98.9121103,98.9121103,111.14522799999996,115.87898889999995,23.0,1.0,2024-08-29_11h29.16.913,robot_sternberg_sign,2022.2.5,60.006900793607954,
9,"['R_Arm_Z_For', 'R_Arm_Y_For', 'R_Head_Z_For', 'R_Torso_Y_Back']",True,R_Arm_Y_For,4.0,robot,1.0,False,False,"['robot_stimuli\\R_Arm_Z_For.mp4', 'robot_stimuli\\R_Arm_Y_For.mp4', 'robot_stimuli\\R_Head_Z_For.mp4', 'robot_stimuli\\R_Torso_Y_Back.mp4']",robot_stimuli\R_Arm_Y_For.mp4,23.0,,,,,,,,,,,,,0.0,3.0,3.0,3.0,,,,,,,,,,,,,,,,,135.3560197999999,136.44597149999993,,,,,,,,,140.06838260000006,140.06838260000006,140.06838260000006,140.06838260000006,140.06838260000006,140.06838260000006,140.06838260000006,140.06838260000006,,,,,,,,,,,,,,119.5140866999999,119.5140866999999,,,,,,136.44597149999993,136.44597149999993,136.44597149999993,c,3.5768666000001303,119.5140866999999,119.5140866999999,131.71439069999985,136.44597149999993,23.0,1.0,2024-08-29_11h29.16.913,robot_sternberg_sign,2022.2.5,60.006900793607954,
10,"['L_Head_X_For', 'L_Head_Z_For', 'R_Base_X_Back', 'R_Torso_Z_For']",True,R_Base_X_Back,4.0,robot,1.0,False,False,"['robot_stimuli\\L_Head_X_For.mp4', 'robot_stimuli\\L_Head_Z_For.mp4', 'robot_stimuli\\R_Base_X_Back.mp4', 'robot_stimuli\\R_Torso_Z_For.mp4']",robot_stimuli\R_Base_X_Back.mp4,23.0,,,,,,,,,,,,,0.0,4.0,4.0,4.0,,,,,,,,,,,,,,,,,155.92829870000003,157.0289136,,,,,,,,,160.6680596,160.6680596,160.6680596,160.6680596,160.6680596,160.6680596,160.6680596,160.6680596,,,,,,,,,,,,,,140.06838260000006,140.06838260000006,,,,,,157.0289136,157.0289136,157.0289136,c,2.185181100000136,140.06838260000006,140.06838260000006,152.28311040000006,157.0289136,23.0,1.0,2024-08-29_11h29.16.913,robot_sternberg_sign,2022.2.5,60.006900793607954,
11,"['R_Base_X_Back', 'R_Head_Y_Back', 'L_Torso_X_Back', 'L_Base_X_For']",False,L_Head_X_For,4.0,robot,1.0,False,False,"['robot_stimuli\\R_Base_X_Back.mp4', 'robot_stimuli\\R_Head_Y_Back.mp4', 'robot_stimuli\\L_Torso_X_Back.mp4', 'robot_stimuli\\L_Base_X_For.mp4']",robot_stimuli\L_Head_X_For.mp4,23.0,,,,,,,,,,,,,0.0,5.0,5.0,5.0,,,,,,,,,,,,,,,,,176.50864880000006,177.5956812999999,,,,,,,,,181.15885449999985,181.15885449999985,181.15885449999985,181.15885449999985,181.15885449999985,181.15885449999985,181.15885449999985,181.15885449999985,,,,,,,,,,,,,,160.6680596,160.6680596,,,,,,177.5956812999999,177.5956812999999,177.5956812999999,n,2.755385800000113,160.6680596,160.6680596,172.9452121999999,177.5956812999999,23.0,1.0,2024-08-29_11h29.16.913,robot_sternberg_sign,2022.2.5,60.006900793607954,
12,"['L_Torso_X_For', 'R_Torso_Z_For', 'L_Head_Y_Back', 'R_Head_Z_For']",False,R_Arm_X_Back,4.0,robot,1.0,False,False,"['robot_stimuli\\L_Torso_X_For.mp4', 'robot_stimuli\\R_Torso_Z_For.mp4', 'robot_stimuli\\L_Head_Y_Back.mp4', 'robot_stimuli\\R_Head_Z_For.mp4']",robot_stimuli\R_Arm_X_Back.mp4,23.0,,,,,,,,,,,,,0.0,6.0,6.0,6.0,,,,,,,,,,,,,,,,,197.0572228,198.1505254,,,,,,,,,201.79958069999984,201.79958069999984,201.79958069999984,201.79958069999984,201.79958069999984,201.79958069999984,201.79958069999984,201.79958069999984,,,,,,,,,,,,,,181.15885449999985,181.15885449999985,,,,,,198.1505254,198.1505254,198.1505254,n,1.37695900000017,181.15885449999985,181.15885449999985,193.4254070000001,198.1505254,23.0,1.0,2024-08-29_11h29.16.913,robot_sternberg_sign,2022.2.5,60.006900793607954,
13,"['L_Head_Y_Back', 'R_Torso_X_For', 'R_Base_Z_For', 'R_Head_Z_For']",True,R_Torso_X_For,4.0,robot,1.0,False,False,"['robot_stimuli\\L_Head_Y_Back.mp4', 'robot_stimuli\\R_Torso_X_For.mp4', 'robot_stimuli\\R_Base_Z_For.mp4', 'robot_stimuli\\R_Head_Z_For.mp4']",robot_stimuli\R_Torso_X_For.mp4,23.0,,,,,,,,,,,,,0.0,7.0,7.0,7.0,,,,,,,,,,,,,,,,,217.6910772,218.77834649999988,,,,,,,,,222.41769749999992,222.41769749999992,222.41769749999992,222.41769749999992,222.41769749999992,222.41769749999992,222.41769749999992,222.41769749999992,,,,,,,,,,,,,,201.79958069999984,201.79958069999984,,,,,,218.77834649999988,218.77834649999988,218.77834649999988,n,3.484950900000058,201.79958069999984,201.79958069999984,214.04789049999988,218.77834649999988,23.0,1.0,2024-08-29_11h29.16.913,robot_sternberg_sign,2022.2.5,60.006900793607954,
14,"['R_Head_Z_For', 'L_Torso_X_For', 'R_Base_Y_Back', 'L_Arm_X_For']",True,L_Arm_X_For,4.0,robot,1.0,False,False,"['robot_stimuli\\R_Head_Z_For.mp4', 'robot_stimuli\\L_Torso_X_For.mp4', 'robot_stimuli\\R_Base_Y_Back.mp4', 'robot_stimuli\\L_Arm_X_For.mp4']",robot_stimuli\L_Arm_X_For.mp4,23.0,,,,,,,,,,,,,0.0,8.0,8.0,8.0,,,,,,,,,,,,,,,,,238.2872497,223.49250010000003,,,,,,,,,243.01752509999997,243.01752509999997,243.01752509999997,243.01752509999997,243.01752509999997,243.01752509999997,243.01752509999997,243.01752509999997,,,,,,,,,,,,,,222.41769749999992,222.41769749999992,,,,,,239.37876389999985,239.37876389999985,239.37876389999985,c,1.9477982000000795,222.41769749999992,222.41769749999992,234.6549686,239.37876389999985,23.0,1.0,2024-08-29_11h29.16.913,robot_sternberg_sign,2022.2.5,60.006900793607954,
15,"['L_Arm_Z_Back', 'R_Base_X_For', 'L_Base_Y_Back', 'L_Torso_Y_For']",False,L_Head_Y_Back,4.0,robot,1.0,False,True,"['robot_stimuli\\L_Arm_Z_Back.mp4', 'robot_stimuli\\R_Base_X_For.mp4', 'robot_stimuli\\L_Base_Y_Back.mp4', 'robot_stimuli\\L_Torso_Y_For.mp4']",robot_stimuli\L_Head_Y_Back.mp4,23.0,,,,,,,,,,,,,0.0,9.0,9.0,9.0,,,,,,,,,,,,,,,,,258.7467779,259.8473232,,,,,,,,,263.5089428,268.1687593999999,263.5089428,268.1687593999999,263.5089428,268.1687593999999,263.5089428,268.1687593999999,33.08641975308642,3.7695825999999215,space,,,4.601696000000175,,,,,,,,243.01752509999997,243.01752509999997,,,,,,259.8473232,259.8473232,259.8473232,n,1.351748200000202,243.01752509999997,243.01752509999997,255.1105093,259.8473232,23.0,1.0,2024-08-29_11h29.16.913,robot_sternberg_sign,2022.2.5,60.006900793607954,
16,"['L_Arm_X_For', 'L_Head_X_For', 'L_Base_X_Back', 'R_Torso_X_Back', 'R_Head_Z_For', 'R_Base_Y_For']",False,R_Head_Z_Back,6.0,robot,1.0,True,False,"['robot_stimuli\\L_Arm_X_For.mp4', 'robot_stimuli\\L_Head_X_For.mp4', 'robot_stimuli\\L_Base_X_Back.mp4', 'robot_stimuli\\R_Torso_X_Back.mp4', 'robot_stimuli\\R_Head_Z_For.mp4', 'robot_stimuli\\R_Base_Y_For.mp4']",robot_stimuli\R_Head_Z_Back.mp4,23.0,,,,,,,,,,,,,0.0,10.0,10.0,10.0,,,,,,,,,,,,,,,,,293.9081427,294.99681,,,,,,,,,298.64610030000006,298.64610030000006,298.64610030000006,298.64610030000006,298.64610030000006,298.64610030000006,298.64610030000006,298.64610030000006,,,,,,,,,,,,,,268.1687593999999,268.1687593999999,space,2.4540329000001293,,,,294.99681,294.99681,294.99681,n,2.697837900000195,,,290.26718419999986,294.99681,23.0,1.0,2024-08-29_11h29.16.913,robot_sternberg_sign,2022.2.5,60.006900793607954,
17,"['R_Head_Z_For', 'L_Arm_X_Back', 'R_Base_Z_Back', 'R_Head_X_For', 'L_Base_Y_For', 'L_Torso_Z_Back']",True,L_Arm_X_Back,6.0,robot,1.0,False,False,"['robot_stimuli\\R_Head_Z_For.mp4', 'robot_stimuli\\L_Arm_X_Back.mp4', 'robot_stimuli\\R_Base_Z_Back.mp4', 'robot_stimuli\\R_Head_X_For.mp4', 'robot_stimuli\\L_Base_Y_For.mp4', 'robot_stimuli\\L_Torso_Z_Back.mp4']",robot_stimuli\L_Arm_X_Back.mp4,23.0,,,,,,,,,,,,,0.0,11.0,11.0,11.0,,,,,,,,,,,,,,,,,321.62190729999986,322.7296227999999,,,,,,,,,326.78128549999985,326.78128549999985,326.78128549999985,326.78128549999985,326.78128549999985,326.78128549999985,326.78128549999985,326.78128549999985,,,,,,,,,,,,,,298.64610030000006,298.64610030000006,,,,,,322.7296227999999,322.7296227999999,322.7296227999999,n,4.021031500000163,298.64610030000006,298.64610030000006,318.11980830000005,322.7296227999999,23.0,1.0,2024-08-29_11h29.16.913,robot_sternberg_sign,2022.2.5,60.006900793607954,
18,"['R_Head_Z_For', 'R_Arm_Y_For', 'L_Head_Z_Back', 'L_Head_X_For', 'L_Torso_Z_Back', 'R_Torso_Y_Back']",True,R_Torso_Y_Back,6.0,robot,1.0,False,False,"['robot_stimuli\\R_Head_Z_For.mp4', 'robot_stimuli\\R_Arm_Y_For.mp4', 'robot_stimuli\\L_Head_Z_Back.mp4', 'robot_stimuli\\L_Head_X_For.mp4', 'robot_stimuli\\L_Torso_Z_Back.mp4', 'robot_stimuli\\R_Torso_Y_Back.mp4']",robot_stimuli\R_Torso_Y_Back.mp4,23.0,,,,,,,,,,,,,0.0,12.0,12.0,12.0,,,,,,,,,,,,,,,,,349.82098859999985,327.8591736,,,,,,,,,354.5520261999999,354.5520261999999,354.5520261999999,354.5520261999999,354.5520261999999,354.5520261999999,354.5520261999999,354.5520261999999,,,,,,,,,,,,,,326.78128549999985,326.78128549999985,,,,,,350.9123546,350.9123546,350.9123546,c,1.7186831999999868,326.78128549999985,326.78128549999985,346.17991040000004,350.9123546,23.0,1.0,2024-08-29_11h29.16.913,robot_sternberg_sign,2022.2.5,60.006900793607954,
19,"['R_Arm_X_For', 'R_Base_Z_Back', 'L_Torso_Y_Back', 'R_Base_Z_For', 'L_Torso_Z_For', 'R_Base_X_For']",True,R_Base_X_For,6.0,robot,1.0,False,False,"['robot_stimuli\\R_Arm_X_For.mp4', 'robot_stimuli\\R_Base_Z_Back.mp4', 'robot_stimuli\\L_Torso_Y_Back.mp4', 'robot_stimuli\\R_Base_Z_For.mp4', 'robot_stimuli\\L_Torso_Z_For.mp4', 'robot_stimuli\\R_Base_X_For.mp4']",robot_stimuli\R_Base_X_For.mp4,23.0,,,,,,,,,,,,,0.0,13.0,13.0,13.0,,,,,,,,,,,,,,,,,377.60561139999993,378.6962676,,,,,,,,,382.2353118,382.2353118,382.2353118,382.2353118,382.2353118,382.2353118,382.2353118,382.2353118,,,,,,,,,,,,,,354.5520261999999,354.5520261999999,,,,,,378.6962676,378.6962676,378.6962676,c,1.9507190000001629,354.5520261999999,354.5520261999999,374.063894,378.6962676,23.0,1.0,2024-08-29_11h29.16.913,robot_sternberg_sign,2022.2.5,60.006900793607954,
20,"['R_Base_Z_For', 'L_Arm_Z_For', 'R_Head_Z_For', 'R_Arm_Z_Back', 'R_Arm_Y_For', 'R_Base_X_Back']",False,L_Head_Z_For,6.0,robot,1.0,False,False,"['robot_stimuli\\R_Base_Z_For.mp4', 'robot_stimuli\\L_Arm_Z_For.mp4', 'robot_stimuli\\R_Head_Z_For.mp4', 'robot_stimuli\\R_Arm_Z_Back.mp4', 'robot_stimuli\\R_Arm_Y_For.mp4', 'robot_stimuli\\R_Base_X_Back.mp4']",robot_stimuli\L_Head_Z_For.mp4,23.0,,,,,,,,,,,,,0.0,14.0,14.0,14.0,,,,,,,,,,,,,,,,,405.4385974000001,406.5302518,,,,,,,,,410.1594558999999,410.1594558999999,410.1594558999999,410.1594558999999,410.1594558999999,410.1594558999999,410.1594558999999,410.1594558999999,,,,,,,,,,,,,,382.2353118,382.2353118,,,,,,406.5302518,406.5302518,406.5302518,n,1.699576400000069,382.2353118,382.2353118,401.79675140000006,406.5302518,23.0,1.0,2024-08-29_11h29.16.913,robot_sternberg_sign,2022.2.5,60.006900793607954,
21,"['L_Arm_Y_For', 'L_Base_Y_Back', 'L_Head_Z_For', 'R_Arm_Y_For', 'R_Base_X_For', 'R_Base_X_Back']",True,R_Base_X_For,6.0,robot,1.0,False,False,"['robot_stimuli\\L_Arm_Y_For.mp4', 'robot_stimuli\\L_Base_Y_Back.mp4', 'robot_stimuli\\L_Head_Z_For.mp4', 'robot_stimuli\\R_Arm_Y_For.mp4', 'robot_stimuli\\R_Base_X_For.mp4', 'robot_stimuli\\R_Base_X_Back.mp4']",robot_stimuli\R_Base_X_For.mp4,23.0,,,,,,,,,,,,,0.0,15.0,15.0,15.0,,,,,,,,,,,,,,,,,433.1913165,434.280633,,,,,,,,,437.8305999999999,437.8305999999999,437.8305999999999,437.8305999999999,437.8305999999999,437.8305999999999,437.8305999999999,437.8305999999999,,,,,,,,,,,,,,410.1594558999999,410.1594558999999,,,,,,434.280633,434.280633,434.280633,c,1.8867718000001328,410.1594558999999,410.1594558999999,429.5504657999999,434.280633,23.0,1.0,2024-08-29_11h29.16.913,robot_sternberg_sign,2022.2.5,60.006900793607954,
22,"['R_Torso_X_Back', 'R_Base_Y_For', 'L_Base_Z_Back', 'R_Base_Z_Back', 'R_Head_Y_Back', 'R_Head_X_For']",False,R_Torso_Y_For,6.0,robot,1.0,False,False,"['robot_stimuli\\R_Torso_X_Back.mp4', 'robot_stimuli\\R_Base_Y_For.mp4', 'robot_stimuli\\L_Base_Z_Back.mp4', 'robot_stimuli\\R_Base_Z_Back.mp4', 'robot_stimuli\\R_Head_Y_Back.mp4', 'robot_stimuli\\R_Head_X_For.mp4']",robot_stimuli\R_Torso_Y_For.mp4,23.0,,,,,,,,,,,,,0.0,16.0,16.0,16.0,,,,,,,,,,,,,,,,,461.0571024,462.1443054999999,,,,,,,,,465.7830625999999,465.7830625999999,465.7830625999999,465.7830625999999,465.7830625999999,465.7830625999999,465.7830625999999,465.7830625999999,,,,,,,,,,,,,,437.8305999999999,437.8305999999999,,,,,,462.1443054999999,462.1443054999999,462.1443054999999,n,2.2225326000002497,437.8305999999999,437.8305999999999,457.4280296999999,462.1443054999999,23.0,1.0,2024-08-29_11h29.16.913,robot_sternberg_sign,2022.2.5,60.006900793607954,
23,"['L_Arm_X_Back', 'R_Torso_X_Back', 'L_Base_Z_For', 'R_Head_Y_For', 'R_Arm_Y_For', 'R_Torso_Z_Back']",True,R_Arm_Y_For,6.0,robot,1.0,False,False,"['robot_stimuli\\L_Arm_X_Back.mp4', 'robot_stimuli\\R_Torso_X_Back.mp4', 'robot_stimuli\\L_Base_Z_For.mp4', 'robot_stimuli\\R_Head_Y_For.mp4', 'robot_stimuli\\R_Arm_Y_For.mp4', 'robot_stimuli\\R_Torso_Z_Back.mp4']",robot_stimuli\R_Arm_Y_For.mp4,23.0,,,,,,,,,,,,,0.0,17.0,17.0,17.0,,,,,,,,,,,,,,,,,488.9732733,490.0625971999999,,,,,,,,,493.5695522,493.5695522,493.5695522,493.5695522,493.5695522,493.5695522,493.5695522,493.5695522,,,,,,,,,,,,,,465.7830625999999,465.7830625999999,,,,,,490.0625971999999,490.0625971999999,490.0625971999999,c,1.184184200000118,465.7830625999999,465.7830625999999,485.3429281,490.0625971999999,23.0,1.0,2024-08-29_11h29.16.913,robot_sternberg_sign,2022.2.5,60.006900793607954,
24,"['R_Base_Z_For', 'L_Base_Y_For', 'R_Head_Y_Back', 'R_Torso_Y_For', 'L_Torso_X_Back', 'L_Head_Y_For']",False,L_Head_X_Back,6.0,robot,1.0,False,False,"['robot_stimuli\\R_Base_Z_For.mp4', 'robot_stimuli\\L_Base_Y_For.mp4', 'robot_stimuli\\R_Head_Y_Back.mp4', 'robot_stimuli\\R_Torso_Y_For.mp4', 'robot_stimuli\\L_Torso_X_Back.mp4', 'robot_stimuli\\L_Head_Y_For.mp4']",robot_stimuli\L_Head_X_Back.mp4,23.0,,,,,,,,,,,,,0.0,18.0,18.0,18.0,,,,,,,,,,,,,,,,,516.8214253,,,,,,,,,,521.5714984,521.5714984,521.5714984,521.5714984,521.5714984,521.5714984,521.5714984,521.5714984,,,,,,,,,,,,,,493.5695522,493.5695522,,,,,,517.9177039,517.9177039,517.9177039,n,1.1203811000000314,493.5695522,493.5695522,513.1794988999999,517.9177039,23.0,1.0,2024-08-29_11h29.16.913,robot_sternberg_sign,2022.2.5,60.006900793607954,
25,"['R_Head_Z_Back', 'R_Head_X_For', 'L_Head_Z_For', 'L_Arm_Z_For', 'R_Torso_Z_For', 'R_Head_Y_Back']",False,L_Head_Y_For,6.0,robot,1.0,False,True,"['robot_stimuli\\R_Head_Z_Back.mp4', 'robot_stimuli\\R_Head_X_For.mp4', 'robot_stimuli\\L_Head_Z_For.mp4', 'robot_stimuli\\L_Arm_Z_For.mp4', 'robot_stimuli\\R_Torso_Z_For.mp4', 'robot_stimuli\\R_Head_Y_Back.mp4']",robot_stimuli\L_Head_Y_For.mp4,23.0,,,,,,,,,,,,,0.0,19.0,19.0,19.0,,,,,,,,,,,,,,,,,544.9740241999999,546.0648239999999,,,,,,,,,549.7484506,555.7909487999999,549.7484506,555.7909487999999,549.7484506,555.7909487999999,549.7484506,555.7909487999999,35.24691358024691,5.624958200000037,space,,,5.986090300000114,,,,,,,,521.5714984,521.5714984,,,,,,546.0648239999999,546.0648239999999,546.0648239999999,n,2.406510600000047,521.5714984,521.5714984,541.3440125999999,546.0648239999999,23.0,1.0,2024-08-29_11h29.16.913,robot_sternberg_sign,2022.2.5,60.006900793607954,
26,"['R_Head_X_For', 'R_Head_X_Back']",False,R_Base_Y_For,2.0,robot,1.0,True,False,"['robot_stimuli\\R_Head_X_For.mp4', 'robot_stimuli\\R_Head_X_Back.mp4']",robot_stimuli\R_Base_Y_For.mp4,23.0,,,,,,,,,,,,,0.0,20.0,20.0,20.0,,,,,,,,,,,,,,,,,565.4854001,566.565866,,,,,,,,,570.2143981,570.2143981,570.2143981,570.2143981,570.2143981,570.2143981,570.2143981,570.2143981,,,,,,,,,,,,,,555.7909487999999,555.7909487999999,space,1.2404377000000295,,,,566.565866,566.565866,566.565866,n,1.4653496000000814,,,561.8563493,566.565866,23.0,1.0,2024-08-29_11h29.16.913,robot_sternberg_sign,2022.2.5,60.006900793607954,
27,"['L_Arm_Y_Back', 'R_Head_X_For']",False,L_Base_Z_For,2.0,robot,1.0,False,False,"['robot_stimuli\\L_Arm_Y_Back.mp4', 'robot_stimuli\\R_Head_X_For.mp4']",robot_stimuli\L_Base_Z_For.mp4,23.0,,,,,,,,,,,,,0.0,21.0,21.0,21.0,,,,,,,,,,,,,,,,,578.6602436,579.7464830999999,,,,,,,,,583.3764364999998,583.3764364999998,583.3764364999998,583.3764364999998,583.3764364999998,583.3764364999998,583.3764364999998,583.3764364999998,,,,,,,,,,,,,,570.2143981,570.2143981,,,,,,579.7464830999999,579.7464830999999,579.7464830999999,n,1.49203690000013,570.2143981,570.2143981,575.0312536,579.7464830999999,23.0,1.0,2024-08-29_11h29.16.913,robot_sternberg_sign,2022.2.5,60.006900793607954,
28,"['R_Arm_X_Back', 'L_Head_Y_For']",False,L_Base_X_Back,2.0,robot,1.0,False,False,"['robot_stimuli\\R_Arm_X_Back.mp4', 'robot_stimuli\\L_Head_Y_For.mp4']",robot_stimuli\L_Base_X_Back.mp4,23.0,,,,,,,,,,,,,0.0,22.0,22.0,22.0,,,,,,,,,,,,,,,,,591.8267752999999,592.9137548,,,,,,,,,596.5294344,596.5294344,596.5294344,596.5294344,596.5294344,596.5294344,596.5294344,596.5294344,,,,,,,,,,,,,,583.3764364999998,583.3764364999998,,,,,,592.9137548,592.9137548,592.9137548,n,1.0765409000000543,583.3764364999998,583.3764364999998,588.1868962,592.9137548,23.0,1.0,2024-08-29_11h29.16.913,robot_sternberg_sign,2022.2.5,60.006900793607954,
29,"['R_Base_Y_For', 'L_Base_X_Back']",True,R_Base_Y_For,2.0,robot,1.0,False,False,"['robot_stimuli\\R_Base_Y_For.mp4', 'robot_stimuli\\L_Base_X_Back.mp4']",robot_stimuli\R_Base_Y_For.mp4,23.0,,,,,,,,,,,,,0.0,23.0,23.0,23.0,,,,,,,,,,,,,,,,,604.9367466,597.6085806,,,,,,,,,609.6681609999999,609.6681609999999,609.6681609999999,609.6681609999999,609.6681609999999,609.6681609999999,609.6681609999999,609.6681609999999,,,,,,,,,,,,,,596.5294344,596.5294344,,,,,,606.0289661999999,606.0289661999999,606.0289661999999,c,1.5866278000000875,596.5294344,596.5294344,601.3337691,606.0289661999999,23.0,1.0,2024-08-29_11h29.16.913,robot_sternberg_sign,2022.2.5,60.006900793607954,
30,"['L_Base_X_For', 'L_Base_X_Back']",True,L_Base_X_Back,2.0,robot,1.0,False,False,"['robot_stimuli\\L_Base_X_For.mp4', 'robot_stimuli\\L_Base_X_Back.mp4']",robot_stimuli\L_Base_X_Back.mp4,23.0,,,,,,,,,,,,,0.0,24.0,24.0,24.0,,,,,,,,,,,,,,,,,618.0061385999999,619.0959634,,,,,,,,,622.70158,622.70158,622.70158,622.70158,622.70158,622.70158,622.70158,622.70158,,,,,,,,,,,,,,609.6681609999999,609.6681609999999,,,,,,619.0959634,619.0959634,619.0959634,c,2.03772559999993,609.6681609999999,609.6681609999999,614.4000777,619.0959634,23.0,1.0,2024-08-29_11h29.16.913,robot_sternberg_sign,2022.2.5,60.006900793607954,
31,"['R_Base_Z_For', 'R_Head_Y_Back']",False,L_Arm_Y_For,2.0,robot,1.0,False,False,"['robot_stimuli\\R_Base_Z_For.mp4', 'robot_stimuli\\R_Head_Y_Back.mp4']",robot_stimuli\L_Arm_Y_For.mp4,23.0,,,,,,,,,,,,,0.0,25.0,25.0,25.0,,,,,,,,,,,,,,,,,631.137644,623.7766224999999,,,,,,,,,635.8666242999999,635.8666242999999,635.8666242999999,635.8666242999999,635.8666242999999,635.8666242999999,635.8666242999999,635.8666242999999,,,,,,,,,,,,,,622.70158,622.70158,,,,,,632.2286842,632.2286842,632.2286842,n,1.0090026000000307,622.70158,622.70158,627.4989592000001,632.2286842,23.0,1.0,2024-08-29_11h29.16.913,robot_sternberg_sign,2022.2.5,60.006900793607954,
32,"['R_Base_Z_Back', 'L_Arm_Y_Back']",True,L_Arm_Y_Back,2.0,robot,1.0,False,False,"['robot_stimuli\\R_Base_Z_Back.mp4', 'robot_stimuli\\L_Arm_Y_Back.mp4']",robot_stimuli\L_Arm_Y_Back.mp4,23.0,,,,,,,,,,,,,0.0,26.0,26.0,26.0,,,,,,,,,,,,,,,,,644.2093937999999,645.2967835999999,,,,,,,,,648.9457245,648.9457245,648.9457245,648.9457245,648.9457245,648.9457245,648.9457245,648.9457245,,,,,,,,,,,,,,635.8666242999999,635.8666242999999,,,,,,645.2967835999999,645.2967835999999,645.2967835999999,c,1.101861400000189,635.8666242999999,635.8666242999999,640.5704285999999,645.2967835999999,23.0,1.0,2024-08-29_11h29.16.913,robot_sternberg_sign,2022.2.5,60.006900793607954,
33,"['L_Head_Y_Back', 'L_Head_Y_For']",True,L_Head_Y_Back,2.0,robot,1.0,False,False,"['robot_stimuli\\L_Head_Y_Back.mp4', 'robot_stimuli\\L_Head_Y_For.mp4']",robot_stimuli\L_Head_Y_Back.mp4,23.0,,,,,,,,,,,,,0.0,27.0,27.0,27.0,,,,,,,,,,,,,,,,,657.3676981,658.4457529,,,,,,,,,662.0857029,662.0857029,662.0857029,662.0857029,662.0857029,662.0857029,662.0857029,662.0857029,,,,,,,,,,,,,,648.9457245,648.9457245,,,,,,658.4457529,658.4457529,658.4457529,c,0.9849906000001738,648.9457245,648.9457245,653.7482194,658.4457529,23.0,1.0,2024-08-29_11h29.16.913,robot_sternberg_sign,2022.2.5,60.006900793607954,
34,"['R_Arm_Z_For', 'R_Base_Z_Back']",False,L_Torso_X_Back,2.0,robot,1.0,False,False,"['robot_stimuli\\R_Arm_Z_For.mp4', 'robot_stimuli\\R_Base_Z_Back.mp4']",robot_stimuli\L_Torso_X_Back.mp4,23.0,,,,,,,,,,,,,0.0,28.0,28.0,28.0,,,,,,,,,,,,,,,,,670.4009766999999,671.4801294999999,,,,,,,,,675.1186758,675.1186758,675.1186758,675.1186758,675.1186758,675.1186758,675.1186758,675.1186758,,,,,,,,,,,,,,662.0857029,662.0857029,,,,,,671.4801294999999,671.4801294999999,671.4801294999999,n,1.2707469000001763,662.0857029,662.0857029,666.8814389,671.4801294999999,23.0,1.0,2024-08-29_11h29.16.913,robot_sternberg_sign,2022.2.5,60.006900793607954,
35,"['R_Base_X_For', 'R_Torso_X_Back']",True,R_Base_X_For,2.0,robot,1.0,False,True,"['robot_stimuli\\R_Base_X_For.mp4', 'robot_stimuli\\R_Torso_X_Back.mp4']",robot_stimuli\R_Base_X_For.mp4,23.0,,,,,,,,,,,,,0.0,29.0,29.0,29.0,,,,,,,,,,,,,,,,,683.4406863999999,684.5335736999999,,,,,,,,,688.1149334,692.4565981,688.1149334,692.4565981,688.1149334,692.4565981,688.1149334,692.4565981,12.87037037037037,3.017801800000143,space,,,4.283508700000084,,,,,,,,675.1186758,675.1186758,,,,,,684.5335736999999,684.5335736999999,684.5335736999999,c,2.2004303000001078,675.1186758,675.1186758,679.8129118,684.5335736999999,23.0,1.0,2024-08-29_11h29.16.913,robot_sternberg_sign,2022.2.5,60.006900793607954,
36,"['G', 'X']",True,X,2.0,letter,2.0,True,False,"['robot_stimuli\\\\filler.mp4', 'robot_stimuli\\\\filler.mp4']",robot_stimuli\\filler.mp4,23.0,,,,,,,,,,,,,0.0,30.0,30.0,30.0,,,,,,,,,,,,,,,,,699.4255941,700.4915666999999,,,,,,,,,701.1151352,701.1151352,701.1151352,701.1151352,701.1151352,701.1151352,701.1151352,701.1151352,,,,,,,,,,,,,,692.4565981,692.4565981,space,1.5826780000002143,697.4185586,699.4255941,700.4915666999999,700.4915666999999,700.4915666999999,700.4915666999999,n,0.4345749000001433,,,,,23.0,1.0,2024-08-29_11h29.16.913,robot_sternberg_sign,2022.2.5,60.006900793607954,
37,"['R', 'P']",False,J,2.0,letter,2.0,False,False,"['robot_stimuli\\\\filler.mp4', 'robot_stimuli\\\\filler.mp4']",robot_stimuli\\filler.mp4,23.0,,,,,,,,,,,,,0.0,31.0,31.0,31.0,,,,,,,,,,,,,,,,,706.6791867999999,707.7419647999999,,,,,,,,,708.1653329,708.1653329,708.1653329,708.1653329,708.1653329,708.1653329,708.1653329,708.1653329,,,,,,,,,,,,,,701.1151352,701.1151352,,,704.4707812999999,706.6791867999999,707.7419647999999,707.7419647999999,707.7419647999999,707.7419647999999,n,0.3759933999999703,701.1151352,701.1151352,,,23.0,1.0,2024-08-29_11h29.16.913,robot_sternberg_sign,2022.2.5,60.006900793607954,
38,"['Q', 'B']",False,R,2.0,letter,2.0,False,False,"['robot_stimuli\\\\filler.mp4', 'robot_stimuli\\\\filler.mp4']",robot_stimuli\\filler.mp4,23.0,,,,,,,,,,,,,0.0,32.0,32.0,32.0,,,,,,,,,,,,,,,,,713.7318325999998,714.7885694999999,,,,,,,,,715.6199737999999,715.6199737999999,715.6199737999999,715.6199737999999,715.6199737999999,715.6199737999999,715.6199737999999,715.6199737999999,,,,,,,,,,,,,,708.1653329,708.1653329,,,711.5220330999999,713.7318325999998,714.7885694999999,714.7885694999999,714.7885694999999,714.7885694999999,n,0.6975319000000582,708.1653329,708.1653329,,,23.0,1.0,2024-08-29_11h29.16.913,robot_sternberg_sign,2022.2.5,60.006900793607954,
39,"['Q', 'Z']",False,T,2.0,letter,2.0,False,False,"['robot_stimuli\\\\filler.mp4', 'robot_stimuli\\\\filler.mp4']",robot_stimuli\\filler.mp4,23.0,,,,,,,,,,,,,0.0,33.0,33.0,33.0,,,,,,,,,,,,,,,,,720.9896321,722.0554194,,,,,,,,,722.6848799,722.6848799,722.6848799,722.6848799,722.6848799,722.6848799,722.6848799,722.6848799,,,,,,,,,,,,,,715.6199737999999,715.6199737999999,,,718.9795097999998,720.9896321,722.0554194,722.0554194,722.0554194,722.0554194,n,0.4138514000001123,715.6199737999999,715.6199737999999,,,23.0,1.0,2024-08-29_11h29.16.913,robot_sternberg_sign,2022.2.5,60.006900793607954,
40,"['B', 'C']",True,C,2.0,letter,2.0,False,False,"['robot_stimuli\\\\filler.mp4', 'robot_stimuli\\\\filler.mp4']",robot_stimuli\\filler.mp4,23.0,,,,,,,,,,,,,0.0,34.0,34.0,34.0,,,,,,,,,,,,,,,,,728.2584238999999,729.3313408999999,,,,,,,,,729.9587702999999,729.9587702999999,729.9587702999999,729.9587702999999,729.9587702999999,729.9587702999999,729.9587702999999,729.9587702999999,,,,,,,,,,,,,,722.6848799,722.6848799,,,726.0435059,728.2584238999999,729.3313408999999,729.3313408999999,729.3313408999999,729.3313408999999,n,0.4589765000000625,722.6848799,722.6848799,,,23.0,1.0,2024-08-29_11h29.16.913,robot_sternberg_sign,2022.2.5,60.006900793607954,
41,"['T', 'R']",True,R,2.0,letter,2.0,False,False,"['robot_stimuli\\\\filler.mp4', 'robot_stimuli\\\\filler.mp4']",robot_stimuli\\filler.mp4,23.0,,,,,,,,,,,,,0.0,35.0,35.0,35.0,,,,,,,,,,,,,,,,,735.1339276,736.1967314,,,,,,,,,737.0245988,737.0245988,737.0245988,737.0245988,737.0245988,737.0245988,737.0245988,737.0245988,,,,,,,,,,,,,,729.9587702999999,729.9587702999999,,,733.1136098999999,735.1339276,736.1967314,736.1967314,736.1967314,736.1967314,c,0.6087167000000591,729.9587702999999,729.9587702999999,,,23.0,1.0,2024-08-29_11h29.16.913,robot_sternberg_sign,2022.2.5,60.006900793607954,
42,"['C', 'Z']",True,Z,2.0,letter,2.0,False,False,"['robot_stimuli\\\\filler.mp4', 'robot_stimuli\\\\filler.mp4']",robot_stimuli\\filler.mp4,23.0,,,,,,,,,,,,,0.0,36.0,36.0,36.0,,,,,,,,,,,,,,,,,742.4071020999999,743.4722638,,,,,,,,,744.0977256,744.0977256,744.0977256,744.0977256,744.0977256,744.0977256,744.0977256,744.0977256,,,,,,,,,,,,,,737.0245988,737.0245988,,,740.1886447999999,742.4071020999999,743.4722638,743.4722638,743.4722638,743.4722638,c,0.573700400000007,737.0245988,737.0245988,,,23.0,1.0,2024-08-29_11h29.16.913,robot_sternberg_sign,2022.2.5,60.006900793607954,
43,"['S', 'L']",True,S,2.0,letter,2.0,False,False,"['robot_stimuli\\\\filler.mp4', 'robot_stimuli\\\\filler.mp4']",robot_stimuli\\filler.mp4,23.0,,,,,,,,,,,,,0.0,37.0,37.0,37.0,,,,,,,,,,,,,,,,,749.4559143,750.5220922,,,,,,,,,750.9447007,750.9447007,750.9447007,750.9447007,750.9447007,750.9447007,750.9447007,750.9447007,,,,,,,,,,,,,,744.0977256,744.0977256,,,747.4469335999999,749.4559143,750.5220922,750.5220922,750.5220922,750.5220922,c,0.3564774999999827,744.0977256,744.0977256,,,23.0,1.0,2024-08-29_11h29.16.913,robot_sternberg_sign,2022.2.5,60.006900793607954,
44,"['F', 'D']",False,B,2.0,letter,2.0,False,False,"['robot_stimuli\\\\filler.mp4', 'robot_stimuli\\\\filler.mp4']",robot_stimuli\\filler.mp4,23.0,,,,,,,,,,,,,0.0,38.0,38.0,38.0,,,,,,,,,,,,,,,,,756.3131376,757.3717350000001,,,,,,,,,757.9964750999999,757.9964750999999,757.9964750999999,757.9964750999999,757.9964750999999,757.9964750999999,757.9964750999999,757.9964750999999,,,,,,,,,,,,,,750.9447007,750.9447007,,,754.3009824,756.3131376,757.3717350000001,757.3717350000001,757.3717350000001,757.3717350000001,n,0.4980356999999458,750.9447007,750.9447007,,,23.0,1.0,2024-08-29_11h29.16.913,robot_sternberg_sign,2022.2.5,60.006900793607954,
45,"['F', 'X']",False,K,2.0,letter,2.0,False,True,"['robot_stimuli\\\\filler.mp4', 'robot_stimuli\\\\filler.mp4']",robot_stimuli\\filler.mp4,23.0,,,,,,,,,,,,,0.0,39.0,39.0,39.0,,,,,,,,,,,,,,,,,763.3701209,759.055722,,,,,,,,,765.1005938,769.7673403,765.1005938,769.7673403,765.1005938,769.7673403,765.1005938,769.7673403,17.499999999999996,4.032062799999949,space,,,4.625575500000196,,,,,,,,757.9964750999999,757.9964750999999,,,761.3518350999999,763.3701209,764.4414942,764.4414942,764.4414942,764.4414942,n,0.5008432000001903,757.9964750999999,757.9964750999999,,,23.0,1.0,2024-08-29_11h29.16.913,robot_sternberg_sign,2022.2.5,60.006900793607954,
46,"['R', 'T', 'P', 'L', 'H', 'M']",False,K,6.0,letter,2.0,True,False,"['robot_stimuli\\\\filler.mp4', 'robot_stimuli\\\\filler.mp4', 'robot_stimuli\\\\filler.mp4', 'robot_stimuli\\\\filler.mp4', 'robot_stimuli\\\\filler.mp4', 'robot_stimuli\\\\filler.mp4']",robot_stimuli\\filler.mp4,23.0,,,,,,,,,,,,,0.0,40.0,40.0,40.0,,,,,,,,,,,,,,,,,790.0738061999999,791.1424386999998,,,,,,,,,791.9631403,791.9631403,791.9631403,791.9631403,791.9631403,791.9631403,791.9631403,791.9631403,,,,,,,,,,,,,,769.7673403,769.7673403,space,5.766675800000257,787.8535722,790.0738061999999,791.1424386999998,791.1424386999998,791.1424386999998,791.1424386999998,n,0.712093300000106,,,,,23.0,1.0,2024-08-29_11h29.16.913,robot_sternberg_sign,2022.2.5,60.006900793607954,
47,"['C', 'F', 'P', 'S', 'G', 'M']",False,W,6.0,letter,2.0,False,False,"['robot_stimuli\\\\filler.mp4', 'robot_stimuli\\\\filler.mp4', 'robot_stimuli\\\\filler.mp4', 'robot_stimuli\\\\filler.mp4', 'robot_stimuli\\\\filler.mp4', 'robot_stimuli\\\\filler.mp4']",robot_stimuli\\filler.mp4,23.0,,,,,,,,,,,,,0.0,41.0,41.0,41.0,,,,,,,,,,,,,,,,,806.0789361999999,807.1425444999999,,,,,,,,,807.9731188,807.9731188,807.9731188,807.9731188,807.9731188,807.9731188,807.9731188,807.9731188,,,,,,,,,,,,,,791.9631403,791.9631403,,,804.0661483999999,806.0789361999999,807.1425444999999,807.1425444999999,807.1425444999999,807.1425444999999,n,0.6563379000001532,791.9631403,791.9631403,,,23.0,1.0,2024-08-29_11h29.16.913,robot_sternberg_sign,2022.2.5,60.006900793607954,
48,"['R', 'Z', 'F', 'V', 'K', 'B']",True,V,6.0,letter,2.0,False,False,"['robot_stimuli\\\\filler.mp4', 'robot_stimuli\\\\filler.mp4', 'robot_stimuli\\\\filler.mp4', 'robot_stimuli\\\\filler.mp4', 'robot_stimuli\\\\filler.mp4', 'robot_stimuli\\\\filler.mp4']",robot_stimuli\\filler.mp4,23.0,,,,,,,,,,,,,0.0,42.0,42.0,42.0,,,,,,,,,,,,,,,,,822.3087641999999,823.371953,,,,,,,,,825.6064998999999,825.6064998999999,825.6064998999999,825.6064998999999,825.6064998999999,825.6064998999999,825.6064998999999,825.6064998999999,,,,,,,,,,,,,,807.9731188,807.9731188,,,820.2961093999999,822.3087641999999,823.371953,823.371953,823.371953,823.371953,n,2.0752076000001125,807.9731188,807.9731188,,,23.0,1.0,2024-08-29_11h29.16.913,robot_sternberg_sign,2022.2.5,60.006900793607954,
49,"['H', 'W', 'Z', 'R', 'X', 'N']",True,Z,6.0,letter,2.0,False,False,"['robot_stimuli\\\\filler.mp4', 'robot_stimuli\\\\filler.mp4', 'robot_stimuli\\\\filler.mp4', 'robot_stimuli\\\\filler.mp4', 'robot_stimuli\\\\filler.mp4', 'robot_stimuli\\\\filler.mp4']",robot_stimuli\\filler.mp4,23.0,,,,,,,,,,,,,0.0,43.0,43.0,43.0,,,,,,,,,,,,,,,,,839.7367676,826.6744711,,,,,,,,,841.8355667,841.8355667,841.8355667,841.8355667,841.8355667,841.8355667,841.8355667,841.8355667,,,,,,,,,,,,,,825.6064998999999,825.6064998999999,,,837.7306331999999,839.7367676,840.8082876,840.8082876,840.8082876,840.8082876,c,0.8292906000001494,825.6064998999999,825.6064998999999,,,23.0,1.0,2024-08-29_11h29.16.913,robot_sternberg_sign,2022.2.5,60.006900793607954,
50,"['T', 'B', 'Z', 'P', 'G', 'K']",False,X,6.0,letter,2.0,False,False,"['robot_stimuli\\\\filler.mp4', 'robot_stimuli\\\\filler.mp4', 'robot_stimuli\\\\filler.mp4', 'robot_stimuli\\\\filler.mp4', 'robot_stimuli\\\\filler.mp4', 'robot_stimuli\\\\filler.mp4']",robot_stimuli\\filler.mp4,23.0,,,,,,,,,,,,,0.0,44.0,44.0,44.0,,,,,,,,,,,,,,,,,855.7582005999999,856.8228209,,,,,,,,,857.8449626,857.8449626,857.8449626,857.8449626,857.8449626,857.8449626,857.8449626,857.8449626,,,,,,,,,,,,,,841.8355667,841.8355667,,,853.5405193,855.7582005999999,856.8228209,856.8228209,856.8228209,856.8228209,n,0.84687450000024,841.8355667,841.8355667,,,23.0,1.0,2024-08-29_11h29.16.913,robot_sternberg_sign,2022.2.5,60.006900793607954,
51,"['H', 'Q', 'S', 'V', 'M', 'N']",True,Q,6.0,letter,2.0,False,False,"['robot_stimuli\\\\filler.mp4', 'robot_stimuli\\\\filler.mp4', 'robot_stimuli\\\\filler.mp4', 'robot_stimuli\\\\filler.mp4', 'robot_stimuli\\\\filler.mp4', 'robot_stimuli\\\\filler.mp4']",robot_stimuli\\filler.mp4,23.0,,,,,,,,,,,,,0.0,45.0,45.0,45.0,,,,,,,,,,,,,,,,,871.7970664999999,872.8572911,,,,,,,,,873.6832802999999,873.6832802999999,873.6832802999999,873.6832802999999,873.6832802999999,873.6832802999999,873.6832802999999,873.6832802999999,,,,,,,,,,,,,,857.8449626,857.8449626,,,869.7815761999999,871.7970664999999,872.8572911,872.8572911,872.8572911,872.8572911,c,0.612574400000085,857.8449626,857.8449626,,,23.0,1.0,2024-08-29_11h29.16.913,robot_sternberg_sign,2022.2.5,60.006900793607954,
52,"['S', 'N', 'Q', 'Z', 'W', 'D']",True,S,6.0,letter,2.0,False,False,"['robot_stimuli\\\\filler.mp4', 'robot_stimuli\\\\filler.mp4', 'robot_stimuli\\\\filler.mp4', 'robot_stimuli\\\\filler.mp4', 'robot_stimuli\\\\filler.mp4', 'robot_stimuli\\\\filler.mp4']",robot_stimuli\\filler.mp4,23.0,,,,,,,,,,,,,0.0,46.0,46.0,46.0,,,,,,,,,,,,,,,,,887.8030144,874.7423255,,,,,,,,,890.5028641,890.5028641,890.5028641,890.5028641,890.5028641,890.5028641,890.5028641,890.5028641,,,,,,,,,,,,,,873.6832802999999,873.6832802999999,,,885.586743,887.8030144,888.8723733,888.8723733,888.8723733,888.8723733,c,1.4382880000000569,873.6832802999999,873.6832802999999,,,23.0,1.0,2024-08-29_11h29.16.913,robot_sternberg_sign,2022.2.5,60.006900793607954,
53,"['K', 'N', 'C', 'X', 'V', 'G']",False,L,6.0,letter,2.0,False,False,"['robot_stimuli\\\\filler.mp4', 'robot_stimuli\\\\filler.mp4', 'robot_stimuli\\\\filler.mp4', 'robot_stimuli\\\\filler.mp4', 'robot_stimuli\\\\filler.mp4', 'robot_stimuli\\\\filler.mp4']",robot_stimuli\\filler.mp4,23.0,,,,,,,,,,,,,0.0,47.0,47.0,47.0,,,,,,,,,,,,,,,,,904.8376751,,,,,,,,,,906.5323369,906.5323369,906.5323369,906.5323369,906.5323369,906.5323369,906.5323369,906.5323369,,,,,,,,,,,,,,890.5028641,890.5028641,,,902.6306237,904.8376751,905.9048768,905.9048768,905.9048768,905.9048768,n,0.5734944000000723,890.5028641,890.5028641,,,23.0,1.0,2024-08-29_11h29.16.913,robot_sternberg_sign,2022.2.5,60.006900793607954,
54,"['W', 'Z', 'G', 'V', 'C', 'D']",True,Z,6.0,letter,2.0,False,False,"['robot_stimuli\\\\filler.mp4', 'robot_stimuli\\\\filler.mp4', 'robot_stimuli\\\\filler.mp4', 'robot_stimuli\\\\filler.mp4', 'robot_stimuli\\\\filler.mp4', 'robot_stimuli\\\\filler.mp4']",robot_stimuli\\filler.mp4,23.0,,,,,,,,,,,,,0.0,48.0,48.0,48.0,,,,,,,,,,,,,,,,,920.6413854,921.710621,,,,,,,,,922.7291254,922.7291254,922.7291254,922.7291254,922.7291254,922.7291254,922.7291254,922.7291254,,,,,,,,,,,,,,906.5323369,906.5323369,,,918.6256171,920.6413854,921.710621,921.710621,921.710621,921.710621,c,0.920327000000043,906.5323369,906.5323369,,,23.0,1.0,2024-08-29_11h29.16.913,robot_sternberg_sign,2022.2.5,60.006900793607954,
55,"['C', 'J', 'M', 'L', 'S', 'K']",False,N,6.0,letter,2.0,False,True,"['robot_stimuli\\\\filler.mp4', 'robot_stimuli\\\\filler.mp4', 'robot_stimuli\\\\filler.mp4', 'robot_stimuli\\\\filler.mp4', 'robot_stimuli\\\\filler.mp4', 'robot_stimuli\\\\filler.mp4']",robot_stimuli\\filler.mp4,23.0,,,,,,,,,,,,,0.0,49.0,49.0,49.0,,,,,,,,,,,,,,,,,937.0336857,938.0891196,,,,,,,,,938.9421936,944.1782192,938.9421936,944.1782192,938.9421936,944.1782192,938.9421936,944.1782192,48.05555555555557,4.995238399999835,space,,,5.19176090000019,,,,,,,,922.7291254,922.7291254,,,934.8222631,937.0336857,938.0891196,938.0891196,938.0891196,938.0891196,n,0.5961433000002216,922.7291254,922.7291254,,,23.0,1.0,2024-08-29_11h29.16.913,robot_sternberg_sign,2022.2.5,60.006900793607954,
56,"['L', 'F', 'G', 'K']",True,G,4.0,letter,2.0,True,False,"['robot_stimuli\\\\filler.mp4', 'robot_stimuli\\\\filler.mp4', 'robot_stimuli\\\\filler.mp4', 'robot_stimuli\\\\filler.mp4']",robot_stimuli\\filler.mp4,23.0,,,,,,,,,,,,,0.0,50.0,50.0,50.0,,,,,,,,,,,,,,,,,955.0685859,956.1225208,,,,,,,,,956.7438273,956.7438273,956.7438273,956.7438273,956.7438273,956.7438273,956.7438273,956.7438273,,,,,,,,,,,,,,944.1782192,944.1782192,space,1.1324913000000834,953.0497536,955.0685859,956.1225208,956.1225208,956.1225208,956.1225208,c,0.5635282999999163,,,,,23.0,1.0,2024-08-29_11h29.16.913,robot_sternberg_sign,2022.2.5,60.006900793607954,
57,"['M', 'Q', 'F', 'X']",True,X,4.0,letter,2.0,False,False,"['robot_stimuli\\\\filler.mp4', 'robot_stimuli\\\\filler.mp4', 'robot_stimuli\\\\filler.mp4', 'robot_stimuli\\\\filler.mp4']",robot_stimuli\\filler.mp4,23.0,,,,,,,,,,,,,0.0,51.0,51.0,51.0,,,,,,,,,,,,,,,,,966.4745544,967.5393725,,,,,,,,,968.161647,968.161647,968.161647,968.161647,968.161647,968.161647,968.161647,968.161647,,,,,,,,,,,,,,956.7438273,956.7438273,,,964.2604228,966.4745544,967.5393725,967.5393725,967.5393725,967.5393725,c,0.4504107000000203,956.7438273,956.7438273,,,23.0,1.0,2024-08-29_11h29.16.913,robot_sternberg_sign,2022.2.5,60.006900793607954,
58,"['W', 'D', 'L', 'S']",False,T,4.0,letter,2.0,False,False,"['robot_stimuli\\\\filler.mp4', 'robot_stimuli\\\\filler.mp4', 'robot_stimuli\\\\filler.mp4', 'robot_stimuli\\\\filler.mp4']",robot_stimuli\\filler.mp4,23.0,,,,,,,,,,,,,0.0,52.0,52.0,52.0,,,,,,,,,,,,,,,,,977.9173771,978.9711757,,,,,,,,,979.5931121,979.5931121,979.5931121,979.5931121,979.5931121,979.5931121,979.5931121,979.5931121,,,,,,,,,,,,,,968.161647,968.161647,,,975.8941469,977.9173771,978.9711757,978.9711757,978.9711757,978.9711757,n,0.4433863000001565,968.161647,968.161647,,,23.0,1.0,2024-08-29_11h29.16.913,robot_sternberg_sign,2022.2.5,60.006900793607954,
59,"['H', 'L', 'J', 'K']",False,W,4.0,letter,2.0,False,False,"['robot_stimuli\\\\filler.mp4', 'robot_stimuli\\\\filler.mp4', 'robot_stimuli\\\\filler.mp4', 'robot_stimuli\\\\filler.mp4']",robot_stimuli\\filler.mp4,23.0,,,,,,,,,,,,,0.0,53.0,53.0,53.0,,,,,,,,,,,,,,,,,989.5548126,980.6540056,,,,,,,,,991.4494269,991.4494269,991.4494269,991.4494269,991.4494269,991.4494269,991.4494269,991.4494269,,,,,,,,,,,,,,979.5931121,979.5931121,,,987.3362687,989.5548126,990.6257352,990.6257352,990.6257352,990.6257352,n,0.6363914000000932,979.5931121,979.5931121,,,23.0,1.0,2024-08-29_11h29.16.913,robot_sternberg_sign,2022.2.5,60.006900793607954,
60,"['F', 'Z', 'T', 'R']",True,R,4.0,letter,2.0,False,False,"['robot_stimuli\\\\filler.mp4', 'robot_stimuli\\\\filler.mp4', 'robot_stimuli\\\\filler.mp4', 'robot_stimuli\\\\filler.mp4']",robot_stimuli\\filler.mp4,23.0,,,,,,,,,,,,,0.0,54.0,54.0,54.0,,,,,,,,,,,,,,,,,1000.9815369,1002.0491512,,,,,,,,,1002.8744652,1002.8744652,1002.8744652,1002.8744652,1002.8744652,1002.8744652,1002.8744652,1002.8744652,,,,,,,,,,,,,,991.4494269,991.4494269,,,998.9690169,1000.9815369,1002.0491512,1002.0491512,1002.0491512,1002.0491512,c,0.7008479999999508,991.4494269,991.4494269,,,23.0,1.0,2024-08-29_11h29.16.913,robot_sternberg_sign,2022.2.5,60.006900793607954,
61,"['H', 'X', 'S', 'F']",False,N,4.0,letter,2.0,False,False,"['robot_stimuli\\\\filler.mp4', 'robot_stimuli\\\\filler.mp4', 'robot_stimuli\\\\filler.mp4', 'robot_stimuli\\\\filler.mp4']",robot_stimuli\\filler.mp4,23.0,,,,,,,,,,,,,0.0,55.0,55.0,55.0,,,,,,,,,,,,,,,,,1012.6260497,1013.6887525,,,,,,,,,1014.3155434,1014.3155434,1014.3155434,1014.3155434,1014.3155434,1014.3155434,1014.3155434,1014.3155434,,,,,,,,,,,,,,1002.8744652,1002.8744652,,,1010.4064639,1012.6260497,1013.6887525,1013.6887525,1013.6887525,1013.6887525,n,0.525319300000092,1002.8744652,1002.8744652,,,23.0,1.0,2024-08-29_11h29.16.913,robot_sternberg_sign,2022.2.5,60.006900793607954,
62,"['V', 'F', 'W', 'R']",False,C,4.0,letter,2.0,False,False,"['robot_stimuli\\\\filler.mp4', 'robot_stimuli\\\\filler.mp4', 'robot_stimuli\\\\filler.mp4', 'robot_stimuli\\\\filler.mp4']",robot_stimuli\\filler.mp4,23.0,,,,,,,,,,,,,0.0,56.0,56.0,56.0,,,,,,,,,,,,,,,,,1024.2539102,1015.3716879,,,,,,,,,1025.9543648,1025.9543648,1025.9543648,1025.9543648,1025.9543648,1025.9543648,1025.9543648,1025.9543648,,,,,,,,,,,,,,1014.3155434,1014.3155434,,,1022.0389638,1024.2539102,1025.321128,1025.321128,1025.321128,1025.321128,n,0.444607300000257,1014.3155434,1014.3155434,,,23.0,1.0,2024-08-29_11h29.16.913,robot_sternberg_sign,2022.2.5,60.006900793607954,
63,"['D', 'N', 'R', 'V']",True,N,4.0,letter,2.0,False,False,"['robot_stimuli\\\\filler.mp4', 'robot_stimuli\\\\filler.mp4', 'robot_stimuli\\\\filler.mp4', 'robot_stimuli\\\\filler.mp4']",robot_stimuli\\filler.mp4,23.0,,,,,,,,,,,,,0.0,57.0,57.0,57.0,,,,,,,,,,,,,,,,,1035.5080257999998,1036.5757887,,,,,,,,,1036.9932644,1036.9932644,1036.9932644,1036.9932644,1036.9932644,1036.9932644,1036.9932644,1036.9932644,,,,,,,,,,,,,,1025.9543648,1025.9543648,,,1033.4961167,1035.5080257999998,1036.5757887,1036.5757887,1036.5757887,1036.5757887,c,0.3745811000000003,1025.9543648,1025.9543648,,,23.0,1.0,2024-08-29_11h29.16.913,robot_sternberg_sign,2022.2.5,60.006900793607954,
64,"['S', 'W', 'R', 'F']",False,V,4.0,letter,2.0,False,False,"['robot_stimuli\\\\filler.mp4', 'robot_stimuli\\\\filler.mp4', 'robot_stimuli\\\\filler.mp4', 'robot_stimuli\\\\filler.mp4']",robot_stimuli\\filler.mp4,23.0,,,,,,,,,,,,,0.0,58.0,58.0,58.0,,,,,,,,,,,,,,,,,1046.7491125,1047.8092948,,,,,,,,,1048.4293457,1048.4293457,1048.4293457,1048.4293457,1048.4293457,1048.4293457,1048.4293457,1048.4293457,,,,,,,,,,,,,,1036.9932644,1036.9932644,,,1044.7355584000002,1046.7491125,1047.8092948,1047.8092948,1047.8092948,1047.8092948,c,0.5567684999999756,1036.9932644,1036.9932644,,,23.0,1.0,2024-08-29_11h29.16.913,robot_sternberg_sign,2022.2.5,60.006900793607954,
65,"['S', 'D', 'L', 'X']",True,S,4.0,letter,2.0,False,True,"['robot_stimuli\\\\filler.mp4', 'robot_stimuli\\\\filler.mp4', 'robot_stimuli\\\\filler.mp4', 'robot_stimuli\\\\filler.mp4']",robot_stimuli\\filler.mp4,23.0,,,,,,,,,,,,,0.0,59.0,59.0,59.0,,,,,,,,,,,,,,,,,1057.9671122999998,1059.0220884,,,,,,,,,1059.6791359999995,1065.4851681,1059.6791359999995,1065.4851681,1059.6791359999995,1065.4851681,1059.6791359999995,1065.4851681,36.17283950617284,5.224137100000007,space,,,5.750972300000399,,,,,,,,1048.4293457,1048.4293457,,,1055.7568596,1057.9671122999998,1059.0220884,1059.0220884,1059.0220884,1059.0220884,c,0.4883961000001591,1048.4293457,1048.4293457,,,23.0,1.0,2024-08-29_11h29.16.913,robot_sternberg_sign,2022.2.5,60.006900793607954,
66,"['L_Torso_Z_For', 'R_Arm_X_Back']",True,L_Torso_Z_For,2.0,robot,3.0,True,False,"['robot_stimuli\\L_Torso_Z_For.mp4', 'robot_stimuli\\R_Arm_X_Back.mp4']",robot_stimuli\L_Torso_Z_For.mp4,23.0,,,,,,,,,,,,,0.0,60.0,60.0,60.0,,,,,,,,,,,,,,,,,1079.9550375,1081.0612115,,,,,,,,,1084.7011326000002,1084.7011326000002,1084.7011326000002,1084.7011326000002,1084.7011326000002,1084.7011326000002,1084.7011326000002,1084.7011326000002,,,,,,,,,,,,,,1065.4851681,1065.4851681,space,6.001080100000195,,,,1081.0612115,1081.0612115,1081.0612115,c,2.6957621999998764,,,1076.3309746999998,1081.0612115,23.0,1.0,2024-08-29_11h29.16.913,robot_sternberg_sign,2022.2.5,60.006900793607954,
67,"['R_Head_X_For', 'R_Torso_Z_Back']",False,L_Torso_X_Back,2.0,robot,3.0,False,False,"['robot_stimuli\\R_Head_X_For.mp4', 'robot_stimuli\\R_Torso_Z_Back.mp4']",robot_stimuli\L_Torso_X_Back.mp4,23.0,,,,,,,,,,,,,0.0,61.0,61.0,61.0,,,,,,,,,,,,,,,,,1093.1389746999998,1094.2315957,,,,,,,,,1097.879501,1097.879501,1097.879501,1097.879501,1097.879501,1097.879501,1097.879501,1097.879501,,,,,,,,,,,,,,1084.7011326000002,1084.7011326000002,,,,,,1094.2315957,1094.2315957,1094.2315957,n,0.989599500000054,1084.7011326000002,1084.7011326000002,1089.4996087,1094.2315957,23.0,1.0,2024-08-29_11h29.16.913,robot_sternberg_sign,2022.2.5,60.006900793607954,
68,"['R_Head_Z_For', 'L_Torso_Z_For']",False,L_Torso_Z_Back,2.0,robot,3.0,False,False,"['robot_stimuli\\R_Head_Z_For.mp4', 'robot_stimuli\\L_Torso_Z_For.mp4']",robot_stimuli\L_Torso_Z_Back.mp4,23.0,,,,,,,,,,,,,0.0,62.0,62.0,62.0,,,,,,,,,,,,,,,,,1106.3012331999998,1107.3811517999998,,,,,,,,,1110.9002634,1110.9002634,1110.9002634,1110.9002634,1110.9002634,1110.9002634,1110.9002634,1110.9002634,,,,,,,,,,,,,,1097.879501,1097.879501,,,,,,1107.3811517999998,1107.3811517999998,1107.3811517999998,n,1.375690800000143,1097.879501,1097.879501,1102.680571,1107.3811517999998,23.0,1.0,2024-08-29_11h29.16.913,robot_sternberg_sign,2022.2.5,60.006900793607954,
69,"['L_Base_Y_For', 'R_Head_Y_Back']",False,R_Torso_Z_Back,2.0,robot,3.0,False,False,"['robot_stimuli\\L_Base_Y_For.mp4', 'robot_stimuli\\R_Head_Y_Back.mp4']",robot_stimuli\R_Torso_Z_Back.mp4,23.0,,,,,,,,,,,,,0.0,63.0,63.0,63.0,,,,,,,,,,,,,,,,,1119.2214848,1111.9778155999998,,,,,,,,,1123.9690765,1123.9690765,1123.9690765,1123.9690765,1123.9690765,1123.9690765,1123.9690765,1123.9690765,,,,,,,,,,,,,,1110.9002634,1110.9002634,,,,,,1120.3149826999995,1120.3149826999995,1120.3149826999995,n,1.2020831999999473,1110.9002634,1110.9002634,1115.5908899,1120.3149826999995,23.0,1.0,2024-08-29_11h29.16.913,robot_sternberg_sign,2022.2.5,60.006900793607954,
70,"['L_Torso_Z_Back', 'R_Base_X_For']",True,L_Torso_Z_Back,2.0,robot,3.0,False,False,"['robot_stimuli\\L_Torso_Z_Back.mp4', 'robot_stimuli\\R_Base_X_For.mp4']",robot_stimuli\L_Torso_Z_Back.mp4,23.0,,,,,,,,,,,,,0.0,64.0,64.0,64.0,,,,,,,,,,,,,,,,,1132.1745554999998,1133.2643967,,,,,,,,,1136.7794973,1136.7794973,1136.7794973,1136.7794973,1136.7794973,1136.7794973,1136.7794973,1136.7794973,,,,,,,,,,,,,,1123.9690765,1123.9690765,,,,,,1133.2643967,1133.2643967,1133.2643967,c,2.908592200000044,1123.9690765,1123.9690765,1128.6459607000002,1133.2643967,23.0,1.0,2024-08-29_11h29.16.913,robot_sternberg_sign,2022.2.5,60.006900793607954,
71,"['R_Head_Z_Back', 'L_Head_X_For']",True,R_Head_Z_Back,2.0,robot,3.0,False,False,"['robot_stimuli\\R_Head_Z_Back.mp4', 'robot_stimuli\\L_Head_X_For.mp4']",robot_stimuli\R_Head_Z_Back.mp4,23.0,,,,,,,,,,,,,0.0,65.0,65.0,65.0,,,,,,,,,,,,,,,,,1145.1471699,1146.2442824999998,,,,,,,,,1149.8846362,1149.8846362,1149.8846362,1149.8846362,1149.8846362,1149.8846362,1149.8846362,1149.8846362,,,,,,,,,,,,,,1136.7794973,1136.7794973,,,,,,1146.2442824999998,1146.2442824999998,1146.2442824999998,c,1.9295009999999595,1136.7794973,1136.7794973,1141.5819047,1146.2442824999998,23.0,1.0,2024-08-29_11h29.16.913,robot_sternberg_sign,2022.2.5,60.006900793607954,
72,"['R_Arm_Y_For', 'L_Torso_Z_Back']",True,L_Torso_Z_Back,2.0,robot,3.0,False,False,"['robot_stimuli\\R_Arm_Y_For.mp4', 'robot_stimuli\\L_Torso_Z_Back.mp4']",robot_stimuli\L_Torso_Z_Back.mp4,23.0,,,,,,,,,,,,,0.0,66.0,66.0,66.0,,,,,,,,,,,,,,,,,1158.0751206999998,1159.1639974,,,,,,,,,1162.6600715999998,1162.6600715999998,1162.6600715999998,1162.6600715999998,1162.6600715999998,1162.6600715999998,1162.6600715999998,1162.6600715999998,,,,,,,,,,,,,,1149.8846362,1149.8846362,,,,,,1159.1639974,1159.1639974,1159.1639974,c,1.5934265000004189,1149.8846362,1149.8846362,1154.5669936,1159.1639974,23.0,1.0,2024-08-29_11h29.16.913,robot_sternberg_sign,2022.2.5,60.006900793607954,
73,"['L_Arm_Z_Back', 'R_Arm_X_For']",False,R_Arm_Y_Back,2.0,robot,3.0,False,False,"['robot_stimuli\\L_Arm_Z_Back.mp4', 'robot_stimuli\\R_Arm_X_For.mp4']",robot_stimuli\R_Arm_Y_Back.mp4,23.0,,,,,,,,,,,,,0.0,67.0,67.0,67.0,,,,,,,,,,,,,,,,,1171.0905368,1172.1784349999998,,,,,,,,,1175.8177661999998,1175.8177661999998,1175.8177661999998,1175.8177661999998,1175.8177661999998,1175.8177661999998,1175.8177661999998,1175.8177661999998,,,,,,,,,,,,,,1162.6600715999998,1162.6600715999998,,,,,,1172.1784349999998,1172.1784349999998,1172.1784349999998,n,2.1151475999998866,1162.6600715999998,1162.6600715999998,1167.4622095,1172.1784349999998,23.0,1.0,2024-08-29_11h29.16.913,robot_sternberg_sign,2022.2.5,60.006900793607954,
74,"['R_Base_Z_For', 'L_Arm_X_Back']",True,L_Arm_X_Back,2.0,robot,3.0,False,False,"['robot_stimuli\\R_Base_Z_For.mp4', 'robot_stimuli\\L_Arm_X_Back.mp4']",robot_stimuli\L_Arm_X_Back.mp4,23.0,,,,,,,,,,,,,0.0,68.0,68.0,68.0,,,,,,,,,,,,,,,,,1184.2549587999997,1185.3444712,,,,,,,,,1188.9843859999996,1188.9843859999996,1188.9843859999996,1188.9843859999996,1188.9843859999996,1188.9843859999996,1188.9843859999996,1188.9843859999996,,,,,,,,,,,,,,1175.8177661999998,1175.8177661999998,,,,,,1185.3444712,1185.3444712,1185.3444712,c,1.9004845000002888,1175.8177661999998,1175.8177661999998,1180.6153114,1185.3444712,23.0,1.0,2024-08-29_11h29.16.913,robot_sternberg_sign,2022.2.5,60.006900793607954,
75,"['L_Head_X_For', 'R_Torso_Z_For']",False,R_Base_X_For,2.0,robot,3.0,False,True,"['robot_stimuli\\L_Head_X_For.mp4', 'robot_stimuli\\R_Torso_Z_For.mp4']",robot_stimuli\R_Base_X_For.mp4,23.0,,,,,,,,,,,,,0.0,69.0,69.0,69.0,,,,,,,,,,,,,,,,,1197.3560948,1198.4461978999998,,,,,,,,,1202.0063486999998,1210.7818496,1202.0063486999998,1210.7818496,1202.0063486999998,1210.7818496,1202.0063486999998,1210.7818496,12.561728395061722,8.289012400000047,space,,,8.727173100000414,,,,,,,,1188.9843859999996,1188.9843859999996,,,,,,1198.4461978999998,1198.4461978999998,1198.4461978999998,n,1.6318782000001877,1188.9843859999996,1188.9843859999996,1193.7173942999998,1198.4461978999998,23.0,1.0,2024-08-29_11h29.16.913,robot_sternberg_sign,2022.2.5,60.006900793607954,
76,"['L_Head_Y_Back', 'L_Base_Z_For', 'R_Torso_Z_For', 'L_Base_Y_Back']",False,L_Torso_X_Back,4.0,robot,3.0,True,False,"['robot_stimuli\\L_Head_Y_Back.mp4', 'robot_stimuli\\L_Base_Z_For.mp4', 'robot_stimuli\\R_Torso_Z_For.mp4', 'robot_stimuli\\L_Base_Y_Back.mp4']",robot_stimuli\L_Torso_X_Back.mp4,23.0,,,,,,,,,,,,,0.0,70.0,70.0,70.0,,,,,,,,,,,,,,,,,1236.2735742999998,1237.3642846999996,,,,,,,,,1241.0463588999996,1241.0463588999996,1241.0463588999996,1241.0463588999996,1241.0463588999996,1241.0463588999996,1241.0463588999996,1241.0463588999996,,,,,,,,,,,,,,1210.7818496,1210.7818496,space,9.67121270000041,,,,1237.3642846999996,1237.3642846999996,1237.3642846999996,n,3.649246199999993,,,1232.7085908999998,1237.3642846999996,23.0,1.0,2024-08-29_11h29.16.913,robot_sternberg_sign,2022.2.5,60.006900793607954,
77,"['L_Arm_X_Back', 'R_Head_Z_Back', 'R_Head_X_Back', 'L_Arm_Z_For']",True,L_Arm_Z_For,4.0,robot,3.0,False,False,"['robot_stimuli\\L_Arm_X_Back.mp4', 'robot_stimuli\\R_Head_Z_Back.mp4', 'robot_stimuli\\R_Head_X_Back.mp4', 'robot_stimuli\\L_Arm_Z_For.mp4']",robot_stimuli\L_Arm_Z_For.mp4,23.0,,,,,,,,,,,,,0.0,71.0,71.0,71.0,,,,,,,,,,,,,,,,,1256.9246522999997,1258.0118331999995,,,,,,,,,1261.6509225,1261.6509225,1261.6509225,1261.6509225,1261.6509225,1261.6509225,1261.6509225,1261.6509225,,,,,,,,,,,,,,1241.0463588999996,1241.0463588999996,,,,,,1258.0118331999995,1258.0118331999995,1258.0118331999995,c,1.985914900000239,1241.0463588999996,1241.0463588999996,1253.2922672,1258.0118331999995,23.0,1.0,2024-08-29_11h29.16.913,robot_sternberg_sign,2022.2.5,60.006900793607954,
78,"['R_Head_Z_For', 'L_Base_Z_Back', 'R_Head_Z_Back', 'R_Torso_Z_Back']",True,L_Base_Z_Back,4.0,robot,3.0,False,False,"['robot_stimuli\\R_Head_Z_For.mp4', 'robot_stimuli\\L_Base_Z_Back.mp4', 'robot_stimuli\\R_Head_Z_Back.mp4', 'robot_stimuli\\R_Torso_Z_Back.mp4']",robot_stimuli\L_Base_Z_Back.mp4,23.0,,,,,,,,,,,,,0.0,72.0,72.0,72.0,,,,,,,,,,,,,,,,,1277.5215558999998,1278.6121159,,,,,,,,,1282.2525956999998,1282.2525956999998,1282.2525956999998,1282.2525956999998,1282.2525956999998,1282.2525956999998,1282.2525956999998,1282.2525956999998,,,,,,,,,,,,,,1261.6509225,1261.6509225,,,,,,1278.6121159,1278.6121159,1278.6121159,c,1.976496000000111,1261.6509225,1261.6509225,1273.8891381999997,1278.6121159,23.0,1.0,2024-08-29_11h29.16.913,robot_sternberg_sign,2022.2.5,60.006900793607954,
79,"['R_Arm_X_For', 'R_Base_X_For', 'R_Head_Y_Back', 'L_Base_Z_Back']",True,R_Base_X_For,4.0,robot,3.0,False,False,"['robot_stimuli\\R_Arm_X_For.mp4', 'robot_stimuli\\R_Base_X_For.mp4', 'robot_stimuli\\R_Head_Y_Back.mp4', 'robot_stimuli\\L_Base_Z_Back.mp4']",robot_stimuli\R_Base_X_For.mp4,23.0,,,,,,,,,,,,,0.0,73.0,73.0,73.0,,,,,,,,,,,,,,,,,1298.0415198,1299.1295732999995,,,,,,,,,1302.6694113,1302.6694113,1302.6694113,1302.6694113,1302.6694113,1302.6694113,1302.6694113,1302.6694113,,,,,,,,,,,,,,1282.2525956999998,1282.2525956999998,,,,,,1299.1295732999995,1299.1295732999995,1299.1295732999995,c,1.8752302999999984,1282.2525956999998,1282.2525956999998,1294.4115554,1299.1295732999995,23.0,1.0,2024-08-29_11h29.16.913,robot_sternberg_sign,2022.2.5,60.006900793607954,
80,"['R_Torso_X_For', 'R_Head_X_For', 'L_Torso_X_Back', 'R_Head_X_Back']",True,L_Torso_X_Back,4.0,robot,3.0,False,False,"['robot_stimuli\\R_Torso_X_For.mp4', 'robot_stimuli\\R_Head_X_For.mp4', 'robot_stimuli\\L_Torso_X_Back.mp4', 'robot_stimuli\\R_Head_X_Back.mp4']",robot_stimuli\L_Torso_X_Back.mp4,23.0,,,,,,,,,,,,,0.0,74.0,74.0,74.0,,,,,,,,,,,,,,,,,1318.5566264,1319.6516853999997,,,,,,,,,1323.2995378,1323.2995378,1323.2995378,1323.2995378,1323.2995378,1323.2995378,1323.2995378,1323.2995378,,,,,,,,,,,,,,1302.6694113,1302.6694113,,,,,,1319.6516853999997,1319.6516853999997,1319.6516853999997,c,1.858235600000512,1302.6694113,1302.6694113,1314.9250726,1319.6516853999997,23.0,1.0,2024-08-29_11h29.16.913,robot_sternberg_sign,2022.2.5,60.006900793607954,
81,"['R_Torso_Z_For', 'L_Arm_Z_For', 'R_Torso_X_For', 'R_Head_Y_For']",False,R_Arm_X_For,4.0,robot,3.0,False,False,"['robot_stimuli\\R_Torso_Z_For.mp4', 'robot_stimuli\\L_Arm_Z_For.mp4', 'robot_stimuli\\R_Torso_X_For.mp4', 'robot_stimuli\\R_Head_Y_For.mp4']",robot_stimuli\R_Arm_X_For.mp4,23.0,,,,,,,,,,,,,0.0,75.0,75.0,75.0,,,,,,,,,,,,,,,,,1339.1716131999997,1340.2643003999997,,,,,,,,,1343.9134489999997,1343.9134489999997,1343.9134489999997,1343.9134489999997,1343.9134489999997,1343.9134489999997,1343.9134489999997,1343.9134489999997,,,,,,,,,,,,,,1323.2995378,1323.2995378,,,,,,1340.2643003999997,1340.2643003999997,1340.2643003999997,n,1.5500115000003234,1323.2995378,1323.2995378,1335.5300723,1340.2643003999997,23.0,1.0,2024-08-29_11h29.16.913,robot_sternberg_sign,2022.2.5,60.006900793607954,
82,"['R_Base_Y_For', 'L_Head_Y_For', 'R_Head_Y_Back', 'R_Arm_Z_For']",True,R_Base_Y_For,4.0,robot,3.0,False,False,"['robot_stimuli\\R_Base_Y_For.mp4', 'robot_stimuli\\L_Head_Y_For.mp4', 'robot_stimuli\\R_Head_Y_Back.mp4', 'robot_stimuli\\R_Arm_Z_For.mp4']",robot_stimuli\R_Base_Y_For.mp4,23.0,,,,,,,,,,,,,0.0,76.0,76.0,76.0,,,,,,,,,,,,,,,,,1359.7939481999997,1360.8789736,,,,,,,,,1364.5101962999995,1364.5101962999995,1364.5101962999995,1364.5101962999995,1364.5101962999995,1364.5101962999995,1364.5101962999995,1364.5101962999995,,,,,,,,,,,,,,1343.9134489999997,1343.9134489999997,,,,,,1360.8789736,1360.8789736,1360.8789736,c,1.8944198000002643,1343.9134489999997,1343.9134489999997,1356.1611408,1360.8789736,23.0,1.0,2024-08-29_11h29.16.913,robot_sternberg_sign,2022.2.5,60.006900793607954,
83,"['L_Torso_X_For', 'L_Torso_X_Back', 'L_Head_Z_Back', 'L_Head_Y_For']",False,L_Arm_X_For,4.0,robot,3.0,False,False,"['robot_stimuli\\L_Torso_X_For.mp4', 'robot_stimuli\\L_Torso_X_Back.mp4', 'robot_stimuli\\L_Head_Z_Back.mp4', 'robot_stimuli\\L_Head_Y_For.mp4']",robot_stimuli\L_Arm_X_For.mp4,23.0,,,,,,,,,,,,,0.0,77.0,77.0,77.0,,,,,,,,,,,,,,,,,1380.4551343999997,1381.5458371,,,,,,,,,1385.1855776999996,1385.1855776999996,1385.1855776999996,1385.1855776999996,1385.1855776999996,1385.1855776999996,1385.1855776999996,1385.1855776999996,,,,,,,,,,,,,,1364.5101962999995,1364.5101962999995,,,,,,1381.5458371,1381.5458371,1381.5458371,n,1.4350450000000592,1364.5101962999995,1364.5101962999995,1376.8141806,1381.5458371,23.0,1.0,2024-08-29_11h29.16.913,robot_sternberg_sign,2022.2.5,60.006900793607954,
84,"['L_Torso_Y_Back', 'R_Arm_Z_For', 'L_Torso_X_Back', 'L_Base_X_Back']",False,L_Head_Y_For,4.0,robot,3.0,False,False,"['robot_stimuli\\L_Torso_Y_Back.mp4', 'robot_stimuli\\R_Arm_Z_For.mp4', 'robot_stimuli\\L_Torso_X_Back.mp4', 'robot_stimuli\\L_Base_X_Back.mp4']",robot_stimuli\L_Head_Y_For.mp4,23.0,,,,,,,,,,,,,0.0,78.0,78.0,78.0,,,,,,,,,,,,,,,,,1400.9214883,1402.0234348,,,,,,,,,1405.6628419,1405.6628419,1405.6628419,1405.6628419,1405.6628419,1405.6628419,1405.6628419,1405.6628419,,,,,,,,,,,,,,1385.1855776999996,1385.1855776999996,,,,,,1402.0234348,1402.0234348,1402.0234348,n,1.6461059000001796,1385.1855776999996,1385.1855776999996,1397.3123370999997,1402.0234348,23.0,1.0,2024-08-29_11h29.16.913,robot_sternberg_sign,2022.2.5,60.006900793607954,
85,"['L_Head_X_For', 'L_Arm_Z_For', 'L_Torso_Y_For', 'L_Torso_Y_Back']",False,L_Base_X_For,4.0,robot,3.0,False,True,"['robot_stimuli\\L_Head_X_For.mp4', 'robot_stimuli\\L_Arm_Z_For.mp4', 'robot_stimuli\\L_Torso_Y_For.mp4', 'robot_stimuli\\L_Torso_Y_Back.mp4']",robot_stimuli\L_Base_X_For.mp4,23.0,,,,,,,,,,,,,0.0,79.0,79.0,79.0,,,,,,,,,,,,,,,,,1421.3433473,1422.428641,,,,,,,,,1426.0349299,1436.7044112,1426.0349299,1436.7044112,1426.0349299,1436.7044112,1426.0349299,1436.7044112,32.00617283950617,9.54529679999996,space,,,10.609582600000408,,,,,,,,1405.6628419,1405.6628419,,,,,,1422.428641,1422.428641,1422.428641,n,2.113739300000248,1405.6628419,1405.6628419,1417.8455961999998,1422.428641,23.0,1.0,2024-08-29_11h29.16.913,robot_sternberg_sign,2022.2.5,60.006900793607954,
86,"['R_Head_X_For', 'L_Base_Y_For', 'L_Arm_X_For', 'L_Arm_Z_Back', 'R_Base_Y_For', 'R_Arm_Y_For']",False,L_Base_X_Back,6.0,robot,3.0,True,False,"['robot_stimuli\\R_Head_X_For.mp4', 'robot_stimuli\\L_Base_Y_For.mp4', 'robot_stimuli\\L_Arm_X_For.mp4', 'robot_stimuli\\L_Arm_Z_Back.mp4', 'robot_stimuli\\R_Base_Y_For.mp4', 'robot_stimuli\\R_Arm_Y_For.mp4']",robot_stimuli\L_Base_X_Back.mp4,23.0,,,,,,,,,,,,,0.0,80.0,80.0,80.0,,,,,,,,,,,,,,,,,1464.40724,1465.4977394999996,,,,,,,,,1469.1138198,1469.1138198,1469.1138198,1469.1138198,1469.1138198,1469.1138198,1469.1138198,1469.1138198,,,,,,,,,,,,,,1436.7044112,1436.7044112,space,4.556903400000351,,,,1465.4977394999996,1465.4977394999996,1465.4977394999996,n,1.8917236000000912,,,1460.8987395,1465.4977394999996,23.0,1.0,2024-08-29_11h29.16.913,robot_sternberg_sign,2022.2.5,60.006900793607954,
87,"['L_Base_X_For', 'L_Head_X_Back', 'R_Base_Y_Back', 'L_Head_X_For', 'R_Torso_X_Back', 'L_Torso_X_Back']",True,R_Base_Y_Back,6.0,robot,3.0,False,False,"['robot_stimuli\\L_Base_X_For.mp4', 'robot_stimuli\\L_Head_X_Back.mp4', 'robot_stimuli\\R_Base_Y_Back.mp4', 'robot_stimuli\\L_Head_X_For.mp4', 'robot_stimuli\\R_Torso_X_Back.mp4', 'robot_stimuli\\L_Torso_X_Back.mp4']",robot_stimuli\R_Base_Y_Back.mp4,23.0,,,,,,,,,,,,,0.0,81.0,81.0,81.0,,,,,,,,,,,,,,,,,1492.3252629999995,1493.4182624,,,,,,,,,1497.0663836,1497.0663836,1497.0663836,1497.0663836,1497.0663836,1497.0663836,1497.0663836,1497.0663836,,,,,,,,,,,,,,1469.1138198,1469.1138198,,,,,,1493.4182624,1493.4182624,1493.4182624,c,3.4832724000001463,1469.1138198,1469.1138198,1488.6797932999998,1493.4182624,23.0,1.0,2024-08-29_11h29.16.913,robot_sternberg_sign,2022.2.5,60.006900793607954,
88,"['R_Base_Y_For', 'L_Arm_Y_For', 'L_Base_X_For', 'R_Base_X_Back', 'L_Arm_X_For', 'R_Arm_X_Back']",True,R_Base_Y_For,6.0,robot,3.0,False,False,"['robot_stimuli\\R_Base_Y_For.mp4', 'robot_stimuli\\L_Arm_Y_For.mp4', 'robot_stimuli\\L_Base_X_For.mp4', 'robot_stimuli\\R_Base_X_Back.mp4', 'robot_stimuli\\L_Arm_X_For.mp4', 'robot_stimuli\\R_Arm_X_Back.mp4']",robot_stimuli\R_Base_Y_For.mp4,23.0,,,,,,,,,,,,,0.0,82.0,82.0,82.0,,,,,,,,,,,,,,,,,1520.3698556,1498.1486639,,,,,,,,,1525.1168604999998,1525.1168604999998,1525.1168604999998,1525.1168604999998,1525.1168604999998,1525.1168604999998,1525.1168604999998,1525.1168604999998,,,,,,,,,,,,,,1497.0663836,1497.0663836,,,,,,1521.4636698,1521.4636698,1521.4636698,c,3.3575066000001925,1497.0663836,1497.0663836,1516.7289548999995,1521.4636698,23.0,1.0,2024-08-29_11h29.16.913,robot_sternberg_sign,2022.2.5,60.006900793607954,
89,"['L_Head_Z_Back', 'L_Arm_Z_For', 'L_Base_Z_Back', 'L_Base_Z_For', 'R_Torso_Y_For', 'R_Head_Y_For']",False,R_Head_Y_Back,6.0,robot,3.0,False,False,"['robot_stimuli\\L_Head_Z_Back.mp4', 'robot_stimuli\\L_Arm_Z_For.mp4', 'robot_stimuli\\L_Base_Z_Back.mp4', 'robot_stimuli\\L_Base_Z_For.mp4', 'robot_stimuli\\R_Torso_Y_For.mp4', 'robot_stimuli\\R_Head_Y_For.mp4']",robot_stimuli\R_Head_Y_Back.mp4,23.0,,,,,,,,,,,,,0.0,83.0,83.0,83.0,,,,,,,,,,,,,,,,,1548.4385594,1549.5304168999996,,,,,,,,,1553.1789856,1553.1789856,1553.1789856,1553.1789856,1553.1789856,1553.1789856,1553.1789856,1553.1789856,,,,,,,,,,,,,,1525.1168604999998,1525.1168604999998,,,,,,1549.5304168999996,1549.5304168999996,1549.5304168999996,n,1.8582911000002011,1525.1168604999998,1525.1168604999998,1544.8083352999995,1549.5304168999996,23.0,1.0,2024-08-29_11h29.16.913,robot_sternberg_sign,2022.2.5,60.006900793607954,
90,"['R_Head_Z_Back', 'R_Arm_Z_Back', 'L_Torso_Z_Back', 'L_Head_Y_For', 'L_Torso_Z_For', 'R_Arm_X_Back']",True,L_Torso_Z_Back,6.0,robot,3.0,False,False,"['robot_stimuli\\R_Head_Z_Back.mp4', 'robot_stimuli\\R_Arm_Z_Back.mp4', 'robot_stimuli\\L_Torso_Z_Back.mp4', 'robot_stimuli\\L_Head_Y_For.mp4', 'robot_stimuli\\L_Torso_Z_For.mp4', 'robot_stimuli\\R_Arm_X_Back.mp4']",robot_stimuli\L_Torso_Z_Back.mp4,23.0,,,,,,,,,,,,,0.0,84.0,84.0,84.0,,,,,,,,,,,,,,,,,1576.3567555,1577.4478399,,,,,,,,,1580.9639798999997,1580.9639798999997,1580.9639798999997,1580.9639798999997,1580.9639798999997,1580.9639798999997,1580.9639798999997,1580.9639798999997,,,,,,,,,,,,,,1553.1789856,1553.1789856,,,,,,1577.4478399,1577.4478399,1577.4478399,c,2.3332587000003286,1553.1789856,1553.1789856,1572.7259125,1577.4478399,23.0,1.0,2024-08-29_11h29.16.913,robot_sternberg_sign,2022.2.5,60.006900793607954,
91,"['R_Head_Y_For', 'R_Torso_Y_For', 'R_Base_X_Back', 'L_Head_Z_Back', 'L_Torso_Z_For', 'R_Torso_Y_Back']",False,L_Head_Y_For,6.0,robot,3.0,False,False,"['robot_stimuli\\R_Head_Y_For.mp4', 'robot_stimuli\\R_Torso_Y_For.mp4', 'robot_stimuli\\R_Base_X_Back.mp4', 'robot_stimuli\\L_Head_Z_Back.mp4', 'robot_stimuli\\L_Torso_Z_For.mp4', 'robot_stimuli\\R_Torso_Y_Back.mp4']",robot_stimuli\L_Head_Y_For.mp4,23.0,,,,,,,,,,,,,0.0,85.0,85.0,85.0,,,,,,,,,,,,,,,,,1604.2719414999997,1605.3669729999997,,,,,,,,,1609.1896746999996,1609.1896746999996,1609.1896746999996,1609.1896746999996,1609.1896746999996,1609.1896746999996,1609.1896746999996,1609.1896746999996,,,,,,,,,,,,,,1580.9639798999997,1580.9639798999997,,,,,,1605.3669729999997,1605.3669729999997,1605.3669729999997,c,3.78329650000012,1580.9639798999997,1580.9639798999997,1600.6430769,1605.3669729999997,23.0,1.0,2024-08-29_11h29.16.913,robot_sternberg_sign,2022.2.5,60.006900793607954,
92,"['L_Torso_X_Back', 'L_Base_X_For', 'L_Head_X_For', 'R_Torso_X_For', 'L_Base_Y_For', 'L_Base_Y_Back']",False,L_Head_Z_For,6.0,robot,3.0,False,False,"['robot_stimuli\\L_Torso_X_Back.mp4', 'robot_stimuli\\L_Base_X_For.mp4', 'robot_stimuli\\L_Head_X_For.mp4', 'robot_stimuli\\R_Torso_X_For.mp4', 'robot_stimuli\\L_Base_Y_For.mp4', 'robot_stimuli\\L_Base_Y_Back.mp4']",robot_stimuli\L_Head_Z_For.mp4,23.0,,,,,,,,,,,,,0.0,86.0,86.0,86.0,,,,,,,,,,,,,,,,,1632.2593794999998,1633.3461456,,,,,,,,,1636.9886739999995,1636.9886739999995,1636.9886739999995,1636.9886739999995,1636.9886739999995,1636.9886739999995,1636.9886739999995,1636.9886739999995,,,,,,,,,,,,,,1609.1896746999996,1609.1896746999996,,,,,,1633.3461456,1633.3461456,1633.3461456,n,2.57094769999992,1609.1896746999996,1609.1896746999996,1628.6943692999998,1633.3461456,23.0,1.0,2024-08-29_11h29.16.913,robot_sternberg_sign,2022.2.5,60.006900793607954,
93,"['L_Base_X_Back', 'R_Head_Z_Back', 'R_Arm_Y_For', 'R_Torso_Y_For', 'L_Base_Y_For', 'L_Head_X_Back']",True,L_Base_X_Back,6.0,robot,3.0,False,False,"['robot_stimuli\\L_Base_X_Back.mp4', 'robot_stimuli\\R_Head_Z_Back.mp4', 'robot_stimuli\\R_Arm_Y_For.mp4', 'robot_stimuli\\R_Torso_Y_For.mp4', 'robot_stimuli\\L_Base_Y_For.mp4', 'robot_stimuli\\L_Head_X_Back.mp4']",robot_stimuli\L_Base_X_Back.mp4,23.0,,,,,,,,,,,,,0.0,87.0,87.0,87.0,,,,,,,,,,,,,,,,,1660.0765103,1661.1784205,,,,,,,,,1664.7845042,1664.7845042,1664.7845042,1664.7845042,1664.7845042,1664.7845042,1664.7845042,1664.7845042,,,,,,,,,,,,,,1636.9886739999995,1636.9886739999995,,,,,,1661.1784205,1661.1784205,1661.1784205,c,2.6508726000005254,1636.9886739999995,1636.9886739999995,1656.4417857,1661.1784205,23.0,1.0,2024-08-29_11h29.16.913,robot_sternberg_sign,2022.2.5,60.006900793607954,
94,"['L_Head_Y_For', 'R_Torso_X_Back', 'L_Head_Z_For', 'L_Base_Z_For', 'R_Torso_Y_For', 'R_Head_X_Back']",False,L_Arm_Y_Back,6.0,robot,3.0,False,False,"['robot_stimuli\\L_Head_Y_For.mp4', 'robot_stimuli\\R_Torso_X_Back.mp4', 'robot_stimuli\\L_Head_Z_For.mp4', 'robot_stimuli\\L_Base_Z_For.mp4', 'robot_stimuli\\R_Torso_Y_For.mp4', 'robot_stimuli\\R_Head_X_Back.mp4']",robot_stimuli\L_Arm_Y_Back.mp4,23.0,,,,,,,,,,,,,0.0,88.0,88.0,88.0,,,,,,,,,,,,,,,,,1688.0909042999997,1689.1834833999997,,,,,,,,,1692.8326626999997,1692.8326626999997,1692.8326626999997,1692.8326626999997,1692.8326626999997,1692.8326626999997,1692.8326626999997,1692.8326626999997,,,,,,,,,,,,,,1664.7845042,1664.7845042,,,,,,1689.1834833999997,1689.1834833999997,1689.1834833999997,n,1.2301414000002069,1664.7845042,1664.7845042,1684.4567573999998,1689.1834833999997,23.0,1.0,2024-08-29_11h29.16.913,robot_sternberg_sign,2022.2.5,60.006900793607954,
95,"['L_Base_Y_Back', 'R_Torso_Z_Back', 'R_Base_Y_Back', 'L_Torso_Y_For', 'L_Head_Y_For', 'R_Torso_X_Back']",True,L_Torso_Y_For,6.0,robot,3.0,False,True,"['robot_stimuli\\L_Base_Y_Back.mp4', 'robot_stimuli\\R_Torso_Z_Back.mp4', 'robot_stimuli\\R_Base_Y_Back.mp4', 'robot_stimuli\\L_Torso_Y_For.mp4', 'robot_stimuli\\L_Head_Y_For.mp4', 'robot_stimuli\\R_Torso_X_Back.mp4']",robot_stimuli\L_Torso_Y_For.mp4,23.0,,,,,,,,,,,,,0.0,89.0,89.0,89.0,,,,,,,,,,,,,,,,,1716.1043032999996,1693.9091561,,,,,,,,,1720.8733459,1725.7029733999998,1720.8733459,1725.7029733999998,1720.8733459,1725.7029733999998,1720.8733459,1725.7029733999998,39.5679012345679,3.6589718999998695,space,,,4.75537920000022,,,,,,,,1692.8326626999997,1692.8326626999997,,,,,,1717.1958354999997,1717.1958354999997,1717.1958354999997,c,1.929206700000464,1692.8326626999997,1692.8326626999997,1712.4620757999996,1717.1958354999997,23.0,1.0,2024-08-29_11h29.16.913,robot_sternberg_sign,2022.2.5,60.006900793607954,
96,"['G', 'K']",True,K,2.0,letter,4.0,True,False,"['robot_stimuli\\\\filler.mp4', 'robot_stimuli\\\\filler.mp4']",robot_stimuli\\filler.mp4,23.0,,,,,,,,,,,,,0.0,90.0,90.0,90.0,,,,,,,,,,,,,,,,,1739.8746919,1740.9394171,,,,,,,,,1741.5640909999995,1741.5640909999995,1741.5640909999995,1741.5640909999995,1741.5640909999995,1741.5640909999995,1741.5640909999995,1741.5640909999995,,,,,,,,,,,,,,1725.7029733999998,1725.7029733999998,space,8.590798200000222,1737.6573559999997,1739.8746919,1740.9394171,1740.9394171,1740.9394171,1740.9394171,c,0.5611073000003444,,,,,23.0,1.0,2024-08-29_11h29.16.913,robot_sternberg_sign,2022.2.5,60.006900793607954,
97,"['X', 'C']",False,Z,2.0,letter,4.0,False,False,"['robot_stimuli\\\\filler.mp4', 'robot_stimuli\\\\filler.mp4']",robot_stimuli\\filler.mp4,23.0,,,,,,,,,,,,,0.0,91.0,91.0,91.0,,,,,,,,,,,,,,,,,1746.9236993999998,1747.9895198,,,,,,,,,1749.2215656999997,1749.2215656999997,1749.2215656999997,1749.2215656999997,1749.2215656999997,1749.2215656999997,1749.2215656999997,1749.2215656999997,,,,,,,,,,,,,,1741.5640909999995,1741.5640909999995,,,1744.9099879,1746.9236993999998,1747.9895198,1747.9895198,1747.9895198,1747.9895198,n,1.1040993999998818,1741.5640909999995,1741.5640909999995,,,23.0,1.0,2024-08-29_11h29.16.913,robot_sternberg_sign,2022.2.5,60.006900793607954,
98,"['F', 'Z']",False,N,2.0,letter,4.0,False,False,"['robot_stimuli\\\\filler.mp4', 'robot_stimuli\\\\filler.mp4']",robot_stimuli\\filler.mp4,23.0,,,,,,,,,,,,,0.0,92.0,92.0,92.0,,,,,,,,,,,,,,,,,1754.7900427999998,1755.8560218999996,,,,,,,,,1756.4798625,1756.4798625,1756.4798625,1756.4798625,1756.4798625,1756.4798625,1756.4798625,1756.4798625,,,,,,,,,,,,,,1749.2215656999997,1749.2215656999997,,,1752.5719368,1754.7900427999998,1755.8560218999996,1755.8560218999996,1755.8560218999996,1755.8560218999996,n,0.5491684000002124,1749.2215656999997,1749.2215656999997,,,23.0,1.0,2024-08-29_11h29.16.913,robot_sternberg_sign,2022.2.5,60.006900793607954,
99,"['S', 'T']",True,T,2.0,letter,4.0,False,False,"['robot_stimuli\\\\filler.mp4', 'robot_stimuli\\\\filler.mp4']",robot_stimuli\\filler.mp4,23.0,,,,,,,,,,,,,0.0,93.0,93.0,93.0,,,,,,,,,,,,,,,,,1761.6488675,1762.7056361,,,,,,,,,1763.3353018999996,1763.3353018999996,1763.3353018999996,1763.3353018999996,1763.3353018999996,1763.3353018999996,1763.3353018999996,1763.3353018999996,,,,,,,,,,,,,,1756.4798625,1756.4798625,,,1759.6296542,1761.6488675,1762.7056361,1762.7056361,1762.7056361,1762.7056361,c,0.5066054000002396,1756.4798625,1756.4798625,,,23.0,1.0,2024-08-29_11h29.16.913,robot_sternberg_sign,2022.2.5,60.006900793607954,
100,"['X', 'J']",True,J,2.0,letter,4.0,False,False,"['robot_stimuli\\\\filler.mp4', 'robot_stimuli\\\\filler.mp4']",robot_stimuli\\filler.mp4,23.0,,,,,,,,,,,,,0.0,94.0,94.0,94.0,,,,,,,,,,,,,,,,,1768.8950105999998,1769.9554596999997,,,,,,,,,1770.5805799999998,1770.5805799999998,1770.5805799999998,1770.5805799999998,1770.5805799999998,1770.5805799999998,1770.5805799999998,1770.5805799999998,,,,,,,,,,,,,,1763.3353018999996,1763.3353018999996,,,1766.6710964,1768.8950105999998,1769.9554596999997,1769.9554596999997,1769.9554596999997,1769.9554596999997,c,0.4739114000002473,1763.3353018999996,1763.3353018999996,,,23.0,1.0,2024-08-29_11h29.16.913,robot_sternberg_sign,2022.2.5,60.006900793607954,
101,"['X', 'T']",False,V,2.0,letter,4.0,False,False,"['robot_stimuli\\\\filler.mp4', 'robot_stimuli\\\\filler.mp4']",robot_stimuli\\filler.mp4,23.0,,,,,,,,,,,,,0.0,95.0,95.0,95.0,,,,,,,,,,,,,,,,,1775.7479153999998,1776.8056632999997,,,,,,,,,1777.6322553,1777.6322553,1777.6322553,1777.6322553,1777.6322553,1777.6322553,1777.6322553,1777.6322553,,,,,,,,,,,,,,1770.5805799999998,1770.5805799999998,,,1773.7321285999997,1775.7479153999998,1776.8056632999997,1776.8056632999997,1776.8056632999997,1776.8056632999997,n,0.7439281000000619,1770.5805799999998,1770.5805799999998,,,23.0,1.0,2024-08-29_11h29.16.913,robot_sternberg_sign,2022.2.5,60.006900793607954,
102,"['V', 'B']",True,V,2.0,letter,4.0,False,False,"['robot_stimuli\\\\filler.mp4', 'robot_stimuli\\\\filler.mp4']",robot_stimuli\\filler.mp4,23.0,,,,,,,,,,,,,0.0,96.0,96.0,96.0,,,,,,,,,,,,,,,,,1782.9988635999998,1784.0543272999998,,,,,,,,,1784.6836386,1784.6836386,1784.6836386,1784.6836386,1784.6836386,1784.6836386,1784.6836386,1784.6836386,,,,,,,,,,,,,,1777.6322553,1777.6322553,,,1780.9759675,1782.9988635999998,1784.0543272999998,1784.0543272999998,1784.0543272999998,1784.0543272999998,c,0.4069545999999491,1777.6322553,1777.6322553,,,23.0,1.0,2024-08-29_11h29.16.913,robot_sternberg_sign,2022.2.5,60.006900793607954,
103,"['X', 'S']",True,S,2.0,letter,4.0,False,False,"['robot_stimuli\\\\filler.mp4', 'robot_stimuli\\\\filler.mp4']",robot_stimuli\\filler.mp4,23.0,,,,,,,,,,,,,0.0,97.0,97.0,97.0,,,,,,,,,,,,,,,,,1790.0447007999996,1791.1064293,,,,,,,,,1791.7398223,1791.7398223,1791.7398223,1791.7398223,1791.7398223,1791.7398223,1791.7398223,1791.7398223,,,,,,,,,,,,,,1784.6836386,1784.6836386,,,1788.0284840999998,1790.0447007999996,1791.1064293,1791.1064293,1791.1064293,1791.1064293,c,0.5229134000004478,1784.6836386,1784.6836386,,,23.0,1.0,2024-08-29_11h29.16.913,robot_sternberg_sign,2022.2.5,60.006900793607954,
104,"['V', 'Z']",False,D,2.0,letter,4.0,False,False,"['robot_stimuli\\\\filler.mp4', 'robot_stimuli\\\\filler.mp4']",robot_stimuli\\filler.mp4,23.0,,,,,,,,,,,,,0.0,98.0,98.0,98.0,,,,,,,,,,,,,,,,,1797.125724,1798.1987197999997,,,,,,,,,1798.8264707999997,1798.8264707999997,1798.8264707999997,1798.8264707999997,1798.8264707999997,1798.8264707999997,1798.8264707999997,1798.8264707999997,,,,,,,,,,,,,,1791.7398223,1791.7398223,,,1794.9036047,1797.125724,1798.1987197999997,1798.1987197999997,1798.1987197999997,1798.1987197999997,n,0.3894041000002062,1791.7398223,1791.7398223,,,23.0,1.0,2024-08-29_11h29.16.913,robot_sternberg_sign,2022.2.5,60.006900793607954,
105,"['D', 'C']",False,W,2.0,letter,4.0,False,True,"['robot_stimuli\\\\filler.mp4', 'robot_stimuli\\\\filler.mp4']",robot_stimuli\\filler.mp4,23.0,,,,,,,,,,,,,0.0,99.0,99.0,99.0,,,,,,,,,,,,,,,,,1804.1905232,1805.2555367,,,,,,,,,1805.9121225,1809.5760455,1805.9121225,1809.5760455,1805.9121225,1809.5760455,1805.9121225,1809.5760455,14.87654320987654,2.9539276999998947,space,,,3.621117500000196,,,,,,,,1798.8264707999997,1798.8264707999997,,,1802.1768593,1804.1905232,1805.2555367,1805.2555367,1805.2555367,1805.2555367,n,0.4217061000002786,1798.8264707999997,1798.8264707999997,,,23.0,1.0,2024-08-29_11h29.16.913,robot_sternberg_sign,2022.2.5,60.006900793607954,
106,"['X', 'K', 'G', 'W', 'S', 'N']",False,H,6.0,letter,4.0,True,False,"['robot_stimuli\\\\filler.mp4', 'robot_stimuli\\\\filler.mp4', 'robot_stimuli\\\\filler.mp4', 'robot_stimuli\\\\filler.mp4', 'robot_stimuli\\\\filler.mp4', 'robot_stimuli\\\\filler.mp4']",robot_stimuli\\filler.mp4,23.0,,,,,,,,,,,,,0.0,100.0,100.0,100.0,,,,,,,,,,,,,,,,,1828.5440859,1829.6061251,,,,,,,,,1830.2277989,1830.2277989,1830.2277989,1830.2277989,1830.2277989,1830.2277989,1830.2277989,1830.2277989,,,,,,,,,,,,,,1809.5760455,1809.5760455,space,5.029980000000592,1826.5279355,1828.5440859,1829.6061251,1829.6061251,1829.6061251,1829.6061251,n,0.5749589000000697,,,,,23.0,1.0,2024-08-29_11h29.16.913,robot_sternberg_sign,2022.2.5,60.006900793607954,
107,"['X', 'M', 'W', 'S', 'T', 'G']",False,N,6.0,letter,4.0,False,False,"['robot_stimuli\\\\filler.mp4', 'robot_stimuli\\\\filler.mp4', 'robot_stimuli\\\\filler.mp4', 'robot_stimuli\\\\filler.mp4', 'robot_stimuli\\\\filler.mp4', 'robot_stimuli\\\\filler.mp4']",robot_stimuli\\filler.mp4,23.0,,,,,,,,,,,,,0.0,101.0,101.0,101.0,,,,,,,,,,,,,,,,,1843.9387251,1845.0056837,,,,,,,,,1846.0281382,1846.0281382,1846.0281382,1846.0281382,1846.0281382,1846.0281382,1846.0281382,1846.0281382,,,,,,,,,,,,,,1830.2277989,1830.2277989,,,1841.9183765,1843.9387251,1845.0056837,1845.0056837,1845.0056837,1845.0056837,c,0.8549119000002747,1830.2277989,1830.2277989,,,23.0,1.0,2024-08-29_11h29.16.913,robot_sternberg_sign,2022.2.5,60.006900793607954,
108,"['T', 'H', 'P', 'Z', 'Q', 'C']",False,V,6.0,letter,4.0,False,False,"['robot_stimuli\\\\filler.mp4', 'robot_stimuli\\\\filler.mp4', 'robot_stimuli\\\\filler.mp4', 'robot_stimuli\\\\filler.mp4', 'robot_stimuli\\\\filler.mp4', 'robot_stimuli\\\\filler.mp4']",robot_stimuli\\filler.mp4,23.0,,,,,,,,,,,,,0.0,102.0,102.0,102.0,,,,,,,,,,,,,,,,,1859.9368978,1847.0894673,,,,,,,,,1861.6327651,1861.6327651,1861.6327651,1861.6327651,1861.6327651,1861.6327651,1861.6327651,1861.6327651,,,,,,,,,,,,,,1846.0281382,1846.0281382,,,1857.7259885,1859.9368978,1861.0056757,1861.0056757,1861.0056757,1861.0056757,n,0.4961750000001075,1846.0281382,1846.0281382,,,23.0,1.0,2024-08-29_11h29.16.913,robot_sternberg_sign,2022.2.5,60.006900793607954,
109,"['C', 'T', 'D', 'V', 'N', 'L']",False,S,6.0,letter,4.0,False,False,"['robot_stimuli\\\\filler.mp4', 'robot_stimuli\\\\filler.mp4', 'robot_stimuli\\\\filler.mp4', 'robot_stimuli\\\\filler.mp4', 'robot_stimuli\\\\filler.mp4', 'robot_stimuli\\\\filler.mp4']",robot_stimuli\\filler.mp4,23.0,,,,,,,,,,,,,0.0,103.0,103.0,103.0,,,,,,,,,,,,,,,,,1875.3449068,1876.408506,,,,,,,,,1877.6303051,1877.6303051,1877.6303051,1877.6303051,1877.6303051,1877.6303051,1877.6303051,1877.6303051,,,,,,,,,,,,,,1861.6327651,1861.6327651,,,1873.329782,1875.3449068,1876.408506,1876.408506,1876.408506,1876.408506,n,1.0528780000003053,1861.6327651,1861.6327651,,,23.0,1.0,2024-08-29_11h29.16.913,robot_sternberg_sign,2022.2.5,60.006900793607954,
110,"['C', 'H', 'X', 'K', 'T', 'J']",True,T,6.0,letter,4.0,False,False,"['robot_stimuli\\\\filler.mp4', 'robot_stimuli\\\\filler.mp4', 'robot_stimuli\\\\filler.mp4', 'robot_stimuli\\\\filler.mp4', 'robot_stimuli\\\\filler.mp4', 'robot_stimuli\\\\filler.mp4']",robot_stimuli\\filler.mp4,23.0,,,,,,,,,,,,,0.0,104.0,104.0,104.0,,,,,,,,,,,,,,,,,1891.3316015,1892.3888834,,,,,,,,,1893.2085677,1893.2085677,1893.2085677,1893.2085677,1893.2085677,1893.2085677,1893.2085677,1893.2085677,,,,,,,,,,,,,,1877.6303051,1877.6303051,,,1889.3125657,1891.3316015,1892.3888834,1892.3888834,1892.3888834,1892.3888834,c,0.6473488999998835,1877.6303051,1877.6303051,,,23.0,1.0,2024-08-29_11h29.16.913,robot_sternberg_sign,2022.2.5,60.006900793607954,
111,"['P', 'N', 'S', 'M', 'R', 'G']",True,S,6.0,letter,4.0,False,False,"['robot_stimuli\\\\filler.mp4', 'robot_stimuli\\\\filler.mp4', 'robot_stimuli\\\\filler.mp4', 'robot_stimuli\\\\filler.mp4', 'robot_stimuli\\\\filler.mp4', 'robot_stimuli\\\\filler.mp4']",robot_stimuli\\filler.mp4,23.0,,,,,,,,,,,,,0.0,105.0,105.0,105.0,,,,,,,,,,,,,,,,,1907.31887,1908.3724098,,,,,,,,,1908.9984154,1908.9984154,1908.9984154,1908.9984154,1908.9984154,1908.9984154,1908.9984154,1908.9984154,,,,,,,,,,,,,,1893.2085677,1893.2085677,,,1905.1038961,1907.31887,1908.3724098,1908.3724098,1908.3724098,1908.3724098,c,0.4876451000003499,1893.2085677,1893.2085677,,,23.0,1.0,2024-08-29_11h29.16.913,robot_sternberg_sign,2022.2.5,60.006900793607954,
112,"['H', 'F', 'L', 'Q', 'S', 'M']",False,C,6.0,letter,4.0,False,False,"['robot_stimuli\\\\filler.mp4', 'robot_stimuli\\\\filler.mp4', 'robot_stimuli\\\\filler.mp4', 'robot_stimuli\\\\filler.mp4', 'robot_stimuli\\\\filler.mp4', 'robot_stimuli\\\\filler.mp4']",robot_stimuli\\filler.mp4,23.0,,,,,,,,,,,,,0.0,106.0,106.0,106.0,,,,,,,,,,,,,,,,,1923.5309399,1924.5886122,,,,,,,,,1927.2166982,1927.2166982,1927.2166982,1927.2166982,1927.2166982,1927.2166982,1927.2166982,1927.2166982,,,,,,,,,,,,,,1908.9984154,1908.9984154,,,1921.515999,1923.5309399,1924.5886122,1924.5886122,1924.5886122,1924.5886122,n,2.4088527000002387,1908.9984154,1908.9984154,,,23.0,1.0,2024-08-29_11h29.16.913,robot_sternberg_sign,2022.2.5,60.006900793607954,
113,"['P', 'L', 'D', 'G', 'W', 'V']",True,D,6.0,letter,4.0,False,False,"['robot_stimuli\\\\filler.mp4', 'robot_stimuli\\\\filler.mp4', 'robot_stimuli\\\\filler.mp4', 'robot_stimuli\\\\filler.mp4', 'robot_stimuli\\\\filler.mp4', 'robot_stimuli\\\\filler.mp4']",robot_stimuli\\filler.mp4,23.0,,,,,,,,,,,,,0.0,107.0,107.0,107.0,,,,,,,,,,,,,,,,,1941.5372967,1928.2722297,,,,,,,,,1943.433608,1943.433608,1943.433608,1943.433608,1943.433608,1943.433608,1943.433608,1943.433608,,,,,,,,,,,,,,1927.2166982,1927.2166982,,,1939.3301228,1941.5372967,1942.6044996,1942.6044996,1942.6044996,1942.6044996,c,0.5994533000001638,1927.2166982,1927.2166982,,,23.0,1.0,2024-08-29_11h29.16.913,robot_sternberg_sign,2022.2.5,60.006900793607954,
114,"['B', 'J', 'S', 'D', 'L', 'F']",True,F,6.0,letter,4.0,False,False,"['robot_stimuli\\\\filler.mp4', 'robot_stimuli\\\\filler.mp4', 'robot_stimuli\\\\filler.mp4', 'robot_stimuli\\\\filler.mp4', 'robot_stimuli\\\\filler.mp4', 'robot_stimuli\\\\filler.mp4']",robot_stimuli\\filler.mp4,23.0,,,,,,,,,,,,,0.0,108.0,108.0,108.0,,,,,,,,,,,,,,,,,1957.5864223,1944.48978,,,,,,,,,1959.2847026,1959.2847026,1959.2847026,1959.2847026,1959.2847026,1959.2847026,1959.2847026,1959.2847026,,,,,,,,,,,,,,1943.433608,1943.433608,,,1955.373799,1957.5864223,1958.6620054,1958.6620054,1958.6620054,1958.6620054,c,0.5579535000000533,1943.433608,1943.433608,,,23.0,1.0,2024-08-29_11h29.16.913,robot_sternberg_sign,2022.2.5,60.006900793607954,
115,"['X', 'C', 'M', 'Z', 'J', 'Q']",True,C,6.0,letter,4.0,False,True,"['robot_stimuli\\\\filler.mp4', 'robot_stimuli\\\\filler.mp4', 'robot_stimuli\\\\filler.mp4', 'robot_stimuli\\\\filler.mp4', 'robot_stimuli\\\\filler.mp4', 'robot_stimuli\\\\filler.mp4']",robot_stimuli\\filler.mp4,23.0,,,,,,,,,,,,,0.0,109.0,109.0,109.0,,,,,,,,,,,,,,,,,1973.5935132,1974.6551595,,,,,,,,,1975.5147076,1979.0329197,1975.5147076,1979.0329197,1975.5147076,1979.0329197,1975.5147076,1979.0329197,38.48765432098765,2.939067900000282,space,,,3.4573374999998805,,,,,,,,1959.2847026,1959.2847026,,,1971.3702426,1973.5935132,1974.6551595,1974.6551595,1974.6551595,1974.6551595,c,0.6291187999999011,1959.2847026,1959.2847026,,,23.0,1.0,2024-08-29_11h29.16.913,robot_sternberg_sign,2022.2.5,60.006900793607954,
116,"['V', 'Q', 'B', 'H']",False,M,4.0,letter,4.0,True,False,"['robot_stimuli\\\\filler.mp4', 'robot_stimuli\\\\filler.mp4', 'robot_stimuli\\\\filler.mp4', 'robot_stimuli\\\\filler.mp4']",robot_stimuli\\filler.mp4,23.0,,,,,,,,,,,,,0.0,110.0,110.0,110.0,,,,,,,,,,,,,,,,,1989.6221435,1990.6882598,,,,,,,,,1991.3137041,1991.3137041,1991.3137041,1991.3137041,1991.3137041,1991.3137041,1991.3137041,1991.3137041,,,,,,,,,,,,,,1979.0329197,1979.0329197,space,1.028027800000359,1987.5988906,1989.6221435,1990.6882598,1990.6882598,1990.6882598,1990.6882598,n,0.4532125999998015,,,,,23.0,1.0,2024-08-29_11h29.16.913,robot_sternberg_sign,2022.2.5,60.006900793607954,
117,"['H', 'R', 'C', 'S']",True,S,4.0,letter,4.0,False,False,"['robot_stimuli\\\\filler.mp4', 'robot_stimuli\\\\filler.mp4', 'robot_stimuli\\\\filler.mp4', 'robot_stimuli\\\\filler.mp4']",robot_stimuli\\filler.mp4,23.0,,,,,,,,,,,,,0.0,111.0,111.0,111.0,,,,,,,,,,,,,,,,,2000.8566573,2001.9242165,,,,,,,,,2002.5510412,2002.5510412,2002.5510412,2002.5510412,2002.5510412,2002.5510412,2002.5510412,2002.5510412,,,,,,,,,,,,,,1991.3137041,1991.3137041,,,1998.831633,2000.8566573,2001.9242165,2001.9242165,2001.9242165,2001.9242165,c,0.4895612999997638,1991.3137041,1991.3137041,,,23.0,1.0,2024-08-29_11h29.16.913,robot_sternberg_sign,2022.2.5,60.006900793607954,
118,"['T', 'J', 'H', 'C']",False,N,4.0,letter,4.0,False,False,"['robot_stimuli\\\\filler.mp4', 'robot_stimuli\\\\filler.mp4', 'robot_stimuli\\\\filler.mp4', 'robot_stimuli\\\\filler.mp4']",robot_stimuli\\filler.mp4,23.0,,,,,,,,,,,,,0.0,112.0,112.0,112.0,,,,,,,,,,,,,,,,,2012.0891112,2013.1559189,,,,,,,,,2013.7839073,2013.7839073,2013.7839073,2013.7839073,2013.7839073,2013.7839073,2013.7839073,2013.7839073,,,,,,,,,,,,,,2002.5510412,2002.5510412,,,2010.0790706,2012.0891112,2013.1559189,2013.1559189,2013.1559189,2013.1559189,n,0.4334138000002667,2002.5510412,2002.5510412,,,23.0,1.0,2024-08-29_11h29.16.913,robot_sternberg_sign,2022.2.5,60.006900793607954,
119,"['H', 'F', 'V', 'Z']",True,V,4.0,letter,4.0,False,False,"['robot_stimuli\\\\filler.mp4', 'robot_stimuli\\\\filler.mp4', 'robot_stimuli\\\\filler.mp4', 'robot_stimuli\\\\filler.mp4']",robot_stimuli\\filler.mp4,23.0,,,,,,,,,,,,,0.0,113.0,113.0,113.0,,,,,,,,,,,,,,,,,2023.510512,2024.5721483,,,,,,,,,2024.9952477,2024.9952477,2024.9952477,2024.9952477,2024.9952477,2024.9952477,2024.9952477,2024.9952477,,,,,,,,,,,,,,2013.7839073,2013.7839073,,,2021.4979417,2023.510512,2024.5721483,2024.5721483,2024.5721483,2024.5721483,c,0.368746200000146,2013.7839073,2013.7839073,,,23.0,1.0,2024-08-29_11h29.16.913,robot_sternberg_sign,2022.2.5,60.006900793607954,
120,"['X', 'L', 'Q', 'V']",False,Z,4.0,letter,4.0,False,False,"['robot_stimuli\\\\filler.mp4', 'robot_stimuli\\\\filler.mp4', 'robot_stimuli\\\\filler.mp4', 'robot_stimuli\\\\filler.mp4']",robot_stimuli\\filler.mp4,23.0,,,,,,,,,,,,,0.0,114.0,114.0,114.0,,,,,,,,,,,,,,,,,2034.5365312,2026.0564015,,,,,,,,,2036.4402905,2036.4402905,2036.4402905,2036.4402905,2036.4402905,2036.4402905,2036.4402905,2036.4402905,,,,,,,,,,,,,,2024.9952477,2024.9952477,,,2032.5181648,2034.5365312,2035.6069516,2035.6069516,2035.6069516,2035.6069516,n,0.6064237000003914,2024.9952477,2024.9952477,,,23.0,1.0,2024-08-29_11h29.16.913,robot_sternberg_sign,2022.2.5,60.006900793607954,
121,"['K', 'N', 'G', 'P']",True,K,4.0,letter,4.0,False,False,"['robot_stimuli\\\\filler.mp4', 'robot_stimuli\\\\filler.mp4', 'robot_stimuli\\\\filler.mp4', 'robot_stimuli\\\\filler.mp4']",robot_stimuli\\filler.mp4,23.0,,,,,,,,,,,,,0.0,115.0,115.0,115.0,,,,,,,,,,,,,,,,,2046.2308303,2047.28848,,,,,,,,,2048.109941,2048.109941,2048.109941,2048.109941,2048.109941,2048.109941,2048.109941,2048.109941,,,,,,,,,,,,,,2036.4402905,2036.4402905,,,2044.2155409,2046.2308303,2047.28848,2047.28848,2047.28848,2047.28848,c,0.5959873000000471,2036.4402905,2036.4402905,,,23.0,1.0,2024-08-29_11h29.16.913,robot_sternberg_sign,2022.2.5,60.006900793607954,
