sequence,odd_ones,parameter,choices,target,target_idx,condition,stimuli,block,is_block_beginning,is_block_ending,sequence_fnames,target_fname,subject,retraining.thisRepN,retraining.thisTrialN,retraining.thisN,retraining.thisIndex,training.thisRepN,training.thisTrialN,training.thisN,training.thisIndex,training_sequence_loop.thisRepN,training_sequence_loop.thisTrialN,training_sequence_loop.thisN,training_sequence_loop.thisIndex,trials.thisRepN,trials.thisTrialN,trials.thisN,trials.thisIndex,sequence_loop.thisRepN,sequence_loop.thisTrialN,sequence_loop.thisN,sequence_loop.thisIndex,langage_text.started,langage_key.started,langage_key.keys,langage_key.rt,intro_text.started,intro_key.started,intro_key.keys,intro_key.rt,training_intro_text.started,training_intro_key.started,training_intro_key.keys,training_intro_key.rt,polygon.started,polygon.stopped,cue_before_text.started,cue_before_text.stopped,training_presentation_letter.started,training_presentation_letter.stopped,recall_key.started,recall_question.started,recall_answer.started,recall_key.keys,recall_key.rt,RSME_labels.started,RSME_labels.stopped,RSME_ticks.started,RSME_ticks.stopped,RSME_text.started,RSME_text.stopped,RSME_key.started,RSME_key.stopped,RSME_ticks.response,RSME_ticks.rt,RSME_key.keys,training_intro_text.stopped,training_intro_key.stopped,RSME_key.rt,training_presentation_movie.started,experiment_beginning_text.started,experiment_beginning_keys.started,experiment_beginning_key.started,experiment_beginning_key.keys,experiment_beginning_key.rt,block_intro_text.started,block_intro_key.started,block_intro_key.keys,block_intro_key.rt,presentation_letter.started,presentation_letter.stopped,block_intro_text.stopped,block_intro_key.stopped,presentation_movie.started,participant,session,date,expName,psychopyVersion,frameRate,
,,,,,,,,,,,,,,,,,,,,,,,,,,,,,,,,,,12.726598300039768,12.726598300039768,f,3.339924900326878,,,,,,,,,,,,,,,,,,,,,,,,,,,,,,,,,,,,,,,,,,,,,,,,,12,001,2024-09-05_15h25.02.208,robot_cogshifting_sign,2022.2.5,59.88421987397575,
,,,,,,,,,,,,,,,,,,,,,,,,,,,,,,,,,,,,,,16.132136999629438,16.132136999629438,space,30.853617799934,,,,,,,,,,,,,,,,,,,,,,,,,,,,,,,,,,,,,,,,,,,,,12,001,2024-09-05_15h25.02.208,robot_cogshifting_sign,2022.2.5,59.88421987397575,
"['blue_bottom_T_45', 'red_bottom_P_0', 'red_left_B_45', 'red_bottom_Q_45']","{'color': 'blue_bottom_T_45', 'position': 'red_left_B_45', 'orientation': 'red_bottom_P_0'}",color,['color'],blue_bottom_T_45,0,1,letter,1,True,False,"['robot_stimuli\\\\filler.mp4', 'robot_stimuli\\\\filler.mp4', 'robot_stimuli\\\\filler.mp4', 'robot_stimuli\\\\filler.mp4']",robot_stimuli\\filler.mp4,12,0,0,0,0,0,0,0,0,,,,,,,,,,,,,,,,,,,,,47.05964679969475,47.05964679969475,space,4.358528300188482,51.43490089988336,52.43689320003614,52.43689320003614,56.2778520998545,62.9409394999966,65.161962099839,65.161962099839,65.161962099839,65.161962099839,1,0.7278873003087938,65.94681459991261,65.94681459991261,65.94681459991261,65.94681459991261,65.94681459991261,65.94681459991261,65.94681459991261,65.94681459991261,None,None,None,,,,,,,,,,,,,,,,,,,12,001,2024-09-05_15h25.02.208,robot_cogshifting_sign,2022.2.5,59.88421987397575,
"['red_bottom_S_45', 'blue_bottom_S_45', 'red_top_G_45', 'red_bottom_V_0']","{'color': 'blue_bottom_S_45', 'position': 'red_top_G_45', 'orientation': 'red_bottom_V_0'}",position,['position'],red_top_G_45,2,1,letter,1,False,False,"['robot_stimuli\\\\filler.mp4', 'robot_stimuli\\\\filler.mp4', 'robot_stimuli\\\\filler.mp4', 'robot_stimuli\\\\filler.mp4']",robot_stimuli\\filler.mp4,12,0,0,0,0,0,1,1,1,,,,,,,,,,,,,,,,,,,,,65.94681459991261,65.94681459991261,None,,65.94681459991261,66.9487795997411,66.9487795997411,69.01948919985443,75.51565309986472,77.75336659979075,77.75336659979075,77.75336659979075,77.75336659979075,3,0.25647260062396526,78.03726099990308,78.03726099990308,78.03726099990308,78.03726099990308,78.03726099990308,78.03726099990308,78.03726099990308,78.03726099990308,None,None,None,65.94681459991261,65.94681459991261,,,,,,,,,,,,,,,,,12,001,2024-09-05_15h25.02.208,robot_cogshifting_sign,2022.2.5,59.88421987397575,
"['red_top_Q_45', 'blue_bottom_J_45', 'blue_top_J_45', 'blue_top_Q_0']","{'color': 'red_top_Q_45', 'position': 'blue_bottom_J_45', 'orientation': 'blue_top_Q_0'}",orientation,['orientation'],blue_top_Q_0,3,1,letter,1,False,True,"['robot_stimuli\\\\filler.mp4', 'robot_stimuli\\\\filler.mp4', 'robot_stimuli\\\\filler.mp4', 'robot_stimuli\\\\filler.mp4']",robot_stimuli\\filler.mp4,12,0,0,0,0,0,2,2,2,,,,,,,,,,,,,,,,,,,,,78.03726099990308,78.03726099990308,None,,78.03726099990308,79.03920469991863,79.03920469991863,81.1100452998653,87.62279489962384,89.84381189988926,89.84381189988926,89.84381189988926,89.84381189988926,4,0.3749887007288635,90.29472539993003,95.5885186996311,90.29472539993003,95.5885186996311,90.29472539993003,95.5885186996311,90.29472539993003,95.5885186996311,4.365079365079369,4.638156600296497,space,78.03726099990308,78.03726099990308,5.163057799916714,,,,,,,,,,,,,,,,12,001,2024-09-05_15h25.02.208,robot_cogshifting_sign,2022.2.5,59.88421987397575,
"['blue_top_X_0', 'red_left_V_0', 'red_top_T_45', 'red_top_T_0']","{'color': 'blue_top_X_0', 'position': 'red_left_V_0', 'orientation': 'red_top_T_45'}",position,"['orientation', 'position']",red_left_V_0,1,2,letter,1,True,False,"['robot_stimuli\\\\filler.mp4', 'robot_stimuli\\\\filler.mp4', 'robot_stimuli\\\\filler.mp4', 'robot_stimuli\\\\filler.mp4']",robot_stimuli\\filler.mp4,12,0,0,0,0,0,3,3,3,,,,,,,,,,,,,,,,,,,,,95.5885186996311,95.5885186996311,space,1.1648501004092395,96.77411639969796,,97.77607909962535,,106.54335559997708,108.58070029970258,108.58070029970258,108.58070029970258,108.58070029970258,2,1.1010587001219392,109.69954229984432,109.69954229984432,109.69954229984432,109.69954229984432,109.69954229984432,109.69954229984432,109.69954229984432,109.69954229984432,None,None,None,,,,,,,,,,,,,,,,,,,12,001,2024-09-05_15h25.02.208,robot_cogshifting_sign,2022.2.5,59.88421987397575,
"['blue_left_M_0', 'blue_left_B_45', 'blue_bottom_W_45', 'red_left_G_45']","{'color': 'red_left_G_45', 'position': 'blue_bottom_W_45', 'orientation': 'blue_left_M_0'}",color,"['color', 'orientation']",red_left_G_45,3,2,letter,1,False,False,"['robot_stimuli\\\\filler.mp4', 'robot_stimuli\\\\filler.mp4', 'robot_stimuli\\\\filler.mp4', 'robot_stimuli\\\\filler.mp4']",robot_stimuli\\filler.mp4,12,0,0,0,0,0,4,4,4,,,,,,,,,,,,,,,,,,,,,109.69954229984432,109.69954229984432,None,,109.69954229984432,110.7015065997839,110.7015065997839,112.78906199987978,119.48549829982221,121.70649529993534,121.70649529993534,121.70649529993534,121.70649529993534,4,1.4326738002710044,123.15939129982144,123.15939129982144,123.15939129982144,123.15939129982144,123.15939129982144,123.15939129982144,123.15939129982144,123.15939129982144,None,None,None,109.69954229984432,109.69954229984432,,,,,,,,,,,,,,,,,12,001,2024-09-05_15h25.02.208,robot_cogshifting_sign,2022.2.5,59.88421987397575,
"['red_right_N_45', 'blue_right_R_0', 'red_left_V_0', 'red_right_H_0']","{'color': 'blue_right_R_0', 'position': 'red_left_V_0', 'orientation': 'red_right_N_45'}",orientation,"['orientation', 'position']",red_right_N_45,0,2,letter,1,False,True,"['robot_stimuli\\\\filler.mp4', 'robot_stimuli\\\\filler.mp4', 'robot_stimuli\\\\filler.mp4', 'robot_stimuli\\\\filler.mp4']",robot_stimuli\\filler.mp4,12,0,0,0,0,0,5,5,5,,,,,,,,,,,,,,,,,,,,,123.15939129982144,123.15939129982144,None,,123.15939129982144,124.16135660000145,124.16135660000145,126.23213139967993,132.54457479994744,134.7655598996207,134.7655598996207,134.7655598996207,134.7655598996207,1,1.172715900465846,136.00130839971825,141.11137839965522,136.00130839971825,141.11137839965522,136.00130839971825,141.11137839965522,136.00130839971825,141.11137839965522,22.61904761904762,4.2178923999890685,space,123.15939129982144,123.15939129982144,5.056283900514245,,,,,,,,,,,,,,,,12,001,2024-09-05_15h25.02.208,robot_cogshifting_sign,2022.2.5,59.88421987397575,
"['blue_left_P_45', 'red_left_P_45', 'red_left_T_0', 'red_top_G_45']","{'color': 'blue_left_P_45', 'position': 'red_top_G_45', 'orientation': 'red_left_T_0'}",orientation,"['color', 'orientation', 'position']",red_left_T_0,2,3,letter,1,True,False,"['robot_stimuli\\\\filler.mp4', 'robot_stimuli\\\\filler.mp4', 'robot_stimuli\\\\filler.mp4', 'robot_stimuli\\\\filler.mp4']",robot_stimuli\\filler.mp4,12,0,0,0,0,0,6,6,6,,,,,,,,,,,,,,,,,,,,,141.11137839965522,141.11137839965522,space,2.0585914999246597,143.19881409965456,,144.20072769979015,,152.7843018998392,154.9887272999622,154.9887272999622,154.9887272999622,154.9887272999622,3,1.9007873004302382,156.9090978000313,156.9090978000313,156.9090978000313,156.9090978000313,156.9090978000313,156.9090978000313,156.9090978000313,156.9090978000313,None,None,None,,,,,,,,,,,,,,,,,,,12,001,2024-09-05_15h25.02.208,robot_cogshifting_sign,2022.2.5,59.88421987397575,
"['red_left_L_45', 'red_left_T_0', 'red_bottom_H_45', 'blue_left_C_45']","{'color': 'blue_left_C_45', 'position': 'red_bottom_H_45', 'orientation': 'red_left_T_0'}",color,"['color', 'orientation', 'position']",blue_left_C_45,3,3,letter,1,False,False,"['robot_stimuli\\\\filler.mp4', 'robot_stimuli\\\\filler.mp4', 'robot_stimuli\\\\filler.mp4', 'robot_stimuli\\\\filler.mp4']",robot_stimuli\\filler.mp4,12,0,0,0,0,0,7,7,7,,,,,,,,,,,,,,,,,,,,,156.9090978000313,156.9090978000313,None,,156.9090978000313,157.91118289995939,157.91118289995939,159.9985297997482,166.71183229982853,168.93280990002677,168.93280990002677,168.93280990002677,168.93280990002677,4,0.909240500535816,169.86797089967877,169.86797089967877,169.86797089967877,169.86797089967877,169.86797089967877,169.86797089967877,169.86797089967877,169.86797089967877,None,None,None,156.9090978000313,156.9090978000313,,,,,,,,,,,,,,,,,12,001,2024-09-05_15h25.02.208,robot_cogshifting_sign,2022.2.5,59.88421987397575,
"['blue_right_Z_0', 'blue_right_V_45', 'blue_bottom_W_45', 'red_right_H_45']","{'color': 'red_right_H_45', 'position': 'blue_bottom_W_45', 'orientation': 'blue_right_Z_0'}",position,"['color', 'orientation', 'position']",blue_bottom_W_45,2,3,letter,1,False,True,"['robot_stimuli\\\\filler.mp4', 'robot_stimuli\\\\filler.mp4', 'robot_stimuli\\\\filler.mp4', 'robot_stimuli\\\\filler.mp4']",robot_stimuli\\filler.mp4,12,0,0,0,0,0,8,8,8,,,,,,,,,,,,,,,,,,,,,169.86797089967877,169.86797089967877,None,,169.86797089967877,170.86992440000176,170.86992440000176,172.94075319962576,179.60393540002406,181.62445000000298,181.62445000000298,181.62445000000298,181.62445000000298,3,0.9058546000160277,182.59301419975236,186.91818699985743,182.59301419975236,186.91818699985743,182.59301419975236,186.91818699985743,182.59301419975236,186.91818699985743,28.809523809523807,3.7007606998085976,space,169.86797089967877,169.86797089967877,4.2647140002809465,,,,,,,,,,,,,,,,12,001,2024-09-05_15h25.02.208,robot_cogshifting_sign,2022.2.5,59.88421987397575,
"['R_Torso_Z_Back', 'R_Head_Z_Back', 'R_Head_Y_Back', 'L_Head_Z_For']","{'laterality': 'L_Head_Z_For', 'localisation': 'R_Torso_Z_Back', 'movement': 'R_Head_Y_Back'}",movement,['movement'],R_Head_Y_Back,2,1,robot,2,True,False,"['robot_stimuli\\R_Torso_Z_Back.mp4', 'robot_stimuli\\R_Head_Z_Back.mp4', 'robot_stimuli\\R_Head_Y_Back.mp4', 'robot_stimuli\\L_Head_Z_For.mp4']",robot_stimuli\R_Head_Y_Back.mp4,12,0,0,0,0,0,9,9,9,,,,,,,,,,,,,,,,,,,,,186.91818699985743,186.91818699985743,space,1.435544100124389,188.3710439996794,,189.37303570006043,,,,206.3906843997538,206.3906843997538,206.3906843997538,3,0.4193989001214504,206.84074599994346,206.84074599994346,206.84074599994346,206.84074599994346,206.84074599994346,206.84074599994346,206.84074599994346,206.84074599994346,None,None,None,,,,202.74937009997666,,,,,,,,,,,,,,,12,001,2024-09-05_15h25.02.208,robot_cogshifting_sign,2022.2.5,59.88421987397575,
"['R_Head_Z_Back', 'L_Arm_Z_Back', 'R_Arm_X_For', 'R_Arm_Z_For']","{'laterality': 'L_Arm_Z_Back', 'localisation': 'R_Head_Z_Back', 'movement': 'R_Arm_X_For'}",localisation,['localisation'],R_Head_Z_Back,0,1,robot,2,False,False,"['robot_stimuli\\R_Head_Z_Back.mp4', 'robot_stimuli\\L_Arm_Z_Back.mp4', 'robot_stimuli\\R_Arm_X_For.mp4', 'robot_stimuli\\R_Arm_Z_For.mp4']",robot_stimuli\R_Head_Z_Back.mp4,12,0,0,0,0,0,10,10,10,,,,,,,,,,,,,,,,,,,,,206.84074599994346,206.84074599994346,None,,206.84074599994346,207.84271979983896,207.84271979983896,209.9301924998872,,,224.75932909967378,224.75932909967378,224.75932909967378,1,0.3465692005120218,225.12672009970993,225.12672009970993,225.12672009970993,225.12672009970993,225.12672009970993,225.12672009970993,225.12672009970993,225.12672009970993,None,None,None,206.84074599994346,206.84074599994346,,221.1021535997279,,,,,,,,,,,,,,,12,001,2024-09-05_15h25.02.208,robot_cogshifting_sign,2022.2.5,59.88421987397575,
"['R_Arm_X_For', 'L_Arm_X_For', 'L_Torso_X_For', 'L_Arm_Y_Back']","{'laterality': 'R_Arm_X_For', 'localisation': 'L_Torso_X_For', 'movement': 'L_Arm_Y_Back'}",laterality,['laterality'],R_Arm_X_For,0,1,robot,2,False,True,"['robot_stimuli\\R_Arm_X_For.mp4', 'robot_stimuli\\L_Arm_X_For.mp4', 'robot_stimuli\\L_Torso_X_For.mp4', 'robot_stimuli\\L_Arm_Y_Back.mp4']",robot_stimuli\R_Arm_X_For.mp4,12,0,0,0,0,0,11,11,11,,,,,,,,,,,,,,,,,,,,,225.12672009970993,225.12672009970993,None,,225.12672009970993,226.1286954996176,226.1286954996176,228.21679199999198,,,243.06202319962904,243.06202319962904,243.06202319962904,1,4.291328200139105,247.40389980003238,251.12791489996016,247.40389980003238,251.12791489996016,247.40389980003238,251.12791489996016,247.40389980003238,251.12791489996016,7.38095238095238,3.265996200032532,space,225.12672009970993,225.12672009970993,3.6626059003174305,239.42158119985834,,,,,,,,,,,,,,,12,001,2024-09-05_15h25.02.208,robot_cogshifting_sign,2022.2.5,59.88421987397575,
"['R_Torso_Y_Back', 'L_Arm_Y_For', 'R_Arm_Z_For', 'R_Arm_Y_For']","{'laterality': 'L_Arm_Y_For', 'localisation': 'R_Torso_Y_Back', 'movement': 'R_Arm_Z_For'}",laterality,"['laterality', 'localisation']",L_Arm_Y_For,1,2,robot,2,True,False,"['robot_stimuli\\R_Torso_Y_Back.mp4', 'robot_stimuli\\L_Arm_Y_For.mp4', 'robot_stimuli\\R_Arm_Z_For.mp4', 'robot_stimuli\\R_Arm_Y_For.mp4']",robot_stimuli\L_Arm_Y_For.mp4,12,0,0,0,0,0,12,12,12,,,,,,,,,,,,,,,,,,,,,251.12791489996016,251.12791489996016,space,1.9620628003031015,253.11515859980136,,254.11711989995092,,,,270.90016479976475,270.90016479976475,270.90016479976475,1,10.989779100287706,281.92186739994213,281.92186739994213,281.92186739994213,281.92186739994213,281.92186739994213,281.92186739994213,281.92186739994213,281.92186739994213,None,None,None,,,,267.3932616999373,,,,,,,,,,,,,,,12,001,2024-09-05_15h25.02.208,robot_cogshifting_sign,2022.2.5,59.88421987397575,
"['R_Arm_X_For', 'R_Base_Z_For', 'R_Arm_Z_Back', 'L_Arm_Z_For']","{'laterality': 'L_Arm_Z_For', 'localisation': 'R_Base_Z_For', 'movement': 'R_Arm_X_For'}",movement,"['laterality', 'movement']",R_Arm_X_For,0,2,robot,2,False,False,"['robot_stimuli\\R_Arm_X_For.mp4', 'robot_stimuli\\R_Base_Z_For.mp4', 'robot_stimuli\\R_Arm_Z_Back.mp4', 'robot_stimuli\\L_Arm_Z_For.mp4']",robot_stimuli\R_Arm_X_For.mp4,12,0,0,0,0,0,13,13,13,,,,,,,,,,,,,,,,,,,,,281.92186739994213,281.92186739994213,None,,281.92186739994213,282.92382399970666,282.92382399970666,285.01129009993747,,,299.8404783997685,299.8404783997685,299.8404783997685,1,1.8649438004940748,301.72751809982583,301.72751809982583,301.72751809982583,301.72751809982583,301.72751809982583,301.72751809982583,301.72751809982583,301.72751809982583,None,None,None,281.92186739994213,281.92186739994213,,296.1999887996353,,,,,,,,,,,,,,,12,001,2024-09-05_15h25.02.208,robot_cogshifting_sign,2022.2.5,59.88421987397575,
"['R_Head_Z_Back', 'R_Arm_X_For', 'L_Head_X_Back', 'R_Head_X_Back']","{'laterality': 'L_Head_X_Back', 'localisation': 'R_Arm_X_For', 'movement': 'R_Head_Z_Back'}",localisation,"['laterality', 'localisation']",R_Arm_X_For,1,2,robot,2,False,True,"['robot_stimuli\\R_Head_Z_Back.mp4', 'robot_stimuli\\R_Arm_X_For.mp4', 'robot_stimuli\\L_Head_X_Back.mp4', 'robot_stimuli\\R_Head_X_Back.mp4']",robot_stimuli\R_Arm_X_For.mp4,12,0,0,0,0,0,14,14,14,,,,,,,,,,,,,,,,,,,,,301.72751809982583,301.72751809982583,None,,301.72751809982583,302.72946699988097,302.72946699988097,304.8169329999946,,,319.6795153999701,319.6795153999701,319.6795153999701,2,1.7938931002281606,321.5331416996196,325.8249482996762,321.5331416996196,325.8249482996762,321.5331416996196,325.8249482996762,321.5331416996196,325.8249482996762,25.476190476190478,4.168096700217575,space,301.72751809982583,301.72751809982583,4.2367422003299,316.02233199961483,,,,,,,,,,,,,,,12,001,2024-09-05_15h25.02.208,robot_cogshifting_sign,2022.2.5,59.88421987397575,
"['R_Arm_Z_Back', 'R_Torso_Y_For', 'R_Arm_Y_For', 'L_Arm_Y_Back']","{'laterality': 'L_Arm_Y_Back', 'localisation': 'R_Torso_Y_For', 'movement': 'R_Arm_Z_Back'}",localisation,"['laterality', 'localisation', 'movement']",R_Torso_Y_For,1,3,robot,2,True,False,"['robot_stimuli\\R_Arm_Z_Back.mp4', 'robot_stimuli\\R_Torso_Y_For.mp4', 'robot_stimuli\\R_Arm_Y_For.mp4', 'robot_stimuli\\L_Arm_Y_Back.mp4']",robot_stimuli\R_Torso_Y_For.mp4,12,0,0,0,0,0,15,15,15,,,,,,,,,,,,,,,,,,,,,325.8249482996762,325.8249482996762,space,8.857175000011921,334.70912340003997,,335.71106769982725,,,,352.5107907997444,352.5107907997444,352.5107907997444,1,10.067016300279647,362.59731659991667,362.59731659991667,362.59731659991667,362.59731659991667,362.59731659991667,362.59731659991667,362.59731659991667,362.59731659991667,None,None,None,,,,348.87037999974564,,,,,,,,,,,,,,,12,001,2024-09-05_15h25.02.208,robot_cogshifting_sign,2022.2.5,59.88421987397575,
"['L_Torso_X_For', 'R_Base_X_For', 'R_Torso_X_Back', 'R_Torso_Y_For']","{'laterality': 'L_Torso_X_For', 'localisation': 'R_Base_X_For', 'movement': 'R_Torso_Y_For'}",movement,"['laterality', 'localisation', 'movement']",R_Torso_Y_For,3,3,robot,2,False,False,"['robot_stimuli\\L_Torso_X_For.mp4', 'robot_stimuli\\R_Base_X_For.mp4', 'robot_stimuli\\R_Torso_X_Back.mp4', 'robot_stimuli\\R_Torso_Y_For.mp4']",robot_stimuli\R_Torso_Y_For.mp4,12,0,0,0,0,0,16,16,16,,,,,,,,,,,,,,,,,,,,,362.59731659991667,362.59731659991667,None,,362.59731659991667,363.5993057996966,363.5993057996966,365.68675450002775,,,380.3989967000671,380.3989967000671,380.3989967000671,4,4.570941800717264,384.9914088998921,384.9914088998921,384.9914088998921,384.9914088998921,384.9914088998921,384.9914088998921,384.9914088998921,384.9914088998921,None,None,None,362.59731659991667,362.59731659991667,,376.75854029972106,,,,,,,,,,,,,,,12,001,2024-09-05_15h25.02.208,robot_cogshifting_sign,2022.2.5,59.88421987397575,
"['L_Base_X_For', 'R_Head_X_Back', 'R_Base_X_For', 'R_Base_Y_Back']","{'laterality': 'L_Base_X_For', 'localisation': 'R_Head_X_Back', 'movement': 'R_Base_Y_Back'}",laterality,"['laterality', 'localisation', 'movement']",L_Base_X_For,0,3,robot,2,False,True,"['robot_stimuli\\L_Base_X_For.mp4', 'robot_stimuli\\R_Head_X_Back.mp4', 'robot_stimuli\\R_Base_X_For.mp4', 'robot_stimuli\\R_Base_Y_Back.mp4']",robot_stimuli\L_Base_X_For.mp4,12,0,0,0,0,0,17,17,17,,,,,,,,,,,,,,,,,,,,,384.9914088998921,384.9914088998921,None,,384.9914088998921,385.9934396999888,385.9934396999888,388.13093269988894,,,402.7764174998738,402.7764174998738,402.7764174998738,1,5.7692529004998505,408.60454509966075,415.81875430000946,408.60454509966075,415.81875430000946,408.60454509966075,415.81875430000946,408.60454509966075,415.81875430000946,40.238095238095234,6.8566022999584675,space,384.9914088998921,384.9914088998921,7.148997700307518,399.11922399979085,,,,,,,,,,,,,,,12,001,2024-09-05_15h25.02.208,robot_cogshifting_sign,2022.2.5,59.88421987397575,
,,,,,,,,,,,,,,0,0,0,0,,,,,,,,,,,,,,,,,,,,,,,,,,,,,,,,,,,,,,,,,,,,,,,,,,,,,,,415.81875430000946,415.81875430000946,415.81875430000946,c,92.41468810010701,,,,,,,,,,12,001,2024-09-05_15h25.02.208,robot_cogshifting_sign,2022.2.5,59.88421987397575,
"['red_top_M_0', 'red_top_D_45', 'red_right_L_45', 'blue_top_V_45']","{'color': 'blue_top_V_45', 'position': 'red_right_L_45', 'orientation': 'red_top_M_0'}",color,"['color', 'orientation', 'position']",blue_top_V_45,3,3,letter,1,True,False,"['robot_stimuli\\\\filler.mp4', 'robot_stimuli\\\\filler.mp4', 'robot_stimuli\\\\filler.mp4', 'robot_stimuli\\\\filler.mp4']",robot_stimuli\\filler.mp4,12,,,,,,,,,,,,,0,0,0,0,,,,,,,,,,,,,,,,,,,511.2899992996827,,,,522.0278207999654,522.0278207999654,522.0278207999654,4,0.9740394004620612,523.0297962999903,523.0297962999903,523.0297962999903,523.0297962999903,523.0297962999903,523.0297962999903,523.0297962999903,523.0297962999903,None,None,None,,,,,,,,,,508.28408569982275,508.28408569982275,space,2.973389800172299,519.8068283996545,522.0278207999654,,,,12,001,2024-09-05_15h25.02.208,robot_cogshifting_sign,2022.2.5,59.88421987397575,
"['red_bottom_H_45', 'blue_bottom_B_0', 'red_right_R_0', 'red_bottom_Z_0']","{'color': 'blue_bottom_B_0', 'position': 'red_right_R_0', 'orientation': 'red_bottom_H_45'}",position,"['color', 'orientation', 'position']",red_right_R_0,2,3,letter,1,False,False,"['robot_stimuli\\\\filler.mp4', 'robot_stimuli\\\\filler.mp4', 'robot_stimuli\\\\filler.mp4', 'robot_stimuli\\\\filler.mp4']",robot_stimuli\\filler.mp4,12,,,,,,,,,,,,,0,1,1,1,,,,,,,,,,,,,,,,,,,523.0297962999903,525.0841031000018,,,533.5505212000571,533.5505212000571,533.5505212000571,3,1.4671716005541384,535.0367516996339,535.0367516996339,535.0367516996339,535.0367516996339,535.0367516996339,535.0367516996339,535.0367516996339,535.0367516996339,None,None,None,,,,,,,,,,523.0297962999903,523.0297962999903,None,,531.5299362000078,533.5505212000571,523.0297962999903,523.0297962999903,,12,001,2024-09-05_15h25.02.208,robot_cogshifting_sign,2022.2.5,59.88421987397575,
"['blue_left_Q_0', 'red_right_X_0', 'red_left_R_45', 'red_left_X_0']","{'color': 'blue_left_Q_0', 'position': 'red_right_X_0', 'orientation': 'red_left_R_45'}",position,"['color', 'orientation', 'position']",red_right_X_0,1,3,letter,1,False,False,"['robot_stimuli\\\\filler.mp4', 'robot_stimuli\\\\filler.mp4', 'robot_stimuli\\\\filler.mp4', 'robot_stimuli\\\\filler.mp4']",robot_stimuli\\filler.mp4,12,,,,,,,,,,,,,0,2,2,2,,,,,,,,,,,,,,,,,,,535.0367516996339,537.107564299833,,,545.9916737996973,545.9916737996973,545.9916737996973,3,8.369448700454086,554.3915137997828,554.3915137997828,554.3915137997828,554.3915137997828,554.3915137997828,554.3915137997828,554.3915137997828,554.3915137997828,None,None,None,,,,,,,,,,535.0367516996339,535.0367516996339,None,,543.7707087998278,545.9916737996973,535.0367516996339,535.0367516996339,,12,001,2024-09-05_15h25.02.208,robot_cogshifting_sign,2022.2.5,59.88421987397575,
"['red_right_R_0', 'red_right_K_45', 'blue_right_L_0', 'red_top_K_0']","{'color': 'blue_right_L_0', 'position': 'red_top_K_0', 'orientation': 'red_right_K_45'}",orientation,"['color', 'orientation', 'position']",red_right_K_45,1,3,letter,1,False,False,"['robot_stimuli\\\\filler.mp4', 'robot_stimuli\\\\filler.mp4', 'robot_stimuli\\\\filler.mp4', 'robot_stimuli\\\\filler.mp4']",robot_stimuli\\filler.mp4,12,,,,,,,,,,,,,0,3,3,3,,,,,,,,,,,,,,,,,,,554.3915137997828,556.4623555997387,,,565.1460274998099,565.1460274998099,565.1460274998099,2,3.607928200624883,568.7865244997665,568.7865244997665,568.7865244997665,568.7865244997665,568.7865244997665,568.7865244997665,568.7865244997665,568.7865244997665,None,None,None,,,,,,,,,,554.3915137997828,554.3915137997828,None,,563.1088307998143,565.1460274998099,554.3915137997828,554.3915137997828,,12,001,2024-09-05_15h25.02.208,robot_cogshifting_sign,2022.2.5,59.88421987397575,
"['blue_right_G_0', 'red_right_Q_0', 'red_right_K_45', 'red_left_G_0']","{'color': 'blue_right_G_0', 'position': 'red_left_G_0', 'orientation': 'red_right_K_45'}",color,"['color', 'orientation', 'position']",blue_right_G_0,0,3,letter,1,False,False,"['robot_stimuli\\\\filler.mp4', 'robot_stimuli\\\\filler.mp4', 'robot_stimuli\\\\filler.mp4', 'robot_stimuli\\\\filler.mp4']",robot_stimuli\\filler.mp4,12,,,,,,,,,,,,,0,4,4,4,,,,,,,,,,,,,,,,,,,568.7865244997665,570.858530299738,,,579.3406567997299,579.3406567997299,579.3406567997299,1,0.7491375003010035,580.1088419998996,580.1088419998996,580.1088419998996,580.1088419998996,580.1088419998996,580.1088419998996,580.1088419998996,580.1088419998996,None,None,None,,,,,,,,,,568.7865244997665,568.7865244997665,None,,577.11968779983,579.3406567997299,568.7865244997665,568.7865244997665,,12,001,2024-09-05_15h25.02.208,robot_cogshifting_sign,2022.2.5,59.88421987397575,
"['red_left_D_0', 'blue_bottom_R_0', 'red_bottom_G_45', 'red_bottom_J_0']","{'color': 'blue_bottom_R_0', 'position': 'red_left_D_0', 'orientation': 'red_bottom_G_45'}",orientation,"['color', 'orientation', 'position']",red_bottom_G_45,2,3,letter,1,False,False,"['robot_stimuli\\\\filler.mp4', 'robot_stimuli\\\\filler.mp4', 'robot_stimuli\\\\filler.mp4', 'robot_stimuli\\\\filler.mp4']",robot_stimuli\\filler.mp4,12,,,,,,,,,,,,,0,5,5,5,,,,,,,,,,,,,,,,,,,580.1088419998996,582.1795951998793,,,590.8466169997118,590.8466169997118,590.8466169997118,3,4.426495600491762,595.3054046998732,595.3054046998732,595.3054046998732,595.3054046998732,595.3054046998732,595.3054046998732,595.3054046998732,595.3054046998732,None,None,None,,,,,,,,,,580.1088419998996,580.1088419998996,None,,588.6256287000142,590.8466169997118,580.1088419998996,580.1088419998996,,12,001,2024-09-05_15h25.02.208,robot_cogshifting_sign,2022.2.5,59.88421987397575,
"['blue_bottom_S_45', 'red_left_K_45', 'red_bottom_B_45', 'red_bottom_P_0']","{'color': 'blue_bottom_S_45', 'position': 'red_left_K_45', 'orientation': 'red_bottom_P_0'}",position,"['color', 'orientation', 'position']",red_left_K_45,1,3,letter,1,False,False,"['robot_stimuli\\\\filler.mp4', 'robot_stimuli\\\\filler.mp4', 'robot_stimuli\\\\filler.mp4', 'robot_stimuli\\\\filler.mp4']",robot_stimuli\\filler.mp4,12,,,,,,,,,,,,,0,6,6,6,,,,,,,,,,,,,,,,,,,595.3054046998732,597.3761522998102,,,606.0264939996414,606.0264939996414,606.0264939996414,2,2.286687300540507,608.331032499671,608.331032499671,608.331032499671,608.331032499671,608.331032499671,608.331032499671,608.331032499671,608.331032499671,None,None,None,,,,,,,,,,595.3054046998732,595.3054046998732,None,,604.0058809998445,606.0264939996414,595.3054046998732,595.3054046998732,,12,001,2024-09-05_15h25.02.208,robot_cogshifting_sign,2022.2.5,59.88421987397575,
"['red_right_L_0', 'blue_right_L_45', 'red_right_Q_45', 'red_top_Q_45']","{'color': 'blue_right_L_45', 'position': 'red_top_Q_45', 'orientation': 'red_right_L_0'}",orientation,"['color', 'orientation', 'position']",red_right_L_0,0,3,letter,1,False,False,"['robot_stimuli\\\\filler.mp4', 'robot_stimuli\\\\filler.mp4', 'robot_stimuli\\\\filler.mp4', 'robot_stimuli\\\\filler.mp4']",robot_stimuli\\filler.mp4,12,,,,,,,,,,,,,0,7,7,7,,,,,,,,,,,,,,,,,,,608.331032499671,610.40189930005,,,619.0688224998303,619.0688224998303,619.0688224998303,1,6.604351300280541,625.698544899933,625.698544899933,625.698544899933,625.698544899933,625.698544899933,625.698544899933,625.698544899933,625.698544899933,None,None,None,,,,,,,,,,608.331032499671,608.331032499671,None,,617.0482974997722,619.0688224998303,608.331032499671,608.331032499671,,12,001,2024-09-05_15h25.02.208,robot_cogshifting_sign,2022.2.5,59.88421987397575,
"['blue_bottom_B_0', 'red_right_Z_0', 'red_bottom_P_45', 'red_bottom_M_0']","{'color': 'blue_bottom_B_0', 'position': 'red_right_Z_0', 'orientation': 'red_bottom_P_45'}",color,"['color', 'orientation', 'position']",blue_bottom_B_0,0,3,letter,1,False,True,"['robot_stimuli\\\\filler.mp4', 'robot_stimuli\\\\filler.mp4', 'robot_stimuli\\\\filler.mp4', 'robot_stimuli\\\\filler.mp4']",robot_stimuli\\filler.mp4,12,,,,,,,,,,,,,0,8,8,8,,,,,,,,,,,,,,,,,,,625.698544899933,627.769360799808,,,636.6534348996356,636.6534348996356,636.6534348996356,1,1.188270500395447,637.9059028998017,642.4983349996619,637.9059028998017,642.4983349996619,637.9059028998017,642.4983349996619,637.9059028998017,642.4983349996619,37.22222222222223,2.3309355000965297,space,,,4.527726500295103,,,,,,,625.698544899933,625.698544899933,None,,634.4491293998435,636.6534348996356,625.698544899933,625.698544899933,,12,001,2024-09-05_15h25.02.208,robot_cogshifting_sign,2022.2.5,59.88421987397575,
"['red_top_K_0', 'blue_top_V_0', 'blue_top_Z_45', 'blue_bottom_M_0']","{'color': 'red_top_K_0', 'position': 'blue_bottom_M_0', 'orientation': 'blue_top_Z_45'}",position,['position'],blue_bottom_M_0,3,1,letter,1,True,False,"['robot_stimuli\\\\filler.mp4', 'robot_stimuli\\\\filler.mp4', 'robot_stimuli\\\\filler.mp4', 'robot_stimuli\\\\filler.mp4']",robot_stimuli\\filler.mp4,12,,,,,,,,,,,,,0,9,9,9,,,,,,,,,,,,,,,,,,,646.9570766999386,,,,657.8952425997704,657.8952425997704,657.8952425997704,4,0.2977669006213546,658.2125784996897,658.2125784996897,658.2125784996897,658.2125784996897,658.2125784996897,658.2125784996897,658.2125784996897,658.2125784996897,None,None,None,,,,,,,,,,642.4983349996619,642.4983349996619,space,4.439006800763309,655.8748650997877,657.8952425997704,,,,12,001,2024-09-05_15h25.02.208,robot_cogshifting_sign,2022.2.5,59.88421987397575,
"['blue_left_T_45', 'blue_left_N_0', 'red_left_P_0', 'blue_bottom_J_0']","{'color': 'red_left_P_0', 'position': 'blue_bottom_J_0', 'orientation': 'blue_left_T_45'}",orientation,['orientation'],blue_left_T_45,0,1,letter,1,False,False,"['robot_stimuli\\\\filler.mp4', 'robot_stimuli\\\\filler.mp4', 'robot_stimuli\\\\filler.mp4', 'robot_stimuli\\\\filler.mp4']",robot_stimuli\\filler.mp4,12,,,,,,,,,,,,,0,10,10,10,,,,,,,,,,,,,,,,,,,658.2125784996897,660.283385399729,,,668.9503540997393,668.9503540997393,668.9503540997393,1,0.3875784007832408,669.3678321000189,669.3678321000189,669.3678321000189,669.3678321000189,669.3678321000189,669.3678321000189,669.3678321000189,669.3678321000189,None,None,None,,,,,,,,,,658.2125784996897,658.2125784996897,None,,666.729355499614,668.9503540997393,658.2125784996897,658.2125784996897,,12,001,2024-09-05_15h25.02.208,robot_cogshifting_sign,2022.2.5,59.88421987397575,
"['blue_bottom_C_0', 'blue_left_L_45', 'blue_bottom_C_45', 'red_bottom_L_45']","{'color': 'red_bottom_L_45', 'position': 'blue_left_L_45', 'orientation': 'blue_bottom_C_0'}",orientation,['orientation'],blue_bottom_C_0,0,1,letter,1,False,False,"['robot_stimuli\\\\filler.mp4', 'robot_stimuli\\\\filler.mp4', 'robot_stimuli\\\\filler.mp4', 'robot_stimuli\\\\filler.mp4']",robot_stimuli\\filler.mp4,12,,,,,,,,,,,,,0,11,11,11,,,,,,,,,,,,,,,,,,,669.3678321000189,671.4386367998086,,,680.0889372997917,680.0889372997917,680.0889372997917,1,7.785156500060111,687.9043350997381,687.9043350997381,687.9043350997381,687.9043350997381,687.9043350997381,687.9043350997381,687.9043350997381,687.9043350997381,None,None,None,,,,,,,,,,669.3678321000189,669.3678321000189,None,,678.0684357997961,680.0889372997917,669.3678321000189,669.3678321000189,,12,001,2024-09-05_15h25.02.208,robot_cogshifting_sign,2022.2.5,59.88421987397575,
"['red_right_S_45', 'red_top_Q_45', 'blue_top_L_45', 'red_top_K_0']","{'color': 'blue_top_L_45', 'position': 'red_right_S_45', 'orientation': 'red_top_K_0'}",color,['color'],blue_top_L_45,2,1,letter,1,False,False,"['robot_stimuli\\\\filler.mp4', 'robot_stimuli\\\\filler.mp4', 'robot_stimuli\\\\filler.mp4', 'robot_stimuli\\\\filler.mp4']",robot_stimuli\\filler.mp4,12,,,,,,,,,,,,,0,12,12,12,,,,,,,,,,,,,,,,,,,687.9043350997381,689.975145299919,,,698.8425263999961,698.8425263999961,698.8425263999961,2,5.079480200074613,703.9525883998722,703.9525883998722,703.9525883998722,703.9525883998722,703.9525883998722,703.9525883998722,703.9525883998722,703.9525883998722,None,None,None,,,,,,,,,,687.9043350997381,687.9043350997381,None,,696.6382527998649,698.8425263999961,687.9043350997381,687.9043350997381,,12,001,2024-09-05_15h25.02.208,robot_cogshifting_sign,2022.2.5,59.88421987397575,
"['red_left_S_45', 'red_left_T_0', 'red_right_S_45', 'blue_left_M_45']","{'color': 'blue_left_M_45', 'position': 'red_right_S_45', 'orientation': 'red_left_T_0'}",orientation,['orientation'],red_left_T_0,1,1,letter,1,False,False,"['robot_stimuli\\\\filler.mp4', 'robot_stimuli\\\\filler.mp4', 'robot_stimuli\\\\filler.mp4', 'robot_stimuli\\\\filler.mp4']",robot_stimuli\\filler.mp4,12,,,,,,,,,,,,,0,13,13,13,,,,,,,,,,,,,,,,,,,703.9525883998722,706.0233976999298,,,714.4899585000239,714.4899585000239,714.4899585000239,2,0.5673514003865421,715.0744730997831,715.0744730997831,715.0744730997831,715.0744730997831,715.0744730997831,715.0744730997831,715.0744730997831,715.0744730997831,None,None,None,,,,,,,,,,703.9525883998722,703.9525883998722,None,,712.4693779000081,714.4899585000239,703.9525883998722,703.9525883998722,,12,001,2024-09-05_15h25.02.208,robot_cogshifting_sign,2022.2.5,59.88421987397575,
"['red_left_R_45', 'red_left_Q_0', 'red_top_B_45', 'blue_left_M_45']","{'color': 'blue_left_M_45', 'position': 'red_top_B_45', 'orientation': 'red_left_Q_0'}",position,['position'],red_top_B_45,2,1,letter,1,False,False,"['robot_stimuli\\\\filler.mp4', 'robot_stimuli\\\\filler.mp4', 'robot_stimuli\\\\filler.mp4', 'robot_stimuli\\\\filler.mp4']",robot_stimuli\\filler.mp4,12,,,,,,,,,,,,,0,14,14,14,,,,,,,,,,,,,,,,,,,715.0744730997831,717.1284795999527,,,726.0293735000305,726.0293735000305,726.0293735000305,3,0.4046050002798438,726.4635639996268,726.4635639996268,726.4635639996268,726.4635639996268,726.4635639996268,726.4635639996268,726.4635639996268,726.4635639996268,None,None,None,,,,,,,,,,715.0744730997831,715.0744730997831,None,,723.8084220997989,726.0293735000305,715.0744730997831,715.0744730997831,,12,001,2024-09-05_15h25.02.208,robot_cogshifting_sign,2022.2.5,59.88421987397575,
"['red_left_D_0', 'red_top_S_45', 'red_left_M_45', 'blue_left_C_45']","{'color': 'blue_left_C_45', 'position': 'red_top_S_45', 'orientation': 'red_left_D_0'}",color,['color'],blue_left_C_45,3,1,letter,1,False,False,"['robot_stimuli\\\\filler.mp4', 'robot_stimuli\\\\filler.mp4', 'robot_stimuli\\\\filler.mp4', 'robot_stimuli\\\\filler.mp4']",robot_stimuli\\filler.mp4,12,,,,,,,,,,,,,0,15,15,15,,,,,,,,,,,,,,,,,,,726.4635639996268,728.5177041999996,,,736.8005837998353,736.8005837998353,736.8005837998353,4,0.7451741001568735,737.5687758000568,737.5687758000568,737.5687758000568,737.5687758000568,737.5687758000568,737.5687758000568,737.5687758000568,737.5687758000568,None,None,None,,,,,,,,,,726.4635639996268,726.4635639996268,None,,734.7806619000621,736.8005837998353,726.4635639996268,726.4635639996268,,12,001,2024-09-05_15h25.02.208,robot_cogshifting_sign,2022.2.5,59.88421987397575,
"['red_left_C_45', 'red_left_W_0', 'red_top_V_0', 'blue_left_V_0']","{'color': 'blue_left_V_0', 'position': 'red_top_V_0', 'orientation': 'red_left_C_45'}",color,['color'],blue_left_V_0,3,1,letter,1,False,False,"['robot_stimuli\\\\filler.mp4', 'robot_stimuli\\\\filler.mp4', 'robot_stimuli\\\\filler.mp4', 'robot_stimuli\\\\filler.mp4']",robot_stimuli\\filler.mp4,12,,,,,,,,,,,,,0,16,16,16,,,,,,,,,,,,,,,,,,,737.5687758000568,739.639622699935,,,748.3065487998538,748.3065487998538,748.3065487998538,4,0.47874420043081045,748.8075557998382,748.8075557998382,748.8075557998382,748.8075557998382,748.8075557998382,748.8075557998382,748.8075557998382,748.8075557998382,None,None,None,,,,,,,,,,737.5687758000568,737.5687758000568,None,,746.2860091999173,748.3065487998538,737.5687758000568,737.5687758000568,,12,001,2024-09-05_15h25.02.208,robot_cogshifting_sign,2022.2.5,59.88421987397575,
"['red_left_R_0', 'red_top_F_45', 'red_top_T_0', 'blue_top_G_0']","{'color': 'blue_top_G_0', 'position': 'red_left_R_0', 'orientation': 'red_top_F_45'}",position,['position'],red_left_R_0,0,1,letter,1,False,True,"['robot_stimuli\\\\filler.mp4', 'robot_stimuli\\\\filler.mp4', 'robot_stimuli\\\\filler.mp4', 'robot_stimuli\\\\filler.mp4']",robot_stimuli\\filler.mp4,12,,,,,,,,,,,,,0,17,17,17,,,,,,,,,,,,,,,,,,,748.8075557998382,750.8783505000174,,,759.762442199979,759.762442199979,759.762442199979,2,5.142826100345701,764.955995099619,769.8322504996322,764.955995099619,769.8322504996322,764.955995099619,769.8322504996322,764.955995099619,769.8322504996322,20.07936507936508,4.318183599971235,space,,,4.8052898002788424,,,,,,,748.8075557998382,748.8075557998382,None,,757.5414502997883,759.762442199979,748.8075557998382,748.8075557998382,,12,001,2024-09-05_15h25.02.208,robot_cogshifting_sign,2022.2.5,59.88421987397575,
"['blue_top_S_45', 'blue_bottom_F_0', 'blue_top_X_0', 'red_top_J_0']","{'color': 'red_top_J_0', 'position': 'blue_bottom_F_0', 'orientation': 'blue_top_S_45'}",color,"['color', 'orientation']",red_top_J_0,3,2,letter,1,True,False,"['robot_stimuli\\\\filler.mp4', 'robot_stimuli\\\\filler.mp4', 'robot_stimuli\\\\filler.mp4', 'robot_stimuli\\\\filler.mp4']",robot_stimuli\\filler.mp4,12,,,,,,,,,,,,,0,18,18,18,,,,,,,,,,,,,,,,,,,771.8696149997413,,,,782.6240991996601,782.6240991996601,782.6240991996601,4,0.7934084003791213,783.4423782997765,783.4423782997765,783.4423782997765,783.4423782997765,783.4423782997765,783.4423782997765,783.4423782997765,783.4423782997765,None,None,None,,,,,,,,,,769.8322504996322,769.8322504996322,space,2.0174792003817856,780.4031006000005,782.6240991996601,,,,12,001,2024-09-05_15h25.02.208,robot_cogshifting_sign,2022.2.5,59.88421987397575,
"['blue_bottom_X_0', 'blue_right_W_45', 'red_bottom_M_45', 'blue_bottom_R_45']","{'color': 'red_bottom_M_45', 'position': 'blue_right_W_45', 'orientation': 'blue_bottom_X_0'}",orientation,"['orientation', 'position']",blue_bottom_X_0,0,2,letter,1,False,False,"['robot_stimuli\\\\filler.mp4', 'robot_stimuli\\\\filler.mp4', 'robot_stimuli\\\\filler.mp4', 'robot_stimuli\\\\filler.mp4']",robot_stimuli\\filler.mp4,12,,,,,,,,,,,,,0,19,19,19,,,,,,,,,,,,,,,,,,,783.4423782997765,785.5131790000014,,,794.380569299683,794.380569299683,794.380569299683,1,2.7165312003344297,797.1193253998645,797.1193253998645,797.1193253998645,797.1193253998645,797.1193253998645,797.1193253998645,797.1193253998645,797.1193253998645,None,None,None,,,,,,,,,,783.4423782997765,783.4423782997765,None,,792.1596113997512,794.380569299683,783.4423782997765,783.4423782997765,,12,001,2024-09-05_15h25.02.208,robot_cogshifting_sign,2022.2.5,59.88421987397575,
"['red_top_S_45', 'blue_top_B_0', 'red_top_N_0', 'red_right_G_0']","{'color': 'blue_top_B_0', 'position': 'red_right_G_0', 'orientation': 'red_top_S_45'}",position,"['color', 'position']",red_right_G_0,3,2,letter,1,False,False,"['robot_stimuli\\\\filler.mp4', 'robot_stimuli\\\\filler.mp4', 'robot_stimuli\\\\filler.mp4', 'robot_stimuli\\\\filler.mp4']",robot_stimuli\\filler.mp4,12,,,,,,,,,,,,,0,20,20,20,,,,,,,,,,,,,,,,,,,797.1193253998645,799.1901056999341,,,807.6567303999327,807.6567303999327,807.6567303999327,4,1.3048205003142357,809.009367399849,809.009367399849,809.009367399849,809.009367399849,809.009367399849,809.009367399849,809.009367399849,809.009367399849,None,None,None,,,,,,,,,,797.1193253998645,797.1193253998645,None,,805.6361360996962,807.6567303999327,797.1193253998645,797.1193253998645,,12,001,2024-09-05_15h25.02.208,robot_cogshifting_sign,2022.2.5,59.88421987397575,
"['blue_bottom_S_0', 'red_right_Z_0', 'red_bottom_J_0', 'red_bottom_F_45']","{'color': 'blue_bottom_S_0', 'position': 'red_right_Z_0', 'orientation': 'red_bottom_F_45'}",orientation,"['orientation', 'position']",red_bottom_F_45,3,2,letter,1,False,False,"['robot_stimuli\\\\filler.mp4', 'robot_stimuli\\\\filler.mp4', 'robot_stimuli\\\\filler.mp4', 'robot_stimuli\\\\filler.mp4']",robot_stimuli\\filler.mp4,12,,,,,,,,,,,,,0,21,21,21,,,,,,,,,,,,,,,,,,,809.009367399849,,,,819.9476112998091,819.9476112998091,819.9476112998091,4,0.7498054006136954,820.7157381996512,820.7157381996512,820.7157381996512,820.7157381996512,820.7157381996512,820.7157381996512,820.7157381996512,820.7157381996512,None,None,None,,,,,,,,,,809.009367399849,809.009367399849,None,,817.7433038000017,819.9476112998091,809.009367399849,809.009367399849,,12,001,2024-09-05_15h25.02.208,robot_cogshifting_sign,2022.2.5,59.88421987397575,
"['red_left_F_45', 'blue_left_N_0', 'blue_left_H_45', 'blue_bottom_T_45']","{'color': 'red_left_F_45', 'position': 'blue_bottom_T_45', 'orientation': 'blue_left_N_0'}",position,"['color', 'position']",blue_bottom_T_45,3,2,letter,1,False,False,"['robot_stimuli\\\\filler.mp4', 'robot_stimuli\\\\filler.mp4', 'robot_stimuli\\\\filler.mp4', 'robot_stimuli\\\\filler.mp4']",robot_stimuli\\filler.mp4,12,,,,,,,,,,,,,0,22,22,22,,,,,,,,,,,,,,,,,,,820.7157381996512,822.7701003998518,,,831.4535555997863,831.4535555997863,831.4535555997863,4,0.4761849003843963,831.9545270996168,831.9545270996168,831.9545270996168,831.9545270996168,831.9545270996168,831.9545270996168,831.9545270996168,831.9545270996168,None,None,None,,,,,,,,,,820.7157381996512,820.7157381996512,None,,829.4338686997071,831.4535555997863,820.7157381996512,820.7157381996512,,12,001,2024-09-05_15h25.02.208,robot_cogshifting_sign,2022.2.5,59.88421987397575,
"['red_right_N_0', 'red_top_W_0', 'blue_top_T_0', 'red_top_C_45']","{'color': 'blue_top_T_0', 'position': 'red_right_N_0', 'orientation': 'red_top_C_45'}",color,"['color', 'orientation']",blue_top_T_0,2,2,letter,1,False,False,"['robot_stimuli\\\\filler.mp4', 'robot_stimuli\\\\filler.mp4', 'robot_stimuli\\\\filler.mp4', 'robot_stimuli\\\\filler.mp4']",robot_stimuli\\filler.mp4,12,,,,,,,,,,,,,0,23,23,23,,,,,,,,,,,,,,,,,,,831.9545270996168,834.0253678997979,,,842.8760595000349,842.8760595000349,842.8760595000349,3,0.8865543003194034,843.7944988999516,843.7944988999516,843.7944988999516,843.7944988999516,843.7944988999516,843.7944988999516,843.7944988999516,843.7944988999516,None,None,None,,,,,,,,,,831.9545270996168,831.9545270996168,None,,840.8571225996129,842.8760595000349,831.9545270996168,831.9545270996168,,12,001,2024-09-05_15h25.02.208,robot_cogshifting_sign,2022.2.5,59.88421987397575,
"['red_right_X_45', 'blue_left_F_45', 'red_left_H_45', 'red_left_Q_0']","{'color': 'blue_left_F_45', 'position': 'red_right_X_45', 'orientation': 'red_left_Q_0'}",position,"['color', 'position']",red_right_X_45,0,2,letter,1,False,False,"['robot_stimuli\\\\filler.mp4', 'robot_stimuli\\\\filler.mp4', 'robot_stimuli\\\\filler.mp4', 'robot_stimuli\\\\filler.mp4']",robot_stimuli\\filler.mp4,12,,,,,,,,,,,,,0,24,24,24,,,,,,,,,,,,,,,,,,,843.7944988999516,845.865345899947,,,854.9164061998017,854.9164061998017,854.9164061998017,1,0.8045216002501547,855.7514046998695,855.7514046998695,855.7514046998695,855.7514046998695,855.7514046998695,855.7514046998695,855.7514046998695,855.7514046998695,None,None,None,,,,,,,,,,843.7944988999516,843.7944988999516,None,,852.7121239998378,854.9164061998017,843.7944988999516,843.7944988999516,,12,001,2024-09-05_15h25.02.208,robot_cogshifting_sign,2022.2.5,59.88421987397575,
"['blue_left_B_0', 'blue_top_V_45', 'red_top_J_0', 'blue_top_H_0']","{'color': 'red_top_J_0', 'position': 'blue_left_B_0', 'orientation': 'blue_top_V_45'}",orientation,"['orientation', 'position']",blue_top_V_45,1,2,letter,1,False,False,"['robot_stimuli\\\\filler.mp4', 'robot_stimuli\\\\filler.mp4', 'robot_stimuli\\\\filler.mp4', 'robot_stimuli\\\\filler.mp4']",robot_stimuli\\filler.mp4,12,,,,,,,,,,,,,0,25,25,25,,,,,,,,,,,,,,,,,,,855.7514046998695,857.8221972999163,,,866.4892034996301,866.4892034996301,866.4892034996301,2,3.3606896004639566,869.879199099727,869.879199099727,869.879199099727,869.879199099727,869.879199099727,869.879199099727,869.879199099727,869.879199099727,None,None,None,,,,,,,,,,855.7514046998695,855.7514046998695,None,,864.2682741996832,866.4892034996301,855.7514046998695,855.7514046998695,,12,001,2024-09-05_15h25.02.208,robot_cogshifting_sign,2022.2.5,59.88421987397575,
"['blue_right_C_45', 'blue_left_J_0', 'blue_left_F_45', 'red_left_X_45']","{'color': 'red_left_X_45', 'position': 'blue_right_C_45', 'orientation': 'blue_left_J_0'}",color,"['color', 'orientation']",red_left_X_45,3,2,letter,1,False,True,"['robot_stimuli\\\\filler.mp4', 'robot_stimuli\\\\filler.mp4', 'robot_stimuli\\\\filler.mp4', 'robot_stimuli\\\\filler.mp4']",robot_stimuli\\filler.mp4,12,,,,,,,,,,,,,0,26,26,26,,,,,,,,,,,,,,,,,,,869.879199099727,871.9504255997017,,,880.6337184999138,880.6337184999138,880.6337184999138,3,0.8235074002295732,881.5187713997439,887.7977926996537,881.5187713997439,887.7977926996537,881.5187713997439,887.7977926996537,881.5187713997439,887.7977926996537,27.22222222222222,5.988335100002587,space,,,6.22662840038538,,,,,,,869.879199099727,869.879199099727,None,,878.4127525999211,880.6337184999138,869.879199099727,869.879199099727,,12,001,2024-09-05_15h25.02.208,robot_cogshifting_sign,2022.2.5,59.88421987397575,
"['R_Head_X_Back', 'L_Torso_X_Back', 'R_Torso_X_Back', 'R_Torso_Z_Back']","{'laterality': 'L_Torso_X_Back', 'localisation': 'R_Head_X_Back', 'movement': 'R_Torso_Z_Back'}",movement,['movement'],R_Torso_Z_Back,3,1,robot,2,True,False,"['robot_stimuli\\R_Head_X_Back.mp4', 'robot_stimuli\\L_Torso_X_Back.mp4', 'robot_stimuli\\R_Torso_X_Back.mp4', 'robot_stimuli\\R_Torso_Z_Back.mp4']",robot_stimuli\R_Torso_Z_Back.mp4,12,,,,,,,,,,,,,0,27,27,27,,,,,,,,,,,,,,,,,,,894.8116402998567,,,,911.7115442999639,911.7115442999639,911.7115442999639,4,0.3462017001584172,912.0789450998418,912.0789450998418,912.0789450998418,912.0789450998418,912.0789450998418,912.0789450998418,912.0789450998418,912.0789450998418,None,None,None,,,,,,,,,,887.7977926996537,887.7977926996537,space,6.9957594005391,,,,,908.087750100065,12,001,2024-09-05_15h25.02.208,robot_cogshifting_sign,2022.2.5,59.88421987397575,
"['L_Torso_Z_For', 'L_Head_X_Back', 'L_Torso_X_Back', 'R_Torso_X_For']","{'laterality': 'R_Torso_X_For', 'localisation': 'L_Head_X_Back', 'movement': 'L_Torso_Z_For'}",laterality,['laterality'],R_Torso_X_For,3,1,robot,2,False,False,"['robot_stimuli\\L_Torso_Z_For.mp4', 'robot_stimuli\\L_Head_X_Back.mp4', 'robot_stimuli\\L_Torso_X_Back.mp4', 'robot_stimuli\\R_Torso_X_For.mp4']",robot_stimuli\R_Torso_X_For.mp4,12,,,,,,,,,,,,,0,28,28,28,,,,,,,,,,,,,,,,,,,912.0789450998418,914.2332725999877,,,929.0623760996386,929.0623760996386,929.0623760996386,4,0.530441400129348,929.6134372996166,929.6134372996166,929.6134372996166,929.6134372996166,929.6134372996166,929.6134372996166,929.6134372996166,929.6134372996166,None,None,None,,,,,,,,,,912.0789450998418,912.0789450998418,None,,,,912.0789450998418,912.0789450998418,925.4385756999254,12,001,2024-09-05_15h25.02.208,robot_cogshifting_sign,2022.2.5,59.88421987397575,
"['L_Torso_X_Back', 'L_Arm_Y_For', 'L_Arm_X_Back', 'R_Arm_X_For']","{'laterality': 'R_Arm_X_For', 'localisation': 'L_Torso_X_Back', 'movement': 'L_Arm_Y_For'}",laterality,['laterality'],R_Arm_X_For,3,1,robot,2,False,False,"['robot_stimuli\\L_Torso_X_Back.mp4', 'robot_stimuli\\L_Arm_Y_For.mp4', 'robot_stimuli\\L_Arm_X_Back.mp4', 'robot_stimuli\\R_Arm_X_For.mp4']",robot_stimuli\R_Arm_X_For.mp4,12,,,,,,,,,,,,,0,29,29,29,,,,,,,,,,,,,,,,,,,929.6134372996166,931.7009288999252,,,946.4966610996053,946.4966610996053,946.4966610996053,4,0.44087860034778714,946.9642496998422,946.9642496998422,946.9642496998422,946.9642496998422,946.9642496998422,946.9642496998422,946.9642496998422,946.9642496998422,None,None,None,,,,,,,,,,929.6134372996166,929.6134372996166,None,,,,929.6134372996166,929.6134372996166,942.8566447999328,12,001,2024-09-05_15h25.02.208,robot_cogshifting_sign,2022.2.5,59.88421987397575,
"['L_Base_Z_For', 'L_Arm_Z_Back', 'R_Arm_Z_Back', 'L_Arm_Y_Back']","{'laterality': 'R_Arm_Z_Back', 'localisation': 'L_Base_Z_For', 'movement': 'L_Arm_Y_Back'}",localisation,['localisation'],L_Base_Z_For,0,1,robot,2,False,False,"['robot_stimuli\\L_Base_Z_For.mp4', 'robot_stimuli\\L_Arm_Z_Back.mp4', 'robot_stimuli\\R_Arm_Z_Back.mp4', 'robot_stimuli\\L_Arm_Y_Back.mp4']",robot_stimuli\L_Base_Z_For.mp4,12,,,,,,,,,,,,,0,30,30,30,,,,,,,,,,,,,,,,,,,946.9642496998422,949.068412499968,,,963.8809075998142,963.8809075998142,963.8809075998142,1,1.7687397003173828,965.6677786996588,965.6677786996588,965.6677786996588,965.6677786996588,965.6677786996588,965.6677786996588,965.6677786996588,965.6677786996588,None,None,None,,,,,,,,,,946.9642496998422,946.9642496998422,None,,,,946.9642496998422,946.9642496998422,960.2404056000523,12,001,2024-09-05_15h25.02.208,robot_cogshifting_sign,2022.2.5,59.88421987397575,
"['L_Arm_X_For', 'R_Arm_Z_For', 'R_Head_X_For', 'R_Arm_X_Back']","{'laterality': 'L_Arm_X_For', 'localisation': 'R_Head_X_For', 'movement': 'R_Arm_Z_For'}",movement,['movement'],R_Arm_Z_For,1,1,robot,2,False,False,"['robot_stimuli\\L_Arm_X_For.mp4', 'robot_stimuli\\R_Arm_Z_For.mp4', 'robot_stimuli\\R_Head_X_For.mp4', 'robot_stimuli\\R_Arm_X_Back.mp4']",robot_stimuli\R_Arm_Z_For.mp4,12,,,,,,,,,,,,,0,31,31,31,,,,,,,,,,,,,,,,,,,965.6677786996588,967.7552294000052,,,982.567702499684,982.567702499684,982.567702499684,2,2.057503300253302,984.6551468996331,984.6551468996331,984.6551468996331,984.6551468996331,984.6551468996331,984.6551468996331,984.6551468996331,984.6551468996331,None,None,None,,,,,,,,,,965.6677786996588,965.6677786996588,None,,,,965.6677786996588,965.6677786996588,978.9271808997728,12,001,2024-09-05_15h25.02.208,robot_cogshifting_sign,2022.2.5,59.88421987397575,
"['L_Arm_Y_Back', 'R_Arm_Z_For', 'L_Arm_Z_For', 'L_Base_Z_For']","{'laterality': 'R_Arm_Z_For', 'localisation': 'L_Base_Z_For', 'movement': 'L_Arm_Y_Back'}",movement,['movement'],L_Arm_Y_Back,0,1,robot,2,False,False,"['robot_stimuli\\L_Arm_Y_Back.mp4', 'robot_stimuli\\R_Arm_Z_For.mp4', 'robot_stimuli\\L_Arm_Z_For.mp4', 'robot_stimuli\\L_Base_Z_For.mp4']",robot_stimuli\L_Arm_Y_Back.mp4,12,,,,,,,,,,,,,0,32,32,32,,,,,,,,,,,,,,,,,,,984.6551468996331,986.7427002997138,,,1001.5550752999261,1001.5550752999261,1001.5550752999261,1,0.4618726004846394,1002.0393540998921,1002.0393540998921,1002.0393540998921,1002.0393540998921,1002.0393540998921,1002.0393540998921,1002.0393540998921,1002.0393540998921,None,None,None,,,,,,,,,,984.6551468996331,984.6551468996331,None,,,,984.6551468996331,984.6551468996331,997.8978615999222,12,001,2024-09-05_15h25.02.208,robot_cogshifting_sign,2022.2.5,59.88421987397575,
"['R_Base_Z_Back', 'L_Base_Y_For', 'L_Arm_Z_For', 'L_Base_Z_For']","{'laterality': 'R_Base_Z_Back', 'localisation': 'L_Arm_Z_For', 'movement': 'L_Base_Y_For'}",laterality,['laterality'],R_Base_Z_Back,0,1,robot,2,False,False,"['robot_stimuli\\R_Base_Z_Back.mp4', 'robot_stimuli\\L_Base_Y_For.mp4', 'robot_stimuli\\L_Arm_Z_For.mp4', 'robot_stimuli\\L_Base_Z_For.mp4']",robot_stimuli\R_Base_Z_Back.mp4,12,,,,,,,,,,,,,0,33,33,33,,,,,,,,,,,,,,,,,,,1002.0393540998921,1004.1435205996968,,,1018.7722698999569,1018.7722698999569,1018.7722698999569,1,0.925110200420022,1019.7241373998113,1019.7241373998113,1019.7241373998113,1019.7241373998113,1019.7241373998113,1019.7241373998113,1019.7241373998113,1019.7241373998113,None,None,None,,,,,,,,,,1002.0393540998921,1002.0393540998921,None,,,,1002.0393540998921,1002.0393540998921,1015.1151125999168,12,001,2024-09-05_15h25.02.208,robot_cogshifting_sign,2022.2.5,59.88421987397575,
"['L_Base_Z_Back', 'R_Base_Z_Back', 'L_Arm_Z_Back', 'L_Base_Y_Back']","{'laterality': 'R_Base_Z_Back', 'localisation': 'L_Arm_Z_Back', 'movement': 'L_Base_Y_Back'}",localisation,['localisation'],L_Arm_Z_Back,2,1,robot,2,False,False,"['robot_stimuli\\L_Base_Z_Back.mp4', 'robot_stimuli\\R_Base_Z_Back.mp4', 'robot_stimuli\\L_Arm_Z_Back.mp4', 'robot_stimuli\\L_Base_Y_Back.mp4']",robot_stimuli\L_Arm_Z_Back.mp4,12,,,,,,,,,,,,,0,34,34,34,,,,,,,,,,,,,,,,,,,1019.7241373998113,1021.8116123997606,,,1036.5238977000117,1036.5238977000117,1036.5238977000117,3,0.2768029007129371,1036.8244930999354,1036.8244930999354,1036.8244930999354,1036.8244930999354,1036.8244930999354,1036.8244930999354,1036.8244930999354,1036.8244930999354,None,None,None,,,,,,,,,,1019.7241373998113,1019.7241373998113,None,,,,1019.7241373998113,1019.7241373998113,1032.9501970000565,12,001,2024-09-05_15h25.02.208,robot_cogshifting_sign,2022.2.5,59.88421987397575,
"['L_Torso_Z_Back', 'L_Head_Z_For', 'R_Torso_Z_For', 'L_Torso_X_For']","{'laterality': 'R_Torso_Z_For', 'localisation': 'L_Head_Z_For', 'movement': 'L_Torso_X_For'}",localisation,['localisation'],L_Head_Z_For,1,1,robot,2,False,True,"['robot_stimuli\\L_Torso_Z_Back.mp4', 'robot_stimuli\\L_Head_Z_For.mp4', 'robot_stimuli\\R_Torso_Z_For.mp4', 'robot_stimuli\\L_Torso_X_For.mp4']",robot_stimuli\L_Head_Z_For.mp4,12,,,,,,,,,,,,,0,35,35,35,,,,,,,,,,,,,,,,,,,1036.8244930999354,1038.9119382998906,,,1053.5908057000488,1053.5908057000488,1053.5908057000488,2,0.7624787003733218,1054.4090795000084,1058.550573299639,1054.4090795000084,1058.550573299639,1054.4090795000084,1058.550573299639,1054.4090795000084,1058.550573299639,14.682539682539685,3.8841528999619186,space,,,4.088481300510466,,,,,,,1036.8244930999354,1036.8244930999354,None,,,,1036.8244930999354,1036.8244930999354,1049.9670229996555,12,001,2024-09-05_15h25.02.208,robot_cogshifting_sign,2022.2.5,59.88421987397575,
"['R_Head_Z_For', 'L_Head_X_For', 'R_Arm_X_For', 'R_Head_X_Back']","{'laterality': 'L_Head_X_For', 'localisation': 'R_Arm_X_For', 'movement': 'R_Head_Z_For'}",laterality,"['laterality', 'localisation', 'movement']",L_Head_X_For,1,3,robot,2,True,False,"['robot_stimuli\\R_Head_Z_For.mp4', 'robot_stimuli\\L_Head_X_For.mp4', 'robot_stimuli\\R_Arm_X_For.mp4', 'robot_stimuli\\R_Head_X_Back.mp4']",robot_stimuli\L_Head_X_For.mp4,12,,,,,,,,,,,,,0,36,36,36,,,,,,,,,,,,,,,,,,,1074.8827488999814,,,,1091.6991685000248,1091.6991685000248,1091.6991685000248,2,7.485734600573778,1099.2139340997674,1099.2139340997674,1099.2139340997674,1099.2139340997674,1099.2139340997674,1099.2139340997674,1099.2139340997674,1099.2139340997674,None,None,None,,,,,,,,,,1058.550573299639,1058.550573299639,space,16.30606870027259,,,,,1088.058733199723,12,001,2024-09-05_15h25.02.208,robot_cogshifting_sign,2022.2.5,59.88421987397575,
"['R_Arm_X_For', 'L_Arm_Z_Back', 'L_Arm_X_Back', 'L_Base_X_For']","{'laterality': 'R_Arm_X_For', 'localisation': 'L_Base_X_For', 'movement': 'L_Arm_Z_Back'}",movement,"['laterality', 'localisation', 'movement']",L_Arm_Z_Back,1,3,robot,2,False,False,"['robot_stimuli\\R_Arm_X_For.mp4', 'robot_stimuli\\L_Arm_Z_Back.mp4', 'robot_stimuli\\L_Arm_X_Back.mp4', 'robot_stimuli\\L_Base_X_For.mp4']",robot_stimuli\L_Arm_Z_Back.mp4,12,,,,,,,,,,,,,0,37,37,37,,,,,,,,,,,,,,,,,,,1099.2139340997674,1101.3014162997715,,,1116.0470937998034,1116.0470937998034,1116.0470937998034,2,7.569832300301641,1123.6453928998671,1123.6453928998671,1123.6453928998671,1123.6453928998671,1123.6453928998671,1123.6453928998671,1123.6453928998671,1123.6453928998671,None,None,None,,,,,,,,,,1099.2139340997674,1099.2139340997674,None,,,,1099.2139340997674,1099.2139340997674,1112.4734251997434,12,001,2024-09-05_15h25.02.208,robot_cogshifting_sign,2022.2.5,59.88421987397575,
"['R_Torso_Y_Back', 'L_Arm_Y_Back', 'L_Torso_Y_For', 'L_Torso_X_For']","{'laterality': 'R_Torso_Y_Back', 'localisation': 'L_Arm_Y_Back', 'movement': 'L_Torso_X_For'}",localisation,"['laterality', 'localisation', 'movement']",L_Arm_Y_Back,1,3,robot,2,False,False,"['robot_stimuli\\R_Torso_Y_Back.mp4', 'robot_stimuli\\L_Arm_Y_Back.mp4', 'robot_stimuli\\L_Torso_Y_For.mp4', 'robot_stimuli\\L_Torso_X_For.mp4']",robot_stimuli\L_Arm_Y_Back.mp4,12,,,,,,,,,,,,,0,38,38,38,,,,,,,,,,,,,,,,,,,1123.6453928998671,1125.7328415997326,,,1140.5619765999727,1140.5619765999727,1140.5619765999727,2,8.134689700324088,1148.7281243996695,1148.7281243996695,1148.7281243996695,1148.7281243996695,1148.7281243996695,1148.7281243996695,1148.7281243996695,1148.7281243996695,None,None,None,,,,,,,,,,1123.6453928998671,1123.6453928998671,None,,,,1123.6453928998671,1123.6453928998671,1136.921575000044,12,001,2024-09-05_15h25.02.208,robot_cogshifting_sign,2022.2.5,59.88421987397575,
"['L_Arm_X_Back', 'L_Arm_Z_For', 'R_Arm_X_For', 'L_Base_X_For']","{'laterality': 'R_Arm_X_For', 'localisation': 'L_Base_X_For', 'movement': 'L_Arm_Z_For'}",movement,"['laterality', 'localisation', 'movement']",L_Arm_Z_For,1,3,robot,2,False,False,"['robot_stimuli\\L_Arm_X_Back.mp4', 'robot_stimuli\\L_Arm_Z_For.mp4', 'robot_stimuli\\R_Arm_X_For.mp4', 'robot_stimuli\\L_Base_X_For.mp4']",robot_stimuli\L_Arm_Z_For.mp4,12,,,,,,,,,,,,,0,39,39,39,,,,,,,,,,,,,,,,,,,1148.7281243996695,1150.8155550998636,,,1165.5278389998712,1165.5278389998712,1165.5278389998712,2,10.825452500022948,1176.382515899837,1176.382515899837,1176.382515899837,1176.382515899837,1176.382515899837,1176.382515899837,1176.382515899837,1176.382515899837,None,None,None,,,,,,,,,,1148.7281243996695,1148.7281243996695,None,,,,1148.7281243996695,1148.7281243996695,1161.954150899779,12,001,2024-09-05_15h25.02.208,robot_cogshifting_sign,2022.2.5,59.88421987397575,
"['R_Torso_Y_Back', 'R_Torso_Z_Back', 'R_Base_Z_Back', 'L_Torso_Z_For']","{'laterality': 'L_Torso_Z_For', 'localisation': 'R_Base_Z_Back', 'movement': 'R_Torso_Y_Back'}",laterality,"['laterality', 'localisation', 'movement']",L_Torso_Z_For,3,3,robot,2,False,False,"['robot_stimuli\\R_Torso_Y_Back.mp4', 'robot_stimuli\\R_Torso_Z_Back.mp4', 'robot_stimuli\\R_Base_Z_Back.mp4', 'robot_stimuli\\L_Torso_Z_For.mp4']",robot_stimuli\L_Torso_Z_For.mp4,12,,,,,,,,,,,,,0,40,40,40,,,,,,,,,,,,,,,,,,,1176.382515899837,1178.4699903996661,,,1193.1655550999567,1193.1655550999567,1193.1655550999567,4,1.6357702002860606,1194.8188382000662,1194.8188382000662,1194.8188382000662,1194.8188382000662,1194.8188382000662,1194.8188382000662,1194.8188382000662,1194.8188382000662,None,None,None,,,,,,,,,,1176.382515899837,1176.382515899837,None,,,,1176.382515899837,1176.382515899837,1189.525090399664,12,001,2024-09-05_15h25.02.208,robot_cogshifting_sign,2022.2.5,59.88421987397575,
"['L_Head_Z_For', 'R_Head_Z_Back', 'R_Head_X_Back', 'R_Arm_Z_Back']","{'laterality': 'L_Head_Z_For', 'localisation': 'R_Arm_Z_Back', 'movement': 'R_Head_X_Back'}",laterality,"['laterality', 'localisation', 'movement']",L_Head_Z_For,0,3,robot,2,False,False,"['robot_stimuli\\L_Head_Z_For.mp4', 'robot_stimuli\\R_Head_Z_Back.mp4', 'robot_stimuli\\R_Head_X_Back.mp4', 'robot_stimuli\\R_Arm_Z_Back.mp4']",robot_stimuli\L_Head_Z_For.mp4,12,,,,,,,,,,,,,0,41,41,41,,,,,,,,,,,,,,,,,,,1194.8188382000662,1196.9062745999545,,,1211.7020644997247,1211.7020644997247,1211.7020644997247,1,3.939490200486034,1215.6598427998833,1215.6598427998833,1215.6598427998833,1215.6598427998833,1215.6598427998833,1215.6598427998833,1215.6598427998833,1215.6598427998833,None,None,None,,,,,,,,,,1194.8188382000662,1194.8188382000662,None,,,,1194.8188382000662,1194.8188382000662,1208.0615834998898,12,001,2024-09-05_15h25.02.208,robot_cogshifting_sign,2022.2.5,59.88421987397575,
"['R_Arm_Z_For', 'L_Base_Z_Back', 'R_Base_Z_For', 'R_Base_Y_For']","{'laterality': 'L_Base_Z_Back', 'localisation': 'R_Arm_Z_For', 'movement': 'R_Base_Y_For'}",localisation,"['laterality', 'localisation', 'movement']",R_Arm_Z_For,0,3,robot,2,False,False,"['robot_stimuli\\R_Arm_Z_For.mp4', 'robot_stimuli\\L_Base_Z_Back.mp4', 'robot_stimuli\\R_Base_Z_For.mp4', 'robot_stimuli\\R_Base_Y_For.mp4']",robot_stimuli\R_Arm_Z_For.mp4,12,,,,,,,,,,,,,0,42,42,42,,,,,,,,,,,,,,,,,,,1215.6598427998833,1217.7472970997915,,,1232.5430641998537,1232.5430641998537,1232.5430641998537,1,3.6742277005687356,1236.250419799704,1236.250419799704,1236.250419799704,1236.250419799704,1236.250419799704,1236.250419799704,1236.250419799704,1236.250419799704,None,None,None,,,,,,,,,,1215.6598427998833,1215.6598427998833,None,,,,1215.6598427998833,1215.6598427998833,1228.9026093999855,12,001,2024-09-05_15h25.02.208,robot_cogshifting_sign,2022.2.5,59.88421987397575,
"['L_Base_Z_For', 'L_Torso_X_For', 'R_Base_X_Back', 'L_Base_X_For']","{'laterality': 'R_Base_X_Back', 'localisation': 'L_Torso_X_For', 'movement': 'L_Base_Z_For'}",movement,"['laterality', 'localisation', 'movement']",L_Base_Z_For,0,3,robot,2,False,False,"['robot_stimuli\\L_Base_Z_For.mp4', 'robot_stimuli\\L_Torso_X_For.mp4', 'robot_stimuli\\R_Base_X_Back.mp4', 'robot_stimuli\\L_Base_X_For.mp4']",robot_stimuli\L_Base_Z_For.mp4,12,,,,,,,,,,,,,0,43,43,43,,,,,,,,,,,,,,,,,,,1236.250419799704,1238.3378658997826,,,1253.066793799866,1253.066793799866,1253.066793799866,1,4.470749200321734,1257.5589772998355,1257.5589772998355,1257.5589772998355,1257.5589772998355,1257.5589772998355,1257.5589772998355,1257.5589772998355,1257.5589772998355,None,None,None,,,,,,,,,,1236.250419799704,1236.250419799704,None,,,,1236.250419799704,1236.250419799704,1249.4931405996904,12,001,2024-09-05_15h25.02.208,robot_cogshifting_sign,2022.2.5,59.88421987397575,
"['L_Head_Z_Back', 'L_Head_X_For', 'R_Head_X_For', 'L_Base_X_For']","{'laterality': 'R_Head_X_For', 'localisation': 'L_Base_X_For', 'movement': 'L_Head_Z_Back'}",localisation,"['laterality', 'localisation', 'movement']",L_Base_X_For,3,3,robot,2,False,True,"['robot_stimuli\\L_Head_Z_Back.mp4', 'robot_stimuli\\L_Head_X_For.mp4', 'robot_stimuli\\R_Head_X_For.mp4', 'robot_stimuli\\L_Base_X_For.mp4']",robot_stimuli\L_Base_X_For.mp4,12,,,,,,,,,,,,,0,44,44,44,,,,,,,,,,,,,,,,,,,1257.5589772998355,1259.6464803996496,,,1274.3252971996553,1274.3252971996553,1274.3252971996553,4,1.5882185003720224,1275.9786282996647,1281.2556381998584,1275.9786282996647,1281.2556381998584,1275.9786282996647,1281.2556381998584,1275.9786282996647,1281.2556381998584,38.33333333333333,4.351707699708641,space,,,5.205817800015211,,,,,,,1257.5589772998355,1257.5589772998355,None,,,,1257.5589772998355,1257.5589772998355,1270.7349469000474,12,001,2024-09-05_15h25.02.208,robot_cogshifting_sign,2022.2.5,59.88421987397575,
"['L_Arm_Z_For', 'R_Arm_Z_Back', 'L_Head_Z_Back', 'L_Arm_Y_Back']","{'laterality': 'R_Arm_Z_Back', 'localisation': 'L_Head_Z_Back', 'movement': 'L_Arm_Y_Back'}",movement,"['laterality', 'movement']",L_Arm_Y_Back,3,2,robot,2,True,False,"['robot_stimuli\\L_Arm_Z_For.mp4', 'robot_stimuli\\R_Arm_Z_Back.mp4', 'robot_stimuli\\L_Head_Z_Back.mp4', 'robot_stimuli\\L_Arm_Y_Back.mp4']",robot_stimuli\L_Arm_Y_Back.mp4,12,,,,,,,,,,,,,0,45,45,45,,,,,,,,,,,,,,,,,,,1282.4412682000548,,,,1299.3412257996388,1299.3412257996388,1299.3412257996388,4,1.9712149002589285,1301.3451896999031,1301.3451896999031,1301.3451896999031,1301.3451896999031,1301.3451896999031,1301.3451896999031,1301.3451896999031,1301.3451896999031,None,None,None,,,,,,,,,,1281.2556381998584,1281.2556381998584,space,1.1535355006344616,,,,,1295.7007240997627,12,001,2024-09-05_15h25.02.208,robot_cogshifting_sign,2022.2.5,59.88421987397575,
"['L_Base_Z_For', 'R_Base_Y_Back', 'L_Arm_Y_Back', 'L_Base_Y_Back']","{'laterality': 'R_Base_Y_Back', 'localisation': 'L_Arm_Y_Back', 'movement': 'L_Base_Z_For'}",localisation,"['laterality', 'localisation']",L_Arm_Y_Back,2,2,robot,2,False,False,"['robot_stimuli\\L_Base_Z_For.mp4', 'robot_stimuli\\R_Base_Y_Back.mp4', 'robot_stimuli\\L_Arm_Y_Back.mp4', 'robot_stimuli\\L_Base_Y_Back.mp4']",robot_stimuli\L_Arm_Y_Back.mp4,12,,,,,,,,,,,,,0,46,46,46,,,,,,,,,,,,,,,,,,,1301.3451896999031,1303.432649999857,,,1318.1783320000395,1318.1783320000395,1318.1783320000395,3,1.4468430005945265,1319.6478777998127,1319.6478777998127,1319.6478777998127,1319.6478777998127,1319.6478777998127,1319.6478777998127,1319.6478777998127,1319.6478777998127,None,None,None,,,,,,,,,,1301.3451896999031,1301.3451896999031,None,,,,1301.3451896999031,1301.3451896999031,1314.6046400996856,12,001,2024-09-05_15h25.02.208,robot_cogshifting_sign,2022.2.5,59.88421987397575,
"['R_Head_Y_Back', 'R_Torso_Z_For', 'L_Torso_Y_For', 'R_Torso_Y_Back']","{'laterality': 'L_Torso_Y_For', 'localisation': 'R_Head_Y_Back', 'movement': 'R_Torso_Z_For'}",localisation,"['localisation', 'movement']",R_Head_Y_Back,0,2,robot,2,False,False,"['robot_stimuli\\R_Head_Y_Back.mp4', 'robot_stimuli\\R_Torso_Z_For.mp4', 'robot_stimuli\\L_Torso_Y_For.mp4', 'robot_stimuli\\R_Torso_Y_Back.mp4']",robot_stimuli\R_Head_Y_Back.mp4,12,,,,,,,,,,,,,0,47,47,47,,,,,,,,,,,,,,,,,,,1319.6478777998127,1321.7353270999156,,,1336.5310718999244,1336.5310718999244,1336.5310718999244,1,1.1419659000821412,1337.700129199773,1337.700129199773,1337.700129199773,1337.700129199773,1337.700129199773,1337.700129199773,1337.700129199773,1337.700129199773,None,None,None,,,,,,,,,,1319.6478777998127,1319.6478777998127,None,,,,1319.6478777998127,1319.6478777998127,1332.89061579993,12,001,2024-09-05_15h25.02.208,robot_cogshifting_sign,2022.2.5,59.88421987397575,
"['L_Base_Z_Back', 'R_Base_Z_Back', 'L_Head_Z_For', 'L_Base_X_For']","{'laterality': 'R_Base_Z_Back', 'localisation': 'L_Head_Z_For', 'movement': 'L_Base_X_For'}",laterality,"['laterality', 'localisation']",R_Base_Z_Back,1,2,robot,2,False,False,"['robot_stimuli\\L_Base_Z_Back.mp4', 'robot_stimuli\\R_Base_Z_Back.mp4', 'robot_stimuli\\L_Head_Z_For.mp4', 'robot_stimuli\\L_Base_X_For.mp4']",robot_stimuli\R_Base_Z_Back.mp4,12,,,,,,,,,,,,,0,48,48,48,,,,,,,,,,,,,,,,,,,1337.700129199773,1339.7875657998957,,,1354.4330176999792,1354.4330176999792,1354.4330176999792,2,0.6717387000098825,1355.1344209997915,1355.1344209997915,1355.1344209997915,1355.1344209997915,1355.1344209997915,1355.1344209997915,1355.1344209997915,1355.1344209997915,None,None,None,,,,,,,,,,1337.700129199773,1337.700129199773,None,,,,1337.700129199773,1337.700129199773,1350.859319599811,12,001,2024-09-05_15h25.02.208,robot_cogshifting_sign,2022.2.5,59.88421987397575,
"['L_Head_Z_Back', 'L_Head_Y_For', 'R_Head_Y_For', 'L_Base_Y_Back']","{'laterality': 'R_Head_Y_For', 'localisation': 'L_Base_Y_Back', 'movement': 'L_Head_Z_Back'}",laterality,"['laterality', 'localisation']",R_Head_Y_For,2,2,robot,2,False,False,"['robot_stimuli\\L_Head_Z_Back.mp4', 'robot_stimuli\\L_Head_Y_For.mp4', 'robot_stimuli\\R_Head_Y_For.mp4', 'robot_stimuli\\L_Base_Y_Back.mp4']",robot_stimuli\R_Head_Y_For.mp4,12,,,,,,,,,,,,,0,49,49,49,,,,,,,,,,,,,,,,,,,1355.1344209997915,1357.221857199911,,,1371.9675628999248,1371.9675628999248,1371.9675628999248,3,1.4250206002034247,1373.420380699914,1373.420380699914,1373.420380699914,1373.420380699914,1373.420380699914,1373.420380699914,1373.420380699914,1373.420380699914,None,None,None,,,,,,,,,,1355.1344209997915,1355.1344209997915,None,,,,1355.1344209997915,1355.1344209997915,1368.394438299816,12,001,2024-09-05_15h25.02.208,robot_cogshifting_sign,2022.2.5,59.88421987397575,
"['R_Base_Z_For', 'L_Base_Z_For', 'L_Head_Z_Back', 'L_Base_Y_For']","{'laterality': 'R_Base_Z_For', 'localisation': 'L_Head_Z_Back', 'movement': 'L_Base_Y_For'}",laterality,"['laterality', 'movement']",R_Base_Z_For,0,2,robot,2,False,False,"['robot_stimuli\\R_Base_Z_For.mp4', 'robot_stimuli\\L_Base_Z_For.mp4', 'robot_stimuli\\L_Head_Z_Back.mp4', 'robot_stimuli\\L_Base_Y_For.mp4']",robot_stimuli\R_Base_Z_For.mp4,12,,,,,,,,,,,,,0,50,50,50,,,,,,,,,,,,,,,,,,,1373.420380699914,1375.5078685996123,,,1390.236877199728,1390.236877199728,1390.236877199728,1,1.1806906005367637,1391.4392050998285,1391.4392050998285,1391.4392050998285,1391.4392050998285,1391.4392050998285,1391.4392050998285,1391.4392050998285,1391.4392050998285,None,None,None,,,,,,,,,,1373.420380699914,1373.420380699914,None,,,,1373.420380699914,1373.420380699914,1386.6965373996645,12,001,2024-09-05_15h25.02.208,robot_cogshifting_sign,2022.2.5,59.88421987397575,
"['L_Torso_Z_For', 'L_Torso_X_Back', 'R_Torso_X_Back', 'L_Head_X_Back']","{'laterality': 'R_Torso_X_Back', 'localisation': 'L_Head_X_Back', 'movement': 'L_Torso_Z_For'}",localisation,"['laterality', 'localisation']",L_Head_X_Back,3,2,robot,2,False,False,"['robot_stimuli\\L_Torso_Z_For.mp4', 'robot_stimuli\\L_Torso_X_Back.mp4', 'robot_stimuli\\R_Torso_X_Back.mp4', 'robot_stimuli\\L_Head_X_Back.mp4']",robot_stimuli\L_Head_X_Back.mp4,12,,,,,,,,,,,,,0,51,51,51,,,,,,,,,,,,,,,,,,,1391.4392050998285,1393.543337999843,,,1408.3390969997272,1408.3390969997272,1408.3390969997272,4,2.222215700428933,1410.5935610998422,1410.5935610998422,1410.5935610998422,1410.5935610998422,1410.5935610998422,1410.5935610998422,1410.5935610998422,1410.5935610998422,None,None,None,,,,,,,,,,1391.4392050998285,1391.4392050998285,None,,,,1391.4392050998285,1391.4392050998285,1404.6986324996687,12,001,2024-09-05_15h25.02.208,robot_cogshifting_sign,2022.2.5,59.88421987397575,
"['R_Arm_X_Back', 'L_Arm_X_For', 'L_Head_X_Back', 'L_Arm_Y_Back']","{'laterality': 'R_Arm_X_Back', 'localisation': 'L_Head_X_Back', 'movement': 'L_Arm_Y_Back'}",movement,"['localisation', 'movement']",L_Arm_Y_Back,3,2,robot,2,False,False,"['robot_stimuli\\R_Arm_X_Back.mp4', 'robot_stimuli\\L_Arm_X_For.mp4', 'robot_stimuli\\L_Head_X_Back.mp4', 'robot_stimuli\\L_Arm_Y_Back.mp4']",robot_stimuli\L_Arm_Y_Back.mp4,12,,,,,,,,,,,,,0,52,52,52,,,,,,,,,,,,,,,,,,,1410.5935610998422,1412.6810155999847,,,1427.51019489998,1427.51019489998,1427.51019489998,4,0.42693170020356774,1427.9610727997497,1427.9610727997497,1427.9610727997497,1427.9610727997497,1427.9610727997497,1427.9610727997497,1427.9610727997497,1427.9610727997497,None,None,None,,,,,,,,,,1410.5935610998422,1410.5935610998422,None,,,,1410.5935610998422,1410.5935610998422,1423.8697220999748,12,001,2024-09-05_15h25.02.208,robot_cogshifting_sign,2022.2.5,59.88421987397575,
"['R_Torso_X_Back', 'L_Torso_Z_For', 'R_Torso_Z_Back', 'R_Base_Z_For']","{'laterality': 'L_Torso_Z_For', 'localisation': 'R_Base_Z_For', 'movement': 'R_Torso_X_Back'}",movement,"['laterality', 'movement']",R_Torso_X_Back,0,2,robot,2,False,True,"['robot_stimuli\\R_Torso_X_Back.mp4', 'robot_stimuli\\L_Torso_Z_For.mp4', 'robot_stimuli\\R_Torso_Z_Back.mp4', 'robot_stimuli\\R_Base_Z_For.mp4']",robot_stimuli\R_Torso_X_Back.mp4,12,,,,,,,,,,,,,0,53,53,53,,,,,,,,,,,,,,,,,,,1427.9610727997497,1430.0485577997752,,,1444.861035299953,1444.861035299953,1444.861035299953,1,2.659778400324285,1447.5830365996808,1457.085071099922,1447.5830365996808,1457.085071099922,1447.5830365996808,1457.085071099922,1447.5830365996808,1457.085071099922,29.6031746031746,3.0991888004355133,space,,,9.42639010027051,,,,,,,1427.9610727997497,1427.9610727997497,None,,,,1427.9610727997497,1427.9610727997497,1441.2038353998214,12,001,2024-09-05_15h25.02.208,robot_cogshifting_sign,2022.2.5,59.88421987397575,
"['blue_left_W_45', 'blue_left_K_0', 'red_left_T_0', 'blue_top_L_0']","{'color': 'red_left_T_0', 'position': 'blue_top_L_0', 'orientation': 'blue_left_W_45'}",orientation,"['orientation', 'position']",blue_left_W_45,0,2,letter,3,True,False,"['robot_stimuli\\\\filler.mp4', 'robot_stimuli\\\\filler.mp4', 'robot_stimuli\\\\filler.mp4', 'robot_stimuli\\\\filler.mp4']",robot_stimuli\\filler.mp4,12,,,,,,,,,,,,,0,54,54,54,,,,,,,,,,,,,,,,,,,1467.6392462998629,,,,1478.3769915997982,1478.3769915997982,1478.3769915997982,1,0.8154893005266786,1479.2119498997927,1479.2119498997927,1479.2119498997927,1479.2119498997927,1479.2119498997927,1479.2119498997927,1479.2119498997927,1479.2119498997927,None,None,None,,,,,,,,,,1457.085071099922,1457.085071099922,space,10.524007700383663,1476.3566314000636,1478.3769915997982,,,,12,001,2024-09-05_15h25.02.208,robot_cogshifting_sign,2022.2.5,59.88421987397575,
"['blue_bottom_K_0', 'red_top_Q_0', 'red_bottom_H_0', 'red_bottom_Z_45']","{'color': 'blue_bottom_K_0', 'position': 'red_top_Q_0', 'orientation': 'red_bottom_Z_45'}",position,"['color', 'position']",red_top_Q_0,1,2,letter,3,False,False,"['robot_stimuli\\\\filler.mp4', 'robot_stimuli\\\\filler.mp4', 'robot_stimuli\\\\filler.mp4', 'robot_stimuli\\\\filler.mp4']",robot_stimuli\\filler.mp4,12,,,,,,,,,,,,,0,55,55,55,,,,,,,,,,,,,,,,,,,1479.2119498997927,1481.2827731999569,,,1490.1334712998942,1490.1334712998942,1490.1334712998942,2,1.6591391004621983,1491.8201232999563,1491.8201232999563,1491.8201232999563,1491.8201232999563,1491.8201232999563,1491.8201232999563,1491.8201232999563,1491.8201232999563,None,None,None,,,,,,,,,,1479.2119498997927,1479.2119498997927,None,,1487.929192399606,1490.1334712998942,1479.2119498997927,1479.2119498997927,,12,001,2024-09-05_15h25.02.208,robot_cogshifting_sign,2022.2.5,59.88421987397575,
"['red_top_F_0', 'red_bottom_P_0', 'blue_bottom_P_0', 'red_bottom_J_45']","{'color': 'blue_bottom_P_0', 'position': 'red_top_F_0', 'orientation': 'red_bottom_J_45'}",orientation,"['color', 'orientation']",red_bottom_J_45,3,2,letter,3,False,False,"['robot_stimuli\\\\filler.mp4', 'robot_stimuli\\\\filler.mp4', 'robot_stimuli\\\\filler.mp4', 'robot_stimuli\\\\filler.mp4']",robot_stimuli\\filler.mp4,12,,,,,,,,,,,,,0,56,56,56,,,,,,,,,,,,,,,,,,,1491.8201232999563,1493.8909024000168,,,1502.3575328998268,1502.3575328998268,1502.3575328998268,4,1.8673341004177928,1504.2445922000334,1504.2445922000334,1504.2445922000334,1504.2445922000334,1504.2445922000334,1504.2445922000334,1504.2445922000334,1504.2445922000334,None,None,None,,,,,,,,,,1491.8201232999563,1491.8201232999563,None,,1500.336873400025,1502.3575328998268,1491.8201232999563,1491.8201232999563,,12,001,2024-09-05_15h25.02.208,robot_cogshifting_sign,2022.2.5,59.88421987397575,
"['blue_left_G_0', 'blue_bottom_Q_45', 'blue_bottom_F_0', 'red_bottom_T_0']","{'color': 'red_bottom_T_0', 'position': 'blue_left_G_0', 'orientation': 'blue_bottom_Q_45'}",position,"['color', 'position']",blue_left_G_0,0,2,letter,3,False,False,"['robot_stimuli\\\\filler.mp4', 'robot_stimuli\\\\filler.mp4', 'robot_stimuli\\\\filler.mp4', 'robot_stimuli\\\\filler.mp4']",robot_stimuli\\filler.mp4,12,,,,,,,,,,,,,0,57,57,57,,,,,,,,,,,,,,,,,,,1504.2445922000334,1506.2998078996316,,,1514.7819836996496,1514.7819836996496,1514.7819836996496,1,1.6192581006325781,1516.4185449997894,1516.4185449997894,1516.4185449997894,1516.4185449997894,1516.4185449997894,1516.4185449997894,1516.4185449997894,1516.4185449997894,None,None,None,,,,,,,,,,1504.2445922000334,1504.2445922000334,None,,1512.5609967997298,1514.7819836996496,1504.2445922000334,1504.2445922000334,,12,001,2024-09-05_15h25.02.208,robot_cogshifting_sign,2022.2.5,59.88421987397575,
"['blue_right_K_45', 'red_left_T_45', 'red_right_M_0', 'red_right_G_45']","{'color': 'blue_right_K_45', 'position': 'red_left_T_45', 'orientation': 'red_right_M_0'}",position,"['orientation', 'position']",red_left_T_45,1,2,letter,3,False,False,"['robot_stimuli\\\\filler.mp4', 'robot_stimuli\\\\filler.mp4', 'robot_stimuli\\\\filler.mp4', 'robot_stimuli\\\\filler.mp4']",robot_stimuli\\filler.mp4,12,,,,,,,,,,,,,0,58,58,58,,,,,,,,,,,,,,,,,,,1516.4185449997894,1518.4892802997492,,,1527.340020199772,1527.340020199772,1527.340020199772,2,0.5570434001274407,1527.9245269997045,1527.9245269997045,1527.9245269997045,1527.9245269997045,1527.9245269997045,1527.9245269997045,1527.9245269997045,1527.9245269997045,None,None,None,,,,,,,,,,1516.4185449997894,1516.4185449997894,None,,1525.135758499615,1527.340020199772,1516.4185449997894,1516.4185449997894,,12,001,2024-09-05_15h25.02.208,robot_cogshifting_sign,2022.2.5,59.88421987397575,
"['red_right_F_45', 'blue_right_M_45', 'blue_right_D_0', 'blue_bottom_S_45']","{'color': 'red_right_F_45', 'position': 'blue_bottom_S_45', 'orientation': 'blue_right_D_0'}",orientation,"['orientation', 'position']",blue_right_D_0,2,2,letter,3,False,False,"['robot_stimuli\\\\filler.mp4', 'robot_stimuli\\\\filler.mp4', 'robot_stimuli\\\\filler.mp4', 'robot_stimuli\\\\filler.mp4']",robot_stimuli\\filler.mp4,12,,,,,,,,,,,,,0,59,59,59,,,,,,,,,,,,,,,,,,,1527.9245269997045,1529.9953608997166,,,1539.0631690998562,1539.0631690998562,1539.0631690998562,3,0.8027424002066255,1539.8981035999022,1539.8981035999022,1539.8981035999022,1539.8981035999022,1539.8981035999022,1539.8981035999022,1539.8981035999022,1539.8981035999022,None,None,None,,,,,,,,,,1527.9245269997045,1527.9245269997045,None,,1536.8588111000136,1539.0631690998562,1527.9245269997045,1527.9245269997045,,12,001,2024-09-05_15h25.02.208,robot_cogshifting_sign,2022.2.5,59.88421987397575,
"['blue_bottom_P_45', 'blue_left_H_0', 'blue_bottom_Q_0', 'red_bottom_L_0']","{'color': 'red_bottom_L_0', 'position': 'blue_left_H_0', 'orientation': 'blue_bottom_P_45'}",color,"['color', 'position']",red_bottom_L_0,3,2,letter,3,False,False,"['robot_stimuli\\\\filler.mp4', 'robot_stimuli\\\\filler.mp4', 'robot_stimuli\\\\filler.mp4', 'robot_stimuli\\\\filler.mp4']",robot_stimuli\\filler.mp4,12,,,,,,,,,,,,,0,60,60,60,,,,,,,,,,,,,,,,,,,1539.8981035999022,1541.9688965999521,,,1550.635892899707,1550.635892899707,1550.635892899707,4,2.4462644001469016,1553.107422299683,1553.107422299683,1553.107422299683,1553.107422299683,1553.107422299683,1553.107422299683,1553.107422299683,1553.107422299683,None,None,None,,,,,,,,,,1539.8981035999022,1539.8981035999022,None,,1548.4149479996413,1550.635892899707,1539.8981035999022,1539.8981035999022,,12,001,2024-09-05_15h25.02.208,robot_cogshifting_sign,2022.2.5,59.88421987397575,
"['blue_bottom_K_45', 'red_left_C_45', 'red_bottom_G_0', 'red_bottom_F_45']","{'color': 'blue_bottom_K_45', 'position': 'red_left_C_45', 'orientation': 'red_bottom_G_0'}",color,"['color', 'orientation']",blue_bottom_K_45,0,2,letter,3,False,False,"['robot_stimuli\\\\filler.mp4', 'robot_stimuli\\\\filler.mp4', 'robot_stimuli\\\\filler.mp4', 'robot_stimuli\\\\filler.mp4']",robot_stimuli\\filler.mp4,12,,,,,,,,,,,,,0,61,61,61,,,,,,,,,,,,,,,,,,,1553.107422299683,1555.1781938998029,,,1563.828553199768,1563.828553199768,1563.828553199768,1,0.7482192004099488,1564.5966910999268,1564.5966910999268,1564.5966910999268,1564.5966910999268,1564.5966910999268,1564.5966910999268,1564.5966910999268,1564.5966910999268,None,None,None,,,,,,,,,,1553.107422299683,1553.107422299683,None,,1561.624260199722,1563.828553199768,1553.107422299683,1553.107422299683,,12,001,2024-09-05_15h25.02.208,robot_cogshifting_sign,2022.2.5,59.88421987397575,
"['blue_top_B_0', 'blue_right_S_0', 'red_top_D_0', 'blue_top_N_45']","{'color': 'red_top_D_0', 'position': 'blue_right_S_0', 'orientation': 'blue_top_N_45'}",color,"['color', 'orientation']",red_top_D_0,2,2,letter,3,False,True,"['robot_stimuli\\\\filler.mp4', 'robot_stimuli\\\\filler.mp4', 'robot_stimuli\\\\filler.mp4', 'robot_stimuli\\\\filler.mp4']",robot_stimuli\\filler.mp4,12,,,,,,,,,,,,,0,62,62,62,,,,,,,,,,,,,,,,,,,1564.5966910999268,1566.6674816999584,,,1575.5349156996235,1575.5349156996235,1575.5349156996235,3,0.9302420006133616,1576.520215400029,1581.7638087999076,1576.520215400029,1581.7638087999076,1576.520215400029,1581.7638087999076,1576.520215400029,1581.7638087999076,29.6031746031746,3.616882999893278,space,,,5.184925000648946,,,,,,,1564.5966910999268,1564.5966910999268,None,,1573.3139895000495,1575.5349156996235,1564.5966910999268,1564.5966910999268,,12,001,2024-09-05_15h25.02.208,robot_cogshifting_sign,2022.2.5,59.88421987397575,
"['red_left_V_45', 'blue_left_G_0', 'blue_left_X_45', 'blue_right_V_45']","{'color': 'red_left_V_45', 'position': 'blue_right_V_45', 'orientation': 'blue_left_G_0'}",orientation,"['color', 'orientation', 'position']",blue_left_G_0,1,3,letter,3,True,False,"['robot_stimuli\\\\filler.mp4', 'robot_stimuli\\\\filler.mp4', 'robot_stimuli\\\\filler.mp4', 'robot_stimuli\\\\filler.mp4']",robot_stimuli\\filler.mp4,12,,,,,,,,,,,,,0,63,63,63,,,,,,,,,,,,,,,,,,,1589.3454171000049,,,,1599.6991472998634,1599.6991472998634,1599.6991472998634,2,3.229410400148481,1602.9555597999133,1602.9555597999133,1602.9555597999133,1602.9555597999133,1602.9555597999133,1602.9555597999133,1602.9555597999133,1602.9555597999133,None,None,None,,,,,,,,,,1581.7638087999076,1581.7638087999076,space,7.55699359998107,1597.6786933997646,1599.6991472998634,,,,12,001,2024-09-05_15h25.02.208,robot_cogshifting_sign,2022.2.5,59.88421987397575,
"['blue_top_K_45', 'red_top_S_0', 'blue_top_J_0', 'blue_right_G_0']","{'color': 'red_top_S_0', 'position': 'blue_right_G_0', 'orientation': 'blue_top_K_45'}",orientation,"['color', 'orientation', 'position']",blue_top_K_45,0,3,letter,3,False,False,"['robot_stimuli\\\\filler.mp4', 'robot_stimuli\\\\filler.mp4', 'robot_stimuli\\\\filler.mp4', 'robot_stimuli\\\\filler.mp4']",robot_stimuli\\filler.mp4,12,,,,,,,,,,,,,0,64,64,64,,,,,,,,,,,,,,,,,,,1602.9555597999133,1605.0263311997987,,,1613.6933510997333,1613.6933510997333,1613.6933510997333,1,1.9244542005471885,1615.647204699926,1615.647204699926,1615.647204699926,1615.647204699926,1615.647204699926,1615.647204699926,1615.647204699926,1615.647204699926,None,None,None,,,,,,,,,,1602.9555597999133,1602.9555597999133,None,,1611.6727940998971,1613.6933510997333,1602.9555597999133,1602.9555597999133,,12,001,2024-09-05_15h25.02.208,robot_cogshifting_sign,2022.2.5,59.88421987397575,
"['blue_left_B_0', 'blue_left_K_45', 'red_left_L_0', 'blue_right_R_0']","{'color': 'red_left_L_0', 'position': 'blue_right_R_0', 'orientation': 'blue_left_K_45'}",color,"['color', 'orientation', 'position']",red_left_L_0,2,3,letter,3,False,False,"['robot_stimuli\\\\filler.mp4', 'robot_stimuli\\\\filler.mp4', 'robot_stimuli\\\\filler.mp4', 'robot_stimuli\\\\filler.mp4']",robot_stimuli\\filler.mp4,12,,,,,,,,,,,,,0,65,65,65,,,,,,,,,,,,,,,,,,,1615.647204699926,1617.7179747000337,,,1626.4016962000169,1626.4016962000169,1626.4016962000169,3,3.439064100384712,1629.858482599724,1629.858482599724,1629.858482599724,1629.858482599724,1629.858482599724,1629.858482599724,1629.858482599724,1629.858482599724,None,None,None,,,,,,,,,,1615.647204699926,1615.647204699926,None,,1624.364461499732,1626.4016962000169,1615.647204699926,1615.647204699926,,12,001,2024-09-05_15h25.02.208,robot_cogshifting_sign,2022.2.5,59.88421987397575,
"['blue_bottom_Z_0', 'red_right_T_0', 'blue_right_S_0', 'blue_right_Z_45']","{'color': 'red_right_T_0', 'position': 'blue_bottom_Z_0', 'orientation': 'blue_right_Z_45'}",position,"['color', 'orientation', 'position']",blue_bottom_Z_0,0,3,letter,3,False,False,"['robot_stimuli\\\\filler.mp4', 'robot_stimuli\\\\filler.mp4', 'robot_stimuli\\\\filler.mp4', 'robot_stimuli\\\\filler.mp4']",robot_stimuli\\filler.mp4,12,,,,,,,,,,,,,0,66,66,66,,,,,,,,,,,,,,,,,,,1629.858482599724,1631.9293819000013,,,1640.4125981000252,1640.4125981000252,1640.4125981000252,1,1.549411500338465,1641.9823666997254,1641.9823666997254,1641.9823666997254,1641.9823666997254,1641.9823666997254,1641.9823666997254,1641.9823666997254,1641.9823666997254,None,None,None,,,,,,,,,,1629.858482599724,1629.858482599724,None,,1638.375338200014,1640.4125981000252,1629.858482599724,1629.858482599724,,12,001,2024-09-05_15h25.02.208,robot_cogshifting_sign,2022.2.5,59.88421987397575,
"['red_bottom_Z_45', 'blue_bottom_J_45', 'blue_bottom_X_0', 'blue_top_P_45']","{'color': 'red_bottom_Z_45', 'position': 'blue_top_P_45', 'orientation': 'blue_bottom_X_0'}",orientation,"['color', 'orientation', 'position']",blue_bottom_X_0,2,3,letter,3,False,False,"['robot_stimuli\\\\filler.mp4', 'robot_stimuli\\\\filler.mp4', 'robot_stimuli\\\\filler.mp4', 'robot_stimuli\\\\filler.mp4']",robot_stimuli\\filler.mp4,12,,,,,,,,,,,,,0,67,67,67,,,,,,,,,,,,,,,,,,,1641.9823666997254,1644.0531090996228,,,1652.937278999947,1652.937278999947,1652.937278999947,3,9.751521200407296,1662.7064716997556,1662.7064716997556,1662.7064716997556,1662.7064716997556,1662.7064716997556,1662.7064716997556,1662.7064716997556,1662.7064716997556,None,None,None,,,,,,,,,,1641.9823666997254,1641.9823666997254,None,,1650.7162943999283,1652.937278999947,1641.9823666997254,1641.9823666997254,,12,001,2024-09-05_15h25.02.208,robot_cogshifting_sign,2022.2.5,59.88421987397575,
"['red_left_H_0', 'blue_left_K_0', 'blue_right_H_0', 'blue_left_C_45']","{'color': 'red_left_H_0', 'position': 'blue_right_H_0', 'orientation': 'blue_left_C_45'}",color,"['color', 'orientation', 'position']",red_left_H_0,0,3,letter,3,False,False,"['robot_stimuli\\\\filler.mp4', 'robot_stimuli\\\\filler.mp4', 'robot_stimuli\\\\filler.mp4', 'robot_stimuli\\\\filler.mp4']",robot_stimuli\\filler.mp4,12,,,,,,,,,,,,,0,68,68,68,,,,,,,,,,,,,,,,,,,1662.7064716997556,1664.760523200035,,,1673.6446877997369,1673.6446877997369,1673.6446877997369,1,1.2763871001079679,1674.947245999705,1674.947245999705,1674.947245999705,1674.947245999705,1674.947245999705,1674.947245999705,1674.947245999705,1674.947245999705,None,None,None,,,,,,,,,,1662.7064716997556,1662.7064716997556,None,,1671.4236911996268,1673.6446877997369,1662.7064716997556,1662.7064716997556,,12,001,2024-09-05_15h25.02.208,robot_cogshifting_sign,2022.2.5,59.88421987397575,
"['blue_bottom_D_45', 'blue_top_W_45', 'blue_bottom_P_0', 'red_bottom_H_45']","{'color': 'red_bottom_H_45', 'position': 'blue_top_W_45', 'orientation': 'blue_bottom_P_0'}",position,"['color', 'orientation', 'position']",blue_top_W_45,1,3,letter,3,False,False,"['robot_stimuli\\\\filler.mp4', 'robot_stimuli\\\\filler.mp4', 'robot_stimuli\\\\filler.mp4', 'robot_stimuli\\\\filler.mp4']",robot_stimuli\\filler.mp4,12,,,,,,,,,,,,,0,69,69,69,,,,,,,,,,,,,,,,,,,1674.947245999705,1677.0180380996317,,,1685.6850487999618,1685.6850487999618,1685.6850487999618,2,1.6679477002471685,1687.371671800036,1687.371671800036,1687.371671800036,1687.371671800036,1687.371671800036,1687.371671800036,1687.371671800036,1687.371671800036,None,None,None,,,,,,,,,,1674.947245999705,1674.947245999705,None,,1683.464120300021,1685.6850487999618,1674.947245999705,1674.947245999705,,12,001,2024-09-05_15h25.02.208,robot_cogshifting_sign,2022.2.5,59.88421987397575,
"['blue_bottom_N_0', 'blue_left_P_45', 'red_left_D_0', 'blue_left_M_0']","{'color': 'red_left_D_0', 'position': 'blue_bottom_N_0', 'orientation': 'blue_left_P_45'}",position,"['color', 'orientation', 'position']",blue_bottom_N_0,0,3,letter,3,False,False,"['robot_stimuli\\\\filler.mp4', 'robot_stimuli\\\\filler.mp4', 'robot_stimuli\\\\filler.mp4', 'robot_stimuli\\\\filler.mp4']",robot_stimuli\\filler.mp4,12,,,,,,,,,,,,,0,70,70,70,,,,,,,,,,,,,,,,,,,1687.371671800036,1689.4424596000463,,,1698.3098827996291,1698.3098827996291,1698.3098827996291,1,2.786491000559181,1701.11541269999,1701.11541269999,1701.11541269999,1701.11541269999,1701.11541269999,1701.11541269999,1701.11541269999,1701.11541269999,None,None,None,,,,,,,,,,1687.371671800036,1687.371671800036,None,,1696.1056792996824,1698.3098827996291,1687.371671800036,1687.371671800036,,12,001,2024-09-05_15h25.02.208,robot_cogshifting_sign,2022.2.5,59.88421987397575,
"['red_right_W_45', 'blue_bottom_H_45', 'red_bottom_J_45', 'red_bottom_B_0']","{'color': 'blue_bottom_H_45', 'position': 'red_right_W_45', 'orientation': 'red_bottom_B_0'}",color,"['color', 'orientation', 'position']",blue_bottom_H_45,1,3,letter,3,False,True,"['robot_stimuli\\\\filler.mp4', 'robot_stimuli\\\\filler.mp4', 'robot_stimuli\\\\filler.mp4', 'robot_stimuli\\\\filler.mp4']",robot_stimuli\\filler.mp4,12,,,,,,,,,,,,,0,71,71,71,,,,,,,,,,,,,,,,,,,1701.11541269999,1703.1861971998587,,,1711.8699268996716,1711.8699268996716,1711.8699268996716,2,1.1549367005936801,1713.0890143997967,1717.213814099785,1713.0890143997967,1717.213814099785,1713.0890143997967,1717.213814099785,1713.0890143997967,1717.213814099785,47.22222222222222,2.934458600357175,space,,,4.05591280059889,,,,,,,1701.11541269999,1701.11541269999,None,,1709.8327624998055,1711.8699268996716,1701.11541269999,1701.11541269999,,12,001,2024-09-05_15h25.02.208,robot_cogshifting_sign,2022.2.5,59.88421987397575,
"['blue_bottom_R_0', 'red_bottom_Z_0', 'blue_right_R_0', 'blue_bottom_K_45']","{'color': 'red_bottom_Z_0', 'position': 'blue_right_R_0', 'orientation': 'blue_bottom_K_45'}",orientation,['orientation'],blue_bottom_K_45,3,1,letter,3,True,False,"['robot_stimuli\\\\filler.mp4', 'robot_stimuli\\\\filler.mp4', 'robot_stimuli\\\\filler.mp4', 'robot_stimuli\\\\filler.mp4']",robot_stimuli\\filler.mp4,12,,,,,,,,,,,,,0,72,72,72,,,,,,,,,,,,,,,,,,,1718.1322474000044,,,,1729.0704353996553,1729.0704353996553,1729.0704353996553,4,0.2829217007383704,1729.3710439996794,1729.3710439996794,1729.3710439996794,1729.3710439996794,1729.3710439996794,1729.3710439996794,1729.3710439996794,1729.3710439996794,None,None,None,,,,,,,,,,1717.213814099785,1717.213814099785,space,0.8984968005679548,1727.0504871997982,1729.0704353996553,,,,12,001,2024-09-05_15h25.02.208,robot_cogshifting_sign,2022.2.5,59.88421987397575,
"['red_right_P_0', 'blue_right_D_45', 'blue_right_C_0', 'blue_left_C_0']","{'color': 'red_right_P_0', 'position': 'blue_left_C_0', 'orientation': 'blue_right_D_45'}",color,['color'],red_right_P_0,0,1,letter,3,False,False,"['robot_stimuli\\\\filler.mp4', 'robot_stimuli\\\\filler.mp4', 'robot_stimuli\\\\filler.mp4', 'robot_stimuli\\\\filler.mp4']",robot_stimuli\\filler.mp4,12,,,,,,,,,,,,,0,73,73,73,,,,,,,,,,,,,,,,,,,1729.3710439996794,1731.441832699813,,,1740.1255492996424,1740.1255492996424,1740.1255492996424,1,0.48344580037519336,1740.6265314999036,1740.6265314999036,1740.6265314999036,1740.6265314999036,1740.6265314999036,1740.6265314999036,1740.6265314999036,1740.6265314999036,None,None,None,,,,,,,,,,1729.3710439996794,1729.3710439996794,None,,1738.0883013997227,1740.1255492996424,1729.3710439996794,1729.3710439996794,,12,001,2024-09-05_15h25.02.208,robot_cogshifting_sign,2022.2.5,59.88421987397575,
"['red_right_Q_45', 'blue_top_L_45', 'blue_right_X_45', 'blue_right_X_0']","{'color': 'red_right_Q_45', 'position': 'blue_top_L_45', 'orientation': 'blue_right_X_0'}",color,['color'],red_right_Q_45,0,1,letter,3,False,False,"['robot_stimuli\\\\filler.mp4', 'robot_stimuli\\\\filler.mp4', 'robot_stimuli\\\\filler.mp4', 'robot_stimuli\\\\filler.mp4']",robot_stimuli\\filler.mp4,12,,,,,,,,,,,,,0,74,74,74,,,,,,,,,,,,,,,,,,,1740.6265314999036,1742.6973462998867,,,1751.3810377996415,1751.3810377996415,1751.3810377996415,1,0.7071245000697672,1752.1158028999344,1752.1158028999344,1752.1158028999344,1752.1158028999344,1752.1158028999344,1752.1158028999344,1752.1158028999344,1752.1158028999344,None,None,None,,,,,,,,,,1740.6265314999036,1740.6265314999036,None,,1749.1600780999288,1751.3810377996415,1740.6265314999036,1740.6265314999036,,12,001,2024-09-05_15h25.02.208,robot_cogshifting_sign,2022.2.5,59.88421987397575,
"['red_left_Z_0', 'red_top_T_45', 'blue_left_D_45', 'red_left_K_45']","{'color': 'blue_left_D_45', 'position': 'red_top_T_45', 'orientation': 'red_left_Z_0'}",orientation,['orientation'],red_left_Z_0,0,1,letter,3,False,False,"['robot_stimuli\\\\filler.mp4', 'robot_stimuli\\\\filler.mp4', 'robot_stimuli\\\\filler.mp4', 'robot_stimuli\\\\filler.mp4']",robot_stimuli\\filler.mp4,12,,,,,,,,,,,,,0,75,75,75,,,,,,,,,,,,,,,,,,,1752.1158028999344,1754.1865719999187,,,1762.8703031996265,1762.8703031996265,1762.8703031996265,1,1.2910446003079414,1764.1895615998656,1764.1895615998656,1764.1895615998656,1764.1895615998656,1764.1895615998656,1764.1895615998656,1764.1895615998656,1764.1895615998656,None,None,None,,,,,,,,,,1752.1158028999344,1752.1158028999344,None,,1760.849732699804,1762.8703031996265,1752.1158028999344,1752.1158028999344,,12,001,2024-09-05_15h25.02.208,robot_cogshifting_sign,2022.2.5,59.88421987397575,
"['red_bottom_S_45', 'blue_left_X_45', 'blue_bottom_M_45', 'blue_bottom_H_0']","{'color': 'red_bottom_S_45', 'position': 'blue_left_X_45', 'orientation': 'blue_bottom_H_0'}",orientation,['orientation'],blue_bottom_H_0,3,1,letter,3,False,False,"['robot_stimuli\\\\filler.mp4', 'robot_stimuli\\\\filler.mp4', 'robot_stimuli\\\\filler.mp4', 'robot_stimuli\\\\filler.mp4']",robot_stimuli\\filler.mp4,12,,,,,,,,,,,,,0,76,76,76,,,,,,,,,,,,,,,,,,,1764.1895615998656,1766.26036429964,,,1774.9106886000372,1774.9106886000372,1774.9106886000372,4,0.49043860053643584,1775.4283567997627,1775.4283567997627,1775.4283567997627,1775.4283567997627,1775.4283567997627,1775.4283567997627,1775.4283567997627,1775.4283567997627,None,None,None,,,,,,,,,,1764.1895615998656,1764.1895615998656,None,,1772.7064056000672,1774.9106886000372,1764.1895615998656,1764.1895615998656,,12,001,2024-09-05_15h25.02.208,robot_cogshifting_sign,2022.2.5,59.88421987397575,
"['blue_bottom_X_45', 'blue_left_D_45', 'blue_bottom_R_0', 'red_bottom_R_45']","{'color': 'red_bottom_R_45', 'position': 'blue_left_D_45', 'orientation': 'blue_bottom_R_0'}",position,['position'],blue_left_D_45,1,1,letter,3,False,False,"['robot_stimuli\\\\filler.mp4', 'robot_stimuli\\\\filler.mp4', 'robot_stimuli\\\\filler.mp4', 'robot_stimuli\\\\filler.mp4']",robot_stimuli\\filler.mp4,12,,,,,,,,,,,,,0,77,77,77,,,,,,,,,,,,,,,,,,,1775.4283567997627,1777.499162899796,,,1786.1661878996529,1786.1661878996529,1786.1661878996529,2,0.4820402003824711,1786.6671614996158,1786.6671614996158,1786.6671614996158,1786.6671614996158,1786.6671614996158,1786.6671614996158,1786.6671614996158,1786.6671614996158,None,None,None,,,,,,,,,,1775.4283567997627,1775.4283567997627,None,,1784.1456197998486,1786.1661878996529,1775.4283567997627,1775.4283567997627,,12,001,2024-09-05_15h25.02.208,robot_cogshifting_sign,2022.2.5,59.88421987397575,
"['blue_top_R_0', 'blue_top_V_45', 'red_top_F_45', 'blue_left_W_45']","{'color': 'red_top_F_45', 'position': 'blue_left_W_45', 'orientation': 'blue_top_R_0'}",position,['position'],blue_left_W_45,3,1,letter,3,False,False,"['robot_stimuli\\\\filler.mp4', 'robot_stimuli\\\\filler.mp4', 'robot_stimuli\\\\filler.mp4', 'robot_stimuli\\\\filler.mp4']",robot_stimuli\\filler.mp4,12,,,,,,,,,,,,,0,78,78,78,,,,,,,,,,,,,,,,,,,1786.6671614996158,1788.7380360998213,,,1797.6053702998906,1797.6053702998906,1797.6053702998906,4,0.18711090041324496,1797.8225175999105,1797.8225175999105,1797.8225175999105,1797.8225175999105,1797.8225175999105,1797.8225175999105,1797.8225175999105,1797.8225175999105,None,None,None,,,,,,,,,,1786.6671614996158,1786.6671614996158,None,,1795.5852154996246,1797.6053702998906,1786.6671614996158,1786.6671614996158,,12,001,2024-09-05_15h25.02.208,robot_cogshifting_sign,2022.2.5,59.88421987397575,
"['blue_bottom_C_45', 'red_bottom_F_0', 'blue_right_H_0', 'blue_bottom_T_0']","{'color': 'red_bottom_F_0', 'position': 'blue_right_H_0', 'orientation': 'blue_bottom_C_45'}",color,['color'],red_bottom_F_0,1,1,letter,3,False,False,"['robot_stimuli\\\\filler.mp4', 'robot_stimuli\\\\filler.mp4', 'robot_stimuli\\\\filler.mp4', 'robot_stimuli\\\\filler.mp4']",robot_stimuli\\filler.mp4,12,,,,,,,,,,,,,0,79,79,79,,,,,,,,,,,,,,,,,,,1797.8225175999105,1799.8932747999206,,,1808.961048899684,1808.961048899684,1808.961048899684,2,0.23167490027844906,1809.211519499775,1809.211519499775,1809.211519499775,1809.211519499775,1809.211519499775,1809.211519499775,1809.211519499775,1809.211519499775,None,None,None,,,,,,,,,,1797.8225175999105,1797.8225175999105,None,,1806.756793699693,1808.961048899684,1797.8225175999105,1797.8225175999105,,12,001,2024-09-05_15h25.02.208,robot_cogshifting_sign,2022.2.5,59.88421987397575,
"['red_bottom_L_45', 'red_left_N_45', 'blue_bottom_Z_45', 'red_bottom_F_0']","{'color': 'blue_bottom_Z_45', 'position': 'red_left_N_45', 'orientation': 'red_bottom_F_0'}",position,['position'],red_left_N_45,1,1,letter,3,False,True,"['robot_stimuli\\\\filler.mp4', 'robot_stimuli\\\\filler.mp4', 'robot_stimuli\\\\filler.mp4', 'robot_stimuli\\\\filler.mp4']",robot_stimuli\\filler.mp4,12,,,,,,,,,,,,,0,80,80,80,,,,,,,,,,,,,,,,,,,1809.211519499775,1811.282350699883,,,1820.3501515998505,1820.3501515998505,1820.3501515998505,2,0.3626224002800882,1820.7676122998819,1824.5918123996817,1820.7676122998819,1824.5918123996817,1820.7676122998819,1824.5918123996817,1820.7676122998819,1824.5918123996817,13.253968253968255,2.7320297001861036,space,,,3.7449265005998313,,,,,,,1809.211519499775,1809.211519499775,None,,1818.1291871997528,1820.3501515998505,1809.211519499775,1809.211519499775,,12,001,2024-09-05_15h25.02.208,robot_cogshifting_sign,2022.2.5,59.88421987397575,
"['L_Torso_X_For', 'R_Torso_X_For', 'R_Torso_Z_For', 'R_Base_X_For']","{'laterality': 'L_Torso_X_For', 'localisation': 'R_Base_X_For', 'movement': 'R_Torso_Z_For'}",localisation,"['laterality', 'localisation']",R_Base_X_For,3,2,robot,4,True,False,"['robot_stimuli\\L_Torso_X_For.mp4', 'robot_stimuli\\R_Torso_X_For.mp4', 'robot_stimuli\\R_Torso_Z_For.mp4', 'robot_stimuli\\R_Base_X_For.mp4']",robot_stimuli\R_Base_X_For.mp4,12,,,,,,,,,,,,,0,81,81,81,,,,,,,,,,,,,,,,,,,1831.1046217996627,,,,1847.904340900015,1847.904340900015,1847.904340900015,4,3.552339500747621,1851.478069699835,1851.478069699835,1851.478069699835,1851.478069699835,1851.478069699835,1851.478069699835,1851.478069699835,1851.478069699835,None,None,None,,,,,,,,,,1824.5918123996817,1824.5918123996817,space,6.488237500656396,,,,,1844.3640908999369,12,001,2024-09-05_15h25.02.208,robot_cogshifting_sign,2022.2.5,59.88421987397575,
"['R_Arm_Z_Back', 'L_Base_Z_Back', 'L_Arm_Z_For', 'L_Arm_Y_Back']","{'laterality': 'R_Arm_Z_Back', 'localisation': 'L_Base_Z_Back', 'movement': 'L_Arm_Y_Back'}",movement,"['localisation', 'movement']",L_Arm_Y_Back,3,2,robot,4,False,False,"['robot_stimuli\\R_Arm_Z_Back.mp4', 'robot_stimuli\\L_Base_Z_Back.mp4', 'robot_stimuli\\L_Arm_Z_For.mp4', 'robot_stimuli\\L_Arm_Y_Back.mp4']",robot_stimuli\L_Arm_Y_Back.mp4,12,,,,,,,,,,,,,0,82,82,82,,,,,,,,,,,,,,,,,,,1851.478069699835,1853.5656014997512,,,1868.3613048000261,1868.3613048000261,1868.3613048000261,4,3.3589584003202617,1871.7512943996117,1871.7512943996117,1871.7512943996117,1871.7512943996117,1871.7512943996117,1871.7512943996117,1871.7512943996117,1871.7512943996117,None,None,None,,,,,,,,,,1851.478069699835,1851.478069699835,None,,,,1851.478069699835,1851.478069699835,1864.7208356000483,12,001,2024-09-05_15h25.02.208,robot_cogshifting_sign,2022.2.5,59.88421987397575,
"['R_Torso_Y_For', 'R_Torso_X_Back', 'R_Arm_Y_For', 'L_Torso_Y_For']","{'laterality': 'L_Torso_Y_For', 'localisation': 'R_Arm_Y_For', 'movement': 'R_Torso_X_Back'}",movement,"['localisation', 'movement']",R_Torso_X_Back,1,2,robot,4,False,False,"['robot_stimuli\\R_Torso_Y_For.mp4', 'robot_stimuli\\R_Torso_X_Back.mp4', 'robot_stimuli\\R_Arm_Y_For.mp4', 'robot_stimuli\\L_Torso_Y_For.mp4']",robot_stimuli\R_Torso_X_Back.mp4,12,,,,,,,,,,,,,0,83,83,83,,,,,,,,,,,,,,,,,,,1871.7512943996117,1873.8387902998365,,,1888.5176206999458,1888.5176206999458,1888.5176206999458,2,0.4429931007325649,1888.9852175000124,1888.9852175000124,1888.9852175000124,1888.9852175000124,1888.9852175000124,1888.9852175000124,1888.9852175000124,1888.9852175000124,None,None,None,,,,,,,,,,1871.7512943996117,1871.7512943996117,None,,,,1871.7512943996117,1871.7512943996117,1884.8771836999804,12,001,2024-09-05_15h25.02.208,robot_cogshifting_sign,2022.2.5,59.88421987397575,
"['R_Base_Z_For', 'L_Base_Z_Back', 'R_Base_Y_For', 'R_Head_Z_Back']","{'laterality': 'L_Base_Z_Back', 'localisation': 'R_Head_Z_Back', 'movement': 'R_Base_Y_For'}",localisation,"['laterality', 'localisation']",R_Head_Z_Back,3,2,robot,4,False,False,"['robot_stimuli\\R_Base_Z_For.mp4', 'robot_stimuli\\L_Base_Z_Back.mp4', 'robot_stimuli\\R_Base_Y_For.mp4', 'robot_stimuli\\R_Head_Z_Back.mp4']",robot_stimuli\R_Head_Z_Back.mp4,12,,,,,,,,,,,,,0,84,84,84,,,,,,,,,,,,,,,,,,,1888.9852175000124,1891.0726902000606,,,1905.885158199817,1905.885158199817,1905.885158199817,4,0.49170370073989034,1906.4028713996522,1906.4028713996522,1906.4028713996522,1906.4028713996522,1906.4028713996522,1906.4028713996522,1906.4028713996522,1906.4028713996522,None,None,None,,,,,,,,,,1888.9852175000124,1888.9852175000124,None,,,,1888.9852175000124,1888.9852175000124,1902.244713400025,12,001,2024-09-05_15h25.02.208,robot_cogshifting_sign,2022.2.5,59.88421987397575,
"['R_Arm_X_Back', 'R_Arm_Y_For', 'R_Base_Y_For', 'L_Arm_Y_For']","{'laterality': 'L_Arm_Y_For', 'localisation': 'R_Base_Y_For', 'movement': 'R_Arm_X_Back'}",laterality,"['laterality', 'movement']",L_Arm_Y_For,3,2,robot,4,False,False,"['robot_stimuli\\R_Arm_X_Back.mp4', 'robot_stimuli\\R_Arm_Y_For.mp4', 'robot_stimuli\\R_Base_Y_For.mp4', 'robot_stimuli\\L_Arm_Y_For.mp4']",robot_stimuli\L_Arm_Y_For.mp4,12,,,,,,,,,,,,,0,85,85,85,,,,,,,,,,,,,,,,,,,1906.4028713996522,1908.4902944997884,,,1923.1859114998952,1923.1859114998952,1923.1859114998952,4,2.1181809003464878,1925.3234268999659,1925.3234268999659,1925.3234268999659,1925.3234268999659,1925.3234268999659,1925.3234268999659,1925.3234268999659,1925.3234268999659,None,None,None,,,,,,,,,,1906.4028713996522,1906.4028713996522,None,,,,1906.4028713996522,1906.4028713996522,1919.5454135998152,12,001,2024-09-05_15h25.02.208,robot_cogshifting_sign,2022.2.5,59.88421987397575,
