sequence,is_target,condition,stimuli,block,is_block_beginning,is_block_ending,fname,subject,retraining.thisRepN,retraining.thisTrialN,retraining.thisN,retraining.thisIndex,training.thisRepN,training.thisTrialN,training.thisN,training.thisIndex,trials.thisRepN,trials.thisTrialN,trials.thisN,trials.thisIndex,langage_text.started,langage_key.started,langage_key.keys,langage_key.rt,intro_text.started,intro_key.started,intro_key.keys,intro_key.rt,training_robot_intro_text.started,training_robot_intro_key.started,training_robot_intro_key.keys,training_robot_intro_key.rt,cross.started,cross.stopped,training_letter.started,training_robot_key.started,training_robot_question.started,training_robot_keys.started,training_letter.stopped,training_robot_key.keys,RSME_labels.started,RSME_labels.stopped,RSME_ticks.started,RSME_ticks.stopped,RSME_text.started,RSME_text.stopped,RSME_key.started,RSME_key.stopped,RSME_ticks.response,RSME_ticks.rt,RSME_key.keys,training_robot_intro_text.stopped,training_robot_intro_key.stopped,training_robot_key.rt,RSME_key.rt,training_robot_movie.started,experiment_beginning_text.started,experiment_beginning_keys.started,experiment_beginning_key.started,experiment_beginning_key.keys,experiment_beginning_key.rt,block_intro_text.started,block_intro_key.started,block_intro_key.keys,block_intro_key.rt,letter.started,key.started,letter.stopped,key.keys,block_intro_text.stopped,block_intro_key.stopped,key.rt,movie.started,participant,session,date,expName,psychopyVersion,frameRate,
,,,,,,,,,,,,,,,,,,,,,83.53999099999965,83.53999099999965,f,147.60906499999965,,,,,,,,,,,,,,,,,,,,,,,,,,,,,,,,,,,,,,,,,,,,,,,,,,6,001,2024-06-07_15h40.50.491,robot_nback_sign,2022.2.5,60.07857075489853,
,,,,,,,,,,,,,,,,,,,,,,,,,231.2159228999999,231.2159228999999,space,164.97318929999983,,,,,,,,,,,,,,,,,,,,,,,,,,,,,,,,,,,,,,,,,,,,,,6,001,2024-06-07_15h40.50.491,robot_nback_sign,2022.2.5,60.07857075489853,
K,False,1,letter,1,True,False,robot_stimuli\\filler.mp4,6,0,0,0,0,0,0,0,0,,,,,,,,,,,,,396.22267719999945,396.22267719999945,space,10.558261899999707,406.80804530000023,408.1718458999994,408.1718458999994,408.1718458999994,408.1718458999994,408.1718458999994,410.4857512999997,None,410.4857512999997,410.4857512999997,410.4857512999997,410.4857512999997,410.4857512999997,410.4857512999997,410.4857512999997,410.4857512999997,None,None,None,,,,,,,,,,,,,,,,,,,,,,,6,001,2024-06-07_15h40.50.491,robot_nback_sign,2022.2.5,60.07857075489853,
K,True,1,letter,1,False,False,robot_stimuli\\filler.mp4,6,0,0,0,0,0,1,1,1,,,,,,,,,,,,,410.4857512999997,410.4857512999997,None,,410.4857512999997,,411.5543756999996,411.5543756999996,411.5543756999996,411.5543756999996,413.59044509999967,n,413.59044509999967,413.59044509999967,413.59044509999967,413.59044509999967,413.59044509999967,413.59044509999967,413.59044509999967,413.59044509999967,None,None,None,410.4857512999997,410.4857512999997,0.8675629999997909,,,,,,,,,,,,,,,,,,,,6,001,2024-06-07_15h40.50.491,robot_nback_sign,2022.2.5,60.07857075489853,
G,False,1,letter,1,False,False,robot_stimuli\\filler.mp4,6,0,0,0,0,0,2,2,2,,,,,,,,,,,,,413.59044509999967,413.59044509999967,None,,413.59044509999967,414.65924949999953,414.65924949999953,414.65924949999953,414.65924949999953,414.65924949999953,416.6901055999997,n,416.6901055999997,416.6901055999997,416.6901055999997,416.6901055999997,416.6901055999997,416.6901055999997,416.6901055999997,416.6901055999997,None,None,None,413.59044509999967,413.59044509999967,0.7937495999995008,,,,,,,,,,,,,,,,,,,,6,001,2024-06-07_15h40.50.491,robot_nback_sign,2022.2.5,60.07857075489853,
P,False,1,letter,1,False,False,robot_stimuli\\filler.mp4,6,0,0,0,0,0,3,3,3,,,,,,,,,,,,,416.6901055999997,416.6901055999997,None,,416.6901055999997,417.7579219999998,417.7579219999998,417.7579219999998,417.7579219999998,417.7579219999998,419.7926559999996,n,419.7926559999996,419.7926559999996,419.7926559999996,419.7926559999996,419.7926559999996,419.7926559999996,419.7926559999996,419.7926559999996,None,None,None,416.6901055999997,416.6901055999997,1.5922441000002436,,,,,,,,,,,,,,,,,,,,6,001,2024-06-07_15h40.50.491,robot_nback_sign,2022.2.5,60.07857075489853,
W,False,1,letter,1,False,False,robot_stimuli\\filler.mp4,6,0,0,0,0,0,4,4,4,,,,,,,,,,,,,419.7926559999996,419.7926559999996,None,,419.7926559999996,,420.87385449999965,420.87385449999965,420.87385449999965,420.87385449999965,422.90968259999954,n,422.90968259999954,422.90968259999954,422.90968259999954,422.90968259999954,422.90968259999954,422.90968259999954,422.90968259999954,422.90968259999954,None,None,None,419.7926559999996,419.7926559999996,1.3305868999996164,,,,,,,,,,,,,,,,,,,,6,001,2024-06-07_15h40.50.491,robot_nback_sign,2022.2.5,60.07857075489853,
W,True,1,letter,1,False,True,robot_stimuli\\filler.mp4,6,0,0,0,0,0,5,5,5,,,,,,,,,,,,,422.90968259999954,422.90968259999954,None,,422.90968259999954,,423.9872266000002,423.9872266000002,423.9872266000002,423.9872266000002,426.0795664999996,c,426.0795664999996,457.8911257999998,426.0795664999996,457.8911257999998,426.0795664999996,457.8911257999998,426.0795664999996,457.8911257999998,0.0,29.773555899999337,space,422.90968259999954,422.90968259999954,0.9619447000004584,31.7578168,,,,,,,,,,,,,,,,,,,6,001,2024-06-07_15h40.50.491,robot_nback_sign,2022.2.5,60.07857075489853,
L,False,2,letter,1,True,False,robot_stimuli\\filler.mp4,6,0,0,0,0,0,6,6,6,,,,,,,,,,,,,457.8911257999998,457.8911257999998,space,8.570047700000032,466.49159080000027,467.5621893999996,467.5621893999996,467.5621893999996,467.5621893999996,467.5621893999996,469.79219339999963,n,469.79219339999963,469.79219339999963,469.79219339999963,469.79219339999963,469.79219339999963,469.79219339999963,469.79219339999963,469.79219339999963,None,None,None,,,1.8509235999999873,,,,,,,,,,,,,,,,,,,,6,001,2024-06-07_15h40.50.491,robot_nback_sign,2022.2.5,60.07857075489853,
D,False,2,letter,1,False,False,robot_stimuli\\filler.mp4,6,0,0,0,0,0,7,7,7,,,,,,,,,,,,,469.79219339999963,469.79219339999963,None,,469.79219339999963,,470.87712999999985,470.87712999999985,470.87712999999985,470.87712999999985,473.1040014,n,473.1040014,473.1040014,473.1040014,473.1040014,473.1040014,473.1040014,473.1040014,473.1040014,None,None,None,469.79219339999963,469.79219339999963,1.1764418999991904,,,,,,,,,,,,,,,,,,,,6,001,2024-06-07_15h40.50.491,robot_nback_sign,2022.2.5,60.07857075489853,
J,False,2,letter,1,False,False,robot_stimuli\\filler.mp4,6,0,0,0,0,0,8,8,8,,,,,,,,,,,,,473.1040014,473.1040014,None,,473.1040014,474.17655000000013,474.17655000000013,474.17655000000013,474.17655000000013,474.17655000000013,476.4049608999994,n,476.4049608999994,476.4049608999994,476.4049608999994,476.4049608999994,476.4049608999994,476.4049608999994,476.4049608999994,476.4049608999994,None,None,None,473.1040014,473.1040014,1.4454644999996162,,,,,,,,,,,,,,,,,,,,6,001,2024-06-07_15h40.50.491,robot_nback_sign,2022.2.5,60.07857075489853,
S,False,2,letter,1,False,False,robot_stimuli\\filler.mp4,6,0,0,0,0,0,9,9,9,,,,,,,,,,,,,476.4049608999994,476.4049608999994,None,,476.4049608999994,477.4781231999996,477.4781231999996,477.4781231999996,477.4781231999996,477.4781231999996,479.70893950000027,n,479.70893950000027,479.70893950000027,479.70893950000027,479.70893950000027,479.70893950000027,479.70893950000027,479.70893950000027,479.70893950000027,None,None,None,476.4049608999994,476.4049608999994,0.8309789000004457,,,,,,,,,,,,,,,,,,,,6,001,2024-06-07_15h40.50.491,robot_nback_sign,2022.2.5,60.07857075489853,
J,True,2,letter,1,False,False,robot_stimuli\\filler.mp4,6,0,0,0,0,0,10,10,10,,,,,,,,,,,,,479.70893950000027,479.70893950000027,None,,479.70893950000027,480.7728678000003,480.7728678000003,480.7728678000003,480.7728678000003,480.7728678000003,482.80315280000013,c,482.80315280000013,482.80315280000013,482.80315280000013,482.80315280000013,482.80315280000013,482.80315280000013,482.80315280000013,482.80315280000013,None,None,None,479.70893950000027,479.70893950000027,1.5532173000001421,,,,,,,,,,,,,,,,,,,,6,001,2024-06-07_15h40.50.491,robot_nback_sign,2022.2.5,60.07857075489853,
S,True,2,letter,1,False,True,robot_stimuli\\filler.mp4,6,0,0,0,0,0,11,11,11,,,,,,,,,,,,,482.80315280000013,482.80315280000013,None,,482.80315280000013,483.8731293000001,483.8731293000001,483.8731293000001,483.8731293000001,483.8731293000001,485.94163599999956,c,485.94163599999956,501.9548585000002,485.94163599999956,501.9548585000002,485.94163599999956,501.9548585000002,485.94163599999956,501.9548585000002,29.845679012345677,12.189464500000213,space,482.80315280000013,482.80315280000013,1.4682841000003464,15.966889600000286,,,,,,,,,,,,,,,,,,,6,001,2024-06-07_15h40.50.491,robot_nback_sign,2022.2.5,60.07857075489853,
M,False,3,letter,1,True,False,robot_stimuli\\filler.mp4,6,0,0,0,0,0,12,12,12,,,,,,,,,,,,,501.9548585000002,501.9548585000002,space,5.802161999999953,507.77479799999946,508.8460193000001,508.8460193000001,508.8460193000001,508.8460193000001,508.8460193000001,511.0750670999996,None,511.0750670999996,511.0750670999996,511.0750670999996,511.0750670999996,511.0750670999996,511.0750670999996,511.0750670999996,511.0750670999996,None,None,None,,,,,,,,,,,,,,,,,,,,,,,6,001,2024-06-07_15h40.50.491,robot_nback_sign,2022.2.5,60.07857075489853,
J,False,3,letter,1,False,False,robot_stimuli\\filler.mp4,6,0,0,0,0,0,13,13,13,,,,,,,,,,,,,511.0750670999996,511.0750670999996,None,,511.0750670999996,512.1408933000002,512.1408933000002,512.1408933000002,512.1408933000002,512.1408933000002,514.1773219999995,n,514.1773219999995,514.1773219999995,514.1773219999995,514.1773219999995,514.1773219999995,514.1773219999995,514.1773219999995,514.1773219999995,None,None,None,511.0750670999996,511.0750670999996,1.503985699999248,,,,,,,,,,,,,,,,,,,,6,001,2024-06-07_15h40.50.491,robot_nback_sign,2022.2.5,60.07857075489853,
L,False,3,letter,1,False,False,robot_stimuli\\filler.mp4,6,0,0,0,0,0,14,14,14,,,,,,,,,,,,,514.1773219999995,514.1773219999995,None,,514.1773219999995,,515.2558119999994,515.2558119999994,515.2558119999994,515.2558119999994,517.2836888000002,n,517.2836888000002,517.2836888000002,517.2836888000002,517.2836888000002,517.2836888000002,517.2836888000002,517.2836888000002,517.2836888000002,None,None,None,514.1773219999995,514.1773219999995,1.3259864000001471,,,,,,,,,,,,,,,,,,,,6,001,2024-06-07_15h40.50.491,robot_nback_sign,2022.2.5,60.07857075489853,
M,True,3,letter,1,False,False,robot_stimuli\\filler.mp4,6,0,0,0,0,0,15,15,15,,,,,,,,,,,,,517.2836888000002,517.2836888000002,None,,517.2836888000002,518.3573336999998,518.3573336999998,518.3573336999998,518.3573336999998,518.3573336999998,520.3899708999998,None,520.3899708999998,520.3899708999998,520.3899708999998,520.3899708999998,520.3899708999998,520.3899708999998,520.3899708999998,520.3899708999998,None,None,None,517.2836888000002,517.2836888000002,,,,,,,,,,,,,,,,,,,,,6,001,2024-06-07_15h40.50.491,robot_nback_sign,2022.2.5,60.07857075489853,
W,False,3,letter,1,False,False,robot_stimuli\\filler.mp4,6,0,0,0,0,0,16,16,16,,,,,,,,,,,,,520.3899708999998,520.3899708999998,None,,520.3899708999998,521.4595475999995,521.4595475999995,521.4595475999995,521.4595475999995,521.4595475999995,523.6934468,n,523.6934468,523.6934468,523.6934468,523.6934468,523.6934468,523.6934468,523.6934468,523.6934468,None,None,None,520.3899708999998,520.3899708999998,0.7617559000000256,,,,,,,,,,,,,,,,,,,,6,001,2024-06-07_15h40.50.491,robot_nback_sign,2022.2.5,60.07857075489853,
L,True,3,letter,1,False,True,robot_stimuli\\filler.mp4,6,0,0,0,0,0,17,17,17,,,,,,,,,,,,,523.6934468,523.6934468,None,,523.6934468,,524.7735830000001,524.7735830000001,524.7735830000001,524.7735830000001,526.8327211999995,c,526.8327211999995,538.7347042000001,526.8327211999995,538.7347042000001,526.8327211999995,538.7347042000001,526.8327211999995,538.7347042000001,45.4320987654321,9.727111200000763,space,523.6934468,523.6934468,1.6645607999998902,11.86068449999948,,,,,,,,,,,,,,,,,,,6,001,2024-06-07_15h40.50.491,robot_nback_sign,2022.2.5,60.07857075489853,
R_Torso_Y_Back,False,1,robot,2,True,False,robot_stimuli\R_Torso_Y_Back.mp4,6,0,0,0,0,0,18,18,18,,,,,,,,,,,,,538.7347042000001,538.7347042000001,space,7.783575999999812,546.5417263999998,547.6628172999999,,547.6628172999999,547.6628172999999,547.6628172999999,,n,551.2943887000001,551.2943887000001,551.2943887000001,551.2943887000001,551.2943887000001,551.2943887000001,551.2943887000001,551.2943887000001,None,None,None,,,3.021774699999696,,547.6628172999999,,,,,,,,,,,,,,,,,,6,001,2024-06-07_15h40.50.491,robot_nback_sign,2022.2.5,60.07857075489853,
L_Base_Y_Back,False,1,robot,2,False,False,robot_stimuli\L_Base_Y_Back.mp4,6,0,0,0,0,0,19,19,19,,,,,,,,,,,,,551.2943887000001,551.2943887000001,None,,551.2943887000001,,,552.4058193000001,552.4058193000001,552.4058193000001,,None,555.9922299999998,555.9922299999998,555.9922299999998,555.9922299999998,555.9922299999998,555.9922299999998,555.9922299999998,555.9922299999998,None,None,None,551.2943887000001,551.2943887000001,,,552.4058193000001,,,,,,,,,,,,,,,,,,6,001,2024-06-07_15h40.50.491,robot_nback_sign,2022.2.5,60.07857075489853,
L_Base_Y_Back,True,1,robot,2,False,False,robot_stimuli\L_Base_Y_Back.mp4,6,0,0,0,0,0,20,20,20,,,,,,,,,,,,,555.9922299999998,555.9922299999998,None,,555.9922299999998,557.0837304999995,,557.0837304999995,557.0837304999995,557.0837304999995,,c,560.6526619999995,560.6526619999995,560.6526619999995,560.6526619999995,560.6526619999995,560.6526619999995,560.6526619999995,560.6526619999995,None,None,None,555.9922299999998,555.9922299999998,2.585460599999351,,557.0837304999995,,,,,,,,,,,,,,,,,,6,001,2024-06-07_15h40.50.491,robot_nback_sign,2022.2.5,60.07857075489853,
L_Torso_Z_Back,False,1,robot,2,False,False,robot_stimuli\L_Torso_Z_Back.mp4,6,0,0,0,0,0,21,21,21,,,,,,,,,,,,,560.6526619999995,560.6526619999995,None,,560.6526619999995,561.7546450999998,,561.7546450999998,561.7546450999998,561.7546450999998,,c,565.2755668999998,565.2755668999998,565.2755668999998,565.2755668999998,565.2755668999998,565.2755668999998,565.2755668999998,565.2755668999998,None,None,None,560.6526619999995,560.6526619999995,2.795351699999628,,561.7546450999998,,,,,,,,,,,,,,,,,,6,001,2024-06-07_15h40.50.491,robot_nback_sign,2022.2.5,60.07857075489853,
L_Torso_Z_Back,True,1,robot,2,False,False,robot_stimuli\L_Torso_Z_Back.mp4,6,0,0,0,0,0,22,22,22,,,,,,,,,,,,,565.2755668999998,565.2755668999998,None,,565.2755668999998,566.3657832999997,,566.3657832999997,566.3657832999997,566.3657832999997,,c,569.8776558999998,569.8776558999998,569.8776558999998,569.8776558999998,569.8776558999998,569.8776558999998,569.8776558999998,569.8776558999998,None,None,None,565.2755668999998,565.2755668999998,2.9908894999998665,,566.3657832999997,,,,,,,,,,,,,,,,,,6,001,2024-06-07_15h40.50.491,robot_nback_sign,2022.2.5,60.07857075489853,
R_Base_Y_For,False,1,robot,2,False,True,robot_stimuli\R_Base_Y_For.mp4,6,0,0,0,0,0,23,23,23,,,,,,,,,,,,,569.8776558999998,569.8776558999998,None,,569.8776558999998,,,570.9893047999994,570.9893047999994,570.9893047999994,,n,574.6716374999996,585.1446451000002,574.6716374999996,585.1446451000002,574.6716374999996,585.1446451000002,574.6716374999996,585.1446451000002,1.9135802469135765,8.71972520000054,space,569.8776558999998,569.8776558999998,1.319646300000386,10.405120499999612,570.9893047999994,,,,,,,,,,,,,,,,,,6,001,2024-06-07_15h40.50.491,robot_nback_sign,2022.2.5,60.07857075489853,
L_Head_Y_Back,False,2,robot,2,True,False,robot_stimuli\L_Head_Y_Back.mp4,6,0,0,0,0,0,24,24,24,,,,,,,,,,,,,585.1446451000002,585.1446451000002,space,8.548835000000508,593.7250544999997,594.8236876999999,,594.8236876999999,594.8236876999999,594.8236876999999,,None,598.4534384999997,598.4534384999997,598.4534384999997,598.4534384999997,598.4534384999997,598.4534384999997,598.4534384999997,598.4534384999997,None,None,None,,,,,594.8236876999999,,,,,,,,,,,,,,,,,,6,001,2024-06-07_15h40.50.491,robot_nback_sign,2022.2.5,60.07857075489853,
L_Arm_Y_Back,False,2,robot,2,False,False,robot_stimuli\L_Arm_Y_Back.mp4,6,0,0,0,0,0,25,25,25,,,,,,,,,,,,,598.4534384999997,598.4534384999997,None,,598.4534384999997,599.5557165,,599.5557165,599.5557165,599.5557165,,n,603.2112609999995,603.2112609999995,603.2112609999995,603.2112609999995,603.2112609999995,603.2112609999995,603.2112609999995,603.2112609999995,None,None,None,598.4534384999997,598.4534384999997,2.802274399999078,,599.5557165,,,,,,,,,,,,,,,,,,6,001,2024-06-07_15h40.50.491,robot_nback_sign,2022.2.5,60.07857075489853,
L_Head_Y_Back,True,2,robot,2,False,False,robot_stimuli\L_Head_Y_Back.mp4,6,0,0,0,0,0,26,26,26,,,,,,,,,,,,,603.2112609999995,603.2112609999995,None,,603.2112609999995,,,604.3188381,604.3188381,604.3188381,,c,607.9640085000001,607.9640085000001,607.9640085000001,607.9640085000001,607.9640085000001,607.9640085000001,607.9640085000001,607.9640085000001,None,None,None,603.2112609999995,603.2112609999995,1.2709705999996004,,604.3188381,,,,,,,,,,,,,,,,,,6,001,2024-06-07_15h40.50.491,robot_nback_sign,2022.2.5,60.07857075489853,
L_Torso_Z_For,False,2,robot,2,False,False,robot_stimuli\L_Torso_Z_For.mp4,6,0,0,0,0,0,27,27,27,,,,,,,,,,,,,607.9640085000001,607.9640085000001,None,,607.9640085000001,609.0668737999995,,609.0668737999995,609.0668737999995,609.0668737999995,,n,612.7111564999996,612.7111564999996,612.7111564999996,612.7111564999996,612.7111564999996,612.7111564999996,612.7111564999996,612.7111564999996,None,None,None,607.9640085000001,607.9640085000001,3.0737073999998756,,609.0668737999995,,,,,,,,,,,,,,,,,,6,001,2024-06-07_15h40.50.491,robot_nback_sign,2022.2.5,60.07857075489853,
R_Base_X_Back,False,2,robot,2,False,False,robot_stimuli\R_Base_X_Back.mp4,6,0,0,0,0,0,28,28,28,,,,,,,,,,,,,612.7111564999996,612.7111564999996,None,,612.7111564999996,,,613.8209678000003,613.8209678000003,613.8209678000003,,n,617.4703559,617.4703559,617.4703559,617.4703559,617.4703559,617.4703559,617.4703559,617.4703559,None,None,None,612.7111564999996,612.7111564999996,2.5611847000000125,,613.8209678000003,,,,,,,,,,,,,,,,,,6,001,2024-06-07_15h40.50.491,robot_nback_sign,2022.2.5,60.07857075489853,
L_Torso_Z_For,True,2,robot,2,False,True,robot_stimuli\L_Torso_Z_For.mp4,6,0,0,0,0,0,29,29,29,,,,,,,,,,,,,617.4703559,617.4703559,None,,617.4703559,618.5584297999994,,618.5584297999994,618.5584297999994,618.5584297999994,,c,622.2439119999999,625.666416,622.2439119999999,625.666416,622.2439119999999,625.666416,622.2439119999999,625.666416,24.44444444444444,2.1087508000000525,space,617.4703559,617.4703559,1.991836099999091,3.3770516000004136,618.5584297999994,,,,,,,,,,,,,,,,,,6,001,2024-06-07_15h40.50.491,robot_nback_sign,2022.2.5,60.07857075489853,
R_Head_X_Back,False,3,robot,2,True,False,robot_stimuli\R_Head_X_Back.mp4,6,0,0,0,0,0,30,30,30,,,,,,,,,,,,,625.666416,625.666416,space,9.939584699999614,635.6252311999997,636.7221509000001,,636.7221509000001,636.7221509000001,636.7221509000001,,n,640.3573150000002,640.3573150000002,640.3573150000002,640.3573150000002,640.3573150000002,640.3573150000002,640.3573150000002,640.3573150000002,None,None,None,,,2.4837829999996757,,636.7221509000001,,,,,,,,,,,,,,,,,,6,001,2024-06-07_15h40.50.491,robot_nback_sign,2022.2.5,60.07857075489853,
L_Head_X_Back,False,3,robot,2,False,False,robot_stimuli\L_Head_X_Back.mp4,6,0,0,0,0,0,31,31,31,,,,,,,,,,,,,640.3573150000002,640.3573150000002,None,,640.3573150000002,641.4427805999994,,641.4427805999994,641.4427805999994,641.4427805999994,,n,645.0861482999999,645.0861482999999,645.0861482999999,645.0861482999999,645.0861482999999,645.0861482999999,645.0861482999999,645.0861482999999,None,None,None,640.3573150000002,640.3573150000002,2.1542982999999367,,641.4427805999994,,,,,,,,,,,,,,,,,,6,001,2024-06-07_15h40.50.491,robot_nback_sign,2022.2.5,60.07857075489853,
L_Torso_X_For,False,3,robot,2,False,False,robot_stimuli\L_Torso_X_For.mp4,6,0,0,0,0,0,32,32,32,,,,,,,,,,,,,645.0861482999999,645.0861482999999,None,,645.0861482999999,646.1880491000002,,646.1880491000002,646.1880491000002,646.1880491000002,,c,649.83853,649.83853,649.83853,649.83853,649.83853,649.83853,649.83853,649.83853,None,None,None,645.0861482999999,645.0861482999999,2.6085786999992706,,646.1880491000002,,,,,,,,,,,,,,,,,,6,001,2024-06-07_15h40.50.491,robot_nback_sign,2022.2.5,60.07857075489853,
R_Head_X_Back,True,3,robot,2,False,False,robot_stimuli\R_Head_X_Back.mp4,6,0,0,0,0,0,33,33,33,,,,,,,,,,,,,649.83853,649.83853,None,,649.83853,650.9262811999997,,650.9262811999997,650.9262811999997,650.9262811999997,,n,654.5706856999996,654.5706856999996,654.5706856999996,654.5706856999996,654.5706856999996,654.5706856999996,654.5706856999996,654.5706856999996,None,None,None,649.83853,649.83853,2.302378000000317,,650.9262811999997,,,,,,,,,,,,,,,,,,6,001,2024-06-07_15h40.50.491,robot_nback_sign,2022.2.5,60.07857075489853,
L_Head_X_Back,True,3,robot,2,False,False,robot_stimuli\L_Head_X_Back.mp4,6,0,0,0,0,0,34,34,34,,,,,,,,,,,,,654.5706856999996,654.5706856999996,None,,654.5706856999996,655.6701519999997,,655.6701519999997,655.6701519999997,655.6701519999997,,None,659.3205520000001,659.3205520000001,659.3205520000001,659.3205520000001,659.3205520000001,659.3205520000001,659.3205520000001,659.3205520000001,None,None,None,654.5706856999996,654.5706856999996,,,655.6701519999997,,,,,,,,,,,,,,,,,,6,001,2024-06-07_15h40.50.491,robot_nback_sign,2022.2.5,60.07857075489853,
L_Head_Z_For,False,3,robot,2,False,True,robot_stimuli\L_Head_Z_For.mp4,6,0,0,0,0,0,35,35,35,,,,,,,,,,,,,659.3205520000001,659.3205520000001,None,,659.3205520000001,660.4089070999999,,660.4089070999999,660.4089070999999,660.4089070999999,,n,664.0925257999997,680.7921924000002,664.0925257999997,680.7921924000002,664.0925257999997,680.7921924000002,664.0925257999997,680.7921924000002,29.999999999999993,15.147465200000624,space,659.3205520000001,659.3205520000001,1.6452416999991328,16.640765699999974,660.4089070999999,,,,,,,,,,,,,,,,,,6,001,2024-06-07_15h40.50.491,robot_nback_sign,2022.2.5,60.07857075489853,
,,,,,,,,,0,0,0,0,,,,,,,,,,,,,,,,,,,,,,,,,,,,,,,,,,,,,,,,,,,,,680.7921924000002,680.7921924000002,680.7921924000002,c,14.852496199999223,,,,,,,,,,,,,6,001,2024-06-07_15h40.50.491,robot_nback_sign,2022.2.5,60.07857075489853,
D,False,2,letter,1,True,False,robot_stimuli\\filler.mp4,6,,,,,,,,,0,0,0,0,,,,,,,,,,,,,703.2753744000001,704.3420164999998,,,,,,,706.3691716000003,706.3691716000003,706.3691716000003,706.3691716000003,706.3691716000003,706.3691716000003,706.3691716000003,706.3691716000003,None,None,None,,,,,,,,,,,695.7140717000002,695.7140717000002,space,7.540155400000003,704.3420164999998,704.3420164999998,706.3691716000003,None,,,,,6,001,2024-06-07_15h40.50.491,robot_nback_sign,2022.2.5,60.07857075489853,
J,False,2,letter,1,False,False,robot_stimuli\\filler.mp4,6,,,,,,,,,0,1,1,1,,,,,,,,,,,,,706.3691716000003,707.4302058000003,,,,,,,709.4562305999998,709.4562305999998,709.4562305999998,709.4562305999998,709.4562305999998,709.4562305999998,709.4562305999998,709.4562305999998,None,None,None,,,,,,,,,,,706.3691716000003,706.3691716000003,None,,707.4302058000003,707.4302058000003,709.4562305999998,None,706.3691716000003,706.3691716000003,,,6,001,2024-06-07_15h40.50.491,robot_nback_sign,2022.2.5,60.07857075489853,
M,False,2,letter,1,False,False,robot_stimuli\\filler.mp4,6,,,,,,,,,0,2,2,2,,,,,,,,,,,,,709.4562305999998,710.5143557000001,,,,,,,712.5419482999996,712.5419482999996,712.5419482999996,712.5419482999996,712.5419482999996,712.5419482999996,712.5419482999996,712.5419482999996,None,None,None,,,,,,,,,,,709.4562305999998,709.4562305999998,None,,710.5143557000001,710.5143557000001,712.5419482999996,n,709.4562305999998,709.4562305999998,0.7624244999997245,,6,001,2024-06-07_15h40.50.491,robot_nback_sign,2022.2.5,60.07857075489853,
T,False,2,letter,1,False,False,robot_stimuli\\filler.mp4,6,,,,,,,,,0,3,3,3,,,,,,,,,,,,,712.5419482999996,713.5945727999997,,,,,,,715.8237824999997,715.8237824999997,715.8237824999997,715.8237824999997,715.8237824999997,715.8237824999997,715.8237824999997,715.8237824999997,None,None,None,,,,,,,,,,,712.5419482999996,712.5419482999996,None,,713.5945727999997,713.5945727999997,715.8237824999997,n,712.5419482999996,712.5419482999996,0.8755406000000221,,6,001,2024-06-07_15h40.50.491,robot_nback_sign,2022.2.5,60.07857075489853,
G,False,2,letter,1,False,False,robot_stimuli\\filler.mp4,6,,,,,,,,,0,4,4,4,,,,,,,,,,,,,715.8237824999997,716.8799706,,,,,,,718.9059212000002,718.9059212000002,718.9059212000002,718.9059212000002,718.9059212000002,718.9059212000002,718.9059212000002,718.9059212000002,None,None,None,,,,,,,,,,,715.8237824999997,715.8237824999997,None,,716.8799706,716.8799706,718.9059212000002,n,715.8237824999997,715.8237824999997,0.9580898999993224,,6,001,2024-06-07_15h40.50.491,robot_nback_sign,2022.2.5,60.07857075489853,
T,True,2,letter,1,False,False,robot_stimuli\\filler.mp4,6,,,,,,,,,0,5,5,5,,,,,,,,,,,,,718.9059212000002,719.9627576000003,,,,,,,721.9901939000001,721.9901939000001,721.9901939000001,721.9901939000001,721.9901939000001,721.9901939000001,721.9901939000001,721.9901939000001,None,None,None,,,,,,,,,,,718.9059212000002,718.9059212000002,None,,719.9627576000003,719.9627576000003,721.9901939000001,c,718.9059212000002,718.9059212000002,0.9618448000001081,,6,001,2024-06-07_15h40.50.491,robot_nback_sign,2022.2.5,60.07857075489853,
P,False,2,letter,1,False,False,robot_stimuli\\filler.mp4,6,,,,,,,,,0,6,6,6,,,,,,,,,,,,,721.9901939000001,723.0571663999999,,,,,,,725.0831546,725.0831546,725.0831546,725.0831546,725.0831546,725.0831546,725.0831546,725.0831546,None,None,None,,,,,,,,,,,721.9901939000001,721.9901939000001,None,,723.0571663999999,723.0571663999999,725.0831546,n,721.9901939000001,721.9901939000001,0.7573568999996496,,6,001,2024-06-07_15h40.50.491,robot_nback_sign,2022.2.5,60.07857075489853,
V,False,2,letter,1,False,False,robot_stimuli\\filler.mp4,6,,,,,,,,,0,7,7,7,,,,,,,,,,,,,725.0831546,726.1490375000003,,,,,,,728.1761467999995,728.1761467999995,728.1761467999995,728.1761467999995,728.1761467999995,728.1761467999995,728.1761467999995,728.1761467999995,None,None,None,,,,,,,,,,,725.0831546,725.0831546,None,,726.1490375000003,726.1490375000003,728.1761467999995,n,725.0831546,725.0831546,0.6716637999998056,,6,001,2024-06-07_15h40.50.491,robot_nback_sign,2022.2.5,60.07857075489853,
P,True,2,letter,1,False,False,robot_stimuli\\filler.mp4,6,,,,,,,,,0,8,8,8,,,,,,,,,,,,,728.1761467999995,729.2285380000003,,,,,,,731.4621300999997,731.4621300999997,731.4621300999997,731.4621300999997,731.4621300999997,731.4621300999997,731.4621300999997,731.4621300999997,None,None,None,,,,,,,,,,,728.1761467999995,728.1761467999995,None,,729.2285380000003,729.2285380000003,731.4621300999997,c,728.1761467999995,728.1761467999995,0.9778187000001708,,6,001,2024-06-07_15h40.50.491,robot_nback_sign,2022.2.5,60.07857075489853,
H,False,2,letter,1,False,False,robot_stimuli\\filler.mp4,6,,,,,,,,,0,9,9,9,,,,,,,,,,,,,731.4621300999997,,,,,,,,734.5597047000001,734.5597047000001,734.5597047000001,734.5597047000001,734.5597047000001,734.5597047000001,734.5597047000001,734.5597047000001,None,None,None,,,,,,,,,,,731.4621300999997,731.4621300999997,None,,732.5295785999997,732.5295785999997,734.5597047000001,n,731.4621300999997,731.4621300999997,1.3966387000000395,,6,001,2024-06-07_15h40.50.491,robot_nback_sign,2022.2.5,60.07857075489853,
F,False,2,letter,1,False,False,robot_stimuli\\filler.mp4,6,,,,,,,,,0,10,10,10,,,,,,,,,,,,,734.5597047000001,735.6118706999996,,,,,,,737.8402672000002,737.8402672000002,737.8402672000002,737.8402672000002,737.8402672000002,737.8402672000002,737.8402672000002,737.8402672000002,None,None,None,,,,,,,,,,,734.5597047000001,734.5597047000001,None,,735.6118706999996,735.6118706999996,737.8402672000002,n,734.5597047000001,734.5597047000001,1.042171999999482,,6,001,2024-06-07_15h40.50.491,robot_nback_sign,2022.2.5,60.07857075489853,
P,False,2,letter,1,False,False,robot_stimuli\\filler.mp4,6,,,,,,,,,0,11,11,11,,,,,,,,,,,,,737.8402672000002,738.8962061000002,,,,,,,741.1247973999998,741.1247973999998,741.1247973999998,741.1247973999998,741.1247973999998,741.1247973999998,741.1247973999998,741.1247973999998,None,None,None,,,,,,,,,,,737.8402672000002,737.8402672000002,None,,738.8962061000002,738.8962061000002,741.1247973999998,n,737.8402672000002,737.8402672000002,1.3103158000003532,,6,001,2024-06-07_15h40.50.491,robot_nback_sign,2022.2.5,60.07857075489853,
H,False,2,letter,1,False,False,robot_stimuli\\filler.mp4,6,,,,,,,,,0,12,12,12,,,,,,,,,,,,,741.1247973999998,742.1792137000002,,,,,,,744.4037087999995,744.4037087999995,744.4037087999995,744.4037087999995,744.4037087999995,744.4037087999995,744.4037087999995,744.4037087999995,None,None,None,,,,,,,,,,,741.1247973999998,741.1247973999998,None,,742.1792137000002,742.1792137000002,744.4037087999995,n,741.1247973999998,741.1247973999998,1.4893777000006594,,6,001,2024-06-07_15h40.50.491,robot_nback_sign,2022.2.5,60.07857075489853,
S,False,2,letter,1,False,False,robot_stimuli\\filler.mp4,6,,,,,,,,,0,13,13,13,,,,,,,,,,,,,744.4037087999995,745.4666146,,,,,,,747.5006264000003,747.5006264000003,747.5006264000003,747.5006264000003,747.5006264000003,747.5006264000003,747.5006264000003,747.5006264000003,None,None,None,,,,,,,,,,,744.4037087999995,744.4037087999995,None,,745.4666146,745.4666146,747.5006264000003,n,744.4037087999995,744.4037087999995,1.0989133000002766,,6,001,2024-06-07_15h40.50.491,robot_nback_sign,2022.2.5,60.07857075489853,
D,False,2,letter,1,False,False,robot_stimuli\\filler.mp4,6,,,,,,,,,0,14,14,14,,,,,,,,,,,,,747.5006264000003,748.5626375000002,,,,,,,750.5919547000003,750.5919547000003,750.5919547000003,750.5919547000003,750.5919547000003,750.5919547000003,750.5919547000003,750.5919547000003,None,None,None,,,,,,,,,,,747.5006264000003,747.5006264000003,None,,748.5626375000002,748.5626375000002,750.5919547000003,n,747.5006264000003,747.5006264000003,1.7781224999998813,,6,001,2024-06-07_15h40.50.491,robot_nback_sign,2022.2.5,60.07857075489853,
J,False,2,letter,1,False,False,robot_stimuli\\filler.mp4,6,,,,,,,,,0,15,15,15,,,,,,,,,,,,,750.5919547000003,751.6457375,,,,,,,753.6783181999999,753.6783181999999,753.6783181999999,753.6783181999999,753.6783181999999,753.6783181999999,753.6783181999999,753.6783181999999,None,None,None,,,,,,,,,,,750.5919547000003,750.5919547000003,None,,751.6457375,751.6457375,753.6783181999999,n,750.5919547000003,750.5919547000003,1.1760903999993388,,6,001,2024-06-07_15h40.50.491,robot_nback_sign,2022.2.5,60.07857075489853,
D,True,2,letter,1,False,False,robot_stimuli\\filler.mp4,6,,,,,,,,,0,16,16,16,,,,,,,,,,,,,753.6783181999999,,,,,,,,756.9821099999999,756.9821099999999,756.9821099999999,756.9821099999999,756.9821099999999,756.9821099999999,756.9821099999999,756.9821099999999,None,None,None,,,,,,,,,,,753.6783181999999,753.6783181999999,None,,754.7452115999995,754.7452115999995,756.9821099999999,c,753.6783181999999,753.6783181999999,1.0932664999991175,,6,001,2024-06-07_15h40.50.491,robot_nback_sign,2022.2.5,60.07857075489853,
H,False,2,letter,1,False,False,robot_stimuli\\filler.mp4,6,,,,,,,,,0,17,17,17,,,,,,,,,,,,,756.9821099999999,758.0560249999999,,,,,,,760.0813645999997,760.0813645999997,760.0813645999997,760.0813645999997,760.0813645999997,760.0813645999997,760.0813645999997,760.0813645999997,None,None,None,,,,,,,,,,,756.9821099999999,756.9821099999999,None,,758.0560249999999,758.0560249999999,760.0813645999997,None,756.9821099999999,756.9821099999999,,,6,001,2024-06-07_15h40.50.491,robot_nback_sign,2022.2.5,60.07857075489853,
G,False,2,letter,1,False,False,robot_stimuli\\filler.mp4,6,,,,,,,,,0,18,18,18,,,,,,,,,,,,,760.0813645999997,761.1496774999996,,,,,,,763.1830117,763.1830117,763.1830117,763.1830117,763.1830117,763.1830117,763.1830117,763.1830117,None,None,None,,,,,,,,,,,760.0813645999997,760.0813645999997,None,,761.1496774999996,761.1496774999996,763.1830117,n,760.0813645999997,760.0813645999997,1.6311561000002257,,6,001,2024-06-07_15h40.50.491,robot_nback_sign,2022.2.5,60.07857075489853,
X,False,2,letter,1,False,False,robot_stimuli\\filler.mp4,6,,,,,,,,,0,19,19,19,,,,,,,,,,,,,763.1830117,764.2475250999996,,,,,,,766.2816373999995,766.2816373999995,766.2816373999995,766.2816373999995,766.2816373999995,766.2816373999995,766.2816373999995,766.2816373999995,None,None,None,,,,,,,,,,,763.1830117,763.1830117,None,,764.2475250999996,764.2475250999996,766.2816373999995,n,763.1830117,763.1830117,1.0937604000000647,,6,001,2024-06-07_15h40.50.491,robot_nback_sign,2022.2.5,60.07857075489853,
X,False,2,letter,1,False,False,robot_stimuli\\filler.mp4,6,,,,,,,,,0,20,20,20,,,,,,,,,,,,,766.2816373999995,767.3449991999996,,,,,,,769.5760196000001,769.5760196000001,769.5760196000001,769.5760196000001,769.5760196000001,769.5760196000001,769.5760196000001,769.5760196000001,None,None,None,,,,,,,,,,,766.2816373999995,766.2816373999995,None,,767.3449991999996,767.3449991999996,769.5760196000001,n,766.2816373999995,766.2816373999995,1.221548999999868,,6,001,2024-06-07_15h40.50.491,robot_nback_sign,2022.2.5,60.07857075489853,
D,False,2,letter,1,False,False,robot_stimuli\\filler.mp4,6,,,,,,,,,0,21,21,21,,,,,,,,,,,,,769.5760196000001,770.6311055999995,,,,,,,772.6576402000001,772.6576402000001,772.6576402000001,772.6576402000001,772.6576402000001,772.6576402000001,772.6576402000001,772.6576402000001,None,None,None,,,,,,,,,,,769.5760196000001,769.5760196000001,None,,770.6311055999995,770.6311055999995,772.6576402000001,n,769.5760196000001,769.5760196000001,1.0457238999997571,,6,001,2024-06-07_15h40.50.491,robot_nback_sign,2022.2.5,60.07857075489853,
X,True,2,letter,1,False,False,robot_stimuli\\filler.mp4,6,,,,,,,,,0,22,22,22,,,,,,,,,,,,,772.6576402000001,773.7123714999998,,,,,,,775.7364772000001,775.7364772000001,775.7364772000001,775.7364772000001,775.7364772000001,775.7364772000001,775.7364772000001,775.7364772000001,None,None,None,,,,,,,,,,,772.6576402000001,772.6576402000001,None,,773.7123714999998,773.7123714999998,775.7364772000001,c,772.6576402000001,772.6576402000001,0.5342351999997845,,6,001,2024-06-07_15h40.50.491,robot_nback_sign,2022.2.5,60.07857075489853,
D,True,2,letter,1,False,False,robot_stimuli\\filler.mp4,6,,,,,,,,,0,23,23,23,,,,,,,,,,,,,775.7364772000001,776.7974623,,,,,,,778.8241677999995,778.8241677999995,778.8241677999995,778.8241677999995,778.8241677999995,778.8241677999995,778.8241677999995,778.8241677999995,None,None,None,,,,,,,,,,,775.7364772000001,775.7364772000001,None,,776.7974623,776.7974623,778.8241677999995,c,775.7364772000001,775.7364772000001,0.7120107000000644,,6,001,2024-06-07_15h40.50.491,robot_nback_sign,2022.2.5,60.07857075489853,
W,False,2,letter,1,False,False,robot_stimuli\\filler.mp4,6,,,,,,,,,0,24,24,24,,,,,,,,,,,,,778.8241677999995,779.8786460000001,,,,,,,782.1104679999999,782.1104679999999,782.1104679999999,782.1104679999999,782.1104679999999,782.1104679999999,782.1104679999999,782.1104679999999,None,None,None,,,,,,,,,,,778.8241677999995,778.8241677999995,None,,779.8786460000001,779.8786460000001,782.1104679999999,n,778.8241677999995,778.8241677999995,0.5920507000000725,,6,001,2024-06-07_15h40.50.491,robot_nback_sign,2022.2.5,60.07857075489853,
C,False,2,letter,1,False,False,robot_stimuli\\filler.mp4,6,,,,,,,,,0,25,25,25,,,,,,,,,,,,,782.1104679999999,,,,,,,,785.211053,785.211053,785.211053,785.211053,785.211053,785.211053,785.211053,785.211053,None,None,None,,,,,,,,,,,782.1104679999999,782.1104679999999,None,,783.1836377999998,783.1836377999998,785.211053,n,782.1104679999999,782.1104679999999,1.1905581999999413,,6,001,2024-06-07_15h40.50.491,robot_nback_sign,2022.2.5,60.07857075489853,
Z,False,2,letter,1,False,False,robot_stimuli\\filler.mp4,6,,,,,,,,,0,26,26,26,,,,,,,,,,,,,785.211053,,,,,,,,788.5031729000002,788.5031729000002,788.5031729000002,788.5031729000002,788.5031729000002,788.5031729000002,788.5031729000002,788.5031729000002,None,None,None,,,,,,,,,,,785.211053,785.211053,None,,786.2788758999995,786.2788758999995,788.5031729000002,n,785.211053,785.211053,0.5431576999999379,,6,001,2024-06-07_15h40.50.491,robot_nback_sign,2022.2.5,60.07857075489853,
L,False,2,letter,1,False,False,robot_stimuli\\filler.mp4,6,,,,,,,,,0,27,27,27,,,,,,,,,,,,,788.5031729000002,789.5626592999997,,,,,,,791.7980361999998,791.7980361999998,791.7980361999998,791.7980361999998,791.7980361999998,791.7980361999998,791.7980361999998,791.7980361999998,None,None,None,,,,,,,,,,,788.5031729000002,788.5031729000002,None,,789.5626592999997,789.5626592999997,791.7980361999998,n,788.5031729000002,788.5031729000002,0.9149092999996356,,6,001,2024-06-07_15h40.50.491,robot_nback_sign,2022.2.5,60.07857075489853,
Q,False,2,letter,1,False,False,robot_stimuli\\filler.mp4,6,,,,,,,,,0,28,28,28,,,,,,,,,,,,,791.7980361999998,792.8730735999998,,,,,,,794.9040181999999,794.9040181999999,794.9040181999999,794.9040181999999,794.9040181999999,794.9040181999999,794.9040181999999,794.9040181999999,None,None,None,,,,,,,,,,,791.7980361999998,791.7980361999998,None,,792.8730735999998,792.8730735999998,794.9040181999999,n,791.7980361999998,791.7980361999998,0.70875260000048,,6,001,2024-06-07_15h40.50.491,robot_nback_sign,2022.2.5,60.07857075489853,
S,False,2,letter,1,False,False,robot_stimuli\\filler.mp4,6,,,,,,,,,0,29,29,29,,,,,,,,,,,,,794.9040181999999,795.9622646999997,,,,,,,798.1979380000002,798.1979380000002,798.1979380000002,798.1979380000002,798.1979380000002,798.1979380000002,798.1979380000002,798.1979380000002,None,None,None,,,,,,,,,,,794.9040181999999,794.9040181999999,None,,795.9622646999997,795.9622646999997,798.1979380000002,n,794.9040181999999,794.9040181999999,0.8123915000005582,,6,001,2024-06-07_15h40.50.491,robot_nback_sign,2022.2.5,60.07857075489853,
H,False,2,letter,1,False,False,robot_stimuli\\filler.mp4,6,,,,,,,,,0,30,30,30,,,,,,,,,,,,,798.1979380000002,799.2624169000001,,,,,,,801.4922661,801.4922661,801.4922661,801.4922661,801.4922661,801.4922661,801.4922661,801.4922661,None,None,None,,,,,,,,,,,798.1979380000002,798.1979380000002,None,,799.2624169000001,799.2624169000001,801.4922661,n,798.1979380000002,798.1979380000002,1.0561368999997285,,6,001,2024-06-07_15h40.50.491,robot_nback_sign,2022.2.5,60.07857075489853,
V,False,2,letter,1,False,False,robot_stimuli\\filler.mp4,6,,,,,,,,,0,31,31,31,,,,,,,,,,,,,801.4922661,802.5464568999996,,,,,,,804.7721425,804.7721425,804.7721425,804.7721425,804.7721425,804.7721425,804.7721425,804.7721425,None,None,None,,,,,,,,,,,801.4922661,801.4922661,None,,802.5464568999996,802.5464568999996,804.7721425,n,801.4922661,801.4922661,0.6427496999995128,,6,001,2024-06-07_15h40.50.491,robot_nback_sign,2022.2.5,60.07857075489853,
H,True,2,letter,1,False,False,robot_stimuli\\filler.mp4,6,,,,,,,,,0,32,32,32,,,,,,,,,,,,,804.7721425,805.8293022999997,,,,,,,808.0537274999997,808.0537274999997,808.0537274999997,808.0537274999997,808.0537274999997,808.0537274999997,808.0537274999997,808.0537274999997,None,None,None,,,,,,,,,,,804.7721425,804.7721425,None,,805.8293022999997,805.8293022999997,808.0537274999997,c,804.7721425,804.7721425,0.7435519000000568,,6,001,2024-06-07_15h40.50.491,robot_nback_sign,2022.2.5,60.07857075489853,
W,False,2,letter,1,False,False,robot_stimuli\\filler.mp4,6,,,,,,,,,0,33,33,33,,,,,,,,,,,,,808.0537274999997,809.1132064000003,,,,,,,811.1451383000003,811.1451383000003,811.1451383000003,811.1451383000003,811.1451383000003,811.1451383000003,811.1451383000003,811.1451383000003,None,None,None,,,,,,,,,,,808.0537274999997,808.0537274999997,None,,809.1132064000003,809.1132064000003,811.1451383000003,n,808.0537274999997,808.0537274999997,0.6682050999997955,,6,001,2024-06-07_15h40.50.491,robot_nback_sign,2022.2.5,60.07857075489853,
Q,False,2,letter,1,False,False,robot_stimuli\\filler.mp4,6,,,,,,,,,0,34,34,34,,,,,,,,,,,,,811.1451383000003,,,,,,,,814.4379718999999,814.4379718999999,814.4379718999999,814.4379718999999,814.4379718999999,814.4379718999999,814.4379718999999,814.4379718999999,None,None,None,,,,,,,,,,,811.1451383000003,811.1451383000003,None,,812.2127252,812.2127252,814.4379718999999,n,811.1451383000003,811.1451383000003,0.5938844000002064,,6,001,2024-06-07_15h40.50.491,robot_nback_sign,2022.2.5,60.07857075489853,
T,False,2,letter,1,False,False,robot_stimuli\\filler.mp4,6,,,,,,,,,0,35,35,35,,,,,,,,,,,,,814.4379718999999,815.4969381999999,,,,,,,817.7221410000002,817.7221410000002,817.7221410000002,817.7221410000002,817.7221410000002,817.7221410000002,817.7221410000002,817.7221410000002,None,None,None,,,,,,,,,,,814.4379718999999,814.4379718999999,None,,815.4969381999999,815.4969381999999,817.7221410000002,n,814.4379718999999,814.4379718999999,0.4445014999992054,,6,001,2024-06-07_15h40.50.491,robot_nback_sign,2022.2.5,60.07857075489853,
Q,True,2,letter,1,False,False,robot_stimuli\\filler.mp4,6,,,,,,,,,0,36,36,36,,,,,,,,,,,,,817.7221410000002,818.7807793000002,,,,,,,820.8123317,820.8123317,820.8123317,820.8123317,820.8123317,820.8123317,820.8123317,820.8123317,None,None,None,,,,,,,,,,,817.7221410000002,817.7221410000002,None,,818.7807793000002,818.7807793000002,820.8123317,c,817.7221410000002,817.7221410000002,0.48884650000036345,,6,001,2024-06-07_15h40.50.491,robot_nback_sign,2022.2.5,60.07857075489853,
R,False,2,letter,1,False,False,robot_stimuli\\filler.mp4,6,,,,,,,,,0,37,37,37,,,,,,,,,,,,,820.8123317,821.8879150000002,,,,,,,823.9136417999998,823.9136417999998,823.9136417999998,823.9136417999998,823.9136417999998,823.9136417999998,823.9136417999998,823.9136417999998,None,None,None,,,,,,,,,,,820.8123317,820.8123317,None,,821.8879150000002,821.8879150000002,823.9136417999998,n,820.8123317,820.8123317,0.6535512000000381,,6,001,2024-06-07_15h40.50.491,robot_nback_sign,2022.2.5,60.07857075489853,
J,False,2,letter,1,False,False,robot_stimuli\\filler.mp4,6,,,,,,,,,0,38,38,38,,,,,,,,,,,,,823.9136417999998,824.9800543000001,,,,,,,827.0045602,827.0045602,827.0045602,827.0045602,827.0045602,827.0045602,827.0045602,827.0045602,None,None,None,,,,,,,,,,,823.9136417999998,823.9136417999998,None,,824.9800543000001,824.9800543000001,827.0045602,n,823.9136417999998,823.9136417999998,1.4086531999992076,,6,001,2024-06-07_15h40.50.491,robot_nback_sign,2022.2.5,60.07857075489853,
V,False,2,letter,1,False,False,robot_stimuli\\filler.mp4,6,,,,,,,,,0,39,39,39,,,,,,,,,,,,,827.0045602,828.0633249000002,,,,,,,830.2892716999995,830.2892716999995,830.2892716999995,830.2892716999995,830.2892716999995,830.2892716999995,830.2892716999995,830.2892716999995,None,None,None,,,,,,,,,,,827.0045602,827.0045602,None,,828.0633249000002,828.0633249000002,830.2892716999995,n,827.0045602,827.0045602,0.7588990999993257,,6,001,2024-06-07_15h40.50.491,robot_nback_sign,2022.2.5,60.07857075489853,
W,False,2,letter,1,False,False,robot_stimuli\\filler.mp4,6,,,,,,,,,0,40,40,40,,,,,,,,,,,,,830.2892716999995,831.3553752999997,,,,,,,833.3870936000003,833.3870936000003,833.3870936000003,833.3870936000003,833.3870936000003,833.3870936000003,833.3870936000003,833.3870936000003,None,None,None,,,,,,,,,,,830.2892716999995,830.2892716999995,None,,831.3553752999997,831.3553752999997,833.3870936000003,n,830.2892716999995,830.2892716999995,0.6111873999998352,,6,001,2024-06-07_15h40.50.491,robot_nback_sign,2022.2.5,60.07857075489853,
W,False,2,letter,1,False,False,robot_stimuli\\filler.mp4,6,,,,,,,,,0,41,41,41,,,,,,,,,,,,,833.3870936000003,834.4444487999999,,,,,,,836.6729100000002,836.6729100000002,836.6729100000002,836.6729100000002,836.6729100000002,836.6729100000002,836.6729100000002,836.6729100000002,None,None,None,,,,,,,,,,,833.3870936000003,833.3870936000003,None,,834.4444487999999,834.4444487999999,836.6729100000002,n,833.3870936000003,833.3870936000003,1.2005460000000312,,6,001,2024-06-07_15h40.50.491,robot_nback_sign,2022.2.5,60.07857075489853,
W,True,2,letter,1,False,False,robot_stimuli\\filler.mp4,6,,,,,,,,,0,42,42,42,,,,,,,,,,,,,836.6729100000002,837.7278151,,,,,,,839.9518729000001,839.9518729000001,839.9518729000001,839.9518729000001,839.9518729000001,839.9518729000001,839.9518729000001,839.9518729000001,None,None,None,,,,,,,,,,,836.6729100000002,836.6729100000002,None,,837.7278151,837.7278151,839.9518729000001,c,836.6729100000002,836.6729100000002,1.0450388999997813,,6,001,2024-06-07_15h40.50.491,robot_nback_sign,2022.2.5,60.07857075489853,
D,False,2,letter,1,False,False,robot_stimuli\\filler.mp4,6,,,,,,,,,0,43,43,43,,,,,,,,,,,,,839.9518729000001,841.0143768999997,,,,,,,843.0382011000002,843.0382011000002,843.0382011000002,843.0382011000002,843.0382011000002,843.0382011000002,843.0382011000002,843.0382011000002,None,None,None,,,,,,,,,,,839.9518729000001,839.9518729000001,None,,841.0143768999997,841.0143768999997,843.0382011000002,n,839.9518729000001,839.9518729000001,0.8320592000000033,,6,001,2024-06-07_15h40.50.491,robot_nback_sign,2022.2.5,60.07857075489853,
W,True,2,letter,1,False,False,robot_stimuli\\filler.mp4,6,,,,,,,,,0,44,44,44,,,,,,,,,,,,,843.0382011000002,844.0969545999997,,,,,,,846.1245325999998,846.1245325999998,846.1245325999998,846.1245325999998,846.1245325999998,846.1245325999998,846.1245325999998,846.1245325999998,None,None,None,,,,,,,,,,,843.0382011000002,843.0382011000002,None,,844.0969545999997,844.0969545999997,846.1245325999998,c,843.0382011000002,843.0382011000002,0.7886003999992681,,6,001,2024-06-07_15h40.50.491,robot_nback_sign,2022.2.5,60.07857075489853,
L,False,2,letter,1,False,False,robot_stimuli\\filler.mp4,6,,,,,,,,,0,45,45,45,,,,,,,,,,,,,846.1245325999998,847.1831148000001,,,,,,,849.2099319999998,849.2099319999998,849.2099319999998,849.2099319999998,849.2099319999998,849.2099319999998,849.2099319999998,849.2099319999998,None,None,None,,,,,,,,,,,846.1245325999998,846.1245325999998,None,,847.1831148000001,847.1831148000001,849.2099319999998,n,846.1245325999998,846.1245325999998,0.46170949999941513,,6,001,2024-06-07_15h40.50.491,robot_nback_sign,2022.2.5,60.07857075489853,
K,False,2,letter,1,False,False,robot_stimuli\\filler.mp4,6,,,,,,,,,0,46,46,46,,,,,,,,,,,,,849.2099319999998,,,,,,,,852.5123653,852.5123653,852.5123653,852.5123653,852.5123653,852.5123653,852.5123653,852.5123653,None,None,None,,,,,,,,,,,849.2099319999998,849.2099319999998,None,,850.2795636000001,850.2795636000001,852.5123653,n,849.2099319999998,849.2099319999998,1.0948976999998195,,6,001,2024-06-07_15h40.50.491,robot_nback_sign,2022.2.5,60.07857075489853,
D,False,2,letter,1,False,False,robot_stimuli\\filler.mp4,6,,,,,,,,,0,47,47,47,,,,,,,,,,,,,852.5123653,853.5812827,,,,,,,855.6079512999995,855.6079512999995,855.6079512999995,855.6079512999995,855.6079512999995,855.6079512999995,855.6079512999995,855.6079512999995,None,None,None,,,,,,,,,,,852.5123653,852.5123653,None,,853.5812827,853.5812827,855.6079512999995,n,852.5123653,852.5123653,1.0489997000004223,,6,001,2024-06-07_15h40.50.491,robot_nback_sign,2022.2.5,60.07857075489853,
K,True,2,letter,1,False,False,robot_stimuli\\filler.mp4,6,,,,,,,,,0,48,48,48,,,,,,,,,,,,,855.6079512999995,856.6621979000001,,,,,,,858.8902651999997,858.8902651999997,858.8902651999997,858.8902651999997,858.8902651999997,858.8902651999997,858.8902651999997,858.8902651999997,None,None,None,,,,,,,,,,,855.6079512999995,855.6079512999995,None,,856.6621979000001,856.6621979000001,858.8902651999997,c,855.6079512999995,855.6079512999995,0.4243297999992137,,6,001,2024-06-07_15h40.50.491,robot_nback_sign,2022.2.5,60.07857075489853,
Z,False,2,letter,1,False,True,robot_stimuli\\filler.mp4,6,,,,,,,,,0,49,49,49,,,,,,,,,,,,,858.8902651999997,859.9472557999998,,,,,,,862.0088700999995,885.7254311999995,862.0088700999995,885.7254311999995,862.0088700999995,885.7254311999995,862.0088700999995,885.7254311999995,33.54938271604938,21.866756899999928,space,,,,23.636501199999657,,,,,,,858.8902651999997,858.8902651999997,None,,859.9472557999998,859.9472557999998,862.0088700999995,n,858.8902651999997,858.8902651999997,0.6028698999998596,,6,001,2024-06-07_15h40.50.491,robot_nback_sign,2022.2.5,60.07857075489853,
T,False,1,letter,1,True,False,robot_stimuli\\filler.mp4,6,,,,,,,,,0,50,50,50,,,,,,,,,,,,,892.0757081000002,893.1457228999998,,,,,,,895.3711639000003,895.3711639000003,895.3711639000003,895.3711639000003,895.3711639000003,895.3711639000003,895.3711639000003,895.3711639000003,None,None,None,,,,,,,,,,,885.7254311999995,885.7254311999995,space,6.320399700000053,893.1457228999998,893.1457228999998,895.3711639000003,None,,,,,6,001,2024-06-07_15h40.50.491,robot_nback_sign,2022.2.5,60.07857075489853,
T,True,1,letter,1,False,False,robot_stimuli\\filler.mp4,6,,,,,,,,,0,51,51,51,,,,,,,,,,,,,895.3711639000003,896.4300547000003,,,,,,,898.6577274000001,898.6577274000001,898.6577274000001,898.6577274000001,898.6577274000001,898.6577274000001,898.6577274000001,898.6577274000001,None,None,None,,,,,,,,,,,895.3711639000003,895.3711639000003,None,,896.4300547000003,896.4300547000003,898.6577274000001,c,895.3711639000003,895.3711639000003,0.7909535999997388,,6,001,2024-06-07_15h40.50.491,robot_nback_sign,2022.2.5,60.07857075489853,
D,False,1,letter,1,False,False,robot_stimuli\\filler.mp4,6,,,,,,,,,0,52,52,52,,,,,,,,,,,,,898.6577274000001,899.7121973000003,,,,,,,901.9435108999996,901.9435108999996,901.9435108999996,901.9435108999996,901.9435108999996,901.9435108999996,901.9435108999996,901.9435108999996,None,None,None,,,,,,,,,,,898.6577274000001,898.6577274000001,None,,899.7121973000003,899.7121973000003,901.9435108999996,n,898.6577274000001,898.6577274000001,0.6285755999997491,,6,001,2024-06-07_15h40.50.491,robot_nback_sign,2022.2.5,60.07857075489853,
M,False,1,letter,1,False,False,robot_stimuli\\filler.mp4,6,,,,,,,,,0,53,53,53,,,,,,,,,,,,,901.9435108999996,,,,,,,,905.0432513999995,905.0432513999995,905.0432513999995,905.0432513999995,905.0432513999995,905.0432513999995,905.0432513999995,905.0432513999995,None,None,None,,,,,,,,,,,901.9435108999996,901.9435108999996,None,,903.0136278999998,903.0136278999998,905.0432513999995,n,901.9435108999996,901.9435108999996,0.7365838999994594,,6,001,2024-06-07_15h40.50.491,robot_nback_sign,2022.2.5,60.07857075489853,
V,False,1,letter,1,False,False,robot_stimuli\\filler.mp4,6,,,,,,,,,0,54,54,54,,,,,,,,,,,,,905.0432513999995,906.0954572,,,,,,,908.1300063999997,908.1300063999997,908.1300063999997,908.1300063999997,908.1300063999997,908.1300063999997,908.1300063999997,908.1300063999997,None,None,None,,,,,,,,,,,905.0432513999995,905.0432513999995,None,,906.0954572,906.0954572,908.1300063999997,n,905.0432513999995,905.0432513999995,0.6545727000002444,,6,001,2024-06-07_15h40.50.491,robot_nback_sign,2022.2.5,60.07857075489853,
X,False,1,letter,1,False,False,robot_stimuli\\filler.mp4,6,,,,,,,,,0,55,55,55,,,,,,,,,,,,,908.1300063999997,909.2025511000002,,,,,,,911.2318871999996,911.2318871999996,911.2318871999996,911.2318871999996,911.2318871999996,911.2318871999996,911.2318871999996,911.2318871999996,None,None,None,,,,,,,,,,,908.1300063999997,908.1300063999997,None,,909.2025511000002,909.2025511000002,911.2318871999996,n,908.1300063999997,908.1300063999997,0.41183689999979833,,6,001,2024-06-07_15h40.50.491,robot_nback_sign,2022.2.5,60.07857075489853,
X,True,1,letter,1,False,False,robot_stimuli\\filler.mp4,6,,,,,,,,,0,56,56,56,,,,,,,,,,,,,911.2318871999996,912.3039081999996,,,,,,,914.3325918999999,914.3325918999999,914.3325918999999,914.3325918999999,914.3325918999999,914.3325918999999,914.3325918999999,914.3325918999999,None,None,None,,,,,,,,,,,911.2318871999996,911.2318871999996,None,,912.3039081999996,912.3039081999996,914.3325918999999,c,911.2318871999996,911.2318871999996,0.43018130000018573,,6,001,2024-06-07_15h40.50.491,robot_nback_sign,2022.2.5,60.07857075489853,
B,False,1,letter,1,False,False,robot_stimuli\\filler.mp4,6,,,,,,,,,0,57,57,57,,,,,,,,,,,,,914.3325918999999,915.3964753999999,,,,,,,917.4255117000002,917.4255117000002,917.4255117000002,917.4255117000002,917.4255117000002,917.4255117000002,917.4255117000002,917.4255117000002,None,None,None,,,,,,,,,,,914.3325918999999,914.3325918999999,None,,915.3964753999999,915.3964753999999,917.4255117000002,n,914.3325918999999,914.3325918999999,0.474141800000325,,6,001,2024-06-07_15h40.50.491,robot_nback_sign,2022.2.5,60.07857075489853,
R,False,1,letter,1,False,False,robot_stimuli\\filler.mp4,6,,,,,,,,,0,58,58,58,,,,,,,,,,,,,917.4255117000002,918.4795801,,,,,,,920.7125295999995,920.7125295999995,920.7125295999995,920.7125295999995,920.7125295999995,920.7125295999995,920.7125295999995,920.7125295999995,None,None,None,,,,,,,,,,,917.4255117000002,917.4255117000002,None,,918.4795801,918.4795801,920.7125295999995,n,917.4255117000002,917.4255117000002,0.4690023999992263,,6,001,2024-06-07_15h40.50.491,robot_nback_sign,2022.2.5,60.07857075489853,
P,False,1,letter,1,False,False,robot_stimuli\\filler.mp4,6,,,,,,,,,0,59,59,59,,,,,,,,,,,,,920.7125295999995,921.7790646000003,,,,,,,923.8098344999999,923.8098344999999,923.8098344999999,923.8098344999999,923.8098344999999,923.8098344999999,923.8098344999999,923.8098344999999,None,None,None,,,,,,,,,,,920.7125295999995,920.7125295999995,None,,921.7790646000003,921.7790646000003,923.8098344999999,n,920.7125295999995,920.7125295999995,0.6738503000005949,,6,001,2024-06-07_15h40.50.491,robot_nback_sign,2022.2.5,60.07857075489853,
J,False,1,letter,1,False,False,robot_stimuli\\filler.mp4,6,,,,,,,,,0,60,60,60,,,,,,,,,,,,,923.8098344999999,924.8632314999995,,,,,,,926.8871964,926.8871964,926.8871964,926.8871964,926.8871964,926.8871964,926.8871964,926.8871964,None,None,None,,,,,,,,,,,923.8098344999999,923.8098344999999,None,,924.8632314999995,924.8632314999995,926.8871964,n,923.8098344999999,923.8098344999999,0.5815605999996478,,6,001,2024-06-07_15h40.50.491,robot_nback_sign,2022.2.5,60.07857075489853,
F,False,1,letter,1,False,False,robot_stimuli\\filler.mp4,6,,,,,,,,,0,61,61,61,,,,,,,,,,,,,926.8871964,927.9481121999997,,,,,,,929.9791497999995,929.9791497999995,929.9791497999995,929.9791497999995,929.9791497999995,929.9791497999995,929.9791497999995,929.9791497999995,None,None,None,,,,,,,,,,,926.8871964,926.8871964,None,,927.9481121999997,927.9481121999997,929.9791497999995,n,926.8871964,926.8871964,0.39350110000032146,,6,001,2024-06-07_15h40.50.491,robot_nback_sign,2022.2.5,60.07857075489853,
G,False,1,letter,1,False,False,robot_stimuli\\filler.mp4,6,,,,,,,,,0,62,62,62,,,,,,,,,,,,,929.9791497999995,931.0463266999996,,,,,,,933.0852431000003,933.0852431000003,933.0852431000003,933.0852431000003,933.0852431000003,933.0852431000003,933.0852431000003,933.0852431000003,None,None,None,,,,,,,,,,,929.9791497999995,929.9791497999995,None,,931.0463266999996,931.0463266999996,933.0852431000003,n,929.9791497999995,929.9791497999995,0.5039735000000292,,6,001,2024-06-07_15h40.50.491,robot_nback_sign,2022.2.5,60.07857075489853,
T,False,1,letter,1,False,False,robot_stimuli\\filler.mp4,6,,,,,,,,,0,63,63,63,,,,,,,,,,,,,933.0852431000003,934.1589615000003,,,,,,,936.1827496999995,936.1827496999995,936.1827496999995,936.1827496999995,936.1827496999995,936.1827496999995,936.1827496999995,936.1827496999995,None,None,None,,,,,,,,,,,933.0852431000003,933.0852431000003,None,,934.1589615000003,934.1589615000003,936.1827496999995,n,933.0852431000003,933.0852431000003,0.48612599999978556,,6,001,2024-06-07_15h40.50.491,robot_nback_sign,2022.2.5,60.07857075489853,
T,True,1,letter,1,False,False,robot_stimuli\\filler.mp4,6,,,,,,,,,0,64,64,64,,,,,,,,,,,,,936.1827496999995,937.2552870999998,,,,,,,939.2847402999996,939.2847402999996,939.2847402999996,939.2847402999996,939.2847402999996,939.2847402999996,939.2847402999996,939.2847402999996,None,None,None,,,,,,,,,,,936.1827496999995,936.1827496999995,None,,937.2552870999998,937.2552870999998,939.2847402999996,c,936.1827496999995,936.1827496999995,0.3433042000006026,,6,001,2024-06-07_15h40.50.491,robot_nback_sign,2022.2.5,60.07857075489853,
Z,False,1,letter,1,False,False,robot_stimuli\\filler.mp4,6,,,,,,,,,0,65,65,65,,,,,,,,,,,,,939.2847402999996,940.356871,,,,,,,942.3889877000001,942.3889877000001,942.3889877000001,942.3889877000001,942.3889877000001,942.3889877000001,942.3889877000001,942.3889877000001,None,None,None,,,,,,,,,,,939.2847402999996,939.2847402999996,None,,940.356871,940.356871,942.3889877000001,n,939.2847402999996,939.2847402999996,0.4401153999997405,,6,001,2024-06-07_15h40.50.491,robot_nback_sign,2022.2.5,60.07857075489853,
S,False,1,letter,1,False,False,robot_stimuli\\filler.mp4,6,,,,,,,,,0,66,66,66,,,,,,,,,,,,,942.3889877000001,943.4457889999994,,,,,,,945.6769539999996,945.6769539999996,945.6769539999996,945.6769539999996,945.6769539999996,945.6769539999996,945.6769539999996,945.6769539999996,None,None,None,,,,,,,,,,,942.3889877000001,942.3889877000001,None,,943.4457889999994,943.4457889999994,945.6769539999996,n,942.3889877000001,942.3889877000001,0.5685155999999552,,6,001,2024-06-07_15h40.50.491,robot_nback_sign,2022.2.5,60.07857075489853,
D,False,1,letter,1,False,False,robot_stimuli\\filler.mp4,6,,,,,,,,,0,67,67,67,,,,,,,,,,,,,945.6769539999996,,,,,,,,948.7720029000002,948.7720029000002,948.7720029000002,948.7720029000002,948.7720029000002,948.7720029000002,948.7720029000002,948.7720029000002,None,None,None,,,,,,,,,,,945.6769539999996,945.6769539999996,None,,946.7467200000001,946.7467200000001,948.7720029000002,n,945.6769539999996,945.6769539999996,0.4268004999994446,,6,001,2024-06-07_15h40.50.491,robot_nback_sign,2022.2.5,60.07857075489853,
R,False,1,letter,1,False,False,robot_stimuli\\filler.mp4,6,,,,,,,,,0,68,68,68,,,,,,,,,,,,,948.7720029000002,949.8300775999996,,,,,,,952.0629614,952.0629614,952.0629614,952.0629614,952.0629614,952.0629614,952.0629614,952.0629614,None,None,None,,,,,,,,,,,948.7720029000002,948.7720029000002,None,,949.8300775999996,949.8300775999996,952.0629614,n,948.7720029000002,948.7720029000002,0.7362820999996984,,6,001,2024-06-07_15h40.50.491,robot_nback_sign,2022.2.5,60.07857075489853,
R,True,1,letter,1,False,False,robot_stimuli\\filler.mp4,6,,,,,,,,,0,69,69,69,,,,,,,,,,,,,952.0629614,953.1280162000003,,,,,,,955.3608130000002,955.3608130000002,955.3608130000002,955.3608130000002,955.3608130000002,955.3608130000002,955.3608130000002,955.3608130000002,None,None,None,,,,,,,,,,,952.0629614,952.0629614,None,,953.1280162000003,953.1280162000003,955.3608130000002,c,952.0629614,952.0629614,0.6935368999993443,,6,001,2024-06-07_15h40.50.491,robot_nback_sign,2022.2.5,60.07857075489853,
N,False,1,letter,1,False,False,robot_stimuli\\filler.mp4,6,,,,,,,,,0,70,70,70,,,,,,,,,,,,,955.3608130000002,,,,,,,,958.4679307999995,958.4679307999995,958.4679307999995,958.4679307999995,958.4679307999995,958.4679307999995,958.4679307999995,958.4679307999995,None,None,None,,,,,,,,,,,955.3608130000002,955.3608130000002,None,,956.4339313,956.4339313,958.4679307999995,n,955.3608130000002,955.3608130000002,0.8913708999998562,,6,001,2024-06-07_15h40.50.491,robot_nback_sign,2022.2.5,60.07857075489853,
G,False,1,letter,1,False,False,robot_stimuli\\filler.mp4,6,,,,,,,,,0,71,71,71,,,,,,,,,,,,,958.4679307999995,959.5300688999996,,,,,,,961.5565299999998,961.5565299999998,961.5565299999998,961.5565299999998,961.5565299999998,961.5565299999998,961.5565299999998,961.5565299999998,None,None,None,,,,,,,,,,,958.4679307999995,958.4679307999995,None,,959.5300688999996,959.5300688999996,961.5565299999998,n,958.4679307999995,958.4679307999995,0.44466060000013385,,6,001,2024-06-07_15h40.50.491,robot_nback_sign,2022.2.5,60.07857075489853,
G,True,1,letter,1,False,False,robot_stimuli\\filler.mp4,6,,,,,,,,,0,72,72,72,,,,,,,,,,,,,961.5565299999998,962.6187703999994,,,,,,,964.6482853999996,964.6482853999996,964.6482853999996,964.6482853999996,964.6482853999996,964.6482853999996,964.6482853999996,964.6482853999996,None,None,None,,,,,,,,,,,961.5565299999998,961.5565299999998,None,,962.6187703999994,962.6187703999994,964.6482853999996,c,961.5565299999998,961.5565299999998,0.4353098999999929,,6,001,2024-06-07_15h40.50.491,robot_nback_sign,2022.2.5,60.07857075489853,
G,True,1,letter,1,False,False,robot_stimuli\\filler.mp4,6,,,,,,,,,0,73,73,73,,,,,,,,,,,,,964.6482853999996,965.7114486999999,,,,,,,967.9440513999998,967.9440513999998,967.9440513999998,967.9440513999998,967.9440513999998,967.9440513999998,967.9440513999998,967.9440513999998,None,None,None,,,,,,,,,,,964.6482853999996,964.6482853999996,None,,965.7114486999999,965.7114486999999,967.9440513999998,c,964.6482853999996,964.6482853999996,0.4221953999995094,,6,001,2024-06-07_15h40.50.491,robot_nback_sign,2022.2.5,60.07857075489853,
V,False,1,letter,1,False,False,robot_stimuli\\filler.mp4,6,,,,,,,,,0,74,74,74,,,,,,,,,,,,,967.9440513999998,,,,,,,,971.2374124999997,971.2374124999997,971.2374124999997,971.2374124999997,971.2374124999997,971.2374124999997,971.2374124999997,971.2374124999997,None,None,None,,,,,,,,,,,967.9440513999998,967.9440513999998,None,,969.0116219000001,969.0116219000001,971.2374124999997,n,967.9440513999998,967.9440513999998,0.4411798999999519,,6,001,2024-06-07_15h40.50.491,robot_nback_sign,2022.2.5,60.07857075489853,
S,False,1,letter,1,False,False,robot_stimuli\\filler.mp4,6,,,,,,,,,0,75,75,75,,,,,,,,,,,,,971.2374124999997,972.3030941999996,,,,,,,974.3358986000003,974.3358986000003,974.3358986000003,974.3358986000003,974.3358986000003,974.3358986000003,974.3358986000003,974.3358986000003,None,None,None,,,,,,,,,,,971.2374124999997,971.2374124999997,None,,972.3030941999996,972.3030941999996,974.3358986000003,n,971.2374124999997,971.2374124999997,0.4550720999995974,,6,001,2024-06-07_15h40.50.491,robot_nback_sign,2022.2.5,60.07857075489853,
C,False,1,letter,1,False,False,robot_stimuli\\filler.mp4,6,,,,,,,,,0,76,76,76,,,,,,,,,,,,,974.3358986000003,975.3986421,,,,,,,977.6226337999997,977.6226337999997,977.6226337999997,977.6226337999997,977.6226337999997,977.6226337999997,977.6226337999997,977.6226337999997,None,None,None,,,,,,,,,,,974.3358986000003,974.3358986000003,None,,975.3986421,975.3986421,977.6226337999997,n,974.3358986000003,974.3358986000003,0.7269867999993949,,6,001,2024-06-07_15h40.50.491,robot_nback_sign,2022.2.5,60.07857075489853,
M,False,1,letter,1,False,False,robot_stimuli\\filler.mp4,6,,,,,,,,,0,77,77,77,,,,,,,,,,,,,977.6226337999997,978.6818956999996,,,,,,,980.7102788000002,980.7102788000002,980.7102788000002,980.7102788000002,980.7102788000002,980.7102788000002,980.7102788000002,980.7102788000002,None,None,None,,,,,,,,,,,977.6226337999997,977.6226337999997,None,,978.6818956999996,978.6818956999996,980.7102788000002,n,977.6226337999997,977.6226337999997,0.41882689999965805,,6,001,2024-06-07_15h40.50.491,robot_nback_sign,2022.2.5,60.07857075489853,
Z,False,1,letter,1,False,False,robot_stimuli\\filler.mp4,6,,,,,,,,,0,78,78,78,,,,,,,,,,,,,980.7102788000002,,,,,,,,983.8151765000002,983.8151765000002,983.8151765000002,983.8151765000002,983.8151765000002,983.8151765000002,983.8151765000002,983.8151765000002,None,None,None,,,,,,,,,,,980.7102788000002,980.7102788000002,None,,981.7801025999997,981.7801025999997,983.8151765000002,n,980.7102788000002,980.7102788000002,0.4021422999994684,,6,001,2024-06-07_15h40.50.491,robot_nback_sign,2022.2.5,60.07857075489853,
J,False,1,letter,1,False,False,robot_stimuli\\filler.mp4,6,,,,,,,,,0,79,79,79,,,,,,,,,,,,,983.8151765000002,984.8791382999998,,,,,,,987.1114074999996,987.1114074999996,987.1114074999996,987.1114074999996,987.1114074999996,987.1114074999996,987.1114074999996,987.1114074999996,None,None,None,,,,,,,,,,,983.8151765000002,983.8151765000002,None,,984.8791382999998,984.8791382999998,987.1114074999996,n,983.8151765000002,983.8151765000002,0.3517567999997482,,6,001,2024-06-07_15h40.50.491,robot_nback_sign,2022.2.5,60.07857075489853,
J,True,1,letter,1,False,False,robot_stimuli\\filler.mp4,6,,,,,,,,,0,80,80,80,,,,,,,,,,,,,987.1114074999996,,,,,,,,990.2055715999995,990.2055715999995,990.2055715999995,990.2055715999995,990.2055715999995,990.2055715999995,990.2055715999995,990.2055715999995,None,None,None,,,,,,,,,,,987.1114074999996,987.1114074999996,None,,988.1769850000001,988.1769850000001,990.2055715999995,c,987.1114074999996,987.1114074999996,0.4686870999994426,,6,001,2024-06-07_15h40.50.491,robot_nback_sign,2022.2.5,60.07857075489853,
J,True,1,letter,1,False,False,robot_stimuli\\filler.mp4,6,,,,,,,,,0,81,81,81,,,,,,,,,,,,,990.2055715999995,991.2620066,,,,,,,993.4853161999999,993.4853161999999,993.4853161999999,993.4853161999999,993.4853161999999,993.4853161999999,993.4853161999999,993.4853161999999,None,None,None,,,,,,,,,,,990.2055715999995,990.2055715999995,None,,991.2620066,991.2620066,993.4853161999999,c,990.2055715999995,990.2055715999995,0.3764971999999034,,6,001,2024-06-07_15h40.50.491,robot_nback_sign,2022.2.5,60.07857075489853,
M,False,1,letter,1,False,False,robot_stimuli\\filler.mp4,6,,,,,,,,,0,82,82,82,,,,,,,,,,,,,993.4853161999999,994.5460894999997,,,,,,,996.7787665999995,996.7787665999995,996.7787665999995,996.7787665999995,996.7787665999995,996.7787665999995,996.7787665999995,996.7787665999995,None,None,None,,,,,,,,,,,993.4853161999999,993.4853161999999,None,,994.5460894999997,994.5460894999997,996.7787665999995,n,993.4853161999999,993.4853161999999,0.3788065999997343,,6,001,2024-06-07_15h40.50.491,robot_nback_sign,2022.2.5,60.07857075489853,
B,False,1,letter,1,False,False,robot_stimuli\\filler.mp4,6,,,,,,,,,0,83,83,83,,,,,,,,,,,,,996.7787665999995,,,,,,,,1000.0710738999996,1000.0710738999996,1000.0710738999996,1000.0710738999996,1000.0710738999996,1000.0710738999996,1000.0710738999996,1000.0710738999996,None,None,None,,,,,,,,,,,996.7787665999995,996.7787665999995,None,,997.8452017,997.8452017,1000.0710738999996,n,996.7787665999995,996.7787665999995,0.43235749999985273,,6,001,2024-06-07_15h40.50.491,robot_nback_sign,2022.2.5,60.07857075489853,
B,True,1,letter,1,False,False,robot_stimuli\\filler.mp4,6,,,,,,,,,0,84,84,84,,,,,,,,,,,,,1000.0710738999996,1001.1270890999995,,,,,,,1003.3541113000001,1003.3541113000001,1003.3541113000001,1003.3541113000001,1003.3541113000001,1003.3541113000001,1003.3541113000001,1003.3541113000001,None,None,None,,,,,,,,,,,1000.0710738999996,1000.0710738999996,None,,1001.1270890999995,1001.1270890999995,1003.3541113000001,c,1000.0710738999996,1000.0710738999996,0.44742870000027324,,6,001,2024-06-07_15h40.50.491,robot_nback_sign,2022.2.5,60.07857075489853,
C,False,1,letter,1,False,False,robot_stimuli\\filler.mp4,6,,,,,,,,,0,85,85,85,,,,,,,,,,,,,1003.3541113000001,1004.4142740999996,,,,,,,1006.4436660000001,1006.4436660000001,1006.4436660000001,1006.4436660000001,1006.4436660000001,1006.4436660000001,1006.4436660000001,1006.4436660000001,None,None,None,,,,,,,,,,,1003.3541113000001,1003.3541113000001,None,,1004.4142740999996,1004.4142740999996,1006.4436660000001,n,1003.3541113000001,1003.3541113000001,0.3358957000000373,,6,001,2024-06-07_15h40.50.491,robot_nback_sign,2022.2.5,60.07857075489853,
N,False,1,letter,1,False,False,robot_stimuli\\filler.mp4,6,,,,,,,,,0,86,86,86,,,,,,,,,,,,,1006.4436660000001,1007.4962037999994,,,,,,,1009.7208461999999,1009.7208461999999,1009.7208461999999,1009.7208461999999,1009.7208461999999,1009.7208461999999,1009.7208461999999,1009.7208461999999,None,None,None,,,,,,,,,,,1006.4436660000001,1006.4436660000001,None,,1007.4962037999994,1007.4962037999994,1009.7208461999999,n,1006.4436660000001,1006.4436660000001,0.4620572000003449,,6,001,2024-06-07_15h40.50.491,robot_nback_sign,2022.2.5,60.07857075489853,
W,False,1,letter,1,False,False,robot_stimuli\\filler.mp4,6,,,,,,,,,0,87,87,87,,,,,,,,,,,,,1009.7208461999999,1010.7794472999994,,,,,,,1013.0067098999998,1013.0067098999998,1013.0067098999998,1013.0067098999998,1013.0067098999998,1013.0067098999998,1013.0067098999998,1013.0067098999998,None,None,None,,,,,,,,,,,1009.7208461999999,1009.7208461999999,None,,1010.7794472999994,1010.7794472999994,1013.0067098999998,n,1009.7208461999999,1009.7208461999999,0.6585089999998672,,6,001,2024-06-07_15h40.50.491,robot_nback_sign,2022.2.5,60.07857075489853,
Z,False,1,letter,1,False,False,robot_stimuli\\filler.mp4,6,,,,,,,,,0,88,88,88,,,,,,,,,,,,,1013.0067098999998,1014.0622865999994,,,,,,,1016.0990473000002,1016.0990473000002,1016.0990473000002,1016.0990473000002,1016.0990473000002,1016.0990473000002,1016.0990473000002,1016.0990473000002,None,None,None,,,,,,,,,,,1013.0067098999998,1013.0067098999998,None,,1014.0622865999994,1014.0622865999994,1016.0990473000002,n,1013.0067098999998,1013.0067098999998,0.3436888000005638,,6,001,2024-06-07_15h40.50.491,robot_nback_sign,2022.2.5,60.07857075489853,
P,False,1,letter,1,False,False,robot_stimuli\\filler.mp4,6,,,,,,,,,0,89,89,89,,,,,,,,,,,,,1016.0990473000002,1017.1649683999995,,,,,,,1019.1973445000003,1019.1973445000003,1019.1973445000003,1019.1973445000003,1019.1973445000003,1019.1973445000003,1019.1973445000003,1019.1973445000003,None,None,None,,,,,,,,,,,1016.0990473000002,1016.0990473000002,None,,1017.1649683999995,1017.1649683999995,1019.1973445000003,n,1016.0990473000002,1016.0990473000002,0.34437849999994796,,6,001,2024-06-07_15h40.50.491,robot_nback_sign,2022.2.5,60.07857075489853,
R,False,1,letter,1,False,False,robot_stimuli\\filler.mp4,6,,,,,,,,,0,90,90,90,,,,,,,,,,,,,1019.1973445000003,1020.2625011,,,,,,,1022.4878029000001,1022.4878029000001,1022.4878029000001,1022.4878029000001,1022.4878029000001,1022.4878029000001,1022.4878029000001,1022.4878029000001,None,None,None,,,,,,,,,,,1019.1973445000003,1019.1973445000003,None,,1020.2625011,1020.2625011,1022.4878029000001,n,1019.1973445000003,1019.1973445000003,0.43969339999966905,,6,001,2024-06-07_15h40.50.491,robot_nback_sign,2022.2.5,60.07857075489853,
D,False,1,letter,1,False,False,robot_stimuli\\filler.mp4,6,,,,,,,,,0,91,91,91,,,,,,,,,,,,,1022.4878029000001,1023.5469781000002,,,,,,,1025.5785526,1025.5785526,1025.5785526,1025.5785526,1025.5785526,1025.5785526,1025.5785526,1025.5785526,None,None,None,,,,,,,,,,,1022.4878029000001,1022.4878029000001,None,,1023.5469781000002,1023.5469781000002,1025.5785526,n,1022.4878029000001,1022.4878029000001,0.39387100000021746,,6,001,2024-06-07_15h40.50.491,robot_nback_sign,2022.2.5,60.07857075489853,
K,False,1,letter,1,False,False,robot_stimuli\\filler.mp4,6,,,,,,,,,0,92,92,92,,,,,,,,,,,,,1025.5785526,,,,,,,,1028.8725101,1028.8725101,1028.8725101,1028.8725101,1028.8725101,1028.8725101,1028.8725101,1028.8725101,None,None,None,,,,,,,,,,,1025.5785526,1025.5785526,None,,1026.6458873000001,1026.6458873000001,1028.8725101,n,1025.5785526,1025.5785526,0.41569090000029973,,6,001,2024-06-07_15h40.50.491,robot_nback_sign,2022.2.5,60.07857075489853,
D,False,1,letter,1,False,False,robot_stimuli\\filler.mp4,6,,,,,,,,,0,93,93,93,,,,,,,,,,,,,1028.8725101,1029.9310975999997,,,,,,,1031.9583402999997,1031.9583402999997,1031.9583402999997,1031.9583402999997,1031.9583402999997,1031.9583402999997,1031.9583402999997,1031.9583402999997,None,None,None,,,,,,,,,,,1028.8725101,1028.8725101,None,,1029.9310975999997,1029.9310975999997,1031.9583402999997,n,1028.8725101,1028.8725101,0.8190234999992754,,6,001,2024-06-07_15h40.50.491,robot_nback_sign,2022.2.5,60.07857075489853,
N,False,1,letter,1,False,False,robot_stimuli\\filler.mp4,6,,,,,,,,,0,94,94,94,,,,,,,,,,,,,1031.9583402999997,1033.0121405,,,,,,,1035.2450200000003,1035.2450200000003,1035.2450200000003,1035.2450200000003,1035.2450200000003,1035.2450200000003,1035.2450200000003,1035.2450200000003,None,None,None,,,,,,,,,,,1031.9583402999997,1031.9583402999997,None,,1033.0121405,1033.0121405,1035.2450200000003,n,1031.9583402999997,1031.9583402999997,0.6982936000003974,,6,001,2024-06-07_15h40.50.491,robot_nback_sign,2022.2.5,60.07857075489853,
N,True,1,letter,1,False,False,robot_stimuli\\filler.mp4,6,,,,,,,,,0,95,95,95,,,,,,,,,,,,,1035.2450200000003,,,,,,,,1038.3429926999997,1038.3429926999997,1038.3429926999997,1038.3429926999997,1038.3429926999997,1038.3429926999997,1038.3429926999997,1038.3429926999997,None,None,None,,,,,,,,,,,1035.2450200000003,1035.2450200000003,None,,1036.3113844,1036.3113844,1038.3429926999997,c,1035.2450200000003,1035.2450200000003,0.5590179000000717,,6,001,2024-06-07_15h40.50.491,robot_nback_sign,2022.2.5,60.07857075489853,
K,False,1,letter,1,False,False,robot_stimuli\\filler.mp4,6,,,,,,,,,0,96,96,96,,,,,,,,,,,,,1038.3429926999997,1039.4001971999996,,,,,,,1041.6280027000003,1041.6280027000003,1041.6280027000003,1041.6280027000003,1041.6280027000003,1041.6280027000003,1041.6280027000003,1041.6280027000003,None,None,None,,,,,,,,,,,1038.3429926999997,1038.3429926999997,None,,1039.4001971999996,1039.4001971999996,1041.6280027000003,n,1038.3429926999997,1038.3429926999997,0.3499158999993597,,6,001,2024-06-07_15h40.50.491,robot_nback_sign,2022.2.5,60.07857075489853,
R,False,1,letter,1,False,False,robot_stimuli\\filler.mp4,6,,,,,,,,,0,97,97,97,,,,,,,,,,,,,1041.6280027000003,,,,,,,,1044.9214247999998,1044.9214247999998,1044.9214247999998,1044.9214247999998,1044.9214247999998,1044.9214247999998,1044.9214247999998,1044.9214247999998,None,None,None,,,,,,,,,,,1041.6280027000003,1041.6280027000003,None,,1042.6959670999995,1042.6959670999995,1044.9214247999998,n,1041.6280027000003,1041.6280027000003,0.4143745999999737,,6,001,2024-06-07_15h40.50.491,robot_nback_sign,2022.2.5,60.07857075489853,
L,False,1,letter,1,False,False,robot_stimuli\\filler.mp4,6,,,,,,,,,0,98,98,98,,,,,,,,,,,,,1044.9214247999998,1045.9801379,,,,,,,1048.2115934000003,1048.2115934000003,1048.2115934000003,1048.2115934000003,1048.2115934000003,1048.2115934000003,1048.2115934000003,1048.2115934000003,None,None,None,,,,,,,,,,,1044.9214247999998,1044.9214247999998,None,,1045.9801379,1045.9801379,1048.2115934000003,n,1044.9214247999998,1044.9214247999998,0.7615077999998903,,6,001,2024-06-07_15h40.50.491,robot_nback_sign,2022.2.5,60.07857075489853,
D,False,1,letter,1,False,True,robot_stimuli\\filler.mp4,6,,,,,,,,,0,99,99,99,,,,,,,,,,,,,1048.2115934000003,,,,,,,,1051.3449235999997,1064.9727293999995,1051.3449235999997,1064.9727293999995,1051.3449235999997,1064.9727293999995,1051.3449235999997,1064.9727293999995,20.123456790123452,4.744585799999186,space,,,,13.564799099999618,,,,,,,1048.2115934000003,1048.2115934000003,None,,1049.2886201000001,1049.2886201000001,1051.3449235999997,n,1048.2115934000003,1048.2115934000003,0.6128404999999475,,6,001,2024-06-07_15h40.50.491,robot_nback_sign,2022.2.5,60.07857075489853,
Q,False,3,letter,1,True,False,robot_stimuli\\filler.mp4,6,,,,,,,,,0,100,100,100,,,,,,,,,,,,,1084.9428821000001,1086.0038478999995,,,,,,,1088.0267515999994,1088.0267515999994,1088.0267515999994,1088.0267515999994,1088.0267515999994,1088.0267515999994,1088.0267515999994,1088.0267515999994,None,None,None,,,,,,,,,,,1064.9727293999995,1064.9727293999995,space,19.945743599999332,1086.0038478999995,1086.0038478999995,1088.0267515999994,n,,,1.1783108999998149,,6,001,2024-06-07_15h40.50.491,robot_nback_sign,2022.2.5,60.07857075489853,
K,False,3,letter,1,False,False,robot_stimuli\\filler.mp4,6,,,,,,,,,0,101,101,101,,,,,,,,,,,,,1088.0267515999994,1089.0790545999998,,,,,,,1091.3119213,1091.3119213,1091.3119213,1091.3119213,1091.3119213,1091.3119213,1091.3119213,1091.3119213,None,None,None,,,,,,,,,,,1088.0267515999994,1088.0267515999994,None,,1089.0790545999998,1089.0790545999998,1091.3119213,n,1088.0267515999994,1088.0267515999994,0.6558303000001615,,6,001,2024-06-07_15h40.50.491,robot_nback_sign,2022.2.5,60.07857075489853,
N,False,3,letter,1,False,False,robot_stimuli\\filler.mp4,6,,,,,,,,,0,102,102,102,,,,,,,,,,,,,1091.3119213,,,,,,,,1094.4098734999998,1094.4098734999998,1094.4098734999998,1094.4098734999998,1094.4098734999998,1094.4098734999998,1094.4098734999998,1094.4098734999998,None,None,None,,,,,,,,,,,1091.3119213,1091.3119213,None,,1092.3807601999997,1092.3807601999997,1094.4098734999998,n,1091.3119213,1091.3119213,1.5292398999999932,,6,001,2024-06-07_15h40.50.491,robot_nback_sign,2022.2.5,60.07857075489853,
P,False,3,letter,1,False,False,robot_stimuli\\filler.mp4,6,,,,,,,,,0,103,103,103,,,,,,,,,,,,,1094.4098734999998,1095.4645460000002,,,,,,,1097.6886931,1097.6886931,1097.6886931,1097.6886931,1097.6886931,1097.6886931,1097.6886931,1097.6886931,None,None,None,,,,,,,,,,,1094.4098734999998,1094.4098734999998,None,,1095.4645460000002,1095.4645460000002,1097.6886931,n,1094.4098734999998,1094.4098734999998,0.4767763999998351,,6,001,2024-06-07_15h40.50.491,robot_nback_sign,2022.2.5,60.07857075489853,
Z,False,3,letter,1,False,False,robot_stimuli\\filler.mp4,6,,,,,,,,,0,104,104,104,,,,,,,,,,,,,1097.6886931,1098.7458623000002,,,,,,,1100.7799127999997,1100.7799127999997,1100.7799127999997,1100.7799127999997,1100.7799127999997,1100.7799127999997,1100.7799127999997,1100.7799127999997,None,None,None,,,,,,,,,,,1097.6886931,1097.6886931,None,,1098.7458623000002,1098.7458623000002,1100.7799127999997,n,1097.6886931,1097.6886931,0.5718758999992133,,6,001,2024-06-07_15h40.50.491,robot_nback_sign,2022.2.5,60.07857075489853,
K,False,3,letter,1,False,False,robot_stimuli\\filler.mp4,6,,,,,,,,,0,105,105,105,,,,,,,,,,,,,1100.7799127999997,1101.8468554,,,,,,,1104.0737137999995,1104.0737137999995,1104.0737137999995,1104.0737137999995,1104.0737137999995,1104.0737137999995,1104.0737137999995,1104.0737137999995,None,None,None,,,,,,,,,,,1100.7799127999997,1100.7799127999997,None,,1101.8468554,1101.8468554,1104.0737137999995,n,1100.7799127999997,1100.7799127999997,1.4239890999997442,,6,001,2024-06-07_15h40.50.491,robot_nback_sign,2022.2.5,60.07857075489853,
P,True,3,letter,1,False,False,robot_stimuli\\filler.mp4,6,,,,,,,,,0,106,106,106,,,,,,,,,,,,,1104.0737137999995,1105.1315706999994,,,,,,,1107.1619242999996,1107.1619242999996,1107.1619242999996,1107.1619242999996,1107.1619242999996,1107.1619242999996,1107.1619242999996,1107.1619242999996,None,None,None,,,,,,,,,,,1104.0737137999995,1104.0737137999995,None,,1105.1315706999994,1105.1315706999994,1107.1619242999996,c,1104.0737137999995,1104.0737137999995,0.682460799999717,,6,001,2024-06-07_15h40.50.491,robot_nback_sign,2022.2.5,60.07857075489853,
N,False,3,letter,1,False,False,robot_stimuli\\filler.mp4,6,,,,,,,,,0,107,107,107,,,,,,,,,,,,,1107.1619242999996,,,,,,,,1110.4625961000002,1110.4625961000002,1110.4625961000002,1110.4625961000002,1110.4625961000002,1110.4625961000002,1110.4625961000002,1110.4625961000002,None,None,None,,,,,,,,,,,1107.1619242999996,1107.1619242999996,None,,1108.2303698999995,1108.2303698999995,1110.4625961000002,n,1107.1619242999996,1107.1619242999996,0.9440658999992593,,6,001,2024-06-07_15h40.50.491,robot_nback_sign,2022.2.5,60.07857075489853,
N,False,3,letter,1,False,False,robot_stimuli\\filler.mp4,6,,,,,,,,,0,108,108,108,,,,,,,,,,,,,1110.4625961000002,,,,,,,,1113.5593297999994,1113.5593297999994,1113.5593297999994,1113.5593297999994,1113.5593297999994,1113.5593297999994,1113.5593297999994,1113.5593297999994,None,None,None,,,,,,,,,,,1110.4625961000002,1110.4625961000002,None,,1111.5268994999997,1111.5268994999997,1113.5593297999994,n,1110.4625961000002,1110.4625961000002,1.439857899999879,,6,001,2024-06-07_15h40.50.491,robot_nback_sign,2022.2.5,60.07857075489853,
X,False,3,letter,1,False,False,robot_stimuli\\filler.mp4,6,,,,,,,,,0,109,109,109,,,,,,,,,,,,,1113.5593297999994,1114.6134321,,,,,,,1116.6472088,1116.6472088,1116.6472088,1116.6472088,1116.6472088,1116.6472088,1116.6472088,1116.6472088,None,None,None,,,,,,,,,,,1113.5593297999994,1113.5593297999994,None,,1114.6134321,1114.6134321,1116.6472088,n,1113.5593297999994,1113.5593297999994,0.9762634999997317,,6,001,2024-06-07_15h40.50.491,robot_nback_sign,2022.2.5,60.07857075489853,
Z,False,3,letter,1,False,False,robot_stimuli\\filler.mp4,6,,,,,,,,,0,110,110,110,,,,,,,,,,,,,1116.6472088,1117.7124990000002,,,,,,,1119.9456681000001,1119.9456681000001,1119.9456681000001,1119.9456681000001,1119.9456681000001,1119.9456681000001,1119.9456681000001,1119.9456681000001,None,None,None,,,,,,,,,,,1116.6472088,1116.6472088,None,,1117.7124990000002,1117.7124990000002,1119.9456681000001,n,1116.6472088,1116.6472088,0.5493552999996609,,6,001,2024-06-07_15h40.50.491,robot_nback_sign,2022.2.5,60.07857075489853,
M,False,3,letter,1,False,False,robot_stimuli\\filler.mp4,6,,,,,,,,,0,111,111,111,,,,,,,,,,,,,1119.9456681000001,,,,,,,,1123.0515039000002,1123.0515039000002,1123.0515039000002,1123.0515039000002,1123.0515039000002,1123.0515039000002,1123.0515039000002,1123.0515039000002,None,None,None,,,,,,,,,,,1119.9456681000001,1119.9456681000001,None,,1121.0271332000002,1121.0271332000002,1123.0515039000002,n,1119.9456681000001,1119.9456681000001,0.6824048999997103,,6,001,2024-06-07_15h40.50.491,robot_nback_sign,2022.2.5,60.07857075489853,
C,False,3,letter,1,False,False,robot_stimuli\\filler.mp4,6,,,,,,,,,0,112,112,112,,,,,,,,,,,,,1123.0515039000002,1124.1240980000002,,,,,,,1126.1545301999995,1126.1545301999995,1126.1545301999995,1126.1545301999995,1126.1545301999995,1126.1545301999995,1126.1545301999995,1126.1545301999995,None,None,None,,,,,,,,,,,1123.0515039000002,1123.0515039000002,None,,1124.1240980000002,1124.1240980000002,1126.1545301999995,n,1123.0515039000002,1123.0515039000002,0.9704376999998203,,6,001,2024-06-07_15h40.50.491,robot_nback_sign,2022.2.5,60.07857075489853,
Q,False,3,letter,1,False,False,robot_stimuli\\filler.mp4,6,,,,,,,,,0,113,113,113,,,,,,,,,,,,,1126.1545301999995,1127.2142360999997,,,,,,,1129.2402223999998,1129.2402223999998,1129.2402223999998,1129.2402223999998,1129.2402223999998,1129.2402223999998,1129.2402223999998,1129.2402223999998,None,None,None,,,,,,,,,,,1126.1545301999995,1126.1545301999995,None,,1127.2142360999997,1127.2142360999997,1129.2402223999998,n,1126.1545301999995,1126.1545301999995,1.4795530999999755,,6,001,2024-06-07_15h40.50.491,robot_nback_sign,2022.2.5,60.07857075489853,
N,False,3,letter,1,False,False,robot_stimuli\\filler.mp4,6,,,,,,,,,0,114,114,114,,,,,,,,,,,,,1129.2402223999998,1130.2968979999996,,,,,,,1132.5321681999994,1132.5321681999994,1132.5321681999994,1132.5321681999994,1132.5321681999994,1132.5321681999994,1132.5321681999994,1132.5321681999994,None,None,None,,,,,,,,,,,1129.2402223999998,1129.2402223999998,None,,1130.2968979999996,1130.2968979999996,1132.5321681999994,c,1129.2402223999998,1129.2402223999998,0.8280130999992252,,6,001,2024-06-07_15h40.50.491,robot_nback_sign,2022.2.5,60.07857075489853,
C,True,3,letter,1,False,False,robot_stimuli\\filler.mp4,6,,,,,,,,,0,115,115,115,,,,,,,,,,,,,1132.5321681999994,1133.6094971000002,,,,,,,1135.6393830999996,1135.6393830999996,1135.6393830999996,1135.6393830999996,1135.6393830999996,1135.6393830999996,1135.6393830999996,1135.6393830999996,None,None,None,,,,,,,,,,,1132.5321681999994,1132.5321681999994,None,,1133.6094971000002,1133.6094971000002,1135.6393830999996,n,1132.5321681999994,1132.5321681999994,1.396199599999818,,6,001,2024-06-07_15h40.50.491,robot_nback_sign,2022.2.5,60.07857075489853,
C,False,3,letter,1,False,False,robot_stimuli\\filler.mp4,6,,,,,,,,,0,116,116,116,,,,,,,,,,,,,1135.6393830999996,1136.6945751000003,,,,,,,1138.9294873999997,1138.9294873999997,1138.9294873999997,1138.9294873999997,1138.9294873999997,1138.9294873999997,1138.9294873999997,1138.9294873999997,None,None,None,,,,,,,,,,,1135.6393830999996,1135.6393830999996,None,,1136.6945751000003,1136.6945751000003,1138.9294873999997,n,1135.6393830999996,1135.6393830999996,1.3263207999998485,,6,001,2024-06-07_15h40.50.491,robot_nback_sign,2022.2.5,60.07857075489853,
S,False,3,letter,1,False,False,robot_stimuli\\filler.mp4,6,,,,,,,,,0,117,117,117,,,,,,,,,,,,,1138.9294873999997,,,,,,,,1142.2287307999995,1142.2287307999995,1142.2287307999995,1142.2287307999995,1142.2287307999995,1142.2287307999995,1142.2287307999995,1142.2287307999995,None,None,None,,,,,,,,,,,1138.9294873999997,1138.9294873999997,None,,1139.9955735000003,1139.9955735000003,1142.2287307999995,n,1138.9294873999997,1138.9294873999997,1.0985325000001467,,6,001,2024-06-07_15h40.50.491,robot_nback_sign,2022.2.5,60.07857075489853,
C,True,3,letter,1,False,False,robot_stimuli\\filler.mp4,6,,,,,,,,,0,118,118,118,,,,,,,,,,,,,1142.2287307999995,,,,,,,,1145.5210909999996,1145.5210909999996,1145.5210909999996,1145.5210909999996,1145.5210909999996,1145.5210909999996,1145.5210909999996,1145.5210909999996,None,None,None,,,,,,,,,,,1142.2287307999995,1142.2287307999995,None,,1143.2956844999999,1143.2956844999999,1145.5210909999996,c,1142.2287307999995,1142.2287307999995,0.39065039999968576,,6,001,2024-06-07_15h40.50.491,robot_nback_sign,2022.2.5,60.07857075489853,
S,False,3,letter,1,False,False,robot_stimuli\\filler.mp4,6,,,,,,,,,0,119,119,119,,,,,,,,,,,,,1145.5210909999996,1146.5820697999998,,,,,,,1148.6124121000003,1148.6124121000003,1148.6124121000003,1148.6124121000003,1148.6124121000003,1148.6124121000003,1148.6124121000003,1148.6124121000003,None,None,None,,,,,,,,,,,1145.5210909999996,1145.5210909999996,None,,1146.5820697999998,1146.5820697999998,1148.6124121000003,n,1145.5210909999996,1145.5210909999996,0.7126870000001873,,6,001,2024-06-07_15h40.50.491,robot_nback_sign,2022.2.5,60.07857075489853,
X,False,3,letter,1,False,False,robot_stimuli\\filler.mp4,6,,,,,,,,,0,120,120,120,,,,,,,,,,,,,1148.6124121000003,,,,,,,,1151.9132601000001,1151.9132601000001,1151.9132601000001,1151.9132601000001,1151.9132601000001,1151.9132601000001,1151.9132601000001,1151.9132601000001,None,None,None,,,,,,,,,,,1148.6124121000003,1148.6124121000003,None,,1149.6787862,1149.6787862,1151.9132601000001,n,1148.6124121000003,1148.6124121000003,0.9358480999999301,,6,001,2024-06-07_15h40.50.491,robot_nback_sign,2022.2.5,60.07857075489853,
T,False,3,letter,1,False,False,robot_stimuli\\filler.mp4,6,,,,,,,,,0,121,121,121,,,,,,,,,,,,,1151.9132601000001,1152.9812352999998,,,,,,,1155.2157258999996,1155.2157258999996,1155.2157258999996,1155.2157258999996,1155.2157258999996,1155.2157258999996,1155.2157258999996,1155.2157258999996,None,None,None,,,,,,,,,,,1151.9132601000001,1151.9132601000001,None,,1152.9812352999998,1152.9812352999998,1155.2157258999996,n,1151.9132601000001,1151.9132601000001,0.9365033999993102,,6,001,2024-06-07_15h40.50.491,robot_nback_sign,2022.2.5,60.07857075489853,
T,False,3,letter,1,False,False,robot_stimuli\\filler.mp4,6,,,,,,,,,0,122,122,122,,,,,,,,,,,,,1155.2157258999996,1156.2773797999998,,,,,,,1158.5122405000002,1158.5122405000002,1158.5122405000002,1158.5122405000002,1158.5122405000002,1158.5122405000002,1158.5122405000002,1158.5122405000002,None,None,None,,,,,,,,,,,1155.2157258999996,1155.2157258999996,None,,1156.2773797999998,1156.2773797999998,1158.5122405000002,n,1155.2157258999996,1155.2157258999996,1.4007644000002983,,6,001,2024-06-07_15h40.50.491,robot_nback_sign,2022.2.5,60.07857075489853,
R,False,3,letter,1,False,False,robot_stimuli\\filler.mp4,6,,,,,,,,,0,123,123,123,,,,,,,,,,,,,1158.5122405000002,,,,,,,,1161.8130507999995,1161.8130507999995,1161.8130507999995,1161.8130507999995,1161.8130507999995,1161.8130507999995,1161.8130507999995,1161.8130507999995,None,None,None,,,,,,,,,,,1158.5122405000002,1158.5122405000002,None,,1159.5797422999995,1159.5797422999995,1161.8130507999995,None,1158.5122405000002,1158.5122405000002,,,6,001,2024-06-07_15h40.50.491,robot_nback_sign,2022.2.5,60.07857075489853,
D,False,3,letter,1,False,False,robot_stimuli\\filler.mp4,6,,,,,,,,,0,124,124,124,,,,,,,,,,,,,1161.8130507999995,,,,,,,,1164.9151536,1164.9151536,1164.9151536,1164.9151536,1164.9151536,1164.9151536,1164.9151536,1164.9151536,None,None,None,,,,,,,,,,,1161.8130507999995,1161.8130507999995,None,,1162.8793845999999,1162.8793845999999,1164.9151536,None,1161.8130507999995,1161.8130507999995,,,6,001,2024-06-07_15h40.50.491,robot_nback_sign,2022.2.5,60.07857075489853,
R,False,3,letter,1,False,False,robot_stimuli\\filler.mp4,6,,,,,,,,,0,125,125,125,,,,,,,,,,,,,1164.9151536,1165.9771713999999,,,,,,,1168.0095431,1168.0095431,1168.0095431,1168.0095431,1168.0095431,1168.0095431,1168.0095431,1168.0095431,None,None,None,,,,,,,,,,,1164.9151536,1164.9151536,None,,1165.9771713999999,1165.9771713999999,1168.0095431,c,1164.9151536,1164.9151536,1.4437176999999792,,6,001,2024-06-07_15h40.50.491,robot_nback_sign,2022.2.5,60.07857075489853,
C,False,3,letter,1,False,False,robot_stimuli\\filler.mp4,6,,,,,,,,,0,126,126,126,,,,,,,,,,,,,1168.0095431,1169.0641133999998,,,,,,,1171.0876794999995,1171.0876794999995,1171.0876794999995,1171.0876794999995,1171.0876794999995,1171.0876794999995,1171.0876794999995,1171.0876794999995,None,None,None,,,,,,,,,,,1168.0095431,1168.0095431,None,,1169.0641133999998,1169.0641133999998,1171.0876794999995,n,1168.0095431,1168.0095431,1.3500649999996313,,6,001,2024-06-07_15h40.50.491,robot_nback_sign,2022.2.5,60.07857075489853,
N,False,3,letter,1,False,False,robot_stimuli\\filler.mp4,6,,,,,,,,,0,127,127,127,,,,,,,,,,,,,1171.0876794999995,1172.1479178999998,,,,,,,1174.1824797,1174.1824797,1174.1824797,1174.1824797,1174.1824797,1174.1824797,1174.1824797,1174.1824797,None,None,None,,,,,,,,,,,1171.0876794999995,1171.0876794999995,None,,1172.1479178999998,1172.1479178999998,1174.1824797,n,1171.0876794999995,1171.0876794999995,1.137104299999919,,6,001,2024-06-07_15h40.50.491,robot_nback_sign,2022.2.5,60.07857075489853,
L,False,3,letter,1,False,False,robot_stimuli\\filler.mp4,6,,,,,,,,,0,128,128,128,,,,,,,,,,,,,1174.1824797,1175.2473006,,,,,,,1177.2755582999998,1177.2755582999998,1177.2755582999998,1177.2755582999998,1177.2755582999998,1177.2755582999998,1177.2755582999998,1177.2755582999998,None,None,None,,,,,,,,,,,1174.1824797,1174.1824797,None,,1175.2473006,1175.2473006,1177.2755582999998,n,1174.1824797,1174.1824797,0.9744785000002594,,6,001,2024-06-07_15h40.50.491,robot_nback_sign,2022.2.5,60.07857075489853,
Z,False,3,letter,1,False,False,robot_stimuli\\filler.mp4,6,,,,,,,,,0,129,129,129,,,,,,,,,,,,,1177.2755582999998,1178.3300362,,,,,,,1180.5556355999997,1180.5556355999997,1180.5556355999997,1180.5556355999997,1180.5556355999997,1180.5556355999997,1180.5556355999997,1180.5556355999997,None,None,None,,,,,,,,,,,1177.2755582999998,1177.2755582999998,None,,1178.3300362,1178.3300362,1180.5556355999997,None,1177.2755582999998,1177.2755582999998,,,6,001,2024-06-07_15h40.50.491,robot_nback_sign,2022.2.5,60.07857075489853,
D,False,3,letter,1,False,False,robot_stimuli\\filler.mp4,6,,,,,,,,,0,130,130,130,,,,,,,,,,,,,1180.5556355999997,1181.6131864,,,,,,,1183.8473885000003,1183.8473885000003,1183.8473885000003,1183.8473885000003,1183.8473885000003,1183.8473885000003,1183.8473885000003,1183.8473885000003,None,None,None,,,,,,,,,,,1180.5556355999997,1180.5556355999997,None,,1181.6131864,1181.6131864,1183.8473885000003,None,1180.5556355999997,1180.5556355999997,,,6,001,2024-06-07_15h40.50.491,robot_nback_sign,2022.2.5,60.07857075489853,
Z,False,3,letter,1,False,False,robot_stimuli\\filler.mp4,6,,,,,,,,,0,131,131,131,,,,,,,,,,,,,1183.8473885000003,1184.9129629,,,,,,,1187.1406348,1187.1406348,1187.1406348,1187.1406348,1187.1406348,1187.1406348,1187.1406348,1187.1406348,None,None,None,,,,,,,,,,,1183.8473885000003,1183.8473885000003,None,,1184.9129629,1184.9129629,1187.1406348,c,1183.8473885000003,1183.8473885000003,1.444945799999914,,6,001,2024-06-07_15h40.50.491,robot_nback_sign,2022.2.5,60.07857075489853,
Z,True,3,letter,1,False,False,robot_stimuli\\filler.mp4,6,,,,,,,,,0,132,132,132,,,,,,,,,,,,,1187.1406348,1188.1973908999998,,,,,,,1190.4188460999994,1190.4188460999994,1190.4188460999994,1190.4188460999994,1190.4188460999994,1190.4188460999994,1190.4188460999994,1190.4188460999994,None,None,None,,,,,,,,,,,1187.1406348,1187.1406348,None,,1188.1973908999998,1188.1973908999998,1190.4188460999994,n,1187.1406348,1187.1406348,1.3127698999996937,,6,001,2024-06-07_15h40.50.491,robot_nback_sign,2022.2.5,60.07857075489853,
D,True,3,letter,1,False,False,robot_stimuli\\filler.mp4,6,,,,,,,,,0,133,133,133,,,,,,,,,,,,,1190.4188460999994,1191.4797282,,,,,,,1193.5099541999998,1193.5099541999998,1193.5099541999998,1193.5099541999998,1193.5099541999998,1193.5099541999998,1193.5099541999998,1193.5099541999998,None,None,None,,,,,,,,,,,1190.4188460999994,1190.4188460999994,None,,1191.4797282,1191.4797282,1193.5099541999998,n,1190.4188460999994,1190.4188460999994,1.5664076000002751,,6,001,2024-06-07_15h40.50.491,robot_nback_sign,2022.2.5,60.07857075489853,
Z,True,3,letter,1,False,False,robot_stimuli\\filler.mp4,6,,,,,,,,,0,134,134,134,,,,,,,,,,,,,1193.5099541999998,1194.5626937999996,,,,,,,1196.7965814999998,1196.7965814999998,1196.7965814999998,1196.7965814999998,1196.7965814999998,1196.7965814999998,1196.7965814999998,1196.7965814999998,None,None,None,,,,,,,,,,,1193.5099541999998,1193.5099541999998,None,,1194.5626937999996,1194.5626937999996,1196.7965814999998,c,1193.5099541999998,1193.5099541999998,1.0442839999996067,,6,001,2024-06-07_15h40.50.491,robot_nback_sign,2022.2.5,60.07857075489853,
F,False,3,letter,1,False,False,robot_stimuli\\filler.mp4,6,,,,,,,,,0,135,135,135,,,,,,,,,,,,,1196.7965814999998,1197.863163,,,,,,,1199.8920607,1199.8920607,1199.8920607,1199.8920607,1199.8920607,1199.8920607,1199.8920607,1199.8920607,None,None,None,,,,,,,,,,,1196.7965814999998,1196.7965814999998,None,,1197.863163,1197.863163,1199.8920607,n,1196.7965814999998,1196.7965814999998,1.0311510999999882,,6,001,2024-06-07_15h40.50.491,robot_nback_sign,2022.2.5,60.07857075489853,
D,True,3,letter,1,False,False,robot_stimuli\\filler.mp4,6,,,,,,,,,0,136,136,136,,,,,,,,,,,,,1199.8920607,1200.9471281999995,,,,,,,1203.1821312000002,1203.1821312000002,1203.1821312000002,1203.1821312000002,1203.1821312000002,1203.1821312000002,1203.1821312000002,1203.1821312000002,None,None,None,,,,,,,,,,,1199.8920607,1199.8920607,None,,1200.9471281999995,1200.9471281999995,1203.1821312000002,c,1199.8920607,1199.8920607,1.2835009000000355,,6,001,2024-06-07_15h40.50.491,robot_nback_sign,2022.2.5,60.07857075489853,
K,False,3,letter,1,False,False,robot_stimuli\\filler.mp4,6,,,,,,,,,0,137,137,137,,,,,,,,,,,,,1203.1821312000002,1204.2484808,,,,,,,1206.2777127,1206.2777127,1206.2777127,1206.2777127,1206.2777127,1206.2777127,1206.2777127,1206.2777127,None,None,None,,,,,,,,,,,1203.1821312000002,1203.1821312000002,None,,1204.2484808,1204.2484808,1206.2777127,n,1203.1821312000002,1203.1821312000002,1.581850300000042,,6,001,2024-06-07_15h40.50.491,robot_nback_sign,2022.2.5,60.07857075489853,
P,False,3,letter,1,False,False,robot_stimuli\\filler.mp4,6,,,,,,,,,0,138,138,138,,,,,,,,,,,,,1206.2777127,,,,,,,,1209.3762869000002,1209.3762869000002,1209.3762869000002,1209.3762869000002,1209.3762869000002,1209.3762869000002,1209.3762869000002,1209.3762869000002,None,None,None,,,,,,,,,,,1206.2777127,1206.2777127,None,,1207.3465090999998,1207.3465090999998,1209.3762869000002,n,1206.2777127,1206.2777127,1.7793480999998792,,6,001,2024-06-07_15h40.50.491,robot_nback_sign,2022.2.5,60.07857075489853,
J,False,3,letter,1,False,False,robot_stimuli\\filler.mp4,6,,,,,,,,,0,139,139,139,,,,,,,,,,,,,1209.3762869000002,1210.4310005999996,,,,,,,1212.4546478000002,1212.4546478000002,1212.4546478000002,1212.4546478000002,1212.4546478000002,1212.4546478000002,1212.4546478000002,1212.4546478000002,None,None,None,,,,,,,,,,,1209.3762869000002,1209.3762869000002,None,,1210.4310005999996,1210.4310005999996,1212.4546478000002,n,1209.3762869000002,1209.3762869000002,1.2554453999991892,,6,001,2024-06-07_15h40.50.491,robot_nback_sign,2022.2.5,60.07857075489853,
Z,False,3,letter,1,False,False,robot_stimuli\\filler.mp4,6,,,,,,,,,0,140,140,140,,,,,,,,,,,,,1212.4546478000002,1213.5138361,,,,,,,1215.5376299,1215.5376299,1215.5376299,1215.5376299,1215.5376299,1215.5376299,1215.5376299,1215.5376299,None,None,None,,,,,,,,,,,1212.4546478000002,1212.4546478000002,None,,1213.5138361,1213.5138361,1215.5376299,n,1212.4546478000002,1212.4546478000002,1.7634090999999898,,6,001,2024-06-07_15h40.50.491,robot_nback_sign,2022.2.5,60.07857075489853,
P,True,3,letter,1,False,False,robot_stimuli\\filler.mp4,6,,,,,,,,,0,141,141,141,,,,,,,,,,,,,1215.5376299,1216.5984527,,,,,,,1218.6236274000003,1218.6236274000003,1218.6236274000003,1218.6236274000003,1218.6236274000003,1218.6236274000003,1218.6236274000003,1218.6236274000003,None,None,None,,,,,,,,,,,1215.5376299,1215.5376299,None,,1216.5984527,1216.5984527,1218.6236274000003,c,1215.5376299,1215.5376299,1.568145799999911,,6,001,2024-06-07_15h40.50.491,robot_nback_sign,2022.2.5,60.07857075489853,
J,True,3,letter,1,False,False,robot_stimuli\\filler.mp4,6,,,,,,,,,0,142,142,142,,,,,,,,,,,,,1218.6236274000003,1219.6792398999996,,,,,,,1221.9115837999998,1221.9115837999998,1221.9115837999998,1221.9115837999998,1221.9115837999998,1221.9115837999998,1221.9115837999998,1221.9115837999998,None,None,None,,,,,,,,,,,1218.6236274000003,1218.6236274000003,None,,1219.6792398999996,1219.6792398999996,1221.9115837999998,c,1218.6236274000003,1218.6236274000003,1.887360899999294,,6,001,2024-06-07_15h40.50.491,robot_nback_sign,2022.2.5,60.07857075489853,
L,False,3,letter,1,False,False,robot_stimuli\\filler.mp4,6,,,,,,,,,0,143,143,143,,,,,,,,,,,,,1221.9115837999998,,,,,,,,1225.0083385999997,1225.0083385999997,1225.0083385999997,1225.0083385999997,1225.0083385999997,1225.0083385999997,1225.0083385999997,1225.0083385999997,None,None,None,,,,,,,,,,,1221.9115837999998,1221.9115837999998,None,,1222.9808002999998,1222.9808002999998,1225.0083385999997,n,1221.9115837999998,1221.9115837999998,1.2170769999993354,,6,001,2024-06-07_15h40.50.491,robot_nback_sign,2022.2.5,60.07857075489853,
D,False,3,letter,1,False,False,robot_stimuli\\filler.mp4,6,,,,,,,,,0,144,144,144,,,,,,,,,,,,,1225.0083385999997,1226.0649606999996,,,,,,,1228.0870915999994,1228.0870915999994,1228.0870915999994,1228.0870915999994,1228.0870915999994,1228.0870915999994,1228.0870915999994,1228.0870915999994,None,None,None,,,,,,,,,,,1225.0083385999997,1225.0083385999997,None,,1226.0649606999996,1226.0649606999996,1228.0870915999994,None,1225.0083385999997,1225.0083385999997,,,6,001,2024-06-07_15h40.50.491,robot_nback_sign,2022.2.5,60.07857075489853,
V,False,3,letter,1,False,False,robot_stimuli\\filler.mp4,6,,,,,,,,,0,145,145,145,,,,,,,,,,,,,1228.0870915999994,1229.1481019000003,,,,,,,1231.1761091999997,1231.1761091999997,1231.1761091999997,1231.1761091999997,1231.1761091999997,1231.1761091999997,1231.1761091999997,1231.1761091999997,None,None,None,,,,,,,,,,,1228.0870915999994,1228.0870915999994,None,,1229.1481019000003,1229.1481019000003,1231.1761091999997,None,1228.0870915999994,1228.0870915999994,,,6,001,2024-06-07_15h40.50.491,robot_nback_sign,2022.2.5,60.07857075489853,
Q,False,3,letter,1,False,False,robot_stimuli\\filler.mp4,6,,,,,,,,,0,146,146,146,,,,,,,,,,,,,1231.1761091999997,1232.2297277999996,,,,,,,1234.2659510000003,1234.2659510000003,1234.2659510000003,1234.2659510000003,1234.2659510000003,1234.2659510000003,1234.2659510000003,1234.2659510000003,None,None,None,,,,,,,,,,,1231.1761091999997,1231.1761091999997,None,,1232.2297277999996,1232.2297277999996,1234.2659510000003,n,1231.1761091999997,1231.1761091999997,1.0811184000003777,,6,001,2024-06-07_15h40.50.491,robot_nback_sign,2022.2.5,60.07857075489853,
F,False,3,letter,1,False,False,robot_stimuli\\filler.mp4,6,,,,,,,,,0,147,147,147,,,,,,,,,,,,,1234.2659510000003,1235.3310902000003,,,,,,,1237.5607271,1237.5607271,1237.5607271,1237.5607271,1237.5607271,1237.5607271,1237.5607271,1237.5607271,None,None,None,,,,,,,,,,,1234.2659510000003,1234.2659510000003,None,,1235.3310902000003,1235.3310902000003,1237.5607271,None,1234.2659510000003,1234.2659510000003,,,6,001,2024-06-07_15h40.50.491,robot_nback_sign,2022.2.5,60.07857075489853,
V,True,3,letter,1,False,False,robot_stimuli\\filler.mp4,6,,,,,,,,,0,148,148,148,,,,,,,,,,,,,1237.5607271,,,,,,,,1240.8572371,1240.8572371,1240.8572371,1240.8572371,1240.8572371,1240.8572371,1240.8572371,1240.8572371,None,None,None,,,,,,,,,,,1237.5607271,1237.5607271,None,,1238.6295394999997,1238.6295394999997,1240.8572371,None,1237.5607271,1237.5607271,,,6,001,2024-06-07_15h40.50.491,robot_nback_sign,2022.2.5,60.07857075489853,
N,False,3,letter,1,False,True,robot_stimuli\\filler.mp4,6,,,,,,,,,0,149,149,149,,,,,,,,,,,,,1240.8572371,1241.9133493,,,,,,,1244.1799935,1252.5740872999995,1244.1799935,1252.5740872999995,1244.1799935,1252.5740872999995,1244.1799935,1252.5740872999995,57.00617283950617,4.952025400000821,space,,,,8.345793700000286,,,,,,,1240.8572371,1240.8572371,None,,1241.9133493,1241.9133493,1244.1799935,None,1240.8572371,1240.8572371,,,6,001,2024-06-07_15h40.50.491,robot_nback_sign,2022.2.5,60.07857075489853,
