sequence,is_target,condition,stimuli,block,is_block_beginning,is_block_ending,fname,subject,retraining.thisRepN,retraining.thisTrialN,retraining.thisN,retraining.thisIndex,training.thisRepN,training.thisTrialN,training.thisN,training.thisIndex,trials.thisRepN,trials.thisTrialN,trials.thisN,trials.thisIndex,langage_text.started,langage_key.started,langage_key.keys,langage_key.rt,intro_text.started,intro_key.started,intro_key.keys,intro_key.rt,training_robot_intro_text.started,training_robot_intro_key.started,training_robot_intro_key.keys,training_robot_intro_key.rt,cross.started,cross.stopped,training_letter.started,training_robot_key.started,training_robot_question.started,training_robot_keys.started,training_letter.stopped,training_robot_key.keys,RSME_labels.started,RSME_labels.stopped,RSME_ticks.started,RSME_ticks.stopped,RSME_text.started,RSME_text.stopped,RSME_key.started,RSME_key.stopped,RSME_ticks.response,RSME_ticks.rt,RSME_key.keys,training_robot_intro_text.stopped,training_robot_intro_key.stopped,training_robot_key.rt,RSME_key.rt,training_robot_movie.started,experiment_beginning_text.started,experiment_beginning_keys.started,experiment_beginning_key.started,experiment_beginning_key.keys,experiment_beginning_key.rt,block_intro_text.started,block_intro_key.started,block_intro_key.keys,block_intro_key.rt,letter.started,key.started,letter.stopped,key.keys,block_intro_text.stopped,block_intro_key.stopped,key.rt,movie.started,participant,session,date,expName,psychopyVersion,frameRate,
,,,,,,,,,,,,,,,,,,,,,14.359330399999976,14.359330399999976,f,1.6335708000000295,,,,,,,,,,,,,,,,,,,,,,,,,,,,,,,,,,,,,,,,,,,,,,,,,,16,001,2024-06-21_09h50.19.494,robot_nback_sign,2022.2.5,59.98760656045998,
,,,,,,,,,,,,,,,,,,,,,,,,,16.04993969999998,16.04993969999998,space,29.054445699999974,,,,,,,,,,,,,,,,,,,,,,,,,,,,,,,,,,,,,,,,,,,,,,16,001,2024-06-21_09h50.19.494,robot_nback_sign,2022.2.5,59.98760656045998,
H,False,1,letter,1,True,False,robot_stimuli\\filler.mp4,16,0,0,0,0,0,0,0,0,,,,,,,,,,,,,45.14760230000002,45.14760230000002,space,4.596172199999955,49.76302320000002,51.25725369999998,51.25725369999998,51.25725369999998,51.25725369999998,51.25725369999998,53.571941100000004,None,53.571941100000004,53.571941100000004,53.571941100000004,53.571941100000004,53.571941100000004,53.571941100000004,53.571941100000004,53.571941100000004,None,None,None,,,,,,,,,,,,,,,,,,,,,,,16,001,2024-06-21_09h50.19.494,robot_nback_sign,2022.2.5,59.98760656045998,
H,True,1,letter,1,False,False,robot_stimuli\\filler.mp4,16,0,0,0,0,0,1,1,1,,,,,,,,,,,,,53.571941100000004,53.571941100000004,None,,53.571941100000004,,54.64231280000001,54.64231280000001,54.64231280000001,54.64231280000001,56.67879730000004,c,56.67879730000004,56.67879730000004,56.67879730000004,56.67879730000004,56.67879730000004,56.67879730000004,56.67879730000004,56.67879730000004,None,None,None,53.571941100000004,53.571941100000004,1.0054235999999719,,,,,,,,,,,,,,,,,,,,16,001,2024-06-21_09h50.19.494,robot_nback_sign,2022.2.5,59.98760656045998,
H,True,1,letter,1,False,False,robot_stimuli\\filler.mp4,16,0,0,0,0,0,2,2,2,,,,,,,,,,,,,56.67879730000004,56.67879730000004,None,,56.67879730000004,57.742267800000036,57.742267800000036,57.742267800000036,57.742267800000036,57.742267800000036,59.77339600000005,c,59.77339600000005,59.77339600000005,59.77339600000005,59.77339600000005,59.77339600000005,59.77339600000005,59.77339600000005,59.77339600000005,None,None,None,56.67879730000004,56.67879730000004,1.1605313000000024,,,,,,,,,,,,,,,,,,,,16,001,2024-06-21_09h50.19.494,robot_nback_sign,2022.2.5,59.98760656045998,
X,False,1,letter,1,False,False,robot_stimuli\\filler.mp4,16,0,0,0,0,0,3,3,3,,,,,,,,,,,,,59.77339600000005,59.77339600000005,None,,59.77339600000005,60.846272,60.846272,60.846272,60.846272,60.846272,62.87576420000005,n,62.87576420000005,62.87576420000005,62.87576420000005,62.87576420000005,62.87576420000005,62.87576420000005,62.87576420000005,62.87576420000005,None,None,None,59.77339600000005,59.77339600000005,1.7045115999999325,,,,,,,,,,,,,,,,,,,,16,001,2024-06-21_09h50.19.494,robot_nback_sign,2022.2.5,59.98760656045998,
Q,False,1,letter,1,False,False,robot_stimuli\\filler.mp4,16,0,0,0,0,0,4,4,4,,,,,,,,,,,,,62.87576420000005,62.87576420000005,None,,62.87576420000005,63.95074710000006,63.95074710000006,63.95074710000006,63.95074710000006,63.95074710000006,66.18516460000001,n,66.18516460000001,66.18516460000001,66.18516460000001,66.18516460000001,66.18516460000001,66.18516460000001,66.18516460000001,66.18516460000001,None,None,None,62.87576420000005,62.87576420000005,1.5536130000000412,,,,,,,,,,,,,,,,,,,,16,001,2024-06-21_09h50.19.494,robot_nback_sign,2022.2.5,59.98760656045998,
S,False,1,letter,1,False,True,robot_stimuli\\filler.mp4,16,0,0,0,0,0,5,5,5,,,,,,,,,,,,,66.18516460000001,66.18516460000001,None,,66.18516460000001,67.26508420000005,67.26508420000005,67.26508420000005,67.26508420000005,67.26508420000005,69.55641609999998,n,69.55641609999998,82.98484540000004,69.55641609999998,82.98484540000004,69.55641609999998,82.98484540000004,69.55641609999998,82.98484540000004,24.907407407407405,10.330185799999981,space,66.18516460000001,66.18516460000001,0.8950856999999814,13.363499300000058,,,,,,,,,,,,,,,,,,,16,001,2024-06-21_09h50.19.494,robot_nback_sign,2022.2.5,59.98760656045998,
P,False,2,letter,1,True,False,robot_stimuli\\filler.mp4,16,0,0,0,0,0,6,6,6,,,,,,,,,,,,,82.98484540000004,82.98484540000004,space,2.0715670000000728,85.07970620000003,86.15481699999998,86.15481699999998,86.15481699999998,86.15481699999998,86.15481699999998,88.37487820000001,None,88.37487820000001,88.37487820000001,88.37487820000001,88.37487820000001,88.37487820000001,88.37487820000001,88.37487820000001,88.37487820000001,None,None,None,,,,,,,,,,,,,,,,,,,,,,,16,001,2024-06-21_09h50.19.494,robot_nback_sign,2022.2.5,59.98760656045998,
X,False,2,letter,1,False,False,robot_stimuli\\filler.mp4,16,0,0,0,0,0,7,7,7,,,,,,,,,,,,,88.37487820000001,88.37487820000001,None,,88.37487820000001,89.44492839999998,89.44492839999998,89.44492839999998,89.44492839999998,89.44492839999998,91.47256430000004,n,91.47256430000004,91.47256430000004,91.47256430000004,91.47256430000004,91.47256430000004,91.47256430000004,91.47256430000004,91.47256430000004,None,None,None,88.37487820000001,88.37487820000001,1.843664800000056,,,,,,,,,,,,,,,,,,,,16,001,2024-06-21_09h50.19.494,robot_nback_sign,2022.2.5,59.98760656045998,
P,True,2,letter,1,False,False,robot_stimuli\\filler.mp4,16,0,0,0,0,0,8,8,8,,,,,,,,,,,,,91.47256430000004,91.47256430000004,None,,91.47256430000004,92.54671860000008,92.54671860000008,92.54671860000008,92.54671860000008,92.54671860000008,94.57487830000002,c,94.57487830000002,94.57487830000002,94.57487830000002,94.57487830000002,94.57487830000002,94.57487830000002,94.57487830000002,94.57487830000002,None,None,None,91.47256430000004,91.47256430000004,1.74897390000001,,,,,,,,,,,,,,,,,,,,16,001,2024-06-21_09h50.19.494,robot_nback_sign,2022.2.5,59.98760656045998,
P,False,2,letter,1,False,False,robot_stimuli\\filler.mp4,16,0,0,0,0,0,9,9,9,,,,,,,,,,,,,94.57487830000002,94.57487830000002,None,,94.57487830000002,95.64850020000006,95.64850020000006,95.64850020000006,95.64850020000006,95.64850020000006,97.87592970000003,n,97.87592970000003,97.87592970000003,97.87592970000003,97.87592970000003,97.87592970000003,97.87592970000003,97.87592970000003,97.87592970000003,None,None,None,94.57487830000002,94.57487830000002,1.5346710999999686,,,,,,,,,,,,,,,,,,,,16,001,2024-06-21_09h50.19.494,robot_nback_sign,2022.2.5,59.98760656045998,
P,True,2,letter,1,False,False,robot_stimuli\\filler.mp4,16,0,0,0,0,0,10,10,10,,,,,,,,,,,,,97.87592970000003,97.87592970000003,None,,97.87592970000003,98.94895540000005,98.94895540000005,98.94895540000005,98.94895540000005,98.94895540000005,101.18604089999997,c,101.18604089999997,101.18604089999997,101.18604089999997,101.18604089999997,101.18604089999997,101.18604089999997,101.18604089999997,101.18604089999997,None,None,None,97.87592970000003,97.87592970000003,1.8821904999999788,,,,,,,,,,,,,,,,,,,,16,001,2024-06-21_09h50.19.494,robot_nback_sign,2022.2.5,59.98760656045998,
D,False,2,letter,1,False,True,robot_stimuli\\filler.mp4,16,0,0,0,0,0,11,11,11,,,,,,,,,,,,,101.18604089999997,101.18604089999997,None,,101.18604089999997,102.27458769999998,102.27458769999998,102.27458769999998,102.27458769999998,102.27458769999998,104.33480310000004,n,104.33480310000004,151.55202400000007,104.33480310000004,151.55202400000007,104.33480310000004,151.55202400000007,104.33480310000004,151.55202400000007,29.999999999999993,38.55422930000009,space,101.18604089999997,101.18604089999997,1.4847594999999956,47.16840530000002,,,,,,,,,,,,,,,,,,,16,001,2024-06-21_09h50.19.494,robot_nback_sign,2022.2.5,59.98760656045998,
F,False,3,letter,1,True,False,robot_stimuli\\filler.mp4,16,0,0,0,0,0,12,12,12,,,,,,,,,,,,,151.55202400000007,151.55202400000007,space,1.1916027999999415,152.76301380000007,153.83640450000007,153.83640450000007,153.83640450000007,153.83640450000007,153.83640450000007,156.06911520000006,None,156.06911520000006,156.06911520000006,156.06911520000006,156.06911520000006,156.06911520000006,156.06911520000006,156.06911520000006,156.06911520000006,None,None,None,,,,,,,,,,,,,,,,,,,,,,,16,001,2024-06-21_09h50.19.494,robot_nback_sign,2022.2.5,59.98760656045998,
B,False,3,letter,1,False,False,robot_stimuli\\filler.mp4,16,0,0,0,0,0,13,13,13,,,,,,,,,,,,,156.06911520000006,156.06911520000006,None,,156.06911520000006,157.1516504,157.1516504,157.1516504,157.1516504,157.1516504,159.17726419999997,n,159.17726419999997,159.17726419999997,159.17726419999997,159.17726419999997,159.17726419999997,159.17726419999997,159.17726419999997,159.17726419999997,None,None,None,156.06911520000006,156.06911520000006,1.4333416000000625,,,,,,,,,,,,,,,,,,,,16,001,2024-06-21_09h50.19.494,robot_nback_sign,2022.2.5,59.98760656045998,
R,False,3,letter,1,False,False,robot_stimuli\\filler.mp4,16,0,0,0,0,0,14,14,14,,,,,,,,,,,,,159.17726419999997,159.17726419999997,None,,159.17726419999997,160.24667050000005,160.24667050000005,160.24667050000005,160.24667050000005,160.24667050000005,162.27396740000006,None,162.27396740000006,162.27396740000006,162.27396740000006,162.27396740000006,162.27396740000006,162.27396740000006,162.27396740000006,162.27396740000006,None,None,None,159.17726419999997,159.17726419999997,,,,,,,,,,,,,,,,,,,,,16,001,2024-06-21_09h50.19.494,robot_nback_sign,2022.2.5,59.98760656045998,
F,True,3,letter,1,False,False,robot_stimuli\\filler.mp4,16,0,0,0,0,0,15,15,15,,,,,,,,,,,,,162.27396740000006,162.27396740000006,None,,162.27396740000006,163.34457910000003,163.34457910000003,163.34457910000003,163.34457910000003,163.34457910000003,165.37120349999998,c,165.37120349999998,165.37120349999998,165.37120349999998,165.37120349999998,165.37120349999998,165.37120349999998,165.37120349999998,165.37120349999998,None,None,None,162.27396740000006,162.27396740000006,0.7668945000000349,,,,,,,,,,,,,,,,,,,,16,001,2024-06-21_09h50.19.494,robot_nback_sign,2022.2.5,59.98760656045998,
P,False,3,letter,1,False,False,robot_stimuli\\filler.mp4,16,0,0,0,0,0,16,16,16,,,,,,,,,,,,,165.37120349999998,165.37120349999998,None,,165.37120349999998,166.44331,166.44331,166.44331,166.44331,166.44331,168.47448299999996,None,168.47448299999996,168.47448299999996,168.47448299999996,168.47448299999996,168.47448299999996,168.47448299999996,168.47448299999996,168.47448299999996,None,None,None,165.37120349999998,165.37120349999998,,,,,,,,,,,,,,,,,,,,,16,001,2024-06-21_09h50.19.494,robot_nback_sign,2022.2.5,59.98760656045998,
R,True,3,letter,1,False,True,robot_stimuli\\filler.mp4,16,0,0,0,0,0,17,17,17,,,,,,,,,,,,,168.47448299999996,168.47448299999996,None,,168.47448299999996,169.54384890000006,169.54384890000006,169.54384890000006,169.54384890000006,169.54384890000006,171.60683800000004,None,171.60683800000004,175.93138940000006,171.60683800000004,175.93138940000006,171.60683800000004,175.93138940000006,171.60683800000004,175.93138940000006,40.648148148148145,3.4419158999999127,space,168.47448299999996,168.47448299999996,,4.263979400000039,,,,,,,,,,,,,,,,,,,16,001,2024-06-21_09h50.19.494,robot_nback_sign,2022.2.5,59.98760656045998,
L_Arm_X_Back,False,1,robot,2,True,False,robot_stimuli\L_Arm_X_Back.mp4,16,0,0,0,0,0,18,18,18,,,,,,,,,,,,,175.93138940000006,175.93138940000006,space,1.940513899999928,177.89636080000002,179.00935950000007,,179.00935950000007,179.00935950000007,179.00935950000007,,None,182.64376060000006,182.64376060000006,182.64376060000006,182.64376060000006,182.64376060000006,182.64376060000006,182.64376060000006,182.64376060000006,None,None,None,,,,,179.00935950000007,,,,,,,,,,,,,,,,,,16,001,2024-06-21_09h50.19.494,robot_nback_sign,2022.2.5,59.98760656045998,
L_Head_Y_For,False,1,robot,2,False,False,robot_stimuli\L_Head_Y_For.mp4,16,0,0,0,0,0,19,19,19,,,,,,,,,,,,,182.64376060000006,182.64376060000006,None,,182.64376060000006,183.74548530000004,,183.74548530000004,183.74548530000004,183.74548530000004,,c,187.39169349999997,187.39169349999997,187.39169349999997,187.39169349999997,187.39169349999997,187.39169349999997,187.39169349999997,187.39169349999997,None,None,None,182.64376060000006,182.64376060000006,0.5909739999999601,,183.74548530000004,,,,,,,,,,,,,,,,,,16,001,2024-06-21_09h50.19.494,robot_nback_sign,2022.2.5,59.98760656045998,
L_Head_Y_For,True,1,robot,2,False,False,robot_stimuli\L_Head_Y_For.mp4,16,0,0,0,0,0,20,20,20,,,,,,,,,,,,,187.39169349999997,187.39169349999997,None,,187.39169349999997,188.48721,,188.48721,188.48721,188.48721,,c,192.1307279,192.1307279,192.1307279,192.1307279,192.1307279,192.1307279,192.1307279,192.1307279,None,None,None,187.39169349999997,187.39169349999997,0.8563245000000279,,188.48721,,,,,,,,,,,,,,,,,,16,001,2024-06-21_09h50.19.494,robot_nback_sign,2022.2.5,59.98760656045998,
L_Head_Y_For,True,1,robot,2,False,False,robot_stimuli\L_Head_Y_For.mp4,16,0,0,0,0,0,21,21,21,,,,,,,,,,,,,192.1307279,192.1307279,None,,192.1307279,193.21987320000005,,193.21987320000005,193.21987320000005,193.21987320000005,,c,196.86283660000004,196.86283660000004,196.86283660000004,196.86283660000004,196.86283660000004,196.86283660000004,196.86283660000004,196.86283660000004,None,None,None,192.1307279,192.1307279,3.4688502999999855,,193.21987320000005,,,,,,,,,,,,,,,,,,16,001,2024-06-21_09h50.19.494,robot_nback_sign,2022.2.5,59.98760656045998,
R_Head_Y_Back,False,1,robot,2,False,False,robot_stimuli\R_Head_Y_Back.mp4,16,0,0,0,0,0,22,22,22,,,,,,,,,,,,,196.86283660000004,196.86283660000004,None,,196.86283660000004,197.95735580000007,,197.95735580000007,197.95735580000007,197.95735580000007,,n,201.5901841,201.5901841,201.5901841,201.5901841,201.5901841,201.5901841,201.5901841,201.5901841,None,None,None,196.86283660000004,196.86283660000004,1.9154506999999512,,197.95735580000007,,,,,,,,,,,,,,,,,,16,001,2024-06-21_09h50.19.494,robot_nback_sign,2022.2.5,59.98760656045998,
R_Base_Z_For,False,1,robot,2,False,True,robot_stimuli\R_Base_Z_For.mp4,16,0,0,0,0,0,23,23,23,,,,,,,,,,,,,201.5901841,201.5901841,None,,201.5901841,202.69829620000007,,202.69829620000007,202.69829620000007,202.69829620000007,,n,206.37105080000003,211.1072001,206.37105080000003,211.1072001,206.37105080000003,211.1072001,206.37105080000003,211.1072001,23.518518518518526,4.10502120000001,space,201.5901841,201.5901841,2.1975376000000324,4.684200400000009,202.69829620000007,,,,,,,,,,,,,,,,,,16,001,2024-06-21_09h50.19.494,robot_nback_sign,2022.2.5,59.98760656045998,
L_Torso_X_Back,False,2,robot,2,True,False,robot_stimuli\L_Torso_X_Back.mp4,16,0,0,0,0,0,24,24,24,,,,,,,,,,,,,211.1072001,211.1072001,space,3.460850800000003,214.59686240000008,215.6918812,,215.6918812,215.6918812,215.6918812,,None,219.3444164,219.3444164,219.3444164,219.3444164,219.3444164,219.3444164,219.3444164,219.3444164,None,None,None,,,,,215.6918812,,,,,,,,,,,,,,,,,,16,001,2024-06-21_09h50.19.494,robot_nback_sign,2022.2.5,59.98760656045998,
R_Head_Y_Back,False,2,robot,2,False,False,robot_stimuli\R_Head_Y_Back.mp4,16,0,0,0,0,0,25,25,25,,,,,,,,,,,,,219.3444164,219.3444164,None,,219.3444164,220.4409806,,220.4409806,220.4409806,220.4409806,,None,224.07319170000005,224.07319170000005,224.07319170000005,224.07319170000005,224.07319170000005,224.07319170000005,224.07319170000005,224.07319170000005,None,None,None,219.3444164,219.3444164,,,220.4409806,,,,,,,,,,,,,,,,,,16,001,2024-06-21_09h50.19.494,robot_nback_sign,2022.2.5,59.98760656045998,
L_Torso_X_Back,True,2,robot,2,False,False,robot_stimuli\L_Torso_X_Back.mp4,16,0,0,0,0,0,26,26,26,,,,,,,,,,,,,224.07319170000005,224.07319170000005,None,,224.07319170000005,225.1738646,,225.1738646,225.1738646,225.1738646,,c,228.81280800000002,228.81280800000002,228.81280800000002,228.81280800000002,228.81280800000002,228.81280800000002,228.81280800000002,228.81280800000002,None,None,None,224.07319170000005,224.07319170000005,1.321296899999993,,225.1738646,,,,,,,,,,,,,,,,,,16,001,2024-06-21_09h50.19.494,robot_nback_sign,2022.2.5,59.98760656045998,
L_Head_X_For,False,2,robot,2,False,False,robot_stimuli\L_Head_X_For.mp4,16,0,0,0,0,0,27,27,27,,,,,,,,,,,,,228.81280800000002,228.81280800000002,None,,228.81280800000002,229.89515670000003,,229.89515670000003,229.89515670000003,229.89515670000003,,n,233.48503390000008,233.48503390000008,233.48503390000008,233.48503390000008,233.48503390000008,233.48503390000008,233.48503390000008,233.48503390000008,None,None,None,228.81280800000002,228.81280800000002,2.0397844000000305,,229.89515670000003,,,,,,,,,,,,,,,,,,16,001,2024-06-21_09h50.19.494,robot_nback_sign,2022.2.5,59.98760656045998,
L_Torso_X_Back,True,2,robot,2,False,False,robot_stimuli\L_Torso_X_Back.mp4,16,0,0,0,0,0,28,28,28,,,,,,,,,,,,,233.48503390000008,233.48503390000008,None,,233.48503390000008,234.5853952,,234.5853952,234.5853952,234.5853952,,c,238.23137359999998,238.23137359999998,238.23137359999998,238.23137359999998,238.23137359999998,238.23137359999998,238.23137359999998,238.23137359999998,None,None,None,233.48503390000008,233.48503390000008,1.7823680999999851,,234.5853952,,,,,,,,,,,,,,,,,,16,001,2024-06-21_09h50.19.494,robot_nback_sign,2022.2.5,59.98760656045998,
R_Arm_Z_Back,False,2,robot,2,False,True,robot_stimuli\R_Arm_Z_Back.mp4,16,0,0,0,0,0,29,29,29,,,,,,,,,,,,,238.23137359999998,238.23137359999998,None,,238.23137359999998,,,239.3386981,239.3386981,239.3386981,,n,243.0253861,245.66181930000005,243.0253861,245.66181930000005,243.0253861,245.66181930000005,243.0253861,245.66181930000005,39.413580246913575,2.0438384999999926,space,238.23137359999998,238.23137359999998,2.7163220999999567,2.565681100000006,239.3386981,,,,,,,,,,,,,,,,,,16,001,2024-06-21_09h50.19.494,robot_nback_sign,2022.2.5,59.98760656045998,
L_Arm_Y_For,False,3,robot,2,True,False,robot_stimuli\L_Arm_Y_For.mp4,16,0,0,0,0,0,30,30,30,,,,,,,,,,,,,245.66181930000005,245.66181930000005,space,0.4582847000000356,246.14650870000003,247.22987160000002,,247.22987160000002,247.22987160000002,247.22987160000002,,None,250.87924010000006,250.87924010000006,250.87924010000006,250.87924010000006,250.87924010000006,250.87924010000006,250.87924010000006,250.87924010000006,None,None,None,,,,,247.22987160000002,,,,,,,,,,,,,,,,,,16,001,2024-06-21_09h50.19.494,robot_nback_sign,2022.2.5,59.98760656045998,
R_Base_X_Back,False,3,robot,2,False,False,robot_stimuli\R_Base_X_Back.mp4,16,0,0,0,0,0,31,31,31,,,,,,,,,,,,,250.87924010000006,250.87924010000006,None,,250.87924010000006,251.96096910000006,,251.96096910000006,251.96096910000006,251.96096910000006,,None,255.60516500000006,255.60516500000006,255.60516500000006,255.60516500000006,255.60516500000006,255.60516500000006,255.60516500000006,255.60516500000006,None,None,None,250.87924010000006,250.87924010000006,,,251.96096910000006,,,,,,,,,,,,,,,,,,16,001,2024-06-21_09h50.19.494,robot_nback_sign,2022.2.5,59.98760656045998,
L_Head_Z_For,False,3,robot,2,False,False,robot_stimuli\L_Head_Z_For.mp4,16,0,0,0,0,0,32,32,32,,,,,,,,,,,,,255.60516500000006,255.60516500000006,None,,255.60516500000006,256.69524839999997,,256.69524839999997,256.69524839999997,256.69524839999997,,None,260.3458145000001,260.3458145000001,260.3458145000001,260.3458145000001,260.3458145000001,260.3458145000001,260.3458145000001,260.3458145000001,None,None,None,255.60516500000006,255.60516500000006,,,256.69524839999997,,,,,,,,,,,,,,,,,,16,001,2024-06-21_09h50.19.494,robot_nback_sign,2022.2.5,59.98760656045998,
L_Base_X_For,False,3,robot,2,False,False,robot_stimuli\L_Base_X_For.mp4,16,0,0,0,0,0,33,33,33,,,,,,,,,,,,,260.3458145000001,260.3458145000001,None,,260.3458145000001,261.4296082000001,,261.4296082000001,261.4296082000001,261.4296082000001,,c,265.0125137,265.0125137,265.0125137,265.0125137,265.0125137,265.0125137,265.0125137,265.0125137,None,None,None,260.3458145000001,260.3458145000001,1.8111092999999983,,261.4296082000001,,,,,,,,,,,,,,,,,,16,001,2024-06-21_09h50.19.494,robot_nback_sign,2022.2.5,59.98760656045998,
R_Base_X_Back,True,3,robot,2,False,False,robot_stimuli\R_Base_X_Back.mp4,16,0,0,0,0,0,34,34,34,,,,,,,,,,,,,265.0125137,265.0125137,None,,265.0125137,266.095607,,266.095607,266.095607,266.095607,,n,269.74469510000006,269.74469510000006,269.74469510000006,269.74469510000006,269.74469510000006,269.74469510000006,269.74469510000006,269.74469510000006,None,None,None,265.0125137,265.0125137,2.391882399999986,,266.095607,,,,,,,,,,,,,,,,,,16,001,2024-06-21_09h50.19.494,robot_nback_sign,2022.2.5,59.98760656045998,
L_Head_Z_For,True,3,robot,2,False,True,robot_stimuli\L_Head_Z_For.mp4,16,0,0,0,0,0,35,35,35,,,,,,,,,,,,,269.74469510000006,269.74469510000006,None,,269.74469510000006,270.82577349999997,,270.82577349999997,270.82577349999997,270.82577349999997,,c,274.5092479,281.16872280000007,274.5092479,281.16872280000007,274.5092479,281.16872280000007,274.5092479,281.16872280000007,47.43827160493827,5.181113800000048,space,269.74469510000006,269.74469510000006,1.8939523000000236,6.586366800000064,270.82577349999997,,,,,,,,,,,,,,,,,,16,001,2024-06-21_09h50.19.494,robot_nback_sign,2022.2.5,59.98760656045998,
,,,,,,,,,0,0,0,0,,,,,,,,,,,,,,,,,,,,,,,,,,,,,,,,,,,,,,,,,,,,,281.16872280000007,281.16872280000007,281.16872280000007,c,2.815782199999944,,,,,,,,,,,,,16,001,2024-06-21_09h50.19.494,robot_nback_sign,2022.2.5,59.98760656045998,
S,False,1,letter,1,True,False,robot_stimuli\\filler.mp4,16,,,,,,,,,0,0,0,0,,,,,,,,,,,,,285.879857,286.9553480000001,,,,,,,289.17935380000006,289.17935380000006,289.17935380000006,289.17935380000006,289.17935380000006,289.17935380000006,289.17935380000006,289.17935380000006,None,None,None,,,,,,,,,,,284.05008540000006,284.05008540000006,space,1.7972648999999592,286.9553480000001,286.9553480000001,289.17935380000006,None,,,,,16,001,2024-06-21_09h50.19.494,robot_nback_sign,2022.2.5,59.98760656045998,
N,False,1,letter,1,False,False,robot_stimuli\\filler.mp4,16,,,,,,,,,0,1,1,1,,,,,,,,,,,,,289.17935380000006,290.23479380000003,,,,,,,292.2623036,292.2623036,292.2623036,292.2623036,292.2623036,292.2623036,292.2623036,292.2623036,None,None,None,,,,,,,,,,,289.17935380000006,289.17935380000006,None,,290.23479380000003,290.23479380000003,292.2623036,n,289.17935380000006,289.17935380000006,0.9802121999999827,,16,001,2024-06-21_09h50.19.494,robot_nback_sign,2022.2.5,59.98760656045998,
N,True,1,letter,1,False,False,robot_stimuli\\filler.mp4,16,,,,,,,,,0,2,2,2,,,,,,,,,,,,,292.2623036,293.3177859,,,,,,,295.53980120000006,295.53980120000006,295.53980120000006,295.53980120000006,295.53980120000006,295.53980120000006,295.53980120000006,295.53980120000006,None,None,None,,,,,,,,,,,292.2623036,292.2623036,None,,293.3177859,293.3177859,295.53980120000006,c,292.2623036,292.2623036,0.6828880000000481,,16,001,2024-06-21_09h50.19.494,robot_nback_sign,2022.2.5,59.98760656045998,
X,False,1,letter,1,False,False,robot_stimuli\\filler.mp4,16,,,,,,,,,0,3,3,3,,,,,,,,,,,,,295.53980120000006,296.5999855,,,,,,,298.6319158,298.6319158,298.6319158,298.6319158,298.6319158,298.6319158,298.6319158,298.6319158,None,None,None,,,,,,,,,,,295.53980120000006,295.53980120000006,None,,296.5999855,296.5999855,298.6319158,n,295.53980120000006,295.53980120000006,0.9670164999999997,,16,001,2024-06-21_09h50.19.494,robot_nback_sign,2022.2.5,59.98760656045998,
L,False,1,letter,1,False,False,robot_stimuli\\filler.mp4,16,,,,,,,,,0,4,4,4,,,,,,,,,,,,,298.6319158,,,,,,,,301.92377,301.92377,301.92377,301.92377,301.92377,301.92377,301.92377,301.92377,None,None,None,,,,,,,,,,,298.6319158,298.6319158,None,,299.6988824,299.6988824,301.92377,n,298.6319158,298.6319158,0.805944199999999,,16,001,2024-06-21_09h50.19.494,robot_nback_sign,2022.2.5,59.98760656045998,
S,False,1,letter,1,False,False,robot_stimuli\\filler.mp4,16,,,,,,,,,0,5,5,5,,,,,,,,,,,,,301.92377,302.98615359999997,,,,,,,305.00894560000006,305.00894560000006,305.00894560000006,305.00894560000006,305.00894560000006,305.00894560000006,305.00894560000006,305.00894560000006,None,None,None,,,,,,,,,,,301.92377,301.92377,None,,302.98615359999997,302.98615359999997,305.00894560000006,n,301.92377,301.92377,0.7901109000000588,,16,001,2024-06-21_09h50.19.494,robot_nback_sign,2022.2.5,59.98760656045998,
P,False,1,letter,1,False,False,robot_stimuli\\filler.mp4,16,,,,,,,,,0,6,6,6,,,,,,,,,,,,,305.00894560000006,306.06619180000007,,,,,,,308.2917391,308.2917391,308.2917391,308.2917391,308.2917391,308.2917391,308.2917391,308.2917391,None,None,None,,,,,,,,,,,305.00894560000006,305.00894560000006,None,,306.06619180000007,306.06619180000007,308.2917391,n,305.00894560000006,305.00894560000006,0.7016574000000446,,16,001,2024-06-21_09h50.19.494,robot_nback_sign,2022.2.5,59.98760656045998,
K,False,1,letter,1,False,False,robot_stimuli\\filler.mp4,16,,,,,,,,,0,7,7,7,,,,,,,,,,,,,308.2917391,309.3517303,,,,,,,311.38613570000007,311.38613570000007,311.38613570000007,311.38613570000007,311.38613570000007,311.38613570000007,311.38613570000007,311.38613570000007,None,None,None,,,,,,,,,,,308.2917391,308.2917391,None,,309.3517303,309.3517303,311.38613570000007,n,308.2917391,308.2917391,0.6311140999999907,,16,001,2024-06-21_09h50.19.494,robot_nback_sign,2022.2.5,59.98760656045998,
L,False,1,letter,1,False,False,robot_stimuli\\filler.mp4,16,,,,,,,,,0,8,8,8,,,,,,,,,,,,,311.38613570000007,312.45030900000006,,,,,,,314.68090689999997,314.68090689999997,314.68090689999997,314.68090689999997,314.68090689999997,314.68090689999997,314.68090689999997,314.68090689999997,None,None,None,,,,,,,,,,,311.38613570000007,311.38613570000007,None,,312.45030900000006,312.45030900000006,314.68090689999997,n,311.38613570000007,311.38613570000007,0.6540363000000298,,16,001,2024-06-21_09h50.19.494,robot_nback_sign,2022.2.5,59.98760656045998,
G,False,1,letter,1,False,False,robot_stimuli\\filler.mp4,16,,,,,,,,,0,9,9,9,,,,,,,,,,,,,314.68090689999997,,,,,,,,317.77958739999997,317.77958739999997,317.77958739999997,317.77958739999997,317.77958739999997,317.77958739999997,317.77958739999997,317.77958739999997,None,None,None,,,,,,,,,,,314.68090689999997,314.68090689999997,None,,315.7577162,315.7577162,317.77958739999997,n,314.68090689999997,314.68090689999997,0.729908499999965,,16,001,2024-06-21_09h50.19.494,robot_nback_sign,2022.2.5,59.98760656045998,
G,True,1,letter,1,False,False,robot_stimuli\\filler.mp4,16,,,,,,,,,0,10,10,10,,,,,,,,,,,,,317.77958739999997,318.83198219999997,,,,,,,320.8597313,320.8597313,320.8597313,320.8597313,320.8597313,320.8597313,320.8597313,320.8597313,None,None,None,,,,,,,,,,,317.77958739999997,317.77958739999997,None,,318.83198219999997,318.83198219999997,320.8597313,c,317.77958739999997,317.77958739999997,0.5673610000000053,,16,001,2024-06-21_09h50.19.494,robot_nback_sign,2022.2.5,59.98760656045998,
G,True,1,letter,1,False,False,robot_stimuli\\filler.mp4,16,,,,,,,,,0,11,11,11,,,,,,,,,,,,,320.8597313,321.9182532,,,,,,,324.1377798,324.1377798,324.1377798,324.1377798,324.1377798,324.1377798,324.1377798,324.1377798,None,None,None,,,,,,,,,,,320.8597313,320.8597313,None,,321.9182532,321.9182532,324.1377798,c,320.8597313,320.8597313,0.3610447999999451,,16,001,2024-06-21_09h50.19.494,robot_nback_sign,2022.2.5,59.98760656045998,
G,True,1,letter,1,False,False,robot_stimuli\\filler.mp4,16,,,,,,,,,0,12,12,12,,,,,,,,,,,,,324.1377798,325.1973607,,,,,,,327.22406680000006,327.22406680000006,327.22406680000006,327.22406680000006,327.22406680000006,327.22406680000006,327.22406680000006,327.22406680000006,None,None,None,,,,,,,,,,,324.1377798,324.1377798,None,,325.1973607,325.1973607,327.22406680000006,c,324.1377798,324.1377798,0.4509898000000021,,16,001,2024-06-21_09h50.19.494,robot_nback_sign,2022.2.5,59.98760656045998,
L,False,1,letter,1,False,False,robot_stimuli\\filler.mp4,16,,,,,,,,,0,13,13,13,,,,,,,,,,,,,327.22406680000006,328.28199789999996,,,,,,,330.5071839,330.5071839,330.5071839,330.5071839,330.5071839,330.5071839,330.5071839,330.5071839,None,None,None,,,,,,,,,,,327.22406680000006,327.22406680000006,None,,328.28199789999996,328.28199789999996,330.5071839,n,327.22406680000006,327.22406680000006,0.532910099999981,,16,001,2024-06-21_09h50.19.494,robot_nback_sign,2022.2.5,59.98760656045998,
N,False,1,letter,1,False,False,robot_stimuli\\filler.mp4,16,,,,,,,,,0,14,14,14,,,,,,,,,,,,,330.5071839,331.56553570000005,,,,,,,333.793768,333.793768,333.793768,333.793768,333.793768,333.793768,333.793768,333.793768,None,None,None,,,,,,,,,,,330.5071839,330.5071839,None,,331.56553570000005,331.56553570000005,333.793768,n,330.5071839,330.5071839,0.5543276999999307,,16,001,2024-06-21_09h50.19.494,robot_nback_sign,2022.2.5,59.98760656045998,
N,True,1,letter,1,False,False,robot_stimuli\\filler.mp4,16,,,,,,,,,0,15,15,15,,,,,,,,,,,,,333.793768,334.84993240000006,,,,,,,337.07842860000005,337.07842860000005,337.07842860000005,337.07842860000005,337.07842860000005,337.07842860000005,337.07842860000005,337.07842860000005,None,None,None,,,,,,,,,,,333.793768,333.793768,None,,334.84993240000006,334.84993240000006,337.07842860000005,c,333.793768,333.793768,0.41382769999995617,,16,001,2024-06-21_09h50.19.494,robot_nback_sign,2022.2.5,59.98760656045998,
M,False,1,letter,1,False,False,robot_stimuli\\filler.mp4,16,,,,,,,,,0,16,16,16,,,,,,,,,,,,,337.07842860000005,338.1379097,,,,,,,340.1676451000001,340.1676451000001,340.1676451000001,340.1676451000001,340.1676451000001,340.1676451000001,340.1676451000001,340.1676451000001,None,None,None,,,,,,,,,,,337.07842860000005,337.07842860000005,None,,338.1379097,338.1379097,340.1676451000001,n,337.07842860000005,337.07842860000005,0.6538365999999769,,16,001,2024-06-21_09h50.19.494,robot_nback_sign,2022.2.5,59.98760656045998,
B,False,1,letter,1,False,False,robot_stimuli\\filler.mp4,16,,,,,,,,,0,17,17,17,,,,,,,,,,,,,340.1676451000001,341.2347482,,,,,,,343.26773049999997,343.26773049999997,343.26773049999997,343.26773049999997,343.26773049999997,343.26773049999997,343.26773049999997,343.26773049999997,None,None,None,,,,,,,,,,,340.1676451000001,340.1676451000001,None,,341.2347482,341.2347482,343.26773049999997,c,340.1676451000001,340.1676451000001,0.3895648999999821,,16,001,2024-06-21_09h50.19.494,robot_nback_sign,2022.2.5,59.98760656045998,
X,False,1,letter,1,False,False,robot_stimuli\\filler.mp4,16,,,,,,,,,0,18,18,18,,,,,,,,,,,,,343.26773049999997,344.3322797000001,,,,,,,346.36359920000007,346.36359920000007,346.36359920000007,346.36359920000007,346.36359920000007,346.36359920000007,346.36359920000007,346.36359920000007,None,None,None,,,,,,,,,,,343.26773049999997,343.26773049999997,None,,344.3322797000001,344.3322797000001,346.36359920000007,n,343.26773049999997,343.26773049999997,0.6200333000000455,,16,001,2024-06-21_09h50.19.494,robot_nback_sign,2022.2.5,59.98760656045998,
X,True,1,letter,1,False,False,robot_stimuli\\filler.mp4,16,,,,,,,,,0,19,19,19,,,,,,,,,,,,,346.36359920000007,347.4148815,,,,,,,349.63924640000005,349.63924640000005,349.63924640000005,349.63924640000005,349.63924640000005,349.63924640000005,349.63924640000005,349.63924640000005,None,None,None,,,,,,,,,,,346.36359920000007,346.36359920000007,None,,347.4148815,347.4148815,349.63924640000005,c,346.36359920000007,346.36359920000007,0.5924826000000394,,16,001,2024-06-21_09h50.19.494,robot_nback_sign,2022.2.5,59.98760656045998,
H,False,1,letter,1,False,False,robot_stimuli\\filler.mp4,16,,,,,,,,,0,20,20,20,,,,,,,,,,,,,349.63924640000005,350.69923140000003,,,,,,,352.9264041,352.9264041,352.9264041,352.9264041,352.9264041,352.9264041,352.9264041,352.9264041,None,None,None,,,,,,,,,,,349.63924640000005,349.63924640000005,None,,350.69923140000003,350.69923140000003,352.9264041,n,349.63924640000005,349.63924640000005,0.5086957000000893,,16,001,2024-06-21_09h50.19.494,robot_nback_sign,2022.2.5,59.98760656045998,
J,False,1,letter,1,False,False,robot_stimuli\\filler.mp4,16,,,,,,,,,0,21,21,21,,,,,,,,,,,,,352.9264041,353.9948399,,,,,,,356.02594810000005,356.02594810000005,356.02594810000005,356.02594810000005,356.02594810000005,356.02594810000005,356.02594810000005,356.02594810000005,None,None,None,,,,,,,,,,,352.9264041,352.9264041,None,,353.9948399,353.9948399,356.02594810000005,n,352.9264041,352.9264041,0.6360209000000623,,16,001,2024-06-21_09h50.19.494,robot_nback_sign,2022.2.5,59.98760656045998,
K,False,1,letter,1,False,False,robot_stimuli\\filler.mp4,16,,,,,,,,,0,22,22,22,,,,,,,,,,,,,356.02594810000005,357.09217020000006,,,,,,,359.1202158,359.1202158,359.1202158,359.1202158,359.1202158,359.1202158,359.1202158,359.1202158,None,None,None,,,,,,,,,,,356.02594810000005,356.02594810000005,None,,357.09217020000006,357.09217020000006,359.1202158,n,356.02594810000005,356.02594810000005,0.531937599999992,,16,001,2024-06-21_09h50.19.494,robot_nback_sign,2022.2.5,59.98760656045998,
G,False,1,letter,1,False,False,robot_stimuli\\filler.mp4,16,,,,,,,,,0,23,23,23,,,,,,,,,,,,,359.1202158,360.1842302,,,,,,,362.21352790000003,362.21352790000003,362.21352790000003,362.21352790000003,362.21352790000003,362.21352790000003,362.21352790000003,362.21352790000003,None,None,None,,,,,,,,,,,359.1202158,359.1202158,None,,360.1842302,360.1842302,362.21352790000003,n,359.1202158,359.1202158,0.45462640000005194,,16,001,2024-06-21_09h50.19.494,robot_nback_sign,2022.2.5,59.98760656045998,
B,False,1,letter,1,False,False,robot_stimuli\\filler.mp4,16,,,,,,,,,0,24,24,24,,,,,,,,,,,,,362.21352790000003,363.2656243,,,,,,,365.49553160000005,365.49553160000005,365.49553160000005,365.49553160000005,365.49553160000005,365.49553160000005,365.49553160000005,365.49553160000005,None,None,None,,,,,,,,,,,362.21352790000003,362.21352790000003,None,,363.2656243,363.2656243,365.49553160000005,n,362.21352790000003,362.21352790000003,0.44621280000001207,,16,001,2024-06-21_09h50.19.494,robot_nback_sign,2022.2.5,59.98760656045998,
B,True,1,letter,1,False,False,robot_stimuli\\filler.mp4,16,,,,,,,,,0,25,25,25,,,,,,,,,,,,,365.49553160000005,366.5487124,,,,,,,368.77571009999997,368.77571009999997,368.77571009999997,368.77571009999997,368.77571009999997,368.77571009999997,368.77571009999997,368.77571009999997,None,None,None,,,,,,,,,,,365.49553160000005,365.49553160000005,None,,366.5487124,366.5487124,368.77571009999997,c,365.49553160000005,365.49553160000005,0.4665873000000147,,16,001,2024-06-21_09h50.19.494,robot_nback_sign,2022.2.5,59.98760656045998,
B,True,1,letter,1,False,False,robot_stimuli\\filler.mp4,16,,,,,,,,,0,26,26,26,,,,,,,,,,,,,368.77571009999997,369.83080240000004,,,,,,,372.0657456,372.0657456,372.0657456,372.0657456,372.0657456,372.0657456,372.0657456,372.0657456,None,None,None,,,,,,,,,,,368.77571009999997,368.77571009999997,None,,369.83080240000004,369.83080240000004,372.0657456,c,368.77571009999997,368.77571009999997,0.42501770000001216,,16,001,2024-06-21_09h50.19.494,robot_nback_sign,2022.2.5,59.98760656045998,
J,False,1,letter,1,False,False,robot_stimuli\\filler.mp4,16,,,,,,,,,0,27,27,27,,,,,,,,,,,,,372.0657456,,,,,,,,375.163954,375.163954,375.163954,375.163954,375.163954,375.163954,375.163954,375.163954,None,None,None,,,,,,,,,,,372.0657456,372.0657456,None,,373.13282950000007,373.13282950000007,375.163954,n,372.0657456,372.0657456,0.5626004000000648,,16,001,2024-06-21_09h50.19.494,robot_nback_sign,2022.2.5,59.98760656045998,
T,False,1,letter,1,False,False,robot_stimuli\\filler.mp4,16,,,,,,,,,0,28,28,28,,,,,,,,,,,,,375.163954,376.21664,,,,,,,378.4420754,378.4420754,378.4420754,378.4420754,378.4420754,378.4420754,378.4420754,378.4420754,None,None,None,,,,,,,,,,,375.163954,375.163954,None,,376.21664,376.21664,378.4420754,n,375.163954,375.163954,0.6956827000000203,,16,001,2024-06-21_09h50.19.494,robot_nback_sign,2022.2.5,59.98760656045998,
Q,False,1,letter,1,False,False,robot_stimuli\\filler.mp4,16,,,,,,,,,0,29,29,29,,,,,,,,,,,,,378.4420754,379.50008320000006,,,,,,,381.5313483,381.5313483,381.5313483,381.5313483,381.5313483,381.5313483,381.5313483,381.5313483,None,None,None,,,,,,,,,,,378.4420754,378.4420754,None,,379.50008320000006,379.50008320000006,381.5313483,c,378.4420754,378.4420754,0.4198146999999608,,16,001,2024-06-21_09h50.19.494,robot_nback_sign,2022.2.5,59.98760656045998,
J,False,1,letter,1,False,False,robot_stimuli\\filler.mp4,16,,,,,,,,,0,30,30,30,,,,,,,,,,,,,381.5313483,,,,,,,,384.62458030000005,384.62458030000005,384.62458030000005,384.62458030000005,384.62458030000005,384.62458030000005,384.62458030000005,384.62458030000005,None,None,None,,,,,,,,,,,381.5313483,381.5313483,None,,382.5991891,382.5991891,384.62458030000005,n,381.5313483,381.5313483,0.6480953000000227,,16,001,2024-06-21_09h50.19.494,robot_nback_sign,2022.2.5,59.98760656045998,
D,False,1,letter,1,False,False,robot_stimuli\\filler.mp4,16,,,,,,,,,0,31,31,31,,,,,,,,,,,,,384.62458030000005,385.6832624,,,,,,,387.90637530000004,387.90637530000004,387.90637530000004,387.90637530000004,387.90637530000004,387.90637530000004,387.90637530000004,387.90637530000004,None,None,None,,,,,,,,,,,384.62458030000005,384.62458030000005,None,,385.6832624,385.6832624,387.90637530000004,n,384.62458030000005,384.62458030000005,0.5321268999999802,,16,001,2024-06-21_09h50.19.494,robot_nback_sign,2022.2.5,59.98760656045998,
D,True,1,letter,1,False,False,robot_stimuli\\filler.mp4,16,,,,,,,,,0,32,32,32,,,,,,,,,,,,,387.90637530000004,388.9638373,,,,,,,390.99193950000006,390.99193950000006,390.99193950000006,390.99193950000006,390.99193950000006,390.99193950000006,390.99193950000006,390.99193950000006,None,None,None,,,,,,,,,,,387.90637530000004,387.90637530000004,None,,388.9638373,388.9638373,390.99193950000006,c,387.90637530000004,387.90637530000004,0.5316113000000087,,16,001,2024-06-21_09h50.19.494,robot_nback_sign,2022.2.5,59.98760656045998,
P,False,1,letter,1,False,False,robot_stimuli\\filler.mp4,16,,,,,,,,,0,33,33,33,,,,,,,,,,,,,390.99193950000006,392.0607393,,,,,,,394.0888642,394.0888642,394.0888642,394.0888642,394.0888642,394.0888642,394.0888642,394.0888642,None,None,None,,,,,,,,,,,390.99193950000006,390.99193950000006,None,,392.0607393,392.0607393,394.0888642,n,390.99193950000006,390.99193950000006,0.5470653999999513,,16,001,2024-06-21_09h50.19.494,robot_nback_sign,2022.2.5,59.98760656045998,
G,False,1,letter,1,False,False,robot_stimuli\\filler.mp4,16,,,,,,,,,0,34,34,34,,,,,,,,,,,,,394.0888642,395.15296550000005,,,,,,,397.38158010000006,397.38158010000006,397.38158010000006,397.38158010000006,397.38158010000006,397.38158010000006,397.38158010000006,397.38158010000006,None,None,None,,,,,,,,,,,394.0888642,394.0888642,None,,395.15296550000005,395.15296550000005,397.38158010000006,n,394.0888642,394.0888642,0.5659769999999753,,16,001,2024-06-21_09h50.19.494,robot_nback_sign,2022.2.5,59.98760656045998,
V,False,1,letter,1,False,False,robot_stimuli\\filler.mp4,16,,,,,,,,,0,35,35,35,,,,,,,,,,,,,397.38158010000006,,,,,,,,400.47874390000004,400.47874390000004,400.47874390000004,400.47874390000004,400.47874390000004,400.47874390000004,400.47874390000004,400.47874390000004,None,None,None,,,,,,,,,,,397.38158010000006,397.38158010000006,None,,398.4565546,398.4565546,400.47874390000004,n,397.38158010000006,397.38158010000006,0.454702999999995,,16,001,2024-06-21_09h50.19.494,robot_nback_sign,2022.2.5,59.98760656045998,
H,False,1,letter,1,False,False,robot_stimuli\\filler.mp4,16,,,,,,,,,0,36,36,36,,,,,,,,,,,,,400.47874390000004,401.5338107,,,,,,,403.7614506,403.7614506,403.7614506,403.7614506,403.7614506,403.7614506,403.7614506,403.7614506,None,None,None,,,,,,,,,,,400.47874390000004,400.47874390000004,None,,401.5338107,401.5338107,403.7614506,n,400.47874390000004,400.47874390000004,0.48957929999994576,,16,001,2024-06-21_09h50.19.494,robot_nback_sign,2022.2.5,59.98760656045998,
K,False,1,letter,1,False,False,robot_stimuli\\filler.mp4,16,,,,,,,,,0,37,37,37,,,,,,,,,,,,,403.7614506,404.8196048,,,,,,,407.0399533,407.0399533,407.0399533,407.0399533,407.0399533,407.0399533,407.0399533,407.0399533,None,None,None,,,,,,,,,,,403.7614506,403.7614506,None,,404.8196048,404.8196048,407.0399533,n,403.7614506,403.7614506,0.4356527999999571,,16,001,2024-06-21_09h50.19.494,robot_nback_sign,2022.2.5,59.98760656045998,
L,False,1,letter,1,False,False,robot_stimuli\\filler.mp4,16,,,,,,,,,0,38,38,38,,,,,,,,,,,,,407.0399533,408.09977360000005,,,,,,,410.3351189,410.3351189,410.3351189,410.3351189,410.3351189,410.3351189,410.3351189,410.3351189,None,None,None,,,,,,,,,,,407.0399533,407.0399533,None,,408.09977360000005,408.09977360000005,410.3351189,n,407.0399533,407.0399533,0.4839415999999801,,16,001,2024-06-21_09h50.19.494,robot_nback_sign,2022.2.5,59.98760656045998,
G,False,1,letter,1,False,False,robot_stimuli\\filler.mp4,16,,,,,,,,,0,39,39,39,,,,,,,,,,,,,410.3351189,411.403,,,,,,,413.4231237,413.4231237,413.4231237,413.4231237,413.4231237,413.4231237,413.4231237,413.4231237,None,None,None,,,,,,,,,,,410.3351189,410.3351189,None,,411.403,411.403,413.4231237,n,410.3351189,410.3351189,0.4365265000000136,,16,001,2024-06-21_09h50.19.494,robot_nback_sign,2022.2.5,59.98760656045998,
X,False,1,letter,1,False,False,robot_stimuli\\filler.mp4,16,,,,,,,,,0,40,40,40,,,,,,,,,,,,,413.4231237,414.4823249,,,,,,,416.7116972,416.7116972,416.7116972,416.7116972,416.7116972,416.7116972,416.7116972,416.7116972,None,None,None,,,,,,,,,,,413.4231237,413.4231237,None,,414.4823249,414.4823249,416.7116972,n,413.4231237,413.4231237,0.5964141000000609,,16,001,2024-06-21_09h50.19.494,robot_nback_sign,2022.2.5,59.98760656045998,
G,False,1,letter,1,False,False,robot_stimuli\\filler.mp4,16,,,,,,,,,0,41,41,41,,,,,,,,,,,,,416.7116972,417.7690873,,,,,,,419.99635580000006,419.99635580000006,419.99635580000006,419.99635580000006,419.99635580000006,419.99635580000006,419.99635580000006,419.99635580000006,None,None,None,,,,,,,,,,,416.7116972,416.7116972,None,,417.7690873,417.7690873,419.99635580000006,n,416.7116972,416.7116972,0.503429600000004,,16,001,2024-06-21_09h50.19.494,robot_nback_sign,2022.2.5,59.98760656045998,
D,False,1,letter,1,False,False,robot_stimuli\\filler.mp4,16,,,,,,,,,0,42,42,42,,,,,,,,,,,,,419.99635580000006,421.04868380000005,,,,,,,423.27905540000006,423.27905540000006,423.27905540000006,423.27905540000006,423.27905540000006,423.27905540000006,423.27905540000006,423.27905540000006,None,None,None,,,,,,,,,,,419.99635580000006,419.99635580000006,None,,421.04868380000005,421.04868380000005,423.27905540000006,n,419.99635580000006,419.99635580000006,0.5436581999999817,,16,001,2024-06-21_09h50.19.494,robot_nback_sign,2022.2.5,59.98760656045998,
X,False,1,letter,1,False,False,robot_stimuli\\filler.mp4,16,,,,,,,,,0,43,43,43,,,,,,,,,,,,,423.27905540000006,424.3346947,,,,,,,426.5621785000001,426.5621785000001,426.5621785000001,426.5621785000001,426.5621785000001,426.5621785000001,426.5621785000001,426.5621785000001,None,None,None,,,,,,,,,,,423.27905540000006,423.27905540000006,None,,424.3346947,424.3346947,426.5621785000001,n,423.27905540000006,423.27905540000006,0.8095649000000549,,16,001,2024-06-21_09h50.19.494,robot_nback_sign,2022.2.5,59.98760656045998,
P,False,1,letter,1,False,False,robot_stimuli\\filler.mp4,16,,,,,,,,,0,44,44,44,,,,,,,,,,,,,426.5621785000001,427.6180746,,,,,,,429.6440949,429.6440949,429.6440949,429.6440949,429.6440949,429.6440949,429.6440949,429.6440949,None,None,None,,,,,,,,,,,426.5621785000001,426.5621785000001,None,,427.6180746,427.6180746,429.6440949,n,426.5621785000001,426.5621785000001,0.5025236000000177,,16,001,2024-06-21_09h50.19.494,robot_nback_sign,2022.2.5,59.98760656045998,
P,True,1,letter,1,False,False,robot_stimuli\\filler.mp4,16,,,,,,,,,0,45,45,45,,,,,,,,,,,,,429.6440949,430.701766,,,,,,,432.9207249,432.9207249,432.9207249,432.9207249,432.9207249,432.9207249,432.9207249,432.9207249,None,None,None,,,,,,,,,,,429.6440949,429.6440949,None,,430.701766,430.701766,432.9207249,c,429.6440949,429.6440949,0.41774960000009287,,16,001,2024-06-21_09h50.19.494,robot_nback_sign,2022.2.5,59.98760656045998,
X,False,1,letter,1,False,False,robot_stimuli\\filler.mp4,16,,,,,,,,,0,46,46,46,,,,,,,,,,,,,432.9207249,433.98535860000004,,,,,,,436.2067595,436.2067595,436.2067595,436.2067595,436.2067595,436.2067595,436.2067595,436.2067595,None,None,None,,,,,,,,,,,432.9207249,432.9207249,None,,433.98535860000004,433.98535860000004,436.2067595,n,432.9207249,432.9207249,0.4455862000000934,,16,001,2024-06-21_09h50.19.494,robot_nback_sign,2022.2.5,59.98760656045998,
R,False,1,letter,1,False,False,robot_stimuli\\filler.mp4,16,,,,,,,,,0,47,47,47,,,,,,,,,,,,,436.2067595,437.2663629,,,,,,,439.29720900000007,439.29720900000007,439.29720900000007,439.29720900000007,439.29720900000007,439.29720900000007,439.29720900000007,439.29720900000007,None,None,None,,,,,,,,,,,436.2067595,436.2067595,None,,437.2663629,437.2663629,439.29720900000007,n,436.2067595,436.2067595,0.5811049999999796,,16,001,2024-06-21_09h50.19.494,robot_nback_sign,2022.2.5,59.98760656045998,
N,False,1,letter,1,False,False,robot_stimuli\\filler.mp4,16,,,,,,,,,0,48,48,48,,,,,,,,,,,,,439.29720900000007,440.34898280000004,,,,,,,442.3813986,442.3813986,442.3813986,442.3813986,442.3813986,442.3813986,442.3813986,442.3813986,None,None,None,,,,,,,,,,,439.29720900000007,439.29720900000007,None,,440.34898280000004,440.34898280000004,442.3813986,n,439.29720900000007,439.29720900000007,0.7698073999999906,,16,001,2024-06-21_09h50.19.494,robot_nback_sign,2022.2.5,59.98760656045998,
V,False,1,letter,1,False,True,robot_stimuli\\filler.mp4,16,,,,,,,,,0,49,49,49,,,,,,,,,,,,,442.3813986,,,,,,,,445.5126824,449.06129680000004,445.5126824,449.06129680000004,445.5126824,449.06129680000004,445.5126824,449.06129680000004,26.450617283950614,2.855768000000012,space,,,,3.4952312000000347,,,,,,,442.3813986,442.3813986,None,,443.45051,443.45051,445.5126824,n,442.3813986,442.3813986,0.5652016000000231,,16,001,2024-06-21_09h50.19.494,robot_nback_sign,2022.2.5,59.98760656045998,
H,False,3,letter,1,True,False,robot_stimuli\\filler.mp4,16,,,,,,,,,0,50,50,50,,,,,,,,,,,,,461.1298276,462.1908614,,,,,,,464.2076631,464.2076631,464.2076631,464.2076631,464.2076631,464.2076631,464.2076631,464.2076631,None,None,None,,,,,,,,,,,449.06129680000004,449.06129680000004,space,12.051302700000065,462.1908614,462.1908614,464.2076631,None,,,,,16,001,2024-06-21_09h50.19.494,robot_nback_sign,2022.2.5,59.98760656045998,
H,False,3,letter,1,False,False,robot_stimuli\\filler.mp4,16,,,,,,,,,0,51,51,51,,,,,,,,,,,,,464.2076631,465.26563510000005,,,,,,,467.4908531,467.4908531,467.4908531,467.4908531,467.4908531,467.4908531,467.4908531,467.4908531,None,None,None,,,,,,,,,,,464.2076631,464.2076631,None,,465.26563510000005,465.26563510000005,467.4908531,None,464.2076631,464.2076631,,,16,001,2024-06-21_09h50.19.494,robot_nback_sign,2022.2.5,59.98760656045998,
F,False,3,letter,1,False,False,robot_stimuli\\filler.mp4,16,,,,,,,,,0,52,52,52,,,,,,,,,,,,,467.4908531,468.55013170000007,,,,,,,470.5820119,470.5820119,470.5820119,470.5820119,470.5820119,470.5820119,470.5820119,470.5820119,None,None,None,,,,,,,,,,,467.4908531,467.4908531,None,,468.55013170000007,468.55013170000007,470.5820119,None,467.4908531,467.4908531,,,16,001,2024-06-21_09h50.19.494,robot_nback_sign,2022.2.5,59.98760656045998,
N,False,3,letter,1,False,False,robot_stimuli\\filler.mp4,16,,,,,,,,,0,53,53,53,,,,,,,,,,,,,470.5820119,,,,,,,,473.87933810000004,473.87933810000004,473.87933810000004,473.87933810000004,473.87933810000004,473.87933810000004,473.87933810000004,473.87933810000004,None,None,None,,,,,,,,,,,470.5820119,470.5820119,None,,471.64920370000004,471.64920370000004,473.87933810000004,n,470.5820119,470.5820119,0.7748443000000407,,16,001,2024-06-21_09h50.19.494,robot_nback_sign,2022.2.5,59.98760656045998,
W,False,3,letter,1,False,False,robot_stimuli\\filler.mp4,16,,,,,,,,,0,54,54,54,,,,,,,,,,,,,473.87933810000004,474.93673250000006,,,,,,,476.9679522,476.9679522,476.9679522,476.9679522,476.9679522,476.9679522,476.9679522,476.9679522,None,None,None,,,,,,,,,,,473.87933810000004,473.87933810000004,None,,474.93673250000006,474.93673250000006,476.9679522,n,473.87933810000004,473.87933810000004,0.7510506999999507,,16,001,2024-06-21_09h50.19.494,robot_nback_sign,2022.2.5,59.98760656045998,
H,False,3,letter,1,False,False,robot_stimuli\\filler.mp4,16,,,,,,,,,0,55,55,55,,,,,,,,,,,,,476.9679522,478.03464900000006,,,,,,,480.25386160000005,480.25386160000005,480.25386160000005,480.25386160000005,480.25386160000005,480.25386160000005,480.25386160000005,480.25386160000005,None,None,None,,,,,,,,,,,476.9679522,476.9679522,None,,478.03464900000006,478.03464900000006,480.25386160000005,c,476.9679522,476.9679522,1.4776176999999961,,16,001,2024-06-21_09h50.19.494,robot_nback_sign,2022.2.5,59.98760656045998,
V,False,3,letter,1,False,False,robot_stimuli\\filler.mp4,16,,,,,,,,,0,56,56,56,,,,,,,,,,,,,480.25386160000005,481.315482,,,,,,,483.54730589999997,483.54730589999997,483.54730589999997,483.54730589999997,483.54730589999997,483.54730589999997,483.54730589999997,483.54730589999997,None,None,None,,,,,,,,,,,480.25386160000005,480.25386160000005,None,,481.315482,481.315482,483.54730589999997,n,480.25386160000005,480.25386160000005,1.5404284999999618,,16,001,2024-06-21_09h50.19.494,robot_nback_sign,2022.2.5,59.98760656045998,
M,False,3,letter,1,False,False,robot_stimuli\\filler.mp4,16,,,,,,,,,0,57,57,57,,,,,,,,,,,,,483.54730589999997,484.6008167,,,,,,,486.82678480000004,486.82678480000004,486.82678480000004,486.82678480000004,486.82678480000004,486.82678480000004,486.82678480000004,486.82678480000004,None,None,None,,,,,,,,,,,483.54730589999997,483.54730589999997,None,,484.6008167,484.6008167,486.82678480000004,n,483.54730589999997,483.54730589999997,0.9818030000000135,,16,001,2024-06-21_09h50.19.494,robot_nback_sign,2022.2.5,59.98760656045998,
V,False,3,letter,1,False,False,robot_stimuli\\filler.mp4,16,,,,,,,,,0,58,58,58,,,,,,,,,,,,,486.82678480000004,487.88387250000005,,,,,,,490.1054255,490.1054255,490.1054255,490.1054255,490.1054255,490.1054255,490.1054255,490.1054255,None,None,None,,,,,,,,,,,486.82678480000004,486.82678480000004,None,,487.88387250000005,487.88387250000005,490.1054255,c,486.82678480000004,486.82678480000004,1.79479409999999,,16,001,2024-06-21_09h50.19.494,robot_nback_sign,2022.2.5,59.98760656045998,
Q,False,3,letter,1,False,False,robot_stimuli\\filler.mp4,16,,,,,,,,,0,59,59,59,,,,,,,,,,,,,490.1054255,491.1697604,,,,,,,493.1889181,493.1889181,493.1889181,493.1889181,493.1889181,493.1889181,493.1889181,493.1889181,None,None,None,,,,,,,,,,,490.1054255,490.1054255,None,,491.1697604,491.1697604,493.1889181,n,490.1054255,490.1054255,1.0847443000000112,,16,001,2024-06-21_09h50.19.494,robot_nback_sign,2022.2.5,59.98760656045998,
H,False,3,letter,1,False,False,robot_stimuli\\filler.mp4,16,,,,,,,,,0,60,60,60,,,,,,,,,,,,,493.1889181,494.24899260000007,,,,,,,496.4792923,496.4792923,496.4792923,496.4792923,496.4792923,496.4792923,496.4792923,496.4792923,None,None,None,,,,,,,,,,,493.1889181,493.1889181,None,,494.24899260000007,494.24899260000007,496.4792923,n,493.1889181,493.1889181,1.0298662999999806,,16,001,2024-06-21_09h50.19.494,robot_nback_sign,2022.2.5,59.98760656045998,
V,True,3,letter,1,False,False,robot_stimuli\\filler.mp4,16,,,,,,,,,0,61,61,61,,,,,,,,,,,,,496.4792923,497.5358334,,,,,,,499.7590834,499.7590834,499.7590834,499.7590834,499.7590834,499.7590834,499.7590834,499.7590834,None,None,None,,,,,,,,,,,496.4792923,496.4792923,None,,497.5358334,497.5358334,499.7590834,c,496.4792923,496.4792923,0.8636311999999862,,16,001,2024-06-21_09h50.19.494,robot_nback_sign,2022.2.5,59.98760656045998,
K,False,3,letter,1,False,False,robot_stimuli\\filler.mp4,16,,,,,,,,,0,62,62,62,,,,,,,,,,,,,499.7590834,500.8144423,,,,,,,503.04153930000007,503.04153930000007,503.04153930000007,503.04153930000007,503.04153930000007,503.04153930000007,503.04153930000007,503.04153930000007,None,None,None,,,,,,,,,,,499.7590834,499.7590834,None,,500.8144423,500.8144423,503.04153930000007,c,499.7590834,499.7590834,1.5534913999999844,,16,001,2024-06-21_09h50.19.494,robot_nback_sign,2022.2.5,59.98760656045998,
P,False,3,letter,1,False,False,robot_stimuli\\filler.mp4,16,,,,,,,,,0,63,63,63,,,,,,,,,,,,,503.04153930000007,504.1030385,,,,,,,506.32986660000006,506.32986660000006,506.32986660000006,506.32986660000006,506.32986660000006,506.32986660000006,506.32986660000006,506.32986660000006,None,None,None,,,,,,,,,,,503.04153930000007,503.04153930000007,None,,504.1030385,504.1030385,506.32986660000006,n,503.04153930000007,503.04153930000007,0.9528351000000157,,16,001,2024-06-21_09h50.19.494,robot_nback_sign,2022.2.5,59.98760656045998,
D,False,3,letter,1,False,False,robot_stimuli\\filler.mp4,16,,,,,,,,,0,64,64,64,,,,,,,,,,,,,506.32986660000006,507.38326400000005,,,,,,,509.61084560000006,509.61084560000006,509.61084560000006,509.61084560000006,509.61084560000006,509.61084560000006,509.61084560000006,509.61084560000006,None,None,None,,,,,,,,,,,506.32986660000006,506.32986660000006,None,,507.38326400000005,507.38326400000005,509.61084560000006,n,506.32986660000006,506.32986660000006,0.6798503999999639,,16,001,2024-06-21_09h50.19.494,robot_nback_sign,2022.2.5,59.98760656045998,
S,False,3,letter,1,False,False,robot_stimuli\\filler.mp4,16,,,,,,,,,0,65,65,65,,,,,,,,,,,,,509.61084560000006,510.6684053,,,,,,,512.8884392,512.8884392,512.8884392,512.8884392,512.8884392,512.8884392,512.8884392,512.8884392,None,None,None,,,,,,,,,,,509.61084560000006,509.61084560000006,None,,510.6684053,510.6684053,512.8884392,n,509.61084560000006,509.61084560000006,0.6756917999999814,,16,001,2024-06-21_09h50.19.494,robot_nback_sign,2022.2.5,59.98760656045998,
P,True,3,letter,1,False,False,robot_stimuli\\filler.mp4,16,,,,,,,,,0,66,66,66,,,,,,,,,,,,,512.8884392,513.9597486,,,,,,,515.991057,515.991057,515.991057,515.991057,515.991057,515.991057,515.991057,515.991057,None,None,None,,,,,,,,,,,512.8884392,512.8884392,None,,513.9597486,513.9597486,515.991057,c,512.8884392,512.8884392,0.5686951999998655,,16,001,2024-06-21_09h50.19.494,robot_nback_sign,2022.2.5,59.98760656045998,
L,False,3,letter,1,False,False,robot_stimuli\\filler.mp4,16,,,,,,,,,0,67,67,67,,,,,,,,,,,,,515.991057,517.0630389,,,,,,,519.0828118,519.0828118,519.0828118,519.0828118,519.0828118,519.0828118,519.0828118,519.0828118,None,None,None,,,,,,,,,,,515.991057,515.991057,None,,517.0630389,517.0630389,519.0828118,n,515.991057,515.991057,0.9999214000001757,,16,001,2024-06-21_09h50.19.494,robot_nback_sign,2022.2.5,59.98760656045998,
Q,False,3,letter,1,False,False,robot_stimuli\\filler.mp4,16,,,,,,,,,0,68,68,68,,,,,,,,,,,,,519.0828118,,,,,,,,522.3768046,522.3768046,522.3768046,522.3768046,522.3768046,522.3768046,522.3768046,522.3768046,None,None,None,,,,,,,,,,,519.0828118,519.0828118,None,,520.1507165,520.1507165,522.3768046,n,519.0828118,519.0828118,0.7201388000000861,,16,001,2024-06-21_09h50.19.494,robot_nback_sign,2022.2.5,59.98760656045998,
H,False,3,letter,1,False,False,robot_stimuli\\filler.mp4,16,,,,,,,,,0,69,69,69,,,,,,,,,,,,,522.3768046,523.4362295000001,,,,,,,525.6583409,525.6583409,525.6583409,525.6583409,525.6583409,525.6583409,525.6583409,525.6583409,None,None,None,,,,,,,,,,,522.3768046,522.3768046,None,,523.4362295000001,523.4362295000001,525.6583409,n,522.3768046,522.3768046,0.5880286999999953,,16,001,2024-06-21_09h50.19.494,robot_nback_sign,2022.2.5,59.98760656045998,
J,False,3,letter,1,False,False,robot_stimuli\\filler.mp4,16,,,,,,,,,0,70,70,70,,,,,,,,,,,,,525.6583409,526.7256583000001,,,,,,,528.7466408,528.7466408,528.7466408,528.7466408,528.7466408,528.7466408,528.7466408,528.7466408,None,None,None,,,,,,,,,,,525.6583409,525.6583409,None,,526.7256583000001,526.7256583000001,528.7466408,n,525.6583409,525.6583409,0.7140987000000223,,16,001,2024-06-21_09h50.19.494,robot_nback_sign,2022.2.5,59.98760656045998,
X,False,3,letter,1,False,False,robot_stimuli\\filler.mp4,16,,,,,,,,,0,71,71,71,,,,,,,,,,,,,528.7466408,529.8000116999999,,,,,,,532.0249878,532.0249878,532.0249878,532.0249878,532.0249878,532.0249878,532.0249878,532.0249878,None,None,None,,,,,,,,,,,528.7466408,528.7466408,None,,529.8000116999999,529.8000116999999,532.0249878,n,528.7466408,528.7466408,0.49463889999992716,,16,001,2024-06-21_09h50.19.494,robot_nback_sign,2022.2.5,59.98760656045998,
H,True,3,letter,1,False,False,robot_stimuli\\filler.mp4,16,,,,,,,,,0,72,72,72,,,,,,,,,,,,,532.0249878,533.0821257,,,,,,,535.3176158000001,535.3176158000001,535.3176158000001,535.3176158000001,535.3176158000001,535.3176158000001,535.3176158000001,535.3176158000001,None,None,None,,,,,,,,,,,532.0249878,532.0249878,None,,533.0821257,533.0821257,535.3176158000001,n,532.0249878,532.0249878,0.7739524000000984,,16,001,2024-06-21_09h50.19.494,robot_nback_sign,2022.2.5,59.98760656045998,
J,True,3,letter,1,False,False,robot_stimuli\\filler.mp4,16,,,,,,,,,0,73,73,73,,,,,,,,,,,,,535.3176158000001,536.3931097,,,,,,,538.4243676000001,538.4243676000001,538.4243676000001,538.4243676000001,538.4243676000001,538.4243676000001,538.4243676000001,538.4243676000001,None,None,None,,,,,,,,,,,535.3176158000001,535.3176158000001,None,,536.3931097,536.3931097,538.4243676000001,c,535.3176158000001,535.3176158000001,0.6141100999998343,,16,001,2024-06-21_09h50.19.494,robot_nback_sign,2022.2.5,59.98760656045998,
D,False,3,letter,1,False,False,robot_stimuli\\filler.mp4,16,,,,,,,,,0,74,74,74,,,,,,,,,,,,,538.4243676000001,539.4825470000001,,,,,,,541.5164173000001,541.5164173000001,541.5164173000001,541.5164173000001,541.5164173000001,541.5164173000001,541.5164173000001,541.5164173000001,None,None,None,,,,,,,,,,,538.4243676000001,538.4243676000001,None,,539.4825470000001,539.4825470000001,541.5164173000001,n,538.4243676000001,538.4243676000001,0.5883593999999448,,16,001,2024-06-21_09h50.19.494,robot_nback_sign,2022.2.5,59.98760656045998,
H,True,3,letter,1,False,False,robot_stimuli\\filler.mp4,16,,,,,,,,,0,75,75,75,,,,,,,,,,,,,541.5164173000001,,,,,,,,544.8103550999999,544.8103550999999,544.8103550999999,544.8103550999999,544.8103550999999,544.8103550999999,544.8103550999999,544.8103550999999,None,None,None,,,,,,,,,,,541.5164173000001,541.5164173000001,None,,542.5835907000001,542.5835907000001,544.8103550999999,c,541.5164173000001,541.5164173000001,1.4243108000000575,,16,001,2024-06-21_09h50.19.494,robot_nback_sign,2022.2.5,59.98760656045998,
S,False,3,letter,1,False,False,robot_stimuli\\filler.mp4,16,,,,,,,,,0,76,76,76,,,,,,,,,,,,,544.8103550999999,545.8681075,,,,,,,548.0941952999999,548.0941952999999,548.0941952999999,548.0941952999999,548.0941952999999,548.0941952999999,548.0941952999999,548.0941952999999,None,None,None,,,,,,,,,,,544.8103550999999,544.8103550999999,None,,545.8681075,545.8681075,548.0941952999999,n,544.8103550999999,544.8103550999999,1.0274807999999211,,16,001,2024-06-21_09h50.19.494,robot_nback_sign,2022.2.5,59.98760656045998,
W,False,3,letter,1,False,False,robot_stimuli\\filler.mp4,16,,,,,,,,,0,77,77,77,,,,,,,,,,,,,548.0941952999999,549.1504599,,,,,,,551.1849715999999,551.1849715999999,551.1849715999999,551.1849715999999,551.1849715999999,551.1849715999999,551.1849715999999,551.1849715999999,None,None,None,,,,,,,,,,,548.0941952999999,548.0941952999999,None,,549.1504599,549.1504599,551.1849715999999,n,548.0941952999999,548.0941952999999,0.8405531000000792,,16,001,2024-06-21_09h50.19.494,robot_nback_sign,2022.2.5,59.98760656045998,
H,True,3,letter,1,False,False,robot_stimuli\\filler.mp4,16,,,,,,,,,0,78,78,78,,,,,,,,,,,,,551.1849715999999,552.2503217999999,,,,,,,554.2853567,554.2853567,554.2853567,554.2853567,554.2853567,554.2853567,554.2853567,554.2853567,None,None,None,,,,,,,,,,,551.1849715999999,551.1849715999999,None,,552.2503217999999,552.2503217999999,554.2853567,c,551.1849715999999,551.1849715999999,0.4690590999998676,,16,001,2024-06-21_09h50.19.494,robot_nback_sign,2022.2.5,59.98760656045998,
R,False,3,letter,1,False,False,robot_stimuli\\filler.mp4,16,,,,,,,,,0,79,79,79,,,,,,,,,,,,,554.2853567,555.3493516000001,,,,,,,557.3788750000001,557.3788750000001,557.3788750000001,557.3788750000001,557.3788750000001,557.3788750000001,557.3788750000001,557.3788750000001,None,None,None,,,,,,,,,,,554.2853567,554.2853567,None,,555.3493516000001,555.3493516000001,557.3788750000001,n,554.2853567,554.2853567,0.8172926000002008,,16,001,2024-06-21_09h50.19.494,robot_nback_sign,2022.2.5,59.98760656045998,
D,False,3,letter,1,False,False,robot_stimuli\\filler.mp4,16,,,,,,,,,0,80,80,80,,,,,,,,,,,,,557.3788750000001,558.4307450000001,,,,,,,560.4622594,560.4622594,560.4622594,560.4622594,560.4622594,560.4622594,560.4622594,560.4622594,None,None,None,,,,,,,,,,,557.3788750000001,557.3788750000001,None,,558.4307450000001,558.4307450000001,560.4622594,n,557.3788750000001,557.3788750000001,0.7771459999999024,,16,001,2024-06-21_09h50.19.494,robot_nback_sign,2022.2.5,59.98760656045998,
H,True,3,letter,1,False,False,robot_stimuli\\filler.mp4,16,,,,,,,,,0,81,81,81,,,,,,,,,,,,,560.4622594,561.5249507000001,,,,,,,563.5460456999999,563.5460456999999,563.5460456999999,563.5460456999999,563.5460456999999,563.5460456999999,563.5460456999999,563.5460456999999,None,None,None,,,,,,,,,,,560.4622594,560.4622594,None,,561.5249507000001,561.5249507000001,563.5460456999999,c,560.4622594,560.4622594,0.4194598000001406,,16,001,2024-06-21_09h50.19.494,robot_nback_sign,2022.2.5,59.98760656045998,
G,False,3,letter,1,False,False,robot_stimuli\\filler.mp4,16,,,,,,,,,0,82,82,82,,,,,,,,,,,,,563.5460456999999,564.6023647,,,,,,,566.821504,566.821504,566.821504,566.821504,566.821504,566.821504,566.821504,566.821504,None,None,None,,,,,,,,,,,563.5460456999999,563.5460456999999,None,,564.6023647,564.6023647,566.821504,n,563.5460456999999,563.5460456999999,0.7741946999999527,,16,001,2024-06-21_09h50.19.494,robot_nback_sign,2022.2.5,59.98760656045998,
R,False,3,letter,1,False,False,robot_stimuli\\filler.mp4,16,,,,,,,,,0,83,83,83,,,,,,,,,,,,,566.821504,567.8859702,,,,,,,570.1155632,570.1155632,570.1155632,570.1155632,570.1155632,570.1155632,570.1155632,570.1155632,None,None,None,,,,,,,,,,,566.821504,566.821504,None,,567.8859702,567.8859702,570.1155632,c,566.821504,566.821504,1.5624241000000438,,16,001,2024-06-21_09h50.19.494,robot_nback_sign,2022.2.5,59.98760656045998,
S,False,3,letter,1,False,False,robot_stimuli\\filler.mp4,16,,,,,,,,,0,84,84,84,,,,,,,,,,,,,570.1155632,,,,,,,,573.4166101000001,573.4166101000001,573.4166101000001,573.4166101000001,573.4166101000001,573.4166101000001,573.4166101000001,573.4166101000001,None,None,None,,,,,,,,,,,570.1155632,570.1155632,None,,571.1831956000001,571.1831956000001,573.4166101000001,n,570.1155632,570.1155632,0.9600612000001547,,16,001,2024-06-21_09h50.19.494,robot_nback_sign,2022.2.5,59.98760656045998,
B,False,3,letter,1,False,False,robot_stimuli\\filler.mp4,16,,,,,,,,,0,85,85,85,,,,,,,,,,,,,573.4166101000001,574.4877510000001,,,,,,,576.7130162999999,576.7130162999999,576.7130162999999,576.7130162999999,576.7130162999999,576.7130162999999,576.7130162999999,576.7130162999999,None,None,None,,,,,,,,,,,573.4166101000001,573.4166101000001,None,,574.4877510000001,574.4877510000001,576.7130162999999,n,573.4166101000001,573.4166101000001,0.6964484999998604,,16,001,2024-06-21_09h50.19.494,robot_nback_sign,2022.2.5,59.98760656045998,
Z,False,3,letter,1,False,False,robot_stimuli\\filler.mp4,16,,,,,,,,,0,86,86,86,,,,,,,,,,,,,576.7130162999999,577.765451,,,,,,,579.9909869,579.9909869,579.9909869,579.9909869,579.9909869,579.9909869,579.9909869,579.9909869,None,None,None,,,,,,,,,,,576.7130162999999,576.7130162999999,None,,577.765451,577.765451,579.9909869,n,576.7130162999999,576.7130162999999,0.6976247000000058,,16,001,2024-06-21_09h50.19.494,robot_nback_sign,2022.2.5,59.98760656045998,
R,False,3,letter,1,False,False,robot_stimuli\\filler.mp4,16,,,,,,,,,0,87,87,87,,,,,,,,,,,,,579.9909869,581.0539011000001,,,,,,,583.2813777000001,583.2813777000001,583.2813777000001,583.2813777000001,583.2813777000001,583.2813777000001,583.2813777000001,583.2813777000001,None,None,None,,,,,,,,,,,579.9909869,579.9909869,None,,581.0539011000001,581.0539011000001,583.2813777000001,n,579.9909869,579.9909869,1.641448999999966,,16,001,2024-06-21_09h50.19.494,robot_nback_sign,2022.2.5,59.98760656045998,
B,True,3,letter,1,False,False,robot_stimuli\\filler.mp4,16,,,,,,,,,0,88,88,88,,,,,,,,,,,,,583.2813777000001,,,,,,,,586.5797262000001,586.5797262000001,586.5797262000001,586.5797262000001,586.5797262000001,586.5797262000001,586.5797262000001,586.5797262000001,None,None,None,,,,,,,,,,,583.2813777000001,583.2813777000001,None,,584.348491,584.348491,586.5797262000001,c,583.2813777000001,583.2813777000001,0.723710600000004,,16,001,2024-06-21_09h50.19.494,robot_nback_sign,2022.2.5,59.98760656045998,
Z,True,3,letter,1,False,False,robot_stimuli\\filler.mp4,16,,,,,,,,,0,89,89,89,,,,,,,,,,,,,586.5797262000001,587.6365596999999,,,,,,,589.8592596999999,589.8592596999999,589.8592596999999,589.8592596999999,589.8592596999999,589.8592596999999,589.8592596999999,589.8592596999999,None,None,None,,,,,,,,,,,586.5797262000001,586.5797262000001,None,,587.6365596999999,587.6365596999999,589.8592596999999,n,586.5797262000001,586.5797262000001,0.9312230000000454,,16,001,2024-06-21_09h50.19.494,robot_nback_sign,2022.2.5,59.98760656045998,
G,False,3,letter,1,False,False,robot_stimuli\\filler.mp4,16,,,,,,,,,0,90,90,90,,,,,,,,,,,,,589.8592596999999,590.9141531,,,,,,,592.9413948000001,592.9413948000001,592.9413948000001,592.9413948000001,592.9413948000001,592.9413948000001,592.9413948000001,592.9413948000001,None,None,None,,,,,,,,,,,589.8592596999999,589.8592596999999,None,,590.9141531,590.9141531,592.9413948000001,n,589.8592596999999,589.8592596999999,0.9645561999998336,,16,001,2024-06-21_09h50.19.494,robot_nback_sign,2022.2.5,59.98760656045998,
V,False,3,letter,1,False,False,robot_stimuli\\filler.mp4,16,,,,,,,,,0,91,91,91,,,,,,,,,,,,,592.9413948000001,594.0034034,,,,,,,596.0283696000001,596.0283696000001,596.0283696000001,596.0283696000001,596.0283696000001,596.0283696000001,596.0283696000001,596.0283696000001,None,None,None,,,,,,,,,,,592.9413948000001,592.9413948000001,None,,594.0034034,594.0034034,596.0283696000001,n,592.9413948000001,592.9413948000001,0.7561593000000357,,16,001,2024-06-21_09h50.19.494,robot_nback_sign,2022.2.5,59.98760656045998,
Q,False,3,letter,1,False,False,robot_stimuli\\filler.mp4,16,,,,,,,,,0,92,92,92,,,,,,,,,,,,,596.0283696000001,597.0843927000001,,,,,,,599.3092764,599.3092764,599.3092764,599.3092764,599.3092764,599.3092764,599.3092764,599.3092764,None,None,None,,,,,,,,,,,596.0283696000001,596.0283696000001,None,,597.0843927000001,597.0843927000001,599.3092764,n,596.0283696000001,596.0283696000001,0.6360374999999294,,16,001,2024-06-21_09h50.19.494,robot_nback_sign,2022.2.5,59.98760656045998,
M,False,3,letter,1,False,False,robot_stimuli\\filler.mp4,16,,,,,,,,,0,93,93,93,,,,,,,,,,,,,599.3092764,600.3685173000001,,,,,,,602.5948114,602.5948114,602.5948114,602.5948114,602.5948114,602.5948114,602.5948114,602.5948114,None,None,None,,,,,,,,,,,599.3092764,599.3092764,None,,600.3685173000001,600.3685173000001,602.5948114,n,599.3092764,599.3092764,0.6715357000000495,,16,001,2024-06-21_09h50.19.494,robot_nback_sign,2022.2.5,59.98760656045998,
G,False,3,letter,1,False,False,robot_stimuli\\filler.mp4,16,,,,,,,,,0,94,94,94,,,,,,,,,,,,,602.5948114,603.6492046000001,,,,,,,605.8805030999999,605.8805030999999,605.8805030999999,605.8805030999999,605.8805030999999,605.8805030999999,605.8805030999999,605.8805030999999,None,None,None,,,,,,,,,,,602.5948114,602.5948114,None,,603.6492046000001,603.6492046000001,605.8805030999999,c,602.5948114,602.5948114,1.2867907999998351,,16,001,2024-06-21_09h50.19.494,robot_nback_sign,2022.2.5,59.98760656045998,
N,False,3,letter,1,False,False,robot_stimuli\\filler.mp4,16,,,,,,,,,0,95,95,95,,,,,,,,,,,,,605.8805030999999,606.9352283000001,,,,,,,609.1564432,609.1564432,609.1564432,609.1564432,609.1564432,609.1564432,609.1564432,609.1564432,None,None,None,,,,,,,,,,,605.8805030999999,605.8805030999999,None,,606.9352283000001,606.9352283000001,609.1564432,n,605.8805030999999,605.8805030999999,0.7914123999998992,,16,001,2024-06-21_09h50.19.494,robot_nback_sign,2022.2.5,59.98760656045998,
Z,False,3,letter,1,False,False,robot_stimuli\\filler.mp4,16,,,,,,,,,0,96,96,96,,,,,,,,,,,,,609.1564432,610.2153705999999,,,,,,,612.4469154000001,612.4469154000001,612.4469154000001,612.4469154000001,612.4469154000001,612.4469154000001,612.4469154000001,612.4469154000001,None,None,None,,,,,,,,,,,609.1564432,609.1564432,None,,610.2153705999999,610.2153705999999,612.4469154000001,n,609.1564432,609.1564432,0.8074710999999297,,16,001,2024-06-21_09h50.19.494,robot_nback_sign,2022.2.5,59.98760656045998,
G,True,3,letter,1,False,False,robot_stimuli\\filler.mp4,16,,,,,,,,,0,97,97,97,,,,,,,,,,,,,612.4469154000001,613.4990746999999,,,,,,,615.7209216000001,615.7209216000001,615.7209216000001,615.7209216000001,615.7209216000001,615.7209216000001,615.7209216000001,615.7209216000001,None,None,None,,,,,,,,,,,612.4469154000001,612.4469154000001,None,,613.4990746999999,613.4990746999999,615.7209216000001,c,612.4469154000001,612.4469154000001,0.6287388000000647,,16,001,2024-06-21_09h50.19.494,robot_nback_sign,2022.2.5,59.98760656045998,
S,False,3,letter,1,False,False,robot_stimuli\\filler.mp4,16,,,,,,,,,0,98,98,98,,,,,,,,,,,,,615.7209216000001,616.7845571,,,,,,,619.014966,619.014966,619.014966,619.014966,619.014966,619.014966,619.014966,619.014966,None,None,None,,,,,,,,,,,615.7209216000001,615.7209216000001,None,,616.7845571,616.7845571,619.014966,n,615.7209216000001,615.7209216000001,0.9662720999999692,,16,001,2024-06-21_09h50.19.494,robot_nback_sign,2022.2.5,59.98760656045998,
D,False,3,letter,1,False,True,robot_stimuli\\filler.mp4,16,,,,,,,,,0,99,99,99,,,,,,,,,,,,,619.014966,,,,,,,,622.1500096,627.6231719,622.1500096,627.6231719,622.1500096,627.6231719,622.1500096,627.6231719,56.23456790123457,4.813397699999996,space,,,,5.425030200000037,,,,,,,619.014966,619.014966,None,,620.0864114000001,620.0864114000001,622.1500096,n,619.014966,619.014966,0.6336676999999327,,16,001,2024-06-21_09h50.19.494,robot_nback_sign,2022.2.5,59.98760656045998,
T,False,2,letter,1,True,False,robot_stimuli\\filler.mp4,16,,,,,,,,,0,100,100,100,,,,,,,,,,,,,630.0130922000001,631.0678922,,,,,,,633.2905794000001,633.2905794000001,633.2905794000001,633.2905794000001,633.2905794000001,633.2905794000001,633.2905794000001,633.2905794000001,None,None,None,,,,,,,,,,,627.6231719,627.6231719,space,2.368947700000035,631.0678922,631.0678922,633.2905794000001,None,,,,,16,001,2024-06-21_09h50.19.494,robot_nback_sign,2022.2.5,59.98760656045998,
Q,False,2,letter,1,False,False,robot_stimuli\\filler.mp4,16,,,,,,,,,0,101,101,101,,,,,,,,,,,,,633.2905794000001,634.3507651,,,,,,,636.5822152000001,636.5822152000001,636.5822152000001,636.5822152000001,636.5822152000001,636.5822152000001,636.5822152000001,636.5822152000001,None,None,None,,,,,,,,,,,633.2905794000001,633.2905794000001,None,,634.3507651,634.3507651,636.5822152000001,None,633.2905794000001,633.2905794000001,,,16,001,2024-06-21_09h50.19.494,robot_nback_sign,2022.2.5,59.98760656045998,
J,False,2,letter,1,False,False,robot_stimuli\\filler.mp4,16,,,,,,,,,0,102,102,102,,,,,,,,,,,,,636.5822152000001,,,,,,,,639.6863185,639.6863185,639.6863185,639.6863185,639.6863185,639.6863185,639.6863185,639.6863185,None,None,None,,,,,,,,,,,636.5822152000001,636.5822152000001,None,,637.6500521,637.6500521,639.6863185,n,636.5822152000001,636.5822152000001,0.9015951999999743,,16,001,2024-06-21_09h50.19.494,robot_nback_sign,2022.2.5,59.98760656045998,
Q,True,2,letter,1,False,False,robot_stimuli\\filler.mp4,16,,,,,,,,,0,103,103,103,,,,,,,,,,,,,639.6863185,640.7493713000001,,,,,,,642.9766953000001,642.9766953000001,642.9766953000001,642.9766953000001,642.9766953000001,642.9766953000001,642.9766953000001,642.9766953000001,None,None,None,,,,,,,,,,,639.6863185,639.6863185,None,,640.7493713000001,640.7493713000001,642.9766953000001,c,639.6863185,639.6863185,0.681860800000095,,16,001,2024-06-21_09h50.19.494,robot_nback_sign,2022.2.5,59.98760656045998,
H,False,2,letter,1,False,False,robot_stimuli\\filler.mp4,16,,,,,,,,,0,104,104,104,,,,,,,,,,,,,642.9766953000001,644.0319618999999,,,,,,,646.2610725,646.2610725,646.2610725,646.2610725,646.2610725,646.2610725,646.2610725,646.2610725,None,None,None,,,,,,,,,,,642.9766953000001,642.9766953000001,None,,644.0319618999999,644.0319618999999,646.2610725,n,642.9766953000001,642.9766953000001,0.8723085999999967,,16,001,2024-06-21_09h50.19.494,robot_nback_sign,2022.2.5,59.98760656045998,
Z,False,2,letter,1,False,False,robot_stimuli\\filler.mp4,16,,,,,,,,,0,105,105,105,,,,,,,,,,,,,646.2610725,647.3164214999999,,,,,,,649.5467394,649.5467394,649.5467394,649.5467394,649.5467394,649.5467394,649.5467394,649.5467394,None,None,None,,,,,,,,,,,646.2610725,646.2610725,None,,647.3164214999999,647.3164214999999,649.5467394,n,646.2610725,646.2610725,0.731311900000037,,16,001,2024-06-21_09h50.19.494,robot_nback_sign,2022.2.5,59.98760656045998,
K,False,2,letter,1,False,False,robot_stimuli\\filler.mp4,16,,,,,,,,,0,106,106,106,,,,,,,,,,,,,649.5467394,650.5987600000001,,,,,,,652.8273439,652.8273439,652.8273439,652.8273439,652.8273439,652.8273439,652.8273439,652.8273439,None,None,None,,,,,,,,,,,649.5467394,649.5467394,None,,650.5987600000001,650.5987600000001,652.8273439,c,649.5467394,649.5467394,1.2645833999999923,,16,001,2024-06-21_09h50.19.494,robot_nback_sign,2022.2.5,59.98760656045998,
B,False,2,letter,1,False,False,robot_stimuli\\filler.mp4,16,,,,,,,,,0,107,107,107,,,,,,,,,,,,,652.8273439,653.8833844999999,,,,,,,655.9095666000001,655.9095666000001,655.9095666000001,655.9095666000001,655.9095666000001,655.9095666000001,655.9095666000001,655.9095666000001,None,None,None,,,,,,,,,,,652.8273439,652.8273439,None,,653.8833844999999,653.8833844999999,655.9095666000001,n,652.8273439,652.8273439,0.9566649999999299,,16,001,2024-06-21_09h50.19.494,robot_nback_sign,2022.2.5,59.98760656045998,
C,False,2,letter,1,False,False,robot_stimuli\\filler.mp4,16,,,,,,,,,0,108,108,108,,,,,,,,,,,,,655.9095666000001,656.9693668,,,,,,,659.0015808999999,659.0015808999999,659.0015808999999,659.0015808999999,659.0015808999999,659.0015808999999,659.0015808999999,659.0015808999999,None,None,None,,,,,,,,,,,655.9095666000001,655.9095666000001,None,,656.9693668,656.9693668,659.0015808999999,n,655.9095666000001,655.9095666000001,0.7505280000000312,,16,001,2024-06-21_09h50.19.494,robot_nback_sign,2022.2.5,59.98760656045998,
B,True,2,letter,1,False,False,robot_stimuli\\filler.mp4,16,,,,,,,,,0,109,109,109,,,,,,,,,,,,,659.0015808999999,660.0666357,,,,,,,662.0963862000001,662.0963862000001,662.0963862000001,662.0963862000001,662.0963862000001,662.0963862000001,662.0963862000001,662.0963862000001,None,None,None,,,,,,,,,,,659.0015808999999,659.0015808999999,None,,660.0666357,660.0666357,662.0963862000001,c,659.0015808999999,659.0015808999999,0.46905820000006315,,16,001,2024-06-21_09h50.19.494,robot_nback_sign,2022.2.5,59.98760656045998,
R,False,2,letter,1,False,False,robot_stimuli\\filler.mp4,16,,,,,,,,,0,110,110,110,,,,,,,,,,,,,662.0963862000001,663.1486883,,,,,,,665.3813838000001,665.3813838000001,665.3813838000001,665.3813838000001,665.3813838000001,665.3813838000001,665.3813838000001,665.3813838000001,None,None,None,,,,,,,,,,,662.0963862000001,662.0963862000001,None,,663.1486883,663.1486883,665.3813838000001,n,662.0963862000001,662.0963862000001,1.7299863000000641,,16,001,2024-06-21_09h50.19.494,robot_nback_sign,2022.2.5,59.98760656045998,
S,False,2,letter,1,False,False,robot_stimuli\\filler.mp4,16,,,,,,,,,0,111,111,111,,,,,,,,,,,,,665.3813838000001,,,,,,,,668.6776411000001,668.6776411000001,668.6776411000001,668.6776411000001,668.6776411000001,668.6776411000001,668.6776411000001,668.6776411000001,None,None,None,,,,,,,,,,,665.3813838000001,665.3813838000001,None,,666.4497776999999,666.4497776999999,668.6776411000001,n,665.3813838000001,665.3813838000001,1.0464239000000362,,16,001,2024-06-21_09h50.19.494,robot_nback_sign,2022.2.5,59.98760656045998,
R,True,2,letter,1,False,False,robot_stimuli\\filler.mp4,16,,,,,,,,,0,112,112,112,,,,,,,,,,,,,668.6776411000001,669.732542,,,,,,,671.9634166000001,671.9634166000001,671.9634166000001,671.9634166000001,671.9634166000001,671.9634166000001,671.9634166000001,671.9634166000001,None,None,None,,,,,,,,,,,668.6776411000001,668.6776411000001,None,,669.732542,669.732542,671.9634166000001,c,668.6776411000001,668.6776411000001,0.3952182000000448,,16,001,2024-06-21_09h50.19.494,robot_nback_sign,2022.2.5,59.98760656045998,
W,False,2,letter,1,False,False,robot_stimuli\\filler.mp4,16,,,,,,,,,0,113,113,113,,,,,,,,,,,,,671.9634166000001,673.0198505000001,,,,,,,675.0499726,675.0499726,675.0499726,675.0499726,675.0499726,675.0499726,675.0499726,675.0499726,None,None,None,,,,,,,,,,,671.9634166000001,671.9634166000001,None,,673.0198505000001,673.0198505000001,675.0499726,n,671.9634166000001,671.9634166000001,1.0204250000001593,,16,001,2024-06-21_09h50.19.494,robot_nback_sign,2022.2.5,59.98760656045998,
R,True,2,letter,1,False,False,robot_stimuli\\filler.mp4,16,,,,,,,,,0,114,114,114,,,,,,,,,,,,,675.0499726,,,,,,,,678.1534786,678.1534786,678.1534786,678.1534786,678.1534786,678.1534786,678.1534786,678.1534786,None,None,None,,,,,,,,,,,675.0499726,675.0499726,None,,676.1252941,676.1252941,678.1534786,c,675.0499726,675.0499726,1.1947021999999379,,16,001,2024-06-21_09h50.19.494,robot_nback_sign,2022.2.5,59.98760656045998,
F,False,2,letter,1,False,False,robot_stimuli\\filler.mp4,16,,,,,,,,,0,115,115,115,,,,,,,,,,,,,678.1534786,679.2273199000001,,,,,,,681.2561573,681.2561573,681.2561573,681.2561573,681.2561573,681.2561573,681.2561573,681.2561573,None,None,None,,,,,,,,,,,678.1534786,678.1534786,None,,679.2273199000001,679.2273199000001,681.2561573,n,678.1534786,678.1534786,0.9798529999998209,,16,001,2024-06-21_09h50.19.494,robot_nback_sign,2022.2.5,59.98760656045998,
H,False,2,letter,1,False,False,robot_stimuli\\filler.mp4,16,,,,,,,,,0,116,116,116,,,,,,,,,,,,,681.2561573,682.315895,,,,,,,684.5427205000001,684.5427205000001,684.5427205000001,684.5427205000001,684.5427205000001,684.5427205000001,684.5427205000001,684.5427205000001,None,None,None,,,,,,,,,,,681.2561573,681.2561573,None,,682.315895,682.315895,684.5427205000001,n,681.2561573,681.2561573,0.8354570999999851,,16,001,2024-06-21_09h50.19.494,robot_nback_sign,2022.2.5,59.98760656045998,
F,True,2,letter,1,False,False,robot_stimuli\\filler.mp4,16,,,,,,,,,0,117,117,117,,,,,,,,,,,,,684.5427205000001,685.6000188,,,,,,,687.6250725,687.6250725,687.6250725,687.6250725,687.6250725,687.6250725,687.6250725,687.6250725,None,None,None,,,,,,,,,,,684.5427205000001,684.5427205000001,None,,685.6000188,685.6000188,687.6250725,c,684.5427205000001,684.5427205000001,0.41465610000000197,,16,001,2024-06-21_09h50.19.494,robot_nback_sign,2022.2.5,59.98760656045998,
G,False,2,letter,1,False,False,robot_stimuli\\filler.mp4,16,,,,,,,,,0,118,118,118,,,,,,,,,,,,,687.6250725,688.6840070000001,,,,,,,690.9097379,690.9097379,690.9097379,690.9097379,690.9097379,690.9097379,690.9097379,690.9097379,None,None,None,,,,,,,,,,,687.6250725,687.6250725,None,,688.6840070000001,688.6840070000001,690.9097379,n,687.6250725,687.6250725,0.8198750000001382,,16,001,2024-06-21_09h50.19.494,robot_nback_sign,2022.2.5,59.98760656045998,
Q,False,2,letter,1,False,False,robot_stimuli\\filler.mp4,16,,,,,,,,,0,119,119,119,,,,,,,,,,,,,690.9097379,691.9660947,,,,,,,694.1941379,694.1941379,694.1941379,694.1941379,694.1941379,694.1941379,694.1941379,694.1941379,None,None,None,,,,,,,,,,,690.9097379,690.9097379,None,,691.9660947,691.9660947,694.1941379,n,690.9097379,690.9097379,0.8892006000000947,,16,001,2024-06-21_09h50.19.494,robot_nback_sign,2022.2.5,59.98760656045998,
J,False,2,letter,1,False,False,robot_stimuli\\filler.mp4,16,,,,,,,,,0,120,120,120,,,,,,,,,,,,,694.1941379,695.2489663000001,,,,,,,697.4789719,697.4789719,697.4789719,697.4789719,697.4789719,697.4789719,697.4789719,697.4789719,None,None,None,,,,,,,,,,,694.1941379,694.1941379,None,,695.2489663000001,695.2489663000001,697.4789719,n,694.1941379,694.1941379,0.726070400000026,,16,001,2024-06-21_09h50.19.494,robot_nback_sign,2022.2.5,59.98760656045998,
C,False,2,letter,1,False,False,robot_stimuli\\filler.mp4,16,,,,,,,,,0,121,121,121,,,,,,,,,,,,,697.4789719,698.5334857,,,,,,,700.5579941999999,700.5579941999999,700.5579941999999,700.5579941999999,700.5579941999999,700.5579941999999,700.5579941999999,700.5579941999999,None,None,None,,,,,,,,,,,697.4789719,697.4789719,None,,698.5334857,698.5334857,700.5579941999999,n,697.4789719,697.4789719,0.7545995999998922,,16,001,2024-06-21_09h50.19.494,robot_nback_sign,2022.2.5,59.98760656045998,
W,False,2,letter,1,False,False,robot_stimuli\\filler.mp4,16,,,,,,,,,0,122,122,122,,,,,,,,,,,,,700.5579941999999,701.6154374,,,,,,,703.8442391000001,703.8442391000001,703.8442391000001,703.8442391000001,703.8442391000001,703.8442391000001,703.8442391000001,703.8442391000001,None,None,None,,,,,,,,,,,700.5579941999999,700.5579941999999,None,,701.6154374,701.6154374,703.8442391000001,n,700.5579941999999,700.5579941999999,0.6881015999999818,,16,001,2024-06-21_09h50.19.494,robot_nback_sign,2022.2.5,59.98760656045998,
C,True,2,letter,1,False,False,robot_stimuli\\filler.mp4,16,,,,,,,,,0,123,123,123,,,,,,,,,,,,,703.8442391000001,704.9084029999999,,,,,,,706.9409236000001,706.9409236000001,706.9409236000001,706.9409236000001,706.9409236000001,706.9409236000001,706.9409236000001,706.9409236000001,None,None,None,,,,,,,,,,,703.8442391000001,703.8442391000001,None,,704.9084029999999,704.9084029999999,706.9409236000001,c,703.8442391000001,703.8442391000001,0.8424767999999858,,16,001,2024-06-21_09h50.19.494,robot_nback_sign,2022.2.5,59.98760656045998,
N,False,2,letter,1,False,False,robot_stimuli\\filler.mp4,16,,,,,,,,,0,124,124,124,,,,,,,,,,,,,706.9409236000001,707.9992517999999,,,,,,,710.2326955000001,710.2326955000001,710.2326955000001,710.2326955000001,710.2326955000001,710.2326955000001,710.2326955000001,710.2326955000001,None,None,None,,,,,,,,,,,706.9409236000001,706.9409236000001,None,,707.9992517999999,707.9992517999999,710.2326955000001,n,706.9409236000001,706.9409236000001,0.623903700000028,,16,001,2024-06-21_09h50.19.494,robot_nback_sign,2022.2.5,59.98760656045998,
C,True,2,letter,1,False,False,robot_stimuli\\filler.mp4,16,,,,,,,,,0,125,125,125,,,,,,,,,,,,,710.2326955000001,,,,,,,,713.3363019000001,713.3363019000001,713.3363019000001,713.3363019000001,713.3363019000001,713.3363019000001,713.3363019000001,713.3363019000001,None,None,None,,,,,,,,,,,710.2326955000001,710.2326955000001,None,,711.2998703000001,711.2998703000001,713.3363019000001,c,710.2326955000001,710.2326955000001,0.41990949999990335,,16,001,2024-06-21_09h50.19.494,robot_nback_sign,2022.2.5,59.98760656045998,
F,False,2,letter,1,False,False,robot_stimuli\\filler.mp4,16,,,,,,,,,0,126,126,126,,,,,,,,,,,,,713.3363019000001,714.3998766,,,,,,,716.6327174,716.6327174,716.6327174,716.6327174,716.6327174,716.6327174,716.6327174,716.6327174,None,None,None,,,,,,,,,,,713.3363019000001,713.3363019000001,None,,714.3998766,714.3998766,716.6327174,n,713.3363019000001,713.3363019000001,0.5837807999998859,,16,001,2024-06-21_09h50.19.494,robot_nback_sign,2022.2.5,59.98760656045998,
D,False,2,letter,1,False,False,robot_stimuli\\filler.mp4,16,,,,,,,,,0,127,127,127,,,,,,,,,,,,,716.6327174,,,,,,,,719.9266889,719.9266889,719.9266889,719.9266889,719.9266889,719.9266889,719.9266889,719.9266889,None,None,None,,,,,,,,,,,716.6327174,716.6327174,None,,717.7002076000001,717.7002076000001,719.9266889,n,716.6327174,716.6327174,0.6844047999998111,,16,001,2024-06-21_09h50.19.494,robot_nback_sign,2022.2.5,59.98760656045998,
H,False,2,letter,1,False,False,robot_stimuli\\filler.mp4,16,,,,,,,,,0,128,128,128,,,,,,,,,,,,,719.9266889,720.9826353999999,,,,,,,723.2084717,723.2084717,723.2084717,723.2084717,723.2084717,723.2084717,723.2084717,723.2084717,None,None,None,,,,,,,,,,,719.9266889,719.9266889,None,,720.9826353999999,720.9826353999999,723.2084717,n,719.9266889,719.9266889,0.7838285999998789,,16,001,2024-06-21_09h50.19.494,robot_nback_sign,2022.2.5,59.98760656045998,
W,False,2,letter,1,False,False,robot_stimuli\\filler.mp4,16,,,,,,,,,0,129,129,129,,,,,,,,,,,,,723.2084717,724.2667877000001,,,,,,,726.4964056000001,726.4964056000001,726.4964056000001,726.4964056000001,726.4964056000001,726.4964056000001,726.4964056000001,726.4964056000001,None,None,None,,,,,,,,,,,723.2084717,723.2084717,None,,724.2667877000001,724.2667877000001,726.4964056000001,n,723.2084717,723.2084717,0.6613173000000643,,16,001,2024-06-21_09h50.19.494,robot_nback_sign,2022.2.5,59.98760656045998,
N,False,2,letter,1,False,False,robot_stimuli\\filler.mp4,16,,,,,,,,,0,130,130,130,,,,,,,,,,,,,726.4964056000001,727.5488130000001,,,,,,,729.78306,729.78306,729.78306,729.78306,729.78306,729.78306,729.78306,729.78306,None,None,None,,,,,,,,,,,726.4964056000001,726.4964056000001,None,,727.5488130000001,727.5488130000001,729.78306,n,726.4964056000001,726.4964056000001,0.7238214999999855,,16,001,2024-06-21_09h50.19.494,robot_nback_sign,2022.2.5,59.98760656045998,
B,False,2,letter,1,False,False,robot_stimuli\\filler.mp4,16,,,,,,,,,0,131,131,131,,,,,,,,,,,,,729.78306,730.8495495,,,,,,,733.0769522,733.0769522,733.0769522,733.0769522,733.0769522,733.0769522,733.0769522,733.0769522,None,None,None,,,,,,,,,,,729.78306,729.78306,None,,730.8495495,730.8495495,733.0769522,n,729.78306,729.78306,0.6625968000000739,,16,001,2024-06-21_09h50.19.494,robot_nback_sign,2022.2.5,59.98760656045998,
G,False,2,letter,1,False,False,robot_stimuli\\filler.mp4,16,,,,,,,,,0,132,132,132,,,,,,,,,,,,,733.0769522,734.1326727999999,,,,,,,736.3681615,736.3681615,736.3681615,736.3681615,736.3681615,736.3681615,736.3681615,736.3681615,None,None,None,,,,,,,,,,,733.0769522,733.0769522,None,,734.1326727999999,734.1326727999999,736.3681615,n,733.0769522,733.0769522,0.6673135000000912,,16,001,2024-06-21_09h50.19.494,robot_nback_sign,2022.2.5,59.98760656045998,
G,False,2,letter,1,False,False,robot_stimuli\\filler.mp4,16,,,,,,,,,0,133,133,133,,,,,,,,,,,,,736.3681615,737.4308655,,,,,,,739.4581895000001,739.4581895000001,739.4581895000001,739.4581895000001,739.4581895000001,739.4581895000001,739.4581895000001,739.4581895000001,None,None,None,,,,,,,,,,,736.3681615,736.3681615,None,,737.4308655,737.4308655,739.4581895000001,c,736.3681615,736.3681615,0.600356500000089,,16,001,2024-06-21_09h50.19.494,robot_nback_sign,2022.2.5,59.98760656045998,
P,False,2,letter,1,False,False,robot_stimuli\\filler.mp4,16,,,,,,,,,0,134,134,134,,,,,,,,,,,,,739.4581895000001,740.5157836000001,,,,,,,742.5500025000001,742.5500025000001,742.5500025000001,742.5500025000001,742.5500025000001,742.5500025000001,742.5500025000001,742.5500025000001,None,None,None,,,,,,,,,,,739.4581895000001,739.4581895000001,None,,740.5157836000001,740.5157836000001,742.5500025000001,n,739.4581895000001,739.4581895000001,0.6037355000000844,,16,001,2024-06-21_09h50.19.494,robot_nback_sign,2022.2.5,59.98760656045998,
C,False,2,letter,1,False,False,robot_stimuli\\filler.mp4,16,,,,,,,,,0,135,135,135,,,,,,,,,,,,,742.5500025000001,743.6168500000001,,,,,,,745.6458365000001,745.6458365000001,745.6458365000001,745.6458365000001,745.6458365000001,745.6458365000001,745.6458365000001,745.6458365000001,None,None,None,,,,,,,,,,,742.5500025000001,742.5500025000001,None,,743.6168500000001,743.6168500000001,745.6458365000001,n,742.5500025000001,742.5500025000001,0.7906926999999087,,16,001,2024-06-21_09h50.19.494,robot_nback_sign,2022.2.5,59.98760656045998,
Z,False,2,letter,1,False,False,robot_stimuli\\filler.mp4,16,,,,,,,,,0,136,136,136,,,,,,,,,,,,,745.6458365000001,746.6994893000001,,,,,,,748.7278655,748.7278655,748.7278655,748.7278655,748.7278655,748.7278655,748.7278655,748.7278655,None,None,None,,,,,,,,,,,745.6458365000001,745.6458365000001,None,,746.6994893000001,746.6994893000001,748.7278655,n,745.6458365000001,745.6458365000001,0.6926677999999811,,16,001,2024-06-21_09h50.19.494,robot_nback_sign,2022.2.5,59.98760656045998,
V,False,2,letter,1,False,False,robot_stimuli\\filler.mp4,16,,,,,,,,,0,137,137,137,,,,,,,,,,,,,748.7278655,749.7893207,,,,,,,751.8183695,751.8183695,751.8183695,751.8183695,751.8183695,751.8183695,751.8183695,751.8183695,None,None,None,,,,,,,,,,,748.7278655,748.7278655,None,,749.7893207,749.7893207,751.8183695,n,748.7278655,748.7278655,0.7213769999998476,,16,001,2024-06-21_09h50.19.494,robot_nback_sign,2022.2.5,59.98760656045998,
S,False,2,letter,1,False,False,robot_stimuli\\filler.mp4,16,,,,,,,,,0,138,138,138,,,,,,,,,,,,,751.8183695,752.8841504,,,,,,,755.1150669000001,755.1150669000001,755.1150669000001,755.1150669000001,755.1150669000001,755.1150669000001,755.1150669000001,755.1150669000001,None,None,None,,,,,,,,,,,751.8183695,751.8183695,None,,752.8841504,752.8841504,755.1150669000001,n,751.8183695,751.8183695,0.7561832999999751,,16,001,2024-06-21_09h50.19.494,robot_nback_sign,2022.2.5,59.98760656045998,
H,False,2,letter,1,False,False,robot_stimuli\\filler.mp4,16,,,,,,,,,0,139,139,139,,,,,,,,,,,,,755.1150669000001,,,,,,,,758.2708676,758.2708676,758.2708676,758.2708676,758.2708676,758.2708676,758.2708676,758.2708676,None,None,None,,,,,,,,,,,755.1150669000001,755.1150669000001,None,,756.2452126000001,756.2452126000001,758.2708676,n,755.1150669000001,755.1150669000001,0.7148577000000387,,16,001,2024-06-21_09h50.19.494,robot_nback_sign,2022.2.5,59.98760656045998,
S,True,2,letter,1,False,False,robot_stimuli\\filler.mp4,16,,,,,,,,,0,140,140,140,,,,,,,,,,,,,758.2708676,759.3331025,,,,,,,761.5587789000001,761.5587789000001,761.5587789000001,761.5587789000001,761.5587789000001,761.5587789000001,761.5587789000001,761.5587789000001,None,None,None,,,,,,,,,,,758.2708676,758.2708676,None,,759.3331025,759.3331025,761.5587789000001,c,758.2708676,758.2708676,0.658281800000168,,16,001,2024-06-21_09h50.19.494,robot_nback_sign,2022.2.5,59.98760656045998,
C,False,2,letter,1,False,False,robot_stimuli\\filler.mp4,16,,,,,,,,,0,141,141,141,,,,,,,,,,,,,761.5587789000001,762.6154748000001,,,,,,,764.8489197000001,764.8489197000001,764.8489197000001,764.8489197000001,764.8489197000001,764.8489197000001,764.8489197000001,764.8489197000001,None,None,None,,,,,,,,,,,761.5587789000001,761.5587789000001,None,,762.6154748000001,762.6154748000001,764.8489197000001,n,761.5587789000001,761.5587789000001,1.2078149999999823,,16,001,2024-06-21_09h50.19.494,robot_nback_sign,2022.2.5,59.98760656045998,
V,False,2,letter,1,False,False,robot_stimuli\\filler.mp4,16,,,,,,,,,0,142,142,142,,,,,,,,,,,,,764.8489197000001,,,,,,,,767.9473865,767.9473865,767.9473865,767.9473865,767.9473865,767.9473865,767.9473865,767.9473865,None,None,None,,,,,,,,,,,764.8489197000001,764.8489197000001,None,,765.9186144,765.9186144,767.9473865,n,764.8489197000001,764.8489197000001,0.9298572000000149,,16,001,2024-06-21_09h50.19.494,robot_nback_sign,2022.2.5,59.98760656045998,
C,True,2,letter,1,False,False,robot_stimuli\\filler.mp4,16,,,,,,,,,0,143,143,143,,,,,,,,,,,,,767.9473865,768.9995951999999,,,,,,,771.2333661,771.2333661,771.2333661,771.2333661,771.2333661,771.2333661,771.2333661,771.2333661,None,None,None,,,,,,,,,,,767.9473865,767.9473865,None,,768.9995951999999,768.9995951999999,771.2333661,c,767.9473865,767.9473865,1.3196849999999358,,16,001,2024-06-21_09h50.19.494,robot_nback_sign,2022.2.5,59.98760656045998,
F,False,2,letter,1,False,False,robot_stimuli\\filler.mp4,16,,,,,,,,,0,144,144,144,,,,,,,,,,,,,771.2333661,772.2991637,,,,,,,774.5303947,774.5303947,774.5303947,774.5303947,774.5303947,774.5303947,774.5303947,774.5303947,None,None,None,,,,,,,,,,,771.2333661,771.2333661,None,,772.2991637,772.2991637,774.5303947,n,771.2333661,771.2333661,0.804598199999873,,16,001,2024-06-21_09h50.19.494,robot_nback_sign,2022.2.5,59.98760656045998,
Q,False,2,letter,1,False,False,robot_stimuli\\filler.mp4,16,,,,,,,,,0,145,145,145,,,,,,,,,,,,,774.5303947,775.5847590000001,,,,,,,777.6128286999999,777.6128286999999,777.6128286999999,777.6128286999999,777.6128286999999,777.6128286999999,777.6128286999999,777.6128286999999,None,None,None,,,,,,,,,,,774.5303947,774.5303947,None,,775.5847590000001,775.5847590000001,777.6128286999999,n,774.5303947,774.5303947,0.5837266000000909,,16,001,2024-06-21_09h50.19.494,robot_nback_sign,2022.2.5,59.98760656045998,
B,False,2,letter,1,False,False,robot_stimuli\\filler.mp4,16,,,,,,,,,0,146,146,146,,,,,,,,,,,,,777.6128286999999,778.6668898,,,,,,,780.8935931000001,780.8935931000001,780.8935931000001,780.8935931000001,780.8935931000001,780.8935931000001,780.8935931000001,780.8935931000001,None,None,None,,,,,,,,,,,777.6128286999999,777.6128286999999,None,,778.6668898,778.6668898,780.8935931000001,n,777.6128286999999,777.6128286999999,0.7882514000000356,,16,001,2024-06-21_09h50.19.494,robot_nback_sign,2022.2.5,59.98760656045998,
T,False,2,letter,1,False,False,robot_stimuli\\filler.mp4,16,,,,,,,,,0,147,147,147,,,,,,,,,,,,,780.8935931000001,781.950452,,,,,,,783.9755574000001,783.9755574000001,783.9755574000001,783.9755574000001,783.9755574000001,783.9755574000001,783.9755574000001,783.9755574000001,None,None,None,,,,,,,,,,,780.8935931000001,780.8935931000001,None,,781.950452,781.950452,783.9755574000001,n,780.8935931000001,780.8935931000001,0.7532350999999835,,16,001,2024-06-21_09h50.19.494,robot_nback_sign,2022.2.5,59.98760656045998,
B,True,2,letter,1,False,False,robot_stimuli\\filler.mp4,16,,,,,,,,,0,148,148,148,,,,,,,,,,,,,783.9755574000001,785.0326325999999,,,,,,,787.2600206,787.2600206,787.2600206,787.2600206,787.2600206,787.2600206,787.2600206,787.2600206,None,None,None,,,,,,,,,,,783.9755574000001,783.9755574000001,None,,785.0326325999999,785.0326325999999,787.2600206,c,783.9755574000001,783.9755574000001,1.4713323999999375,,16,001,2024-06-21_09h50.19.494,robot_nback_sign,2022.2.5,59.98760656045998,
V,False,2,letter,1,False,True,robot_stimuli\\filler.mp4,16,,,,,,,,,0,149,149,149,,,,,,,,,,,,,787.2600206,788.314916,,,,,,,790.5716870000001,843.1685364,790.5716870000001,843.1685364,790.5716870000001,843.1685364,790.5716870000001,843.1685364,55.00000000000001,2.5483220999999503,space,,,,52.54062429999999,,,,,,,787.2600206,787.2600206,None,,788.314916,788.314916,790.5716870000001,n,787.2600206,787.2600206,0.7804471999997986,,16,001,2024-06-21_09h50.19.494,robot_nback_sign,2022.2.5,59.98760656045998,
R_Torso_Y_For,False,2,robot,2,True,False,robot_stimuli\R_Torso_Y_For.mp4,16,,,,,,,,,0,150,150,150,,,,,,,,,,,,,844.6300382,845.7151629,,,,,,,849.3543884999999,849.3543884999999,849.3543884999999,849.3543884999999,849.3543884999999,849.3543884999999,849.3543884999999,849.3543884999999,None,None,None,,,,,,,,,,,843.1685364,843.1685364,space,1.4297926000001553,,845.7151629,,None,,,,845.7151629,16,001,2024-06-21_09h50.19.494,robot_nback_sign,2022.2.5,59.98760656045998,
L_Arm_X_Back,False,2,robot,2,False,False,robot_stimuli\L_Arm_X_Back.mp4,16,,,,,,,,,0,151,151,151,,,,,,,,,,,,,849.3543884999999,850.4453149000001,,,,,,,854.0975885,854.0975885,854.0975885,854.0975885,854.0975885,854.0975885,854.0975885,854.0975885,None,None,None,,,,,,,,,,,849.3543884999999,849.3543884999999,None,,,850.4453149000001,,None,849.3543884999999,849.3543884999999,,850.4453149000001,16,001,2024-06-21_09h50.19.494,robot_nback_sign,2022.2.5,59.98760656045998,
R_Torso_Y_For,True,2,robot,2,False,False,robot_stimuli\R_Torso_Y_For.mp4,16,,,,,,,,,0,152,152,152,,,,,,,,,,,,,854.0975885,855.1885846,,,,,,,858.8280943,858.8280943,858.8280943,858.8280943,858.8280943,858.8280943,858.8280943,858.8280943,None,None,None,,,,,,,,,,,854.0975885,854.0975885,None,,,855.1885846,,c,854.0975885,854.0975885,1.825824799999964,855.1885846,16,001,2024-06-21_09h50.19.494,robot_nback_sign,2022.2.5,59.98760656045998,
L_Arm_X_For,False,2,robot,2,False,False,robot_stimuli\L_Arm_X_For.mp4,16,,,,,,,,,0,153,153,153,,,,,,,,,,,,,858.8280943,859.9121872999999,,,,,,,863.5631465000001,863.5631465000001,863.5631465000001,863.5631465000001,863.5631465000001,863.5631465000001,863.5631465000001,863.5631465000001,None,None,None,,,,,,,,,,,858.8280943,858.8280943,None,,,859.9121872999999,,c,858.8280943,858.8280943,2.223725100000138,859.9121872999999,16,001,2024-06-21_09h50.19.494,robot_nback_sign,2022.2.5,59.98760656045998,
R_Torso_Y_For,True,2,robot,2,False,False,robot_stimuli\R_Torso_Y_For.mp4,16,,,,,,,,,0,154,154,154,,,,,,,,,,,,,863.5631465000001,864.6421321,,,,,,,868.2931206999999,868.2931206999999,868.2931206999999,868.2931206999999,868.2931206999999,868.2931206999999,868.2931206999999,868.2931206999999,None,None,None,,,,,,,,,,,863.5631465000001,863.5631465000001,None,,,864.6421321,,n,863.5631465000001,863.5631465000001,3.365825300000097,864.6421321,16,001,2024-06-21_09h50.19.494,robot_nback_sign,2022.2.5,59.98760656045998,
L_Arm_Z_Back,False,2,robot,2,False,False,robot_stimuli\L_Arm_Z_Back.mp4,16,,,,,,,,,0,155,155,155,,,,,,,,,,,,,868.2931206999999,869.3729744,,,,,,,873.0132951,873.0132951,873.0132951,873.0132951,873.0132951,873.0132951,873.0132951,873.0132951,None,None,None,,,,,,,,,,,868.2931206999999,868.2931206999999,None,,,869.3729744,,n,868.2931206999999,868.2931206999999,3.4020596999998816,869.3729744,16,001,2024-06-21_09h50.19.494,robot_nback_sign,2022.2.5,59.98760656045998,
R_Torso_Y_For,True,2,robot,2,False,False,robot_stimuli\R_Torso_Y_For.mp4,16,,,,,,,,,0,156,156,156,,,,,,,,,,,,,873.0132951,874.0911246999999,,,,,,,877.7308092999999,877.7308092999999,877.7308092999999,877.7308092999999,877.7308092999999,877.7308092999999,877.7308092999999,877.7308092999999,None,None,None,,,,,,,,,,,873.0132951,873.0132951,None,,,874.0911246999999,,c,873.0132951,873.0132951,2.3812441999998555,874.0911246999999,16,001,2024-06-21_09h50.19.494,robot_nback_sign,2022.2.5,59.98760656045998,
L_Head_Y_For,False,2,robot,2,False,False,robot_stimuli\L_Head_Y_For.mp4,16,,,,,,,,,0,157,157,157,,,,,,,,,,,,,877.7308092999999,878.8082327,,,,,,,882.4387028000001,882.4387028000001,882.4387028000001,882.4387028000001,882.4387028000001,882.4387028000001,882.4387028000001,882.4387028000001,None,None,None,,,,,,,,,,,877.7308092999999,877.7308092999999,None,,,878.8082327,,None,877.7308092999999,877.7308092999999,,878.8082327,16,001,2024-06-21_09h50.19.494,robot_nback_sign,2022.2.5,59.98760656045998,
R_Base_Z_For,False,2,robot,2,False,False,robot_stimuli\R_Base_Z_For.mp4,16,,,,,,,,,0,158,158,158,,,,,,,,,,,,,882.4387028000001,883.5242407999999,,,,,,,887.1760829,887.1760829,887.1760829,887.1760829,887.1760829,887.1760829,887.1760829,887.1760829,None,None,None,,,,,,,,,,,882.4387028000001,882.4387028000001,None,,,883.5242407999999,,n,882.4387028000001,882.4387028000001,2.499405200000183,883.5242407999999,16,001,2024-06-21_09h50.19.494,robot_nback_sign,2022.2.5,59.98760656045998,
R_Arm_X_Back,False,2,robot,2,False,False,robot_stimuli\R_Arm_X_Back.mp4,16,,,,,,,,,0,159,159,159,,,,,,,,,,,,,887.1760829,888.26106,,,,,,,891.9122717,891.9122717,891.9122717,891.9122717,891.9122717,891.9122717,891.9122717,891.9122717,None,None,None,,,,,,,,,,,887.1760829,887.1760829,None,,,888.26106,,n,887.1760829,887.1760829,2.5935365000000274,888.26106,16,001,2024-06-21_09h50.19.494,robot_nback_sign,2022.2.5,59.98760656045998,
L_Head_Z_For,False,2,robot,2,False,False,robot_stimuli\L_Head_Z_For.mp4,16,,,,,,,,,0,160,160,160,,,,,,,,,,,,,891.9122717,892.9918766999999,,,,,,,896.6461747999999,896.6461747999999,896.6461747999999,896.6461747999999,896.6461747999999,896.6461747999999,896.6461747999999,896.6461747999999,None,None,None,,,,,,,,,,,891.9122717,891.9122717,None,,,892.9918766999999,,c,891.9122717,891.9122717,2.7361504000000423,892.9918766999999,16,001,2024-06-21_09h50.19.494,robot_nback_sign,2022.2.5,59.98760656045998,
