sequence,odd_ones,choices,choice_n,parameter,target,condition,stimuli,block,is_block_beginning,is_block_ending,sequence_fnames,target_fname,subject,retraining.thisRepN,retraining.thisTrialN,retraining.thisN,retraining.thisIndex,training.thisRepN,training.thisTrialN,training.thisN,training.thisIndex,training_sequence_loop.thisRepN,training_sequence_loop.thisTrialN,training_sequence_loop.thisN,training_sequence_loop.thisIndex,trials.thisRepN,trials.thisTrialN,trials.thisN,trials.thisIndex,sequence_loop.thisRepN,sequence_loop.thisTrialN,sequence_loop.thisN,sequence_loop.thisIndex,langage_text.started,langage_key.started,langage_key.keys,langage_key.rt,intro_text.started,intro_key.started,intro_key.keys,intro_key.rt,training_intro_text.started,training_intro_key.started,training_intro_key.keys,training_intro_key.rt,polygon.started,polygon.stopped,cue_before_text.started,training_presentation_letter.started,training_presentation_letter.stopped,recall_key.started,recall_question.started,recall_answer.started,recall_key.keys,recall_key.rt,RSME_labels.started,RSME_labels.stopped,RSME_ticks.started,RSME_ticks.stopped,RSME_text.started,RSME_text.stopped,RSME_key.started,RSME_key.stopped,RSME_ticks.response,RSME_ticks.rt,RSME_key.keys,training_intro_text.stopped,training_intro_key.stopped,cue_before_text.stopped,RSME_key.rt,training_presentation_movie.started,experiment_beginning_text.started,experiment_beginning_keys.started,experiment_beginning_key.started,experiment_beginning_key.keys,experiment_beginning_key.rt,block_intro_text.started,block_intro_key.started,block_intro_key.keys,block_intro_key.rt,presentation_movie.started,block_intro_text.stopped,block_intro_key.stopped,presentation_letter.started,presentation_letter.stopped,participant,session,date,expName,psychopyVersion,frameRate,
,,,,,,,,,,,,,,,,,,,,,,,,,,,,,,,,,,11.077095600019675,11.077095600019675,f,0.36449659999925643,,,,,,,,,,,,,,,,,,,,,,,,,,,,,,,,,,,,,,,,,,,,,,,,,1,001,2024-06-24_14h36.28.142,robot_cogshifting_sign,2022.2.5,143.76388221614772,
,,,,,,,,,,,,,,,,,,,,,,,,,,,,,,,,,,,,,,11.463584200013429,11.463584200013429,space,0.9225486999785062,,,,,,,,,,,,,,,,,,,,,,,,,,,,,,,,,,,,,,,,,,,,,1,001,2024-06-24_14h36.28.142,robot_cogshifting_sign,2022.2.5,143.76388221614772,
"['red_top_B_0', 'red_left_B_45', 'red_top_P_45', 'blue_top_C_45']","{'color': 'blue_top_C_45', 'position': 'red_left_B_45', 'orientation': 'red_top_B_0'}",['color'],0,color,blue_top_C_45,1,letter,2,True,False,"['robot_stimuli\\\\filler.mp4', 'robot_stimuli\\\\filler.mp4', 'robot_stimuli\\\\filler.mp4', 'robot_stimuli\\\\filler.mp4']",robot_stimuli\\filler.mp4,1,0,0,0,0,0,0,0,0,,,,,,,,,,,,,,,,,,,,,12.433509399998002,12.433509399998002,space,1.7893069999990985,14.231861200009007,15.235825700015994,15.235825700015994,24.515058299992234,26.54919119999977,26.54919119999977,26.54919119999977,26.54919119999977,4,0.45379279999178834,27.05152390000876,27.05152390000876,27.05152390000876,27.05152390000876,27.05152390000876,27.05152390000876,27.05152390000876,27.05152390000876,None,None,None,,,,,,,,,,,,,,,,,,,,1,001,2024-06-24_14h36.28.142,robot_cogshifting_sign,2022.2.5,143.76388221614772,
"['red_left_Q_45', 'blue_left_P_0', 'blue_left_S_45', 'blue_right_K_45']","{'color': 'red_left_Q_45', 'position': 'blue_right_K_45', 'orientation': 'blue_left_P_0'}",['orientation'],0,orientation,blue_left_P_0,1,letter,2,False,False,"['robot_stimuli\\\\filler.mp4', 'robot_stimuli\\\\filler.mp4', 'robot_stimuli\\\\filler.mp4', 'robot_stimuli\\\\filler.mp4']",robot_stimuli\\filler.mp4,1,0,0,0,0,0,1,1,1,,,,,,,,,,,,,,,,,,,,,27.05152390000876,27.05152390000876,None,,27.05152390000876,,28.056285099999513,36.6630945999932,38.691411000007065,38.691411000007065,38.691411000007065,38.691411000007065,1,0.5679311999992933,39.272720200009644,39.272720200009644,39.272720200009644,39.272720200009644,39.272720200009644,39.272720200009644,39.272720200009644,39.272720200009644,None,None,None,27.05152390000876,27.05152390000876,,,,,,,,,,,,,,,,,,1,001,2024-06-24_14h36.28.142,robot_cogshifting_sign,2022.2.5,143.76388221614772,
"['red_right_J_45', 'red_left_F_45', 'red_right_L_0', 'blue_right_K_45']","{'color': 'blue_right_K_45', 'position': 'red_left_F_45', 'orientation': 'red_right_L_0'}",['position'],0,position,red_left_F_45,1,letter,2,False,True,"['robot_stimuli\\\\filler.mp4', 'robot_stimuli\\\\filler.mp4', 'robot_stimuli\\\\filler.mp4', 'robot_stimuli\\\\filler.mp4']",robot_stimuli\\filler.mp4,1,0,0,0,0,0,2,2,2,,,,,,,,,,,,,,,,,,,,,39.272720200009644,39.272720200009644,None,,39.272720200009644,40.2763637000171,40.2763637000171,49.06626590000815,51.10691460000817,51.10691460000817,51.10691460000817,51.10691460000817,2,0.4302318000118248,51.575897200003965,54.22649620001903,51.575897200003965,54.22649620001903,51.575897200003965,54.22649620001903,51.575897200003965,54.22649620001903,7.006172839506167,2.435645999998087,space,39.272720200009644,39.272720200009644,42.35743249999359,2.624025099998107,,,,,,,,,,,,,,,,1,001,2024-06-24_14h36.28.142,robot_cogshifting_sign,2022.2.5,143.76388221614772,
"['blue_top_H_45', 'red_top_K_45', 'blue_right_J_45', 'blue_top_N_0']","{'color': 'red_top_K_45', 'position': 'blue_right_J_45', 'orientation': 'blue_top_N_0'}","['position', 'orientation']",0,position,blue_right_J_45,2,letter,2,True,False,"['robot_stimuli\\\\filler.mp4', 'robot_stimuli\\\\filler.mp4', 'robot_stimuli\\\\filler.mp4', 'robot_stimuli\\\\filler.mp4']",robot_stimuli\\filler.mp4,1,0,0,0,0,0,3,3,3,,,,,,,,,,,,,,,,,,,,,54.22649620001903,54.22649620001903,space,2.5269651999988127,56.76020970000536,57.76030510000419,57.76030510000419,66.36340410000412,68.39214979999815,68.39214979999815,68.39214979999815,68.39214979999815,3,2.5052909000078216,70.91225130000385,70.91225130000385,70.91225130000385,70.91225130000385,70.91225130000385,70.91225130000385,70.91225130000385,70.91225130000385,None,None,None,,,59.84202010001172,,,,,,,,,,,,,,,,,1,001,2024-06-24_14h36.28.142,robot_cogshifting_sign,2022.2.5,143.76388221614772,
"['blue_right_C_45', 'red_right_H_0', 'red_left_C_45', 'red_right_P_45']","{'color': 'blue_right_C_45', 'position': 'red_left_C_45', 'orientation': 'red_right_H_0'}","['color', 'orientation']",0,color,blue_right_C_45,2,letter,2,False,False,"['robot_stimuli\\\\filler.mp4', 'robot_stimuli\\\\filler.mp4', 'robot_stimuli\\\\filler.mp4', 'robot_stimuli\\\\filler.mp4']",robot_stimuli\\filler.mp4,1,0,0,0,0,0,4,4,4,,,,,,,,,,,,,,,,,,,,,70.91225130000385,70.91225130000385,None,,70.91225130000385,,71.92394390000845,80.53313779999735,82.76744310001959,82.76744310001959,82.76744310001959,82.76744310001959,2,2.0572548000200186,84.83653770000092,84.83653770000092,84.83653770000092,84.83653770000092,84.83653770000092,84.83653770000092,84.83653770000092,84.83653770000092,None,None,None,70.91225130000385,70.91225130000385,,,,,,,,,,,,,,,,,,1,001,2024-06-24_14h36.28.142,robot_cogshifting_sign,2022.2.5,143.76388221614772,
"['red_right_D_45', 'red_top_X_0', 'red_top_S_45', 'blue_top_C_45']","{'color': 'blue_top_C_45', 'position': 'red_right_D_45', 'orientation': 'red_top_X_0'}","['color', 'position']",0,color,blue_top_C_45,2,letter,2,False,True,"['robot_stimuli\\\\filler.mp4', 'robot_stimuli\\\\filler.mp4', 'robot_stimuli\\\\filler.mp4', 'robot_stimuli\\\\filler.mp4']",robot_stimuli\\filler.mp4,1,0,0,0,0,0,5,5,5,,,,,,,,,,,,,,,,,,,,,84.83653770000092,84.83653770000092,None,,84.83653770000092,85.83955460001016,85.83955460001016,94.83898600001703,97.07510710001225,97.07510710001225,97.07510710001225,97.07510710001225,4,1.6111261999758426,98.71695080000791,100.63400489999913,98.71695080000791,100.63400489999913,98.71695080000791,100.63400489999913,98.71695080000791,100.63400489999913,7.469135802469132,1.4519736999936868,space,84.83653770000092,84.83653770000092,87.91923130000941,1.8912727999850176,,,,,,,,,,,,,,,,1,001,2024-06-24_14h36.28.142,robot_cogshifting_sign,2022.2.5,143.76388221614772,
"['red_top_D_45', 'blue_top_W_45', 'blue_bottom_Q_45', 'blue_top_B_0']","{'color': 'red_top_D_45', 'position': 'blue_bottom_Q_45', 'orientation': 'blue_top_B_0'}","['color', 'position', 'orientation']",2,orientation,blue_top_B_0,3,letter,2,True,False,"['robot_stimuli\\\\filler.mp4', 'robot_stimuli\\\\filler.mp4', 'robot_stimuli\\\\filler.mp4', 'robot_stimuli\\\\filler.mp4']",robot_stimuli\\filler.mp4,1,0,0,0,0,0,6,6,6,,,,,,,,,,,,,,,,,,,,,100.63400489999913,100.63400489999913,space,2.4902630999858957,103.13511820000713,104.13492640000186,104.13492640000186,112.92137530000764,115.16041380001116,115.16041380001116,115.16041380001116,115.16041380001116,4,2.24758340002154,117.42442930000834,117.42442930000834,117.42442930000834,117.42442930000834,117.42442930000834,117.42442930000834,117.42442930000834,117.42442930000834,None,None,None,,,106.21237829999882,,,,,,,,,,,,,,,,,1,001,2024-06-24_14h36.28.142,robot_cogshifting_sign,2022.2.5,143.76388221614772,
"['blue_bottom_D_45', 'red_top_K_45', 'red_bottom_R_0', 'red_bottom_J_45']","{'color': 'blue_bottom_D_45', 'position': 'red_top_K_45', 'orientation': 'red_bottom_R_0'}","['color', 'position', 'orientation']",1,position,red_top_K_45,3,letter,2,False,False,"['robot_stimuli\\\\filler.mp4', 'robot_stimuli\\\\filler.mp4', 'robot_stimuli\\\\filler.mp4', 'robot_stimuli\\\\filler.mp4']",robot_stimuli\\filler.mp4,1,0,0,0,0,0,7,7,7,,,,,,,,,,,,,,,,,,,,,117.42442930000834,117.42442930000834,None,,117.42442930000834,118.42472290000296,118.42472290000296,126.79605599999195,128.82979930000147,128.82979930000147,128.82979930000147,128.82979930000147,2,2.598785400012275,131.43964309999137,131.43964309999137,131.43964309999137,131.43964309999137,131.43964309999137,131.43964309999137,131.43964309999137,131.43964309999137,None,None,None,117.42442930000834,117.42442930000834,120.4924672000052,,,,,,,,,,,,,,,,,1,001,2024-06-24_14h36.28.142,robot_cogshifting_sign,2022.2.5,143.76388221614772,
"['blue_left_R_45', 'blue_top_L_0', 'blue_top_T_45', 'red_top_N_45']","{'color': 'red_top_N_45', 'position': 'blue_left_R_45', 'orientation': 'blue_top_L_0'}","['color', 'position', 'orientation']",0,color,red_top_N_45,3,letter,2,False,True,"['robot_stimuli\\\\filler.mp4', 'robot_stimuli\\\\filler.mp4', 'robot_stimuli\\\\filler.mp4', 'robot_stimuli\\\\filler.mp4']",robot_stimuli\\filler.mp4,1,0,0,0,0,0,8,8,8,,,,,,,,,,,,,,,,,,,,,131.43964309999137,131.43964309999137,None,,131.43964309999137,132.4434761000157,132.4434761000157,141.03463219999685,143.26607710000826,143.26607710000826,143.26607710000826,143.26607710000826,4,4.933429400000023,148.22780369999236,151.43338440000662,148.22780369999236,151.43338440000662,148.22780369999236,151.43338440000662,148.22780369999236,151.43338440000662,63.95061728395062,2.4871746000135317,space,131.43964309999137,131.43964309999137,134.52035020000767,3.176726100005908,,,,,,,,,,,,,,,,1,001,2024-06-24_14h36.28.142,robot_cogshifting_sign,2022.2.5,143.76388221614772,
"['R_Base_Z_Back', 'R_Head_Y_For', 'R_Base_Y_Back', 'L_Base_Y_For']","{'laterality': 'L_Base_Y_For', 'localisation': 'R_Head_Y_For', 'movement': 'R_Base_Z_Back'}",['localisation'],0,localisation,R_Head_Y_For,1,robot,1,True,False,"['robot_stimuli\\R_Base_Z_Back.mp4', 'robot_stimuli\\R_Head_Y_For.mp4', 'robot_stimuli\\R_Base_Y_Back.mp4', 'robot_stimuli\\L_Base_Y_For.mp4']",robot_stimuli\R_Head_Y_For.mp4,1,0,0,0,0,0,9,9,9,,,,,,,,,,,,,,,,,,,,,151.43338440000662,151.43338440000662,space,1.0289075000036974,152.47532280001906,153.4751830000023,153.4751830000023,,,170.22683620001771,170.22683620001771,170.22683620001771,2,0.9207226999860723,171.16500179999275,171.16500179999275,171.16500179999275,171.16500179999275,171.16500179999275,171.16500179999275,171.16500179999275,171.16500179999275,None,None,None,,,155.59284920000937,,166.68749939999543,,,,,,,,,,,,,,,1,001,2024-06-24_14h36.28.142,robot_cogshifting_sign,2022.2.5,143.76388221614772,
"['L_Arm_Y_For', 'R_Torso_Y_For', 'L_Torso_X_Back', 'L_Torso_Y_Back']","{'laterality': 'R_Torso_Y_For', 'localisation': 'L_Arm_Y_For', 'movement': 'L_Torso_X_Back'}",['movement'],0,movement,L_Torso_X_Back,1,robot,1,False,False,"['robot_stimuli\\L_Arm_Y_For.mp4', 'robot_stimuli\\R_Torso_Y_For.mp4', 'robot_stimuli\\L_Torso_X_Back.mp4', 'robot_stimuli\\L_Torso_Y_Back.mp4']",robot_stimuli\L_Torso_X_Back.mp4,1,0,0,0,0,0,10,10,10,,,,,,,,,,,,,,,,,,,,,171.16500179999275,171.16500179999275,None,,171.16500179999275,172.16739400001825,172.16739400001825,,,188.96934360000887,188.96934360000887,188.96934360000887,3,0.4204578999779187,189.4079175000079,189.4079175000079,189.4079175000079,189.4079175000079,189.4079175000079,189.4079175000079,189.4079175000079,189.4079175000079,None,None,None,171.16500179999275,171.16500179999275,174.2656210999994,,185.46025070000906,,,,,,,,,,,,,,,1,001,2024-06-24_14h36.28.142,robot_cogshifting_sign,2022.2.5,143.76388221614772,
"['R_Torso_X_For', 'L_Torso_X_For', 'L_Arm_X_Back', 'L_Torso_Z_For']","{'laterality': 'R_Torso_X_For', 'localisation': 'L_Arm_X_Back', 'movement': 'L_Torso_Z_For'}",['laterality'],0,laterality,R_Torso_X_For,1,robot,1,False,True,"['robot_stimuli\\R_Torso_X_For.mp4', 'robot_stimuli\\L_Torso_X_For.mp4', 'robot_stimuli\\L_Arm_X_Back.mp4', 'robot_stimuli\\L_Torso_Z_For.mp4']",robot_stimuli\R_Torso_X_For.mp4,1,0,0,0,0,0,11,11,11,,,,,,,,,,,,,,,,,,,,,189.4079175000079,189.4079175000079,None,,189.4079175000079,190.40792840000358,190.40792840000358,,,207.3434905000031,207.3434905000031,207.3434905000031,1,0.3541265999956522,207.7264131999982,210.72045690001687,207.7264131999982,210.72045690001687,207.7264131999982,210.72045690001687,207.7264131999982,210.72045690001687,5.771604938271604,2.2802457000070717,space,189.4079175000079,189.4079175000079,192.50664619999588,2.9639515000162646,203.70335699999123,,,,,,,,,,,,,,,1,001,2024-06-24_14h36.28.142,robot_cogshifting_sign,2022.2.5,143.76388221614772,
"['R_Torso_Z_Back', 'L_Torso_Z_Back', 'L_Torso_X_Back', 'L_Head_Z_Back']","{'laterality': 'R_Torso_Z_Back', 'localisation': 'L_Head_Z_Back', 'movement': 'L_Torso_X_Back'}","['localisation', 'movement']",0,localisation,L_Head_Z_Back,2,robot,1,True,False,"['robot_stimuli\\R_Torso_Z_Back.mp4', 'robot_stimuli\\L_Torso_Z_Back.mp4', 'robot_stimuli\\L_Torso_X_Back.mp4', 'robot_stimuli\\L_Head_Z_Back.mp4']",robot_stimuli\L_Head_Z_Back.mp4,1,0,0,0,0,0,12,12,12,,,,,,,,,,,,,,,,,,,,,210.72045690001687,210.72045690001687,space,1.2731127000006381,212.00121610000497,213.0023138000106,213.0023138000106,,,229.78928389999783,229.78928389999783,229.78928389999783,1,2.654176700016251,232.46086469999864,232.46086469999864,232.46086469999864,232.46086469999864,232.46086469999864,232.46086469999864,232.46086469999864,232.46086469999864,None,None,None,,,,,226.15178350001224,,,,,,,,,,,,,,,1,001,2024-06-24_14h36.28.142,robot_cogshifting_sign,2022.2.5,143.76388221614772,
"['R_Base_Z_For', 'L_Base_Z_Back', 'L_Head_Z_Back', 'L_Base_Y_For']","{'laterality': 'R_Base_Z_For', 'localisation': 'L_Head_Z_Back', 'movement': 'L_Base_Y_For'}","['laterality', 'localisation']",0,laterality,R_Base_Z_For,2,robot,1,False,False,"['robot_stimuli\\R_Base_Z_For.mp4', 'robot_stimuli\\L_Base_Z_Back.mp4', 'robot_stimuli\\L_Head_Z_Back.mp4', 'robot_stimuli\\L_Base_Y_For.mp4']",robot_stimuli\R_Base_Z_For.mp4,1,0,0,0,0,0,13,13,13,,,,,,,,,,,,,,,,,,,,,232.46086469999864,232.46086469999864,None,,232.46086469999864,233.46415569999954,233.46415569999954,,,250.29235259999405,250.29235259999405,250.29235259999405,1,1.1366849000041839,251.4429027000151,251.4429027000151,251.4429027000151,251.4429027000151,251.4429027000151,251.4429027000151,251.4429027000151,251.4429027000151,None,None,None,232.46086469999864,232.46086469999864,235.55333140000585,,246.7562040000048,,,,,,,,,,,,,,,1,001,2024-06-24_14h36.28.142,robot_cogshifting_sign,2022.2.5,143.76388221614772,
"['L_Base_X_Back', 'R_Base_Y_Back', 'R_Base_X_For', 'R_Torso_X_Back']","{'laterality': 'L_Base_X_Back', 'localisation': 'R_Torso_X_Back', 'movement': 'R_Base_Y_Back'}","['laterality', 'movement']",0,laterality,L_Base_X_Back,2,robot,1,False,True,"['robot_stimuli\\L_Base_X_Back.mp4', 'robot_stimuli\\R_Base_Y_Back.mp4', 'robot_stimuli\\R_Base_X_For.mp4', 'robot_stimuli\\R_Torso_X_Back.mp4']",robot_stimuli\L_Base_X_Back.mp4,1,0,0,0,0,0,14,14,14,,,,,,,,,,,,,,,,,,,,,251.4429027000151,251.4429027000151,None,,251.4429027000151,252.44675319999806,252.44675319999806,,,269.25661209999816,269.25661209999816,269.25661209999816,1,1.4706713999912608,270.75319950000267,273.53904120001243,270.75319950000267,273.53904120001243,270.75319950000267,273.53904120001243,270.75319950000267,273.53904120001243,32.77777777777778,2.3113291000190657,space,251.4429027000151,251.4429027000151,254.54345510000712,2.7539292000001296,265.61802930000704,,,,,,,,,,,,,,,1,001,2024-06-24_14h36.28.142,robot_cogshifting_sign,2022.2.5,143.76388221614772,
"['R_Arm_X_Back', 'R_Torso_X_Back', 'L_Arm_X_For', 'R_Arm_Z_Back']","{'laterality': 'L_Arm_X_For', 'localisation': 'R_Torso_X_Back', 'movement': 'R_Arm_Z_Back'}","['laterality', 'localisation', 'movement']",1,localisation,R_Torso_X_Back,3,robot,1,True,False,"['robot_stimuli\\R_Arm_X_Back.mp4', 'robot_stimuli\\R_Torso_X_Back.mp4', 'robot_stimuli\\L_Arm_X_For.mp4', 'robot_stimuli\\R_Arm_Z_Back.mp4']",robot_stimuli\R_Torso_X_Back.mp4,1,0,0,0,0,0,15,15,15,,,,,,,,,,,,,,,,,,,,,273.53904120001243,273.53904120001243,space,0.9956735000014305,274.54777470001136,275.547369900014,275.547369900014,,,292.4566124000121,292.4566124000121,292.4566124000121,3,1.8490874999843072,294.3216916999954,294.3216916999954,294.3216916999954,294.3216916999954,294.3216916999954,294.3216916999954,294.3216916999954,294.3216916999954,None,None,None,,,277.6462931999995,,288.81929020001553,,,,,,,,,,,,,,,1,001,2024-06-24_14h36.28.142,robot_cogshifting_sign,2022.2.5,143.76388221614772,
"['R_Head_Y_Back', 'L_Head_Y_For', 'L_Head_Z_Back', 'L_Base_Y_Back']","{'laterality': 'R_Head_Y_Back', 'localisation': 'L_Base_Y_Back', 'movement': 'L_Head_Z_Back'}","['laterality', 'localisation', 'movement']",2,movement,L_Head_Z_Back,3,robot,1,False,False,"['robot_stimuli\\R_Head_Y_Back.mp4', 'robot_stimuli\\L_Head_Y_For.mp4', 'robot_stimuli\\L_Head_Z_Back.mp4', 'robot_stimuli\\L_Base_Y_Back.mp4']",robot_stimuli\L_Head_Z_Back.mp4,1,0,0,0,0,0,16,16,16,,,,,,,,,,,,,,,,,,,,,294.3216916999954,294.3216916999954,None,,294.3216916999954,295.3224307000055,295.3224307000055,,,312.19249430001946,312.19249430001946,312.19249430001946,3,3.989595899998676,316.1971531000163,316.1971531000163,316.1971531000163,316.1971531000163,316.1971531000163,316.1971531000163,316.1971531000163,316.1971531000163,None,None,None,294.3216916999954,294.3216916999954,297.4288303999929,,308.62139919999754,,,,,,,,,,,,,,,1,001,2024-06-24_14h36.28.142,robot_cogshifting_sign,2022.2.5,143.76388221614772,
"['R_Head_Z_For', 'L_Torso_Z_Back', 'L_Head_X_For', 'L_Head_Z_Back']","{'laterality': 'R_Head_Z_For', 'localisation': 'L_Torso_Z_Back', 'movement': 'L_Head_X_For'}","['laterality', 'localisation', 'movement']",0,laterality,R_Head_Z_For,3,robot,1,False,True,"['robot_stimuli\\R_Head_Z_For.mp4', 'robot_stimuli\\L_Torso_Z_Back.mp4', 'robot_stimuli\\L_Head_X_For.mp4', 'robot_stimuli\\L_Head_Z_Back.mp4']",robot_stimuli\R_Head_Z_For.mp4,1,0,0,0,0,0,17,17,17,,,,,,,,,,,,,,,,,,,,,316.1971531000163,316.1971531000163,None,,316.1971531000163,317.20124419999775,317.20124419999775,,,333.88435959999333,333.88435959999333,333.88435959999333,1,1.7688655000238214,335.68035330000566,337.5141790000198,335.68035330000566,337.5141790000198,335.68035330000566,337.5141790000198,335.68035330000566,337.5141790000198,32.77777777777778,1.446391900011804,space,316.1971531000163,316.1971531000163,319.29513929999666,1.8022434999875259,330.2578308999946,,,,,,,,,,,,,,,1,001,2024-06-24_14h36.28.142,robot_cogshifting_sign,2022.2.5,143.76388221614772,
,,,,,,,,,,,,,,0,0,0,0,,,,,,,,,,,,,,,,,,,,,,,,,,,,,,,,,,,,,,,,,,,,,,,,,,,,,,,337.5141790000198,337.5141790000198,337.5141790000198,c,1.655912200018065,,,,,,,,,,1,001,2024-06-24_14h36.28.142,robot_cogshifting_sign,2022.2.5,143.76388221614772,
"['L_Arm_Z_Back', 'L_Head_Y_For', 'R_Head_Z_Back', 'L_Head_Z_Back']","{'laterality': 'R_Head_Z_Back', 'localisation': 'L_Arm_Z_Back', 'movement': 'L_Head_Y_For'}","['laterality', 'localisation', 'movement']",2,movement,L_Head_Y_For,3,robot,1,True,False,"['robot_stimuli\\L_Arm_Z_Back.mp4', 'robot_stimuli\\L_Head_Y_For.mp4', 'robot_stimuli\\R_Head_Z_Back.mp4', 'robot_stimuli\\L_Head_Z_Back.mp4']",robot_stimuli\L_Head_Y_For.mp4,1,,,,,,,,,,,,,0,0,0,0,,,,,,,,,,,,,,,,,,,343.3918226000096,,,360.31279220001306,360.31279220001306,360.31279220001306,2,3.4588669999793638,363.7889087999938,363.7889087999938,363.7889087999938,363.7889087999938,363.7889087999938,363.7889087999938,363.7889087999938,363.7889087999938,None,None,None,,,345.48271899999236,,,,,,,,339.19582210000954,339.19582210000954,space,4.185673400002997,356.67512369999895,,,,,1,001,2024-06-24_14h36.28.142,robot_cogshifting_sign,2022.2.5,143.76388221614772,
"['R_Base_Y_For', 'L_Base_Z_Back', 'L_Arm_Y_For', 'L_Base_Y_Back']","{'laterality': 'R_Base_Y_For', 'localisation': 'L_Arm_Y_For', 'movement': 'L_Base_Z_Back'}","['laterality', 'localisation', 'movement']",1,localisation,L_Arm_Y_For,3,robot,1,False,False,"['robot_stimuli\\R_Base_Y_For.mp4', 'robot_stimuli\\L_Base_Z_Back.mp4', 'robot_stimuli\\L_Arm_Y_For.mp4', 'robot_stimuli\\L_Base_Y_Back.mp4']",robot_stimuli\L_Arm_Y_For.mp4,1,,,,,,,,,,,,,0,1,1,1,,,,,,,,,,,,,,,,,,,363.7889087999938,,,380.60790190001717,380.60790190001717,380.60790190001717,1,2.2420297999924514,382.86262830000487,382.86262830000487,382.86262830000487,382.86262830000487,382.86262830000487,382.86262830000487,382.86262830000487,382.86262830000487,None,None,None,,,365.87178519999725,,,,,,,,363.7889087999938,363.7889087999938,None,,377.03729290000047,363.7889087999938,363.7889087999938,,,1,001,2024-06-24_14h36.28.142,robot_cogshifting_sign,2022.2.5,143.76388221614772,
"['L_Arm_Z_For', 'L_Head_Z_Back', 'L_Head_Y_For', 'R_Head_Z_Back']","{'laterality': 'R_Head_Z_Back', 'localisation': 'L_Arm_Z_For', 'movement': 'L_Head_Y_For'}","['laterality', 'localisation', 'movement']",0,laterality,R_Head_Z_Back,3,robot,1,False,False,"['robot_stimuli\\L_Arm_Z_For.mp4', 'robot_stimuli\\L_Head_Z_Back.mp4', 'robot_stimuli\\L_Head_Y_For.mp4', 'robot_stimuli\\R_Head_Z_Back.mp4']",robot_stimuli\R_Head_Z_Back.mp4,1,,,,,,,,,,,,,0,2,2,2,,,,,,,,,,,,,,,,,,,382.86262830000487,,,399.7394165000005,399.7394165000005,399.7394165000005,4,2.0323148000170477,401.7840073000116,401.7840073000116,401.7840073000116,401.7840073000116,401.7840073000116,401.7840073000116,401.7840073000116,401.7840073000116,None,None,None,,,384.95183330000145,,,,,,,,382.86262830000487,382.86262830000487,None,,396.0982672999962,382.86262830000487,382.86262830000487,,,1,001,2024-06-24_14h36.28.142,robot_cogshifting_sign,2022.2.5,143.76388221614772,
"['L_Arm_Y_For', 'R_Arm_Y_Back', 'L_Arm_Z_For', 'L_Head_Y_For']","{'laterality': 'R_Arm_Y_Back', 'localisation': 'L_Head_Y_For', 'movement': 'L_Arm_Z_For'}","['laterality', 'localisation', 'movement']",1,localisation,L_Head_Y_For,3,robot,1,False,False,"['robot_stimuli\\L_Arm_Y_For.mp4', 'robot_stimuli\\R_Arm_Y_Back.mp4', 'robot_stimuli\\L_Arm_Z_For.mp4', 'robot_stimuli\\L_Head_Y_For.mp4']",robot_stimuli\L_Head_Y_For.mp4,1,,,,,,,,,,,,,0,3,3,3,,,,,,,,,,,,,,,,,,,401.7840073000116,,,418.66057649999857,418.66057649999857,418.66057649999857,4,2.583950800006278,421.26172720000613,421.26172720000613,421.26172720000613,421.26172720000613,421.26172720000613,421.26172720000613,421.26172720000613,421.26172720000613,None,None,None,,,403.87229930001195,,,,,,,,401.7840073000116,401.7840073000116,None,,415.02402620000066,401.7840073000116,401.7840073000116,,,1,001,2024-06-24_14h36.28.142,robot_cogshifting_sign,2022.2.5,143.76388221614772,
"['R_Head_Y_For', 'L_Head_X_For', 'L_Arm_Y_Back', 'L_Head_Y_Back']","{'laterality': 'R_Head_Y_For', 'localisation': 'L_Arm_Y_Back', 'movement': 'L_Head_X_For'}","['laterality', 'localisation', 'movement']",0,laterality,R_Head_Y_For,3,robot,1,False,False,"['robot_stimuli\\R_Head_Y_For.mp4', 'robot_stimuli\\L_Head_X_For.mp4', 'robot_stimuli\\L_Arm_Y_Back.mp4', 'robot_stimuli\\L_Head_Y_Back.mp4']",robot_stimuli\R_Head_Y_For.mp4,1,,,,,,,,,,,,,0,4,4,4,,,,,,,,,,,,,,,,,,,421.26172720000613,,,438.1044416000077,438.1044416000077,438.1044416000077,1,4.875744699995266,442.99466050000046,442.99466050000046,442.99466050000046,442.99466050000046,442.99466050000046,442.99466050000046,442.99466050000046,442.99466050000046,None,None,None,,,423.35118749999674,,,,,,,,421.26172720000613,421.26172720000613,None,,434.4695362999919,421.26172720000613,421.26172720000613,,,1,001,2024-06-24_14h36.28.142,robot_cogshifting_sign,2022.2.5,143.76388221614772,
"['R_Base_X_Back', 'L_Torso_X_Back', 'R_Torso_X_For', 'R_Torso_Y_Back']","{'laterality': 'L_Torso_X_Back', 'localisation': 'R_Base_X_Back', 'movement': 'R_Torso_Y_Back'}","['laterality', 'localisation', 'movement']",0,laterality,L_Torso_X_Back,3,robot,1,False,False,"['robot_stimuli\\R_Base_X_Back.mp4', 'robot_stimuli\\L_Torso_X_Back.mp4', 'robot_stimuli\\R_Torso_X_For.mp4', 'robot_stimuli\\R_Torso_Y_Back.mp4']",robot_stimuli\L_Torso_X_Back.mp4,1,,,,,,,,,,,,,0,5,5,5,,,,,,,,,,,,,,,,,,,442.99466050000046,,,459.8761777000036,459.8761777000036,459.8761777000036,2,2.757205599977169,462.6541525000066,462.6541525000066,462.6541525000066,462.6541525000066,462.6541525000066,462.6541525000066,462.6541525000066,462.6541525000066,None,None,None,,,445.0825992000173,,,,,,,,442.99466050000046,442.99466050000046,None,,456.2459352000151,442.99466050000046,442.99466050000046,,,1,001,2024-06-24_14h36.28.142,robot_cogshifting_sign,2022.2.5,143.76388221614772,
"['R_Torso_Y_Back', 'L_Arm_Y_For', 'L_Torso_Y_For', 'L_Torso_X_For']","{'laterality': 'R_Torso_Y_Back', 'localisation': 'L_Arm_Y_For', 'movement': 'L_Torso_X_For'}","['laterality', 'localisation', 'movement']",2,movement,L_Torso_X_For,3,robot,1,False,False,"['robot_stimuli\\R_Torso_Y_Back.mp4', 'robot_stimuli\\L_Arm_Y_For.mp4', 'robot_stimuli\\L_Torso_Y_For.mp4', 'robot_stimuli\\L_Torso_X_For.mp4']",robot_stimuli\L_Torso_X_For.mp4,1,,,,,,,,,,,,,0,6,6,6,,,,,,,,,,,,,,,,,,,462.6541525000066,,,479.5457651000179,479.5457651000179,479.5457651000179,4,1.1096213999844622,480.6640971000015,480.6640971000015,480.6640971000015,480.6640971000015,480.6640971000015,480.6640971000015,480.6640971000015,480.6640971000015,None,None,None,,,,,,,,,,,462.6541525000066,462.6541525000066,None,,475.9185615000024,462.6541525000066,462.6541525000066,,,1,001,2024-06-24_14h36.28.142,robot_cogshifting_sign,2022.2.5,143.76388221614772,
"['L_Head_X_Back', 'L_Torso_Y_Back', 'L_Head_Y_For', 'R_Head_Y_For']","{'laterality': 'R_Head_Y_For', 'localisation': 'L_Torso_Y_Back', 'movement': 'L_Head_X_Back'}","['laterality', 'localisation', 'movement']",2,movement,L_Head_X_Back,3,robot,1,False,False,"['robot_stimuli\\L_Head_X_Back.mp4', 'robot_stimuli\\L_Torso_Y_Back.mp4', 'robot_stimuli\\L_Head_Y_For.mp4', 'robot_stimuli\\R_Head_Y_For.mp4']",robot_stimuli\L_Head_X_Back.mp4,1,,,,,,,,,,,,,0,7,7,7,,,,,,,,,,,,,,,,,,,480.6640971000015,,,497.403206899995,497.403206899995,497.403206899995,2,4.395459099992877,501.81083370000124,501.81083370000124,501.81083370000124,501.81083370000124,501.81083370000124,501.81083370000124,501.81083370000124,501.81083370000124,None,None,None,,,,,,,,,,,480.6640971000015,480.6640971000015,None,,493.7726704000088,480.6640971000015,480.6640971000015,,,1,001,2024-06-24_14h36.28.142,robot_cogshifting_sign,2022.2.5,143.76388221614772,
"['L_Head_X_Back', 'L_Torso_X_For', 'L_Head_Z_For', 'R_Head_X_For']","{'laterality': 'R_Head_X_For', 'localisation': 'L_Torso_X_For', 'movement': 'L_Head_Z_For'}","['laterality', 'localisation', 'movement']",1,localisation,L_Torso_X_For,3,robot,1,False,False,"['robot_stimuli\\L_Head_X_Back.mp4', 'robot_stimuli\\L_Torso_X_For.mp4', 'robot_stimuli\\L_Head_Z_For.mp4', 'robot_stimuli\\R_Head_X_For.mp4']",robot_stimuli\L_Torso_X_For.mp4,1,,,,,,,,,,,,,0,8,8,8,,,,,,,,,,,,,,,,,,,501.81083370000124,,,518.6830592000042,518.6830592000042,518.6830592000042,1,4.610461100004613,523.3052432000113,523.3052432000113,523.3052432000113,523.3052432000113,523.3052432000113,523.3052432000113,523.3052432000113,523.3052432000113,None,None,None,,,503.89808579999954,,,,,,,,501.81083370000124,501.81083370000124,None,,515.0426587999973,501.81083370000124,501.81083370000124,,,1,001,2024-06-24_14h36.28.142,robot_cogshifting_sign,2022.2.5,143.76388221614772,
"['R_Arm_Z_Back', 'L_Torso_Z_For', 'R_Torso_Z_For', 'R_Torso_Y_For']","{'laterality': 'L_Torso_Z_For', 'localisation': 'R_Arm_Z_Back', 'movement': 'R_Torso_Y_For'}","['laterality', 'localisation', 'movement']",1,localisation,R_Arm_Z_Back,3,robot,1,False,False,"['robot_stimuli\\R_Arm_Z_Back.mp4', 'robot_stimuli\\L_Torso_Z_For.mp4', 'robot_stimuli\\R_Torso_Z_For.mp4', 'robot_stimuli\\R_Torso_Y_For.mp4']",robot_stimuli\R_Arm_Z_Back.mp4,1,,,,,,,,,,,,,0,9,9,9,,,,,,,,,,,,,,,,,,,523.3052432000113,,,540.196649999998,540.196649999998,540.196649999998,1,2.4169445999723393,542.6291076000198,542.6291076000198,542.6291076000198,542.6291076000198,542.6291076000198,542.6291076000198,542.6291076000198,542.6291076000198,None,None,None,,,525.3948459000094,,,,,,,,523.3052432000113,523.3052432000113,None,,536.5638511000143,523.3052432000113,523.3052432000113,,,1,001,2024-06-24_14h36.28.142,robot_cogshifting_sign,2022.2.5,143.76388221614772,
"['R_Torso_X_For', 'R_Torso_Z_For', 'R_Base_X_For', 'L_Torso_X_Back']","{'laterality': 'L_Torso_X_Back', 'localisation': 'R_Base_X_For', 'movement': 'R_Torso_Z_For'}","['laterality', 'localisation', 'movement']",0,laterality,L_Torso_X_Back,3,robot,1,False,False,"['robot_stimuli\\R_Torso_X_For.mp4', 'robot_stimuli\\R_Torso_Z_For.mp4', 'robot_stimuli\\R_Base_X_For.mp4', 'robot_stimuli\\L_Torso_X_Back.mp4']",robot_stimuli\L_Torso_X_Back.mp4,1,,,,,,,,,,,,,0,10,10,10,,,,,,,,,,,,,,,,,,,542.6291076000198,,,559.4015344000072,559.4015344000072,559.4015344000072,4,1.6323522999882698,561.0447263999959,561.0447263999959,561.0447263999959,561.0447263999959,561.0447263999959,561.0447263999959,561.0447263999959,561.0447263999959,None,None,None,,,544.7239040000131,,,,,,,,542.6291076000198,542.6291076000198,None,,555.7709363000176,542.6291076000198,542.6291076000198,,,1,001,2024-06-24_14h36.28.142,robot_cogshifting_sign,2022.2.5,143.76388221614772,
"['L_Head_X_Back', 'R_Head_X_For', 'L_Head_Y_Back', 'L_Base_X_Back']","{'laterality': 'R_Head_X_For', 'localisation': 'L_Base_X_Back', 'movement': 'L_Head_Y_Back'}","['laterality', 'localisation', 'movement']",2,movement,L_Head_Y_Back,3,robot,1,False,True,"['robot_stimuli\\L_Head_X_Back.mp4', 'robot_stimuli\\R_Head_X_For.mp4', 'robot_stimuli\\L_Head_Y_Back.mp4', 'robot_stimuli\\L_Base_X_Back.mp4']",robot_stimuli\L_Head_Y_Back.mp4,1,,,,,,,,,,,,,0,11,11,11,,,,,,,,,,,,,,,,,,,561.0447263999959,,,577.8973478999978,577.8973478999978,577.8973478999978,3,2.475167299999157,580.4040709999972,583.0476098000072,580.4040709999972,583.0476098000072,580.4040709999972,583.0476098000072,580.4040709999972,583.0476098000072,84.93827160493827,2.3452248999965377,space,,,563.1341672000126,2.6153941999946255,,,,,,,561.0447263999959,561.0447263999959,None,,574.2935753000202,561.0447263999959,561.0447263999959,,,1,001,2024-06-24_14h36.28.142,robot_cogshifting_sign,2022.2.5,143.76388221614772,
"['R_Arm_Y_Back', 'R_Torso_Y_For', 'R_Arm_Z_Back', 'L_Arm_Y_For']","{'laterality': 'L_Arm_Y_For', 'localisation': 'R_Torso_Y_For', 'movement': 'R_Arm_Z_Back'}","['localisation', 'movement']",0,localisation,R_Torso_Y_For,2,robot,1,True,False,"['robot_stimuli\\R_Arm_Y_Back.mp4', 'robot_stimuli\\R_Torso_Y_For.mp4', 'robot_stimuli\\R_Arm_Z_Back.mp4', 'robot_stimuli\\L_Arm_Y_For.mp4']",robot_stimuli\R_Torso_Y_For.mp4,1,,,,,,,,,,,,,0,12,12,12,,,,,,,,,,,,,,,,,,,584.7315779000055,,,601.6618478000164,601.6618478000164,601.6618478000164,2,4.342160700005479,606.0210366999963,606.0210366999963,606.0210366999963,606.0210366999963,606.0210366999963,606.0210366999963,606.0210366999963,606.0210366999963,None,None,None,,,586.8243989000039,,,,,,,,583.0476098000072,583.0476098000072,space,1.6710360999859404,598.0290189000079,,,,,1,001,2024-06-24_14h36.28.142,robot_cogshifting_sign,2022.2.5,143.76388221614772,
"['R_Base_Z_For', 'L_Base_Y_Back', 'R_Base_Y_For', 'R_Head_Y_For']","{'laterality': 'L_Base_Y_Back', 'localisation': 'R_Head_Y_For', 'movement': 'R_Base_Z_For'}","['laterality', 'localisation']",0,laterality,L_Base_Y_Back,2,robot,1,False,False,"['robot_stimuli\\R_Base_Z_For.mp4', 'robot_stimuli\\L_Base_Y_Back.mp4', 'robot_stimuli\\R_Base_Y_For.mp4', 'robot_stimuli\\R_Head_Y_For.mp4']",robot_stimuli\L_Base_Y_Back.mp4,1,,,,,,,,,,,,,0,13,13,13,,,,,,,,,,,,,,,,,,,606.0210366999963,,,622.8449898000108,622.8449898000108,622.8449898000108,2,2.9808048000268172,625.8425943000184,625.8425943000184,625.8425943000184,625.8425943000184,625.8425943000184,625.8425943000184,625.8425943000184,625.8425943000184,None,None,None,,,,,,,,,,,606.0210366999963,606.0210366999963,None,,619.212391100009,606.0210366999963,606.0210366999963,,,1,001,2024-06-24_14h36.28.142,robot_cogshifting_sign,2022.2.5,143.76388221614772,
"['L_Arm_Z_For', 'R_Arm_Z_Back', 'L_Arm_X_Back', 'L_Torso_Z_For']","{'laterality': 'R_Arm_Z_Back', 'localisation': 'L_Torso_Z_For', 'movement': 'L_Arm_X_Back'}","['laterality', 'movement']",0,laterality,R_Arm_Z_Back,2,robot,1,False,False,"['robot_stimuli\\L_Arm_Z_For.mp4', 'robot_stimuli\\R_Arm_Z_Back.mp4', 'robot_stimuli\\L_Arm_X_Back.mp4', 'robot_stimuli\\L_Torso_Z_For.mp4']",robot_stimuli\R_Arm_Z_Back.mp4,1,,,,,,,,,,,,,0,14,14,14,,,,,,,,,,,,,,,,,,,625.8425943000184,,,642.715239400015,642.715239400015,642.715239400015,2,1.2401224999921396,643.971804700006,643.971804700006,643.971804700006,643.971804700006,643.971804700006,643.971804700006,643.971804700006,643.971804700006,None,None,None,,,627.9287404000061,,,,,,,,625.8425943000184,625.8425943000184,None,,639.0815429000068,625.8425943000184,625.8425943000184,,,1,001,2024-06-24_14h36.28.142,robot_cogshifting_sign,2022.2.5,143.76388221614772,
"['L_Head_Z_Back', 'R_Head_Z_Back', 'R_Head_X_Back', 'R_Base_Z_Back']","{'laterality': 'L_Head_Z_Back', 'localisation': 'R_Base_Z_Back', 'movement': 'R_Head_X_Back'}","['localisation', 'movement']",0,localisation,R_Base_Z_Back,2,robot,1,False,False,"['robot_stimuli\\L_Head_Z_Back.mp4', 'robot_stimuli\\R_Head_Z_Back.mp4', 'robot_stimuli\\R_Head_X_Back.mp4', 'robot_stimuli\\R_Base_Z_Back.mp4']",robot_stimuli\R_Base_Z_Back.mp4,1,,,,,,,,,,,,,0,15,15,15,,,,,,,,,,,,,,,,,,,643.971804700006,,,660.770205400011,660.770205400011,660.770205400011,4,1.928127899998799,662.713124700007,662.713124700007,662.713124700007,662.713124700007,662.713124700007,662.713124700007,662.713124700007,662.713124700007,None,None,None,,,646.0652243999939,,,,,,,,643.971804700006,643.971804700006,None,,657.2319699999935,643.971804700006,643.971804700006,,,1,001,2024-06-24_14h36.28.142,robot_cogshifting_sign,2022.2.5,143.76388221614772,
"['L_Torso_Y_For', 'L_Base_X_Back', 'R_Base_Y_Back', 'L_Base_Y_For']","{'laterality': 'R_Base_Y_Back', 'localisation': 'L_Torso_Y_For', 'movement': 'L_Base_X_Back'}","['laterality', 'localisation']",0,laterality,R_Base_Y_Back,2,robot,1,False,False,"['robot_stimuli\\L_Torso_Y_For.mp4', 'robot_stimuli\\L_Base_X_Back.mp4', 'robot_stimuli\\R_Base_Y_Back.mp4', 'robot_stimuli\\L_Base_Y_For.mp4']",robot_stimuli\R_Base_Y_Back.mp4,1,,,,,,,,,,,,,0,16,16,16,,,,,,,,,,,,,,,,,,,662.713124700007,,,679.4519920000166,679.4519920000166,679.4519920000166,1,3.1886272999981884,682.6548453000141,682.6548453000141,682.6548453000141,682.6548453000141,682.6548453000141,682.6548453000141,682.6548453000141,682.6548453000141,None,None,None,,,664.7939288000052,,,,,,,,662.713124700007,662.713124700007,None,,675.9161487999954,662.713124700007,662.713124700007,,,1,001,2024-06-24_14h36.28.142,robot_cogshifting_sign,2022.2.5,143.76388221614772,
"['R_Arm_Z_For', 'L_Arm_Y_For', 'R_Arm_Y_Back', 'R_Base_Y_Back']","{'laterality': 'L_Arm_Y_For', 'localisation': 'R_Base_Y_Back', 'movement': 'R_Arm_Z_For'}","['laterality', 'localisation']",1,localisation,R_Base_Y_Back,2,robot,1,False,False,"['robot_stimuli\\R_Arm_Z_For.mp4', 'robot_stimuli\\L_Arm_Y_For.mp4', 'robot_stimuli\\R_Arm_Y_Back.mp4', 'robot_stimuli\\R_Base_Y_Back.mp4']",robot_stimuli\R_Base_Y_Back.mp4,1,,,,,,,,,,,,,0,17,17,17,,,,,,,,,,,,,,,,,,,682.6548453000141,,,699.5282310000039,699.5282310000039,699.5282310000039,4,1.7266458999947645,701.2666049000109,701.2666049000109,701.2666049000109,701.2666049000109,701.2666049000109,701.2666049000109,701.2666049000109,701.2666049000109,None,None,None,,,684.7416509000177,,,,,,,,682.6548453000141,682.6548453000141,None,,695.9034375000047,682.6548453000141,682.6548453000141,,,1,001,2024-06-24_14h36.28.142,robot_cogshifting_sign,2022.2.5,143.76388221614772,
"['R_Base_Z_Back', 'L_Base_Z_Back', 'L_Base_X_For', 'L_Torso_Z_Back']","{'laterality': 'R_Base_Z_Back', 'localisation': 'L_Torso_Z_Back', 'movement': 'L_Base_X_For'}","['laterality', 'localisation']",1,localisation,L_Torso_Z_Back,2,robot,1,False,False,"['robot_stimuli\\R_Base_Z_Back.mp4', 'robot_stimuli\\L_Base_Z_Back.mp4', 'robot_stimuli\\L_Base_X_For.mp4', 'robot_stimuli\\L_Torso_Z_Back.mp4']",robot_stimuli\L_Torso_Z_Back.mp4,1,,,,,,,,,,,,,0,18,18,18,,,,,,,,,,,,,,,,,,,701.2666049000109,,,717.8485978000099,717.8485978000099,717.8485978000099,4,2.8108501999813598,720.6762074000144,720.6762074000144,720.6762074000144,720.6762074000144,720.6762074000144,720.6762074000144,720.6762074000144,720.6762074000144,None,None,None,,,703.3611103000003,,,,,,,,701.2666049000109,701.2666049000109,None,,714.3516971000063,701.2666049000109,701.2666049000109,,,1,001,2024-06-24_14h36.28.142,robot_cogshifting_sign,2022.2.5,143.76388221614772,
"['L_Head_X_For', 'R_Base_X_For', 'L_Base_X_Back', 'L_Base_Z_For']","{'laterality': 'R_Base_X_For', 'localisation': 'L_Head_X_For', 'movement': 'L_Base_Z_For'}","['laterality', 'movement']",0,laterality,R_Base_X_For,2,robot,1,False,False,"['robot_stimuli\\L_Head_X_For.mp4', 'robot_stimuli\\R_Base_X_For.mp4', 'robot_stimuli\\L_Base_X_Back.mp4', 'robot_stimuli\\L_Base_Z_For.mp4']",robot_stimuli\R_Base_X_For.mp4,1,,,,,,,,,,,,,0,19,19,19,,,,,,,,,,,,,,,,,,,720.6762074000144,,,737.3369811000011,737.3369811000011,737.3369811000011,1,1.6343701000150759,738.9859406000178,738.9859406000178,738.9859406000178,738.9859406000178,738.9859406000178,738.9859406000178,738.9859406000178,738.9859406000178,None,None,None,,,722.7585497999971,,,,,,,,720.6762074000144,720.6762074000144,None,,733.7021258000168,720.6762074000144,720.6762074000144,,,1,001,2024-06-24_14h36.28.142,robot_cogshifting_sign,2022.2.5,143.76388221614772,
"['L_Head_X_Back', 'L_Torso_Y_Back', 'R_Head_Y_Back', 'L_Head_Y_For']","{'laterality': 'R_Head_Y_Back', 'localisation': 'L_Torso_Y_Back', 'movement': 'L_Head_X_Back'}","['laterality', 'movement']",1,movement,L_Head_X_Back,2,robot,1,False,False,"['robot_stimuli\\L_Head_X_Back.mp4', 'robot_stimuli\\L_Torso_Y_Back.mp4', 'robot_stimuli\\R_Head_Y_Back.mp4', 'robot_stimuli\\L_Head_Y_For.mp4']",robot_stimuli\L_Head_X_Back.mp4,1,,,,,,,,,,,,,0,20,20,20,,,,,,,,,,,,,,,,,,,738.9859406000178,,,755.7650546999939,755.7650546999939,755.7650546999939,1,1.4332359000109136,757.2132033999951,757.2132033999951,757.2132033999951,757.2132033999951,757.2132033999951,757.2132033999951,757.2132033999951,757.2132033999951,None,None,None,,,741.0681660000118,,,,,,,,738.9859406000178,738.9859406000178,None,,752.1323236000026,738.9859406000178,738.9859406000178,,,1,001,2024-06-24_14h36.28.142,robot_cogshifting_sign,2022.2.5,143.76388221614772,
"['R_Base_X_For', 'L_Base_Y_Back', 'R_Torso_Y_Back', 'R_Base_Y_For']","{'laterality': 'L_Base_Y_Back', 'localisation': 'R_Torso_Y_Back', 'movement': 'R_Base_X_For'}","['localisation', 'movement']",1,movement,R_Base_X_For,2,robot,1,False,False,"['robot_stimuli\\R_Base_X_For.mp4', 'robot_stimuli\\L_Base_Y_Back.mp4', 'robot_stimuli\\R_Torso_Y_Back.mp4', 'robot_stimuli\\R_Base_Y_For.mp4']",robot_stimuli\R_Base_X_For.mp4,1,,,,,,,,,,,,,0,21,21,21,,,,,,,,,,,,,,,,,,,757.2132033999951,,,773.9703855999978,773.9703855999978,773.9703855999978,1,3.3246678999857977,777.3116529000108,777.3116529000108,777.3116529000108,777.3116529000108,777.3116529000108,777.3116529000108,777.3116529000108,777.3116529000108,None,None,None,,,759.3126675999956,,,,,,,,757.2132033999951,757.2132033999951,None,,770.3368217000098,757.2132033999951,757.2132033999951,,,1,001,2024-06-24_14h36.28.142,robot_cogshifting_sign,2022.2.5,143.76388221614772,
"['L_Arm_X_For', 'L_Base_X_Back', 'L_Arm_Y_Back', 'R_Arm_X_For']","{'laterality': 'R_Arm_X_For', 'localisation': 'L_Base_X_Back', 'movement': 'L_Arm_Y_Back'}","['localisation', 'movement']",1,movement,L_Arm_Y_Back,2,robot,1,False,False,"['robot_stimuli\\L_Arm_X_For.mp4', 'robot_stimuli\\L_Base_X_Back.mp4', 'robot_stimuli\\L_Arm_Y_Back.mp4', 'robot_stimuli\\R_Arm_X_For.mp4']",robot_stimuli\L_Arm_Y_Back.mp4,1,,,,,,,,,,,,,0,22,22,22,,,,,,,,,,,,,,,,,,,777.3116529000108,,,794.1627833000093,794.1627833000093,794.1627833000093,3,1.5568382999917958,795.7363088999991,795.7363088999991,795.7363088999991,795.7363088999991,795.7363088999991,795.7363088999991,795.7363088999991,795.7363088999991,None,None,None,,,779.406768899993,,,,,,,,777.3116529000108,777.3116529000108,None,,790.5310783000023,777.3116529000108,777.3116529000108,,,1,001,2024-06-24_14h36.28.142,robot_cogshifting_sign,2022.2.5,143.76388221614772,
"['R_Head_X_Back', 'R_Base_Z_Back', 'R_Base_X_Back', 'L_Base_X_Back']","{'laterality': 'L_Base_X_Back', 'localisation': 'R_Head_X_Back', 'movement': 'R_Base_Z_Back'}","['laterality', 'movement']",1,movement,R_Base_Z_Back,2,robot,1,False,True,"['robot_stimuli\\R_Head_X_Back.mp4', 'robot_stimuli\\R_Base_Z_Back.mp4', 'robot_stimuli\\R_Base_X_Back.mp4', 'robot_stimuli\\L_Base_X_Back.mp4']",robot_stimuli\R_Base_Z_Back.mp4,1,,,,,,,,,,,,,0,23,23,23,,,,,,,,,,,,,,,,,,,795.7363088999991,,,812.4699959999998,812.4699959999998,812.4699959999998,2,1.1163569000200368,813.6121458999987,816.1532187999983,813.6121458999987,816.1532187999983,813.6121458999987,816.1532187999983,813.6121458999987,816.1532187999983,67.65432098765432,2.0907889000081923,space,,,797.8227846999944,2.520034500019392,,,,,,,795.7363088999991,795.7363088999991,None,,808.8770978999964,795.7363088999991,795.7363088999991,,,1,001,2024-06-24_14h36.28.142,robot_cogshifting_sign,2022.2.5,143.76388221614772,
"['R_Torso_Z_For', 'L_Torso_Y_Back', 'R_Head_Y_For', 'R_Torso_Y_Back']","{'laterality': 'L_Torso_Y_Back', 'localisation': 'R_Head_Y_For', 'movement': 'R_Torso_Z_For'}",['localisation'],0,localisation,R_Head_Y_For,1,robot,1,True,False,"['robot_stimuli\\R_Torso_Z_For.mp4', 'robot_stimuli\\L_Torso_Y_Back.mp4', 'robot_stimuli\\R_Head_Y_For.mp4', 'robot_stimuli\\R_Torso_Y_Back.mp4']",robot_stimuli\R_Head_Y_For.mp4,1,,,,,,,,,,,,,0,24,24,24,,,,,,,,,,,,,,,,,,,817.6570116000075,,,834.4212506000185,834.4212506000185,834.4212506000185,3,1.0970938999962527,835.5309964000189,835.5309964000189,835.5309964000189,835.5309964000189,835.5309964000189,835.5309964000189,835.5309964000189,835.5309964000189,None,None,None,,,,,,,,,,,816.1532187999983,816.1532187999983,space,1.4932783000112977,830.7827191000106,,,,,1,001,2024-06-24_14h36.28.142,robot_cogshifting_sign,2022.2.5,143.76388221614772,
"['R_Base_Y_Back', 'L_Base_Z_For', 'R_Base_Z_For', 'R_Head_Z_Back']","{'laterality': 'L_Base_Z_For', 'localisation': 'R_Head_Z_Back', 'movement': 'R_Base_Y_Back'}",['movement'],0,movement,R_Base_Y_Back,1,robot,1,False,False,"['robot_stimuli\\R_Base_Y_Back.mp4', 'robot_stimuli\\L_Base_Z_For.mp4', 'robot_stimuli\\R_Base_Z_For.mp4', 'robot_stimuli\\R_Head_Z_Back.mp4']",robot_stimuli\R_Base_Y_Back.mp4,1,,,,,,,,,,,,,0,25,25,25,,,,,,,,,,,,,,,,,,,835.5309964000189,,,852.404282500007,852.404282500007,852.404282500007,1,0.44331800000509247,852.865477400017,852.865477400017,852.865477400017,852.865477400017,852.865477400017,852.865477400017,852.865477400017,852.865477400017,None,None,None,,,,,,,,,,,835.5309964000189,835.5309964000189,None,,848.768633300002,835.5309964000189,835.5309964000189,,,1,001,2024-06-24_14h36.28.142,robot_cogshifting_sign,2022.2.5,143.76388221614772,
"['R_Arm_Y_For', 'R_Base_Z_Back', 'R_Base_Y_Back', 'L_Base_Y_For']","{'laterality': 'L_Base_Y_For', 'localisation': 'R_Arm_Y_For', 'movement': 'R_Base_Z_Back'}",['laterality'],0,laterality,L_Base_Y_For,1,robot,1,False,False,"['robot_stimuli\\R_Arm_Y_For.mp4', 'robot_stimuli\\R_Base_Z_Back.mp4', 'robot_stimuli\\R_Base_Y_Back.mp4', 'robot_stimuli\\L_Base_Y_For.mp4']",robot_stimuli\L_Base_Y_For.mp4,1,,,,,,,,,,,,,0,26,26,26,,,,,,,,,,,,,,,,,,,852.865477400017,,,869.4044720999955,869.4044720999955,869.4044720999955,4,0.6071819000062533,870.0299628000066,870.0299628000066,870.0299628000066,870.0299628000066,870.0299628000066,870.0299628000066,870.0299628000066,870.0299628000066,None,None,None,,,854.9529727000045,,,,,,,,852.865477400017,852.865477400017,None,,865.883911300014,852.865477400017,852.865477400017,,,1,001,2024-06-24_14h36.28.142,robot_cogshifting_sign,2022.2.5,143.76388221614772,
"['L_Torso_Y_For', 'R_Base_Y_Back', 'R_Torso_Y_For', 'R_Torso_Z_Back']","{'laterality': 'L_Torso_Y_For', 'localisation': 'R_Base_Y_Back', 'movement': 'R_Torso_Z_Back'}",['movement'],0,movement,R_Torso_Z_Back,1,robot,1,False,False,"['robot_stimuli\\L_Torso_Y_For.mp4', 'robot_stimuli\\R_Base_Y_Back.mp4', 'robot_stimuli\\R_Torso_Y_For.mp4', 'robot_stimuli\\R_Torso_Z_Back.mp4']",robot_stimuli\R_Torso_Z_Back.mp4,1,,,,,,,,,,,,,0,27,27,27,,,,,,,,,,,,,,,,,,,870.0299628000066,,,886.9053718000068,886.9053718000068,886.9053718000068,4,0.35513469998841174,887.2739959000028,887.2739959000028,887.2739959000028,887.2739959000028,887.2739959000028,887.2739959000028,887.2739959000028,887.2739959000028,None,None,None,,,872.1158408000192,,,,,,,,870.0299628000066,870.0299628000066,None,,883.2687745000003,870.0299628000066,870.0299628000066,,,1,001,2024-06-24_14h36.28.142,robot_cogshifting_sign,2022.2.5,143.76388221614772,
"['L_Head_Z_For', 'R_Arm_Z_Back', 'L_Arm_Y_For', 'L_Arm_Z_For']","{'laterality': 'R_Arm_Z_Back', 'localisation': 'L_Head_Z_For', 'movement': 'L_Arm_Y_For'}",['movement'],0,movement,L_Arm_Y_For,1,robot,1,False,False,"['robot_stimuli\\L_Head_Z_For.mp4', 'robot_stimuli\\R_Arm_Z_Back.mp4', 'robot_stimuli\\L_Arm_Y_For.mp4', 'robot_stimuli\\L_Arm_Z_For.mp4']",robot_stimuli\L_Arm_Y_For.mp4,1,,,,,,,,,,,,,0,28,28,28,,,,,,,,,,,,,,,,,,,887.2739959000028,,,904.1759052000125,904.1759052000125,904.1759052000125,3,0.411726299993461,904.6021949000133,904.6021949000133,904.6021949000133,904.6021949000133,904.6021949000133,904.6021949000133,904.6021949000133,904.6021949000133,None,None,None,,,889.3605844000122,,,,,,,,887.2739959000028,887.2739959000028,None,,900.5413862999994,887.2739959000028,887.2739959000028,,,1,001,2024-06-24_14h36.28.142,robot_cogshifting_sign,2022.2.5,143.76388221614772,
"['R_Torso_Z_Back', 'R_Base_Z_For', 'R_Base_X_Back', 'L_Base_Z_Back']","{'laterality': 'L_Base_Z_Back', 'localisation': 'R_Torso_Z_Back', 'movement': 'R_Base_X_Back'}",['localisation'],0,localisation,R_Torso_Z_Back,1,robot,1,False,False,"['robot_stimuli\\R_Torso_Z_Back.mp4', 'robot_stimuli\\R_Base_Z_For.mp4', 'robot_stimuli\\R_Base_X_Back.mp4', 'robot_stimuli\\L_Base_Z_Back.mp4']",robot_stimuli\R_Torso_Z_Back.mp4,1,,,,,,,,,,,,,0,29,29,29,,,,,,,,,,,,,,,,,,,904.6021949000133,,,921.5109172000084,921.5109172000084,921.5109172000084,1,0.33166939998045564,921.8592381000053,921.8592381000053,921.8592381000053,921.8592381000053,921.8592381000053,921.8592381000053,921.8592381000053,921.8592381000053,None,None,None,,,906.6839746000187,,,,,,,,904.6021949000133,904.6021949000133,None,,917.8811896000116,904.6021949000133,904.6021949000133,,,1,001,2024-06-24_14h36.28.142,robot_cogshifting_sign,2022.2.5,143.76388221614772,
"['R_Torso_X_Back', 'L_Torso_Z_Back', 'R_Base_Z_Back', 'R_Torso_Z_For']","{'laterality': 'L_Torso_Z_Back', 'localisation': 'R_Base_Z_Back', 'movement': 'R_Torso_X_Back'}",['laterality'],0,laterality,L_Torso_Z_Back,1,robot,1,False,False,"['robot_stimuli\\R_Torso_X_Back.mp4', 'robot_stimuli\\L_Torso_Z_Back.mp4', 'robot_stimuli\\R_Base_Z_Back.mp4', 'robot_stimuli\\R_Torso_Z_For.mp4']",robot_stimuli\L_Torso_Z_Back.mp4,1,,,,,,,,,,,,,0,30,30,30,,,,,,,,,,,,,,,,,,,921.8592381000053,,,938.504814999993,938.504814999993,938.504814999993,2,0.3195172999985516,938.8337076000171,938.8337076000171,938.8337076000171,938.8337076000171,938.8337076000171,938.8337076000171,938.8337076000171,938.8337076000171,None,None,None,,,923.9496590000053,,,,,,,,921.8592381000053,921.8592381000053,None,,934.8649583999941,921.8592381000053,921.8592381000053,,,1,001,2024-06-24_14h36.28.142,robot_cogshifting_sign,2022.2.5,143.76388221614772,
"['L_Arm_X_For', 'R_Arm_Y_For', 'R_Head_X_Back', 'R_Arm_X_Back']","{'laterality': 'L_Arm_X_For', 'localisation': 'R_Head_X_Back', 'movement': 'R_Arm_Y_For'}",['laterality'],0,laterality,L_Arm_X_For,1,robot,1,False,False,"['robot_stimuli\\L_Arm_X_For.mp4', 'robot_stimuli\\R_Arm_Y_For.mp4', 'robot_stimuli\\R_Head_X_Back.mp4', 'robot_stimuli\\R_Arm_X_Back.mp4']",robot_stimuli\L_Arm_X_For.mp4,1,,,,,,,,,,,,,0,31,31,31,,,,,,,,,,,,,,,,,,,938.8337076000171,,,955.5789301000186,955.5789301000186,955.5789301000186,2,0.779802600009134,956.377527900011,956.377527900011,956.377527900011,956.377527900011,956.377527900011,956.377527900011,956.377527900011,956.377527900011,None,None,None,,,,,,,,,,,938.8337076000171,938.8337076000171,None,,951.9479793999926,938.8337076000171,938.8337076000171,,,1,001,2024-06-24_14h36.28.142,robot_cogshifting_sign,2022.2.5,143.76388221614772,
"['L_Arm_Z_Back', 'L_Arm_Y_For', 'L_Base_Y_Back', 'R_Arm_Y_For']","{'laterality': 'R_Arm_Y_For', 'localisation': 'L_Base_Y_Back', 'movement': 'L_Arm_Z_Back'}",['movement'],0,movement,L_Arm_Z_Back,1,robot,1,False,False,"['robot_stimuli\\L_Arm_Z_Back.mp4', 'robot_stimuli\\L_Arm_Y_For.mp4', 'robot_stimuli\\L_Base_Y_Back.mp4', 'robot_stimuli\\R_Arm_Y_For.mp4']",robot_stimuli\L_Arm_Z_Back.mp4,1,,,,,,,,,,,,,0,32,32,32,,,,,,,,,,,,,,,,,,,956.377527900011,,,973.0490481000161,973.0490481000161,973.0490481000161,1,0.4916767999820877,973.5525497999915,973.5525497999915,973.5525497999915,973.5525497999915,973.5525497999915,973.5525497999915,973.5525497999915,973.5525497999915,None,None,None,,,958.4640679000004,,,,,,,,956.377527900011,956.377527900011,None,,969.5519708000065,956.377527900011,956.377527900011,,,1,001,2024-06-24_14h36.28.142,robot_cogshifting_sign,2022.2.5,143.76388221614772,
"['L_Arm_Y_For', 'R_Arm_Y_For', 'R_Base_Y_Back', 'R_Arm_X_For']","{'laterality': 'L_Arm_Y_For', 'localisation': 'R_Base_Y_Back', 'movement': 'R_Arm_X_For'}",['laterality'],0,laterality,L_Arm_Y_For,1,robot,1,False,False,"['robot_stimuli\\L_Arm_Y_For.mp4', 'robot_stimuli\\R_Arm_Y_For.mp4', 'robot_stimuli\\R_Base_Y_Back.mp4', 'robot_stimuli\\R_Arm_X_For.mp4']",robot_stimuli\L_Arm_Y_For.mp4,1,,,,,,,,,,,,,0,33,33,33,,,,,,,,,,,,,,,,,,,973.5525497999915,,,990.314364299993,990.314364299993,990.314364299993,1,0.4360459000163246,990.7664793000149,990.7664793000149,990.7664793000149,990.7664793000149,990.7664793000149,990.7664793000149,990.7664793000149,990.7664793000149,None,None,None,,,,,,,,,,,973.5525497999915,973.5525497999915,None,,986.6885690000199,973.5525497999915,973.5525497999915,,,1,001,2024-06-24_14h36.28.142,robot_cogshifting_sign,2022.2.5,143.76388221614772,
"['R_Base_Y_For', 'L_Base_X_For', 'L_Base_Y_For', 'L_Torso_Y_Back']","{'laterality': 'R_Base_Y_For', 'localisation': 'L_Torso_Y_Back', 'movement': 'L_Base_X_For'}",['localisation'],0,localisation,L_Torso_Y_Back,1,robot,1,False,False,"['robot_stimuli\\R_Base_Y_For.mp4', 'robot_stimuli\\L_Base_X_For.mp4', 'robot_stimuli\\L_Base_Y_For.mp4', 'robot_stimuli\\L_Torso_Y_Back.mp4']",robot_stimuli\L_Torso_Y_Back.mp4,1,,,,,,,,,,,,,0,34,34,34,,,,,,,,,,,,,,,,,,,990.7664793000149,,,1007.3446029000042,1007.3446029000042,1007.3446029000042,4,0.22684920000028796,1007.5836646000098,1007.5836646000098,1007.5836646000098,1007.5836646000098,1007.5836646000098,1007.5836646000098,1007.5836646000098,1007.5836646000098,None,None,None,,,992.8574631999945,,,,,,,,990.7664793000149,990.7664793000149,None,,1003.8444512000133,990.7664793000149,990.7664793000149,,,1,001,2024-06-24_14h36.28.142,robot_cogshifting_sign,2022.2.5,143.76388221614772,
"['R_Arm_Y_For', 'L_Arm_X_For', 'L_Arm_Y_Back', 'L_Head_Y_For']","{'laterality': 'R_Arm_Y_For', 'localisation': 'L_Head_Y_For', 'movement': 'L_Arm_X_For'}",['localisation'],0,localisation,L_Head_Y_For,1,robot,1,False,True,"['robot_stimuli\\R_Arm_Y_For.mp4', 'robot_stimuli\\L_Arm_X_For.mp4', 'robot_stimuli\\L_Arm_Y_Back.mp4', 'robot_stimuli\\L_Head_Y_For.mp4']",robot_stimuli\L_Head_Y_For.mp4,1,,,,,,,,,,,,,0,35,35,35,,,,,,,,,,,,,,,,,,,1007.5836646000098,,,1024.3278471000085,1024.3278471000085,1024.3278471000085,4,0.34965960000408813,1024.706510399992,1028.0417661000101,1024.706510399992,1028.0417661000101,1024.706510399992,1028.0417661000101,1024.706510399992,1028.0417661000101,48.51851851851852,2.830622699984815,space,,,1009.6801555000129,3.299058300006436,,,,,,,1007.5836646000098,1007.5836646000098,None,,1020.6945364999992,1007.5836646000098,1007.5836646000098,,,1,001,2024-06-24_14h36.28.142,robot_cogshifting_sign,2022.2.5,143.76388221614772,
"['blue_left_L_0', 'blue_bottom_C_45', 'red_bottom_Z_0', 'blue_bottom_P_0']","{'color': 'red_bottom_Z_0', 'position': 'blue_left_L_0', 'orientation': 'blue_bottom_C_45'}","['color', 'position']",0,color,red_bottom_Z_0,2,letter,2,True,False,"['robot_stimuli\\\\filler.mp4', 'robot_stimuli\\\\filler.mp4', 'robot_stimuli\\\\filler.mp4', 'robot_stimuli\\\\filler.mp4']",robot_stimuli\\filler.mp4,1,,,,,,,,,,,,,0,36,36,36,,,,,,,,,,,,,,,,,,,1032.3189353000198,,,1043.317135499994,1043.317135499994,1043.317135499994,3,1.577047800004948,1044.9120770000154,1044.9120770000154,1044.9120770000154,1044.9120770000154,1044.9120770000154,1044.9120770000154,1044.9120770000154,1044.9120770000154,None,None,None,,,1034.386163499992,,,,,,,,1028.0417661000101,1028.0417661000101,space,4.264971199998399,,,,1041.0839186999947,1043.317135499994,1,001,2024-06-24_14h36.28.142,robot_cogshifting_sign,2022.2.5,143.76388221614772,
"['blue_bottom_F_45', 'red_bottom_M_0', 'blue_bottom_C_0', 'blue_left_M_0']","{'color': 'red_bottom_M_0', 'position': 'blue_left_M_0', 'orientation': 'blue_bottom_F_45'}","['color', 'position']",0,color,red_bottom_M_0,2,letter,2,False,False,"['robot_stimuli\\\\filler.mp4', 'robot_stimuli\\\\filler.mp4', 'robot_stimuli\\\\filler.mp4', 'robot_stimuli\\\\filler.mp4']",robot_stimuli\\filler.mp4,1,,,,,,,,,,,,,0,37,37,37,,,,,,,,,,,,,,,,,,,1044.9120770000154,,,1055.5028115000168,1055.5028115000168,1055.5028115000168,2,1.918971800012514,1057.4376699000131,1057.4376699000131,1057.4376699000131,1057.4376699000131,1057.4376699000131,1057.4376699000131,1057.4376699000131,1057.4376699000131,None,None,None,,,1046.9825413000071,,,,,,,,1044.9120770000154,1044.9120770000154,None,,,1044.9120770000154,1044.9120770000154,1053.4742657000024,1055.5028115000168,1,001,2024-06-24_14h36.28.142,robot_cogshifting_sign,2022.2.5,143.76388221614772,
"['blue_left_L_45', 'blue_bottom_M_45', 'blue_bottom_V_0', 'red_bottom_L_45']","{'color': 'red_bottom_L_45', 'position': 'blue_left_L_45', 'orientation': 'blue_bottom_V_0'}","['color', 'orientation']",0,color,red_bottom_L_45,2,letter,2,False,False,"['robot_stimuli\\\\filler.mp4', 'robot_stimuli\\\\filler.mp4', 'robot_stimuli\\\\filler.mp4', 'robot_stimuli\\\\filler.mp4']",robot_stimuli\\filler.mp4,1,,,,,,,,,,,,,0,38,38,38,,,,,,,,,,,,,,,,,,,1057.4376699000131,,,1068.0211352000188,1068.0211352000188,1068.0211352000188,4,2.2364044999994803,1070.2711165999935,1070.2711165999935,1070.2711165999935,1070.2711165999935,1070.2711165999935,1070.2711165999935,1070.2711165999935,1070.2711165999935,None,None,None,,,1059.5090868000116,,,,,,,,1057.4376699000131,1057.4376699000131,None,,,1057.4376699000131,1057.4376699000131,1065.9870109000185,1068.0211352000188,1,001,2024-06-24_14h36.28.142,robot_cogshifting_sign,2022.2.5,143.76388221614772,
"['red_right_H_0', 'red_left_S_45', 'red_right_K_45', 'blue_right_M_45']","{'color': 'blue_right_M_45', 'position': 'red_left_S_45', 'orientation': 'red_right_H_0'}","['position', 'orientation']",1,orientation,red_right_H_0,2,letter,2,False,False,"['robot_stimuli\\\\filler.mp4', 'robot_stimuli\\\\filler.mp4', 'robot_stimuli\\\\filler.mp4', 'robot_stimuli\\\\filler.mp4']",robot_stimuli\\filler.mp4,1,,,,,,,,,,,,,0,39,39,39,,,,,,,,,,,,,,,,,,,1070.2711165999935,,,1081.0497574000037,1081.0497574000037,1081.0497574000037,1,1.904507500003092,1082.9700021000172,1082.9700021000172,1082.9700021000172,1082.9700021000172,1082.9700021000172,1082.9700021000172,1082.9700021000172,1082.9700021000172,None,None,None,,,1072.3386877000157,,,,,,,,1070.2711165999935,1070.2711165999935,None,,,1070.2711165999935,1070.2711165999935,1079.025105000008,1081.0497574000037,1,001,2024-06-24_14h36.28.142,robot_cogshifting_sign,2022.2.5,143.76388221614772,
"['blue_right_R_45', 'blue_top_J_0', 'red_top_S_45', 'blue_top_D_45']","{'color': 'red_top_S_45', 'position': 'blue_right_R_45', 'orientation': 'blue_top_J_0'}","['color', 'position']",1,position,blue_right_R_45,2,letter,2,False,False,"['robot_stimuli\\\\filler.mp4', 'robot_stimuli\\\\filler.mp4', 'robot_stimuli\\\\filler.mp4', 'robot_stimuli\\\\filler.mp4']",robot_stimuli\\filler.mp4,1,,,,,,,,,,,,,0,40,40,40,,,,,,,,,,,,,,,,,,,1082.9700021000172,,,1093.760515700007,1093.760515700007,1093.760515700007,1,1.9987134999828413,1095.772671600018,1095.772671600018,1095.772671600018,1095.772671600018,1095.772671600018,1095.772671600018,1095.772671600018,1095.772671600018,None,None,None,,,1085.0432512999978,,,,,,,,1082.9700021000172,1082.9700021000172,None,,,1082.9700021000172,1082.9700021000172,1091.5315996000136,1093.760515700007,1,001,2024-06-24_14h36.28.142,robot_cogshifting_sign,2022.2.5,143.76388221614772,
"['blue_top_Z_0', 'blue_top_C_45', 'red_top_B_0', 'blue_right_T_0']","{'color': 'red_top_B_0', 'position': 'blue_right_T_0', 'orientation': 'blue_top_C_45'}","['color', 'position']",1,position,blue_right_T_0,2,letter,2,False,False,"['robot_stimuli\\\\filler.mp4', 'robot_stimuli\\\\filler.mp4', 'robot_stimuli\\\\filler.mp4', 'robot_stimuli\\\\filler.mp4']",robot_stimuli\\filler.mp4,1,,,,,,,,,,,,,0,41,41,41,,,,,,,,,,,,,,,,,,,1095.772671600018,,,1106.3677821000165,1106.3677821000165,1106.3677821000165,4,1.3540508000005502,1107.7408529999957,1107.7408529999957,1107.7408529999957,1107.7408529999957,1107.7408529999957,1107.7408529999957,1107.7408529999957,1107.7408529999957,None,None,None,,,1097.841085299995,,,,,,,,1095.772671600018,1095.772671600018,None,,,1095.772671600018,1095.772671600018,1104.1357923000178,1106.3677821000165,1,001,2024-06-24_14h36.28.142,robot_cogshifting_sign,2022.2.5,143.76388221614772,
"['blue_bottom_G_45', 'red_bottom_G_0', 'red_right_J_45', 'red_bottom_Z_45']","{'color': 'blue_bottom_G_45', 'position': 'red_right_J_45', 'orientation': 'red_bottom_G_0'}","['position', 'orientation']",0,position,red_right_J_45,2,letter,2,False,False,"['robot_stimuli\\\\filler.mp4', 'robot_stimuli\\\\filler.mp4', 'robot_stimuli\\\\filler.mp4', 'robot_stimuli\\\\filler.mp4']",robot_stimuli\\filler.mp4,1,,,,,,,,,,,,,0,42,42,42,,,,,,,,,,,,,,,,,,,1107.7408529999957,,,1118.539266000007,1118.539266000007,1118.539266000007,3,2.405232499993872,1120.9559152000002,1120.9559152000002,1120.9559152000002,1120.9559152000002,1120.9559152000002,1120.9559152000002,1120.9559152000002,1120.9559152000002,None,None,None,,,,,,,,,,,1107.7408529999957,1107.7408529999957,None,,,1107.7408529999957,1107.7408529999957,1116.3160157999955,1118.539266000007,1,001,2024-06-24_14h36.28.142,robot_cogshifting_sign,2022.2.5,143.76388221614772,
"['blue_top_M_0', 'red_left_F_0', 'red_top_L_45', 'red_top_K_0']","{'color': 'blue_top_M_0', 'position': 'red_left_F_0', 'orientation': 'red_top_L_45'}","['position', 'orientation']",1,orientation,red_top_L_45,2,letter,2,False,False,"['robot_stimuli\\\\filler.mp4', 'robot_stimuli\\\\filler.mp4', 'robot_stimuli\\\\filler.mp4', 'robot_stimuli\\\\filler.mp4']",robot_stimuli\\filler.mp4,1,,,,,,,,,,,,,0,43,43,43,,,,,,,,,,,,,,,,,,,1120.9559152000002,,,1131.7689802999957,1131.7689802999957,1131.7689802999957,3,1.811090700008208,1133.5955792000168,1133.5955792000168,1133.5955792000168,1133.5955792000168,1133.5955792000168,1133.5955792000168,1133.5955792000168,1133.5955792000168,None,None,None,,,1123.0250985000166,,,,,,,,1120.9559152000002,1120.9559152000002,None,,,1120.9559152000002,1120.9559152000002,1129.732967000018,1131.7689802999957,1,001,2024-06-24_14h36.28.142,robot_cogshifting_sign,2022.2.5,143.76388221614772,
"['red_left_T_45', 'blue_left_G_45', 'blue_right_X_45', 'blue_left_M_0']","{'color': 'red_left_T_45', 'position': 'blue_right_X_45', 'orientation': 'blue_left_M_0'}","['color', 'orientation']",1,orientation,blue_left_M_0,2,letter,2,False,False,"['robot_stimuli\\\\filler.mp4', 'robot_stimuli\\\\filler.mp4', 'robot_stimuli\\\\filler.mp4', 'robot_stimuli\\\\filler.mp4']",robot_stimuli\\filler.mp4,1,,,,,,,,,,,,,0,44,44,44,,,,,,,,,,,,,,,,,,,1133.5955792000168,,,1144.619551700016,1144.619551700016,1144.619551700016,4,1.5951523999974597,1146.2307517000008,1146.2307517000008,1146.2307517000008,1146.2307517000008,1146.2307517000008,1146.2307517000008,1146.2307517000008,1146.2307517000008,None,None,None,,,1135.6670342000143,,,,,,,,1133.5955792000168,1133.5955792000168,None,,,1133.5955792000168,1133.5955792000168,1142.380782399996,1144.619551700016,1,001,2024-06-24_14h36.28.142,robot_cogshifting_sign,2022.2.5,143.76388221614772,
"['red_right_C_0', 'red_left_Q_0', 'blue_left_X_0', 'red_left_N_45']","{'color': 'blue_left_X_0', 'position': 'red_right_C_0', 'orientation': 'red_left_N_45'}","['position', 'orientation']",0,position,red_right_C_0,2,letter,2,False,False,"['robot_stimuli\\\\filler.mp4', 'robot_stimuli\\\\filler.mp4', 'robot_stimuli\\\\filler.mp4', 'robot_stimuli\\\\filler.mp4']",robot_stimuli\\filler.mp4,1,,,,,,,,,,,,,0,45,45,45,,,,,,,,,,,,,,,,,,,1146.2307517000008,,,1156.837000600004,1156.837000600004,1156.837000600004,1,0.9695791999984067,1157.819236500014,1157.819236500014,1157.819236500014,1157.819236500014,1157.819236500014,1157.819236500014,1157.819236500014,1157.819236500014,None,None,None,,,1148.3016424000089,,,,,,,,1146.2307517000008,1146.2307517000008,None,,,1146.2307517000008,1146.2307517000008,1154.796899900015,1156.837000600004,1,001,2024-06-24_14h36.28.142,robot_cogshifting_sign,2022.2.5,143.76388221614772,
"['blue_left_Z_0', 'blue_top_N_45', 'blue_top_P_0', 'red_top_Q_0']","{'color': 'red_top_Q_0', 'position': 'blue_left_Z_0', 'orientation': 'blue_top_N_45'}","['color', 'orientation']",1,orientation,blue_top_N_45,2,letter,2,False,False,"['robot_stimuli\\\\filler.mp4', 'robot_stimuli\\\\filler.mp4', 'robot_stimuli\\\\filler.mp4', 'robot_stimuli\\\\filler.mp4']",robot_stimuli\\filler.mp4,1,,,,,,,,,,,,,0,46,46,46,,,,,,,,,,,,,,,,,,,1157.819236500014,,,1168.6192248000007,1168.6192248000007,1168.6192248000007,2,1.4509393999760505,1170.0808741000073,1170.0808741000073,1170.0808741000073,1170.0808741000073,1170.0808741000073,1170.0808741000073,1170.0808741000073,1170.0808741000073,None,None,None,,,1159.8928631000163,,,,,,,,1157.819236500014,1157.819236500014,None,,,1157.819236500014,1157.819236500014,1166.5873837000108,1168.6192248000007,1,001,2024-06-24_14h36.28.142,robot_cogshifting_sign,2022.2.5,143.76388221614772,
"['red_right_D_0', 'red_bottom_X_45', 'blue_bottom_L_0', 'red_bottom_N_0']","{'color': 'blue_bottom_L_0', 'position': 'red_right_D_0', 'orientation': 'red_bottom_X_45'}","['color', 'orientation']",0,color,blue_bottom_L_0,2,letter,2,False,True,"['robot_stimuli\\\\filler.mp4', 'robot_stimuli\\\\filler.mp4', 'robot_stimuli\\\\filler.mp4', 'robot_stimuli\\\\filler.mp4']",robot_stimuli\\filler.mp4,1,,,,,,,,,,,,,0,47,47,47,,,,,,,,,,,,,,,,,,,1170.0808741000073,,,1181.0910025000048,1181.0910025000048,1181.0910025000048,3,1.9587833000114188,1183.0834582000098,1185.7049387000152,1183.0834582000098,1185.7049387000152,1183.0834582000098,1185.7049387000152,1183.0834582000098,1185.7049387000152,34.78395061728394,2.4616921999840997,space,,,1172.1560293000075,2.5936579999979585,,,,,,,1170.0808741000073,1170.0808741000073,None,,,1170.0808741000073,1170.0808741000073,1178.8542941000196,1181.0910025000048,1,001,2024-06-24_14h36.28.142,robot_cogshifting_sign,2022.2.5,143.76388221614772,
"['red_top_S_45', 'blue_top_H_0', 'blue_left_H_45', 'blue_top_N_45']","{'color': 'red_top_S_45', 'position': 'blue_left_H_45', 'orientation': 'blue_top_H_0'}","['color', 'position', 'orientation']",0,color,red_top_S_45,3,letter,2,True,False,"['robot_stimuli\\\\filler.mp4', 'robot_stimuli\\\\filler.mp4', 'robot_stimuli\\\\filler.mp4', 'robot_stimuli\\\\filler.mp4']",robot_stimuli\\filler.mp4,1,,,,,,,,,,,,,0,48,48,48,,,,,,,,,,,,,,,,,,,1202.0175224000122,,,1212.6130129999947,1212.6130129999947,1212.6130129999947,1,1.314760400011437,1213.9418522999913,1213.9418522999913,1213.9418522999913,1213.9418522999913,1213.9418522999913,1213.9418522999913,1213.9418522999913,1213.9418522999913,None,None,None,,,,,,,,,,,1185.7049387000152,1185.7049387000152,space,16.298978199978592,,,,1210.5788624999986,1212.6130129999947,1,001,2024-06-24_14h36.28.142,robot_cogshifting_sign,2022.2.5,143.76388221614772,
"['red_top_X_45', 'blue_top_S_0', 'red_bottom_Q_0', 'red_top_M_0']","{'color': 'blue_top_S_0', 'position': 'red_bottom_Q_0', 'orientation': 'red_top_X_45'}","['color', 'position', 'orientation']",0,color,blue_top_S_0,3,letter,2,False,False,"['robot_stimuli\\\\filler.mp4', 'robot_stimuli\\\\filler.mp4', 'robot_stimuli\\\\filler.mp4', 'robot_stimuli\\\\filler.mp4']",robot_stimuli\\filler.mp4,1,,,,,,,,,,,,,0,49,49,49,,,,,,,,,,,,,,,,,,,1213.9418522999913,,,1224.728164,1224.728164,1224.728164,2,1.3148829000128899,1226.0565744999913,1226.0565744999913,1226.0565744999913,1226.0565744999913,1226.0565744999913,1226.0565744999913,1226.0565744999913,1226.0565744999913,None,None,None,,,1216.0124428000126,,,,,,,,1213.9418522999913,1213.9418522999913,None,,,1213.9418522999913,1213.9418522999913,1222.495137299993,1224.728164,1,001,2024-06-24_14h36.28.142,robot_cogshifting_sign,2022.2.5,143.76388221614772,
"['blue_bottom_G_45', 'red_bottom_C_45', 'blue_right_R_45', 'blue_bottom_K_0']","{'color': 'red_bottom_C_45', 'position': 'blue_right_R_45', 'orientation': 'blue_bottom_K_0'}","['color', 'position', 'orientation']",1,position,blue_right_R_45,3,letter,2,False,False,"['robot_stimuli\\\\filler.mp4', 'robot_stimuli\\\\filler.mp4', 'robot_stimuli\\\\filler.mp4', 'robot_stimuli\\\\filler.mp4']",robot_stimuli\\filler.mp4,1,,,,,,,,,,,,,0,50,50,50,,,,,,,,,,,,,,,,,,,1226.0565744999913,,,1236.8537813000148,1236.8537813000148,1236.8537813000148,3,2.0604878999874927,1238.9269444000092,1238.9269444000092,1238.9269444000092,1238.9269444000092,1238.9269444000092,1238.9269444000092,1238.9269444000092,1238.9269444000092,None,None,None,,,1228.1330526999955,,,,,,,,1226.0565744999913,1226.0565744999913,None,,,1226.0565744999913,1226.0565744999913,1234.618981800013,1236.8537813000148,1,001,2024-06-24_14h36.28.142,robot_cogshifting_sign,2022.2.5,143.76388221614772,
"['blue_top_W_0', 'red_left_Z_0', 'blue_left_W_0', 'blue_left_Q_45']","{'color': 'red_left_Z_0', 'position': 'blue_top_W_0', 'orientation': 'blue_left_Q_45'}","['color', 'position', 'orientation']",2,orientation,blue_left_Q_45,3,letter,2,False,False,"['robot_stimuli\\\\filler.mp4', 'robot_stimuli\\\\filler.mp4', 'robot_stimuli\\\\filler.mp4', 'robot_stimuli\\\\filler.mp4']",robot_stimuli\\filler.mp4,1,,,,,,,,,,,,,0,51,51,51,,,,,,,,,,,,,,,,,,,1238.9269444000092,,,1249.7359972000122,1249.7359972000122,1249.7359972000122,4,2.321245799976168,1252.0680932000105,1252.0680932000105,1252.0680932000105,1252.0680932000105,1252.0680932000105,1252.0680932000105,1252.0680932000105,1252.0680932000105,None,None,None,,,1240.9966887000191,,,,,,,,1238.9269444000092,1238.9269444000092,None,,,1238.9269444000092,1238.9269444000092,1247.4978925000178,1249.7359972000122,1,001,2024-06-24_14h36.28.142,robot_cogshifting_sign,2022.2.5,143.76388221614772,
"['blue_left_F_0', 'blue_bottom_W_0', 'red_bottom_T_0', 'blue_bottom_J_45']","{'color': 'red_bottom_T_0', 'position': 'blue_left_F_0', 'orientation': 'blue_bottom_J_45'}","['color', 'position', 'orientation']",1,position,blue_left_F_0,3,letter,2,False,False,"['robot_stimuli\\\\filler.mp4', 'robot_stimuli\\\\filler.mp4', 'robot_stimuli\\\\filler.mp4', 'robot_stimuli\\\\filler.mp4']",robot_stimuli\\filler.mp4,1,,,,,,,,,,,,,0,52,52,52,,,,,,,,,,,,,,,,,,,1252.0680932000105,,,1262.8596154999977,1262.8596154999977,1262.8596154999977,1,6.77513419999741,1269.6484513000178,1269.6484513000178,1269.6484513000178,1269.6484513000178,1269.6484513000178,1269.6484513000178,1269.6484513000178,1269.6484513000178,None,None,None,,,1254.137207599997,,,,,,,,1252.0680932000105,1252.0680932000105,None,,,1252.0680932000105,1252.0680932000105,1260.6273770999978,1262.8596154999977,1,001,2024-06-24_14h36.28.142,robot_cogshifting_sign,2022.2.5,143.76388221614772,
"['red_top_K_45', 'red_right_W_45', 'blue_top_B_45', 'red_top_H_0']","{'color': 'blue_top_B_45', 'position': 'red_right_W_45', 'orientation': 'red_top_H_0'}","['color', 'position', 'orientation']",0,color,blue_top_B_45,3,letter,2,False,False,"['robot_stimuli\\\\filler.mp4', 'robot_stimuli\\\\filler.mp4', 'robot_stimuli\\\\filler.mp4', 'robot_stimuli\\\\filler.mp4']",robot_stimuli\\filler.mp4,1,,,,,,,,,,,,,0,53,53,53,,,,,,,,,,,,,,,,,,,1269.6484513000178,,,1280.031879200018,1280.031879200018,1280.031879200018,3,1.950530100002652,1281.999209200003,1281.999209200003,1281.999209200003,1281.999209200003,1281.999209200003,1281.999209200003,1281.999209200003,1281.999209200003,None,None,None,,,1271.7270995000144,,,,,,,,1269.6484513000178,1269.6484513000178,None,,,1269.6484513000178,1269.6484513000178,1278.0036635000142,1280.031879200018,1,001,2024-06-24_14h36.28.142,robot_cogshifting_sign,2022.2.5,143.76388221614772,
"['red_top_W_0', 'blue_left_F_0', 'blue_top_R_45', 'blue_top_S_0']","{'color': 'red_top_W_0', 'position': 'blue_left_F_0', 'orientation': 'blue_top_R_45'}","['color', 'position', 'orientation']",2,orientation,blue_top_R_45,3,letter,2,False,False,"['robot_stimuli\\\\filler.mp4', 'robot_stimuli\\\\filler.mp4', 'robot_stimuli\\\\filler.mp4', 'robot_stimuli\\\\filler.mp4']",robot_stimuli\\filler.mp4,1,,,,,,,,,,,,,0,54,54,54,,,,,,,,,,,,,,,,,,,1281.999209200003,,,1292.3839699999953,1292.3839699999953,1292.3839699999953,4,1.6929945000156295,1294.0906573999964,1294.0906573999964,1294.0906573999964,1294.0906573999964,1294.0906573999964,1294.0906573999964,1294.0906573999964,1294.0906573999964,None,None,None,,,,,,,,,,,1281.999209200003,1281.999209200003,None,,,1281.999209200003,1281.999209200003,1290.3525733000133,1292.3839699999953,1,001,2024-06-24_14h36.28.142,robot_cogshifting_sign,2022.2.5,143.76388221614772,
"['blue_bottom_D_45', 'red_bottom_G_45', 'blue_left_C_45', 'blue_bottom_D_0']","{'color': 'red_bottom_G_45', 'position': 'blue_left_C_45', 'orientation': 'blue_bottom_D_0'}","['color', 'position', 'orientation']",1,position,blue_left_C_45,3,letter,2,False,False,"['robot_stimuli\\\\filler.mp4', 'robot_stimuli\\\\filler.mp4', 'robot_stimuli\\\\filler.mp4', 'robot_stimuli\\\\filler.mp4']",robot_stimuli\\filler.mp4,1,,,,,,,,,,,,,0,55,55,55,,,,,,,,,,,,,,,,,,,1294.0906573999964,,,1304.9035826000036,1304.9035826000036,1304.9035826000036,3,1.4184909999894444,1306.33960810001,1306.33960810001,1306.33960810001,1306.33960810001,1306.33960810001,1306.33960810001,1306.33960810001,1306.33960810001,None,None,None,,,1296.1623050000053,,,,,,,,1294.0906573999964,1294.0906573999964,None,,,1294.0906573999964,1294.0906573999964,1302.6643063999945,1304.9035826000036,1,001,2024-06-24_14h36.28.142,robot_cogshifting_sign,2022.2.5,143.76388221614772,
"['blue_bottom_W_0', 'red_top_D_0', 'red_bottom_V_45', 'red_bottom_W_0']","{'color': 'blue_bottom_W_0', 'position': 'red_top_D_0', 'orientation': 'red_bottom_V_45'}","['color', 'position', 'orientation']",2,orientation,red_bottom_V_45,3,letter,2,False,False,"['robot_stimuli\\\\filler.mp4', 'robot_stimuli\\\\filler.mp4', 'robot_stimuli\\\\filler.mp4', 'robot_stimuli\\\\filler.mp4']",robot_stimuli\\filler.mp4,1,,,,,,,,,,,,,0,56,56,56,,,,,,,,,,,,,,,,,,,1306.33960810001,,,1317.3270252000075,1317.3270252000075,1317.3270252000075,3,2.1944340000045486,1319.5298228000174,1319.5298228000174,1319.5298228000174,1319.5298228000174,1319.5298228000174,1319.5298228000174,1319.5298228000174,1319.5298228000174,None,None,None,,,1308.4116140000115,,,,,,,,1306.33960810001,1306.33960810001,None,,,1306.33960810001,1306.33960810001,1315.0995522000012,1317.3270252000075,1,001,2024-06-24_14h36.28.142,robot_cogshifting_sign,2022.2.5,143.76388221614772,
"['blue_right_V_45', 'blue_right_F_0', 'blue_top_V_45', 'red_right_S_45']","{'color': 'red_right_S_45', 'position': 'blue_top_V_45', 'orientation': 'blue_right_F_0'}","['color', 'position', 'orientation']",0,color,red_right_S_45,3,letter,2,False,False,"['robot_stimuli\\\\filler.mp4', 'robot_stimuli\\\\filler.mp4', 'robot_stimuli\\\\filler.mp4', 'robot_stimuli\\\\filler.mp4']",robot_stimuli\\filler.mp4,1,,,,,,,,,,,,,0,57,57,57,,,,,,,,,,,,,,,,,,,1319.5298228000174,,,1330.3073360999988,1330.3073360999988,1330.3073360999988,4,1.229675100010354,1331.5476208000036,1331.5476208000036,1331.5476208000036,1331.5476208000036,1331.5476208000036,1331.5476208000036,1331.5476208000036,1331.5476208000036,None,None,None,,,1321.5956701000105,,,,,,,,1319.5298228000174,1319.5298228000174,None,,,1319.5298228000174,1319.5298228000174,1328.0767284000176,1330.3073360999988,1,001,2024-06-24_14h36.28.142,robot_cogshifting_sign,2022.2.5,143.76388221614772,
"['red_right_L_0', 'red_left_S_0', 'blue_left_P_0', 'red_left_J_45']","{'color': 'blue_left_P_0', 'position': 'red_right_L_0', 'orientation': 'red_left_J_45'}","['color', 'position', 'orientation']",1,position,red_right_L_0,3,letter,2,False,False,"['robot_stimuli\\\\filler.mp4', 'robot_stimuli\\\\filler.mp4', 'robot_stimuli\\\\filler.mp4', 'robot_stimuli\\\\filler.mp4']",robot_stimuli\\filler.mp4,1,,,,,,,,,,,,,0,58,58,58,,,,,,,,,,,,,,,,,,,1331.5476208000036,,,1342.3274317000178,1342.3274317000178,1342.3274317000178,1,2.327446700015571,1344.6684382999956,1344.6684382999956,1344.6684382999956,1344.6684382999956,1344.6684382999956,1344.6684382999956,1344.6684382999956,1344.6684382999956,None,None,None,,,1333.617539800005,,,,,,,,1331.5476208000036,1331.5476208000036,None,,,1331.5476208000036,1331.5476208000036,1340.3070191000006,1342.3274317000178,1,001,2024-06-24_14h36.28.142,robot_cogshifting_sign,2022.2.5,143.76388221614772,
"['blue_top_D_45', 'blue_left_N_45', 'red_top_X_45', 'blue_top_L_0']","{'color': 'red_top_X_45', 'position': 'blue_left_N_45', 'orientation': 'blue_top_L_0'}","['color', 'position', 'orientation']",2,orientation,blue_top_L_0,3,letter,2,False,True,"['robot_stimuli\\\\filler.mp4', 'robot_stimuli\\\\filler.mp4', 'robot_stimuli\\\\filler.mp4', 'robot_stimuli\\\\filler.mp4']",robot_stimuli\\filler.mp4,1,,,,,,,,,,,,,0,59,59,59,,,,,,,,,,,,,,,,,,,1344.6684382999956,,,1355.687122400006,1355.687122400006,1355.687122400006,4,1.2430017000006046,1356.955385600013,1359.3783130999946,1356.955385600013,1359.3783130999946,1356.955385600013,1359.3783130999946,1356.955385600013,1359.3783130999946,31.543209876543205,2.029163900006097,space,,,1346.7358252000122,2.3942835000052582,,,,,,,1344.6684382999956,1344.6684382999956,None,,,1344.6684382999956,1344.6684382999956,1353.6518344999931,1355.687122400006,1,001,2024-06-24_14h36.28.142,robot_cogshifting_sign,2022.2.5,143.76388221614772,
"['red_right_P_45', 'blue_right_V_45', 'blue_left_R_45', 'blue_right_V_0']","{'color': 'red_right_P_45', 'position': 'blue_left_R_45', 'orientation': 'blue_right_V_0'}",['position'],0,position,blue_left_R_45,1,letter,2,True,False,"['robot_stimuli\\\\filler.mp4', 'robot_stimuli\\\\filler.mp4', 'robot_stimuli\\\\filler.mp4', 'robot_stimuli\\\\filler.mp4']",robot_stimuli\\filler.mp4,1,,,,,,,,,,,,,0,60,60,60,,,,,,,,,,,,,,,,,,,1361.4861712999991,,,1372.0940660999913,1372.0940660999913,1372.0940660999913,3,0.3568395999900531,1372.4701216999965,1372.4701216999965,1372.4701216999965,1372.4701216999965,1372.4701216999965,1372.4701216999965,1372.4701216999965,1372.4701216999965,None,None,None,,,1363.5540729000058,,,,,,,,1359.3783130999946,1359.3783130999946,space,2.0948815000010654,,,,1370.0604936000018,1372.0940660999913,1,001,2024-06-24_14h36.28.142,robot_cogshifting_sign,2022.2.5,143.76388221614772,
"['blue_right_D_0', 'blue_bottom_Q_45', 'red_right_M_45', 'blue_right_J_45']","{'color': 'red_right_M_45', 'position': 'blue_bottom_Q_45', 'orientation': 'blue_right_D_0'}",['color'],0,color,red_right_M_45,1,letter,2,False,False,"['robot_stimuli\\\\filler.mp4', 'robot_stimuli\\\\filler.mp4', 'robot_stimuli\\\\filler.mp4', 'robot_stimuli\\\\filler.mp4']",robot_stimuli\\filler.mp4,1,,,,,,,,,,,,,0,61,61,61,,,,,,,,,,,,,,,,,,,1372.4701216999965,,,1383.0557288000127,1383.0557288000127,1383.0557288000127,3,0.3641033000021707,1383.433607200015,1383.433607200015,1383.433607200015,1383.433607200015,1383.433607200015,1383.433607200015,1383.433607200015,1383.433607200015,None,None,None,,,1374.5423628000135,,,,,,,,1372.4701216999965,1372.4701216999965,None,,,1372.4701216999965,1372.4701216999965,1381.0238559000136,1383.0557288000127,1,001,2024-06-24_14h36.28.142,robot_cogshifting_sign,2022.2.5,143.76388221614772,
"['blue_right_K_0', 'blue_bottom_C_0', 'red_right_B_0', 'blue_right_R_45']","{'color': 'red_right_B_0', 'position': 'blue_bottom_C_0', 'orientation': 'blue_right_R_45'}",['orientation'],0,orientation,blue_right_R_45,1,letter,2,False,False,"['robot_stimuli\\\\filler.mp4', 'robot_stimuli\\\\filler.mp4', 'robot_stimuli\\\\filler.mp4', 'robot_stimuli\\\\filler.mp4']",robot_stimuli\\filler.mp4,1,,,,,,,,,,,,,0,62,62,62,,,,,,,,,,,,,,,,,,,1383.433607200015,,,1394.0177854000067,1394.0177854000067,1394.0177854000067,4,0.31023269999423064,1394.3424887,1394.3424887,1394.3424887,1394.3424887,1394.3424887,1394.3424887,1394.3424887,1394.3424887,None,None,None,,,1385.5057225000055,,,,,,,,1383.433607200015,1383.433607200015,None,,,1383.433607200015,1383.433607200015,1391.99417000002,1394.0177854000067,1,001,2024-06-24_14h36.28.142,robot_cogshifting_sign,2022.2.5,143.76388221614772,
"['blue_left_C_0', 'blue_left_D_45', 'red_left_R_0', 'blue_top_G_0']","{'color': 'red_left_R_0', 'position': 'blue_top_G_0', 'orientation': 'blue_left_D_45'}",['color'],0,color,red_left_R_0,1,letter,2,False,False,"['robot_stimuli\\\\filler.mp4', 'robot_stimuli\\\\filler.mp4', 'robot_stimuli\\\\filler.mp4', 'robot_stimuli\\\\filler.mp4']",robot_stimuli\\filler.mp4,1,,,,,,,,,,,,,0,63,63,63,,,,,,,,,,,,,,,,,,,1394.3424887,,,1404.9329748000018,1404.9329748000018,1404.9329748000018,3,0.27162119999411516,1405.2221963000193,1405.2221963000193,1405.2221963000193,1405.2221963000193,1405.2221963000193,1405.2221963000193,1405.2221963000193,1405.2221963000193,None,None,None,,,1396.4103598000074,,,,,,,,1394.3424887,1394.3424887,None,,,1394.3424887,1394.3424887,1402.9112816000124,1404.9329748000018,1,001,2024-06-24_14h36.28.142,robot_cogshifting_sign,2022.2.5,143.76388221614772,
"['blue_top_J_0', 'blue_bottom_T_0', 'red_bottom_B_0', 'blue_bottom_V_45']","{'color': 'red_bottom_B_0', 'position': 'blue_top_J_0', 'orientation': 'blue_bottom_V_45'}",['orientation'],0,orientation,blue_bottom_V_45,1,letter,2,False,False,"['robot_stimuli\\\\filler.mp4', 'robot_stimuli\\\\filler.mp4', 'robot_stimuli\\\\filler.mp4', 'robot_stimuli\\\\filler.mp4']",robot_stimuli\\filler.mp4,1,,,,,,,,,,,,,0,64,64,64,,,,,,,,,,,,,,,,,,,1405.2221963000193,,,1415.614939399995,1415.614939399995,1415.614939399995,4,0.22992740001063794,1415.8620306999946,1415.8620306999946,1415.8620306999946,1415.8620306999946,1415.8620306999946,1415.8620306999946,1415.8620306999946,1415.8620306999946,None,None,None,,,1407.2903057000076,,,,,,,,1405.2221963000193,1405.2221963000193,None,,,1405.2221963000193,1405.2221963000193,1413.575195100013,1415.614939399995,1,001,2024-06-24_14h36.28.142,robot_cogshifting_sign,2022.2.5,143.76388221614772,
"['blue_bottom_H_0', 'blue_left_M_45', 'red_left_Z_0', 'blue_left_G_0']","{'color': 'red_left_Z_0', 'position': 'blue_bottom_H_0', 'orientation': 'blue_left_M_45'}",['position'],0,position,blue_bottom_H_0,1,letter,2,False,False,"['robot_stimuli\\\\filler.mp4', 'robot_stimuli\\\\filler.mp4', 'robot_stimuli\\\\filler.mp4', 'robot_stimuli\\\\filler.mp4']",robot_stimuli\\filler.mp4,1,,,,,,,,,,,,,0,65,65,65,,,,,,,,,,,,,,,,,,,1415.8620306999946,,,1426.8531316000153,1426.8531316000153,1426.8531316000153,1,0.2627994999929797,1427.132848600013,1427.132848600013,1427.132848600013,1427.132848600013,1427.132848600013,1427.132848600013,1427.132848600013,1427.132848600013,None,None,None,,,,,,,,,,,1415.8620306999946,1415.8620306999946,None,,,1415.8620306999946,1415.8620306999946,1424.8309524999931,1426.8531316000153,1,001,2024-06-24_14h36.28.142,robot_cogshifting_sign,2022.2.5,143.76388221614772,
"['blue_top_X_0', 'red_bottom_P_0', 'blue_bottom_L_45', 'blue_bottom_D_0']","{'color': 'red_bottom_P_0', 'position': 'blue_top_X_0', 'orientation': 'blue_bottom_L_45'}",['orientation'],0,orientation,blue_bottom_L_45,1,letter,2,False,False,"['robot_stimuli\\\\filler.mp4', 'robot_stimuli\\\\filler.mp4', 'robot_stimuli\\\\filler.mp4', 'robot_stimuli\\\\filler.mp4']",robot_stimuli\\filler.mp4,1,,,,,,,,,,,,,0,66,66,66,,,,,,,,,,,,,,,,,,,1427.132848600013,,,1437.5217845000152,1437.5217845000152,1437.5217845000152,3,0.5509741000132635,1438.0904152000148,1438.0904152000148,1438.0904152000148,1438.0904152000148,1438.0904152000148,1438.0904152000148,1438.0904152000148,1438.0904152000148,None,None,None,,,,,,,,,,,1427.132848600013,1427.132848600013,None,,,1427.132848600013,1427.132848600013,1435.4962237,1437.5217845000152,1,001,2024-06-24_14h36.28.142,robot_cogshifting_sign,2022.2.5,143.76388221614772,
"['blue_top_P_45', 'red_top_Z_45', 'red_top_B_0', 'red_left_Q_45']","{'color': 'blue_top_P_45', 'position': 'red_left_Q_45', 'orientation': 'red_top_B_0'}",['color'],0,color,blue_top_P_45,1,letter,2,False,False,"['robot_stimuli\\\\filler.mp4', 'robot_stimuli\\\\filler.mp4', 'robot_stimuli\\\\filler.mp4', 'robot_stimuli\\\\filler.mp4']",robot_stimuli\\filler.mp4,1,,,,,,,,,,,,,0,67,67,67,,,,,,,,,,,,,,,,,,,1438.0904152000148,,,1448.472643999994,1448.472643999994,1448.472643999994,1,0.4987337999918964,1448.9894157999952,1448.9894157999952,1448.9894157999952,1448.9894157999952,1448.9894157999952,1448.9894157999952,1448.9894157999952,1448.9894157999952,None,None,None,,,1440.1625931000162,,,,,,,,1438.0904152000148,1438.0904152000148,None,,,1438.0904152000148,1438.0904152000148,1446.4476353999926,1448.472643999994,1,001,2024-06-24_14h36.28.142,robot_cogshifting_sign,2022.2.5,143.76388221614772,
"['red_right_L_0', 'red_left_B_45', 'blue_right_J_45', 'red_right_K_45']","{'color': 'blue_right_J_45', 'position': 'red_left_B_45', 'orientation': 'red_right_L_0'}",['position'],0,position,red_left_B_45,1,letter,2,False,False,"['robot_stimuli\\\\filler.mp4', 'robot_stimuli\\\\filler.mp4', 'robot_stimuli\\\\filler.mp4', 'robot_stimuli\\\\filler.mp4']",robot_stimuli\\filler.mp4,1,,,,,,,,,,,,,0,68,68,68,,,,,,,,,,,,,,,,,,,1448.9894157999952,,,1459.4048453000141,1459.4048453000141,1459.4048453000141,2,0.9811883999791462,1460.3989360000123,1460.3989360000123,1460.3989360000123,1460.3989360000123,1460.3989360000123,1460.3989360000123,1460.3989360000123,1460.3989360000123,None,None,None,,,,,,,,,,,1448.9894157999952,1448.9894157999952,None,,,1448.9894157999952,1448.9894157999952,1457.3802607000107,1459.4048453000141,1,001,2024-06-24_14h36.28.142,robot_cogshifting_sign,2022.2.5,143.76388221614772,
"['red_left_T_45', 'blue_left_T_45', 'blue_left_X_0', 'blue_bottom_X_45']","{'color': 'red_left_T_45', 'position': 'blue_bottom_X_45', 'orientation': 'blue_left_X_0'}",['orientation'],0,orientation,blue_left_X_0,1,letter,2,False,False,"['robot_stimuli\\\\filler.mp4', 'robot_stimuli\\\\filler.mp4', 'robot_stimuli\\\\filler.mp4', 'robot_stimuli\\\\filler.mp4']",robot_stimuli\\filler.mp4,1,,,,,,,,,,,,,0,69,69,69,,,,,,,,,,,,,,,,,,,1460.3989360000123,,,1470.9872136000195,1470.9872136000195,1470.9872136000195,3,0.4073885999969207,1471.4139942000038,1471.4139942000038,1471.4139942000038,1471.4139942000038,1471.4139942000038,1471.4139942000038,1471.4139942000038,1471.4139942000038,None,None,None,,,1462.4609927000129,,,,,,,,1460.3989360000123,1460.3989360000123,None,,,1460.3989360000123,1460.3989360000123,1468.947830399993,1470.9872136000195,1,001,2024-06-24_14h36.28.142,robot_cogshifting_sign,2022.2.5,143.76388221614772,
"['red_bottom_X_0', 'red_right_J_0', 'red_right_P_45', 'blue_right_M_0']","{'color': 'blue_right_M_0', 'position': 'red_bottom_X_0', 'orientation': 'red_right_P_45'}",['position'],0,position,red_bottom_X_0,1,letter,2,False,False,"['robot_stimuli\\\\filler.mp4', 'robot_stimuli\\\\filler.mp4', 'robot_stimuli\\\\filler.mp4', 'robot_stimuli\\\\filler.mp4']",robot_stimuli\\filler.mp4,1,,,,,,,,,,,,,0,70,70,70,,,,,,,,,,,,,,,,,,,1471.4139942000038,,,1482.1851463000057,1482.1851463000057,1482.1851463000057,1,0.27966549998382106,1482.4794793000037,1482.4794793000037,1482.4794793000037,1482.4794793000037,1482.4794793000037,1482.4794793000037,1482.4794793000037,1482.4794793000037,None,None,None,,,1473.4804363000148,,,,,,,,1471.4139942000038,1471.4139942000038,None,,,1471.4139942000038,1471.4139942000038,1480.1638653000118,1482.1851463000057,1,001,2024-06-24_14h36.28.142,robot_cogshifting_sign,2022.2.5,143.76388221614772,
"['red_right_Q_0', 'red_right_Q_45', 'red_top_M_45', 'blue_right_G_45']","{'color': 'blue_right_G_45', 'position': 'red_top_M_45', 'orientation': 'red_right_Q_0'}",['color'],0,color,blue_right_G_45,1,letter,2,False,True,"['robot_stimuli\\\\filler.mp4', 'robot_stimuli\\\\filler.mp4', 'robot_stimuli\\\\filler.mp4', 'robot_stimuli\\\\filler.mp4']",robot_stimuli\\filler.mp4,1,,,,,,,,,,,,,0,71,71,71,,,,,,,,,,,,,,,,,,,1482.4794793000037,,,1492.8524015000148,1492.8524015000148,1492.8524015000148,4,0.27104990000952967,1493.1508333999955,1496.7676151000196,1493.1508333999955,1496.7676151000196,1493.1508333999955,1496.7676151000196,1493.1508333999955,1496.7676151000196,5.462962962962956,2.8499821000150405,space,,,1484.5512720000115,3.5887857000052463,,,,,,,1482.4794793000037,1482.4794793000037,None,,,1482.4794793000037,1482.4794793000037,1490.8252456000191,1492.8524015000148,1,001,2024-06-24_14h36.28.142,robot_cogshifting_sign,2022.2.5,143.76388221614772,
"['R_Torso_X_For', 'L_Torso_Z_Back', 'L_Head_X_Back', 'L_Torso_X_Back']","{'laterality': 'R_Torso_X_For', 'localisation': 'L_Head_X_Back', 'movement': 'L_Torso_Z_Back'}","['laterality', 'localisation']",0,laterality,R_Torso_X_For,2,robot,3,True,False,"['robot_stimuli\\R_Torso_X_For.mp4', 'robot_stimuli\\L_Torso_Z_Back.mp4', 'robot_stimuli\\L_Head_X_Back.mp4', 'robot_stimuli\\L_Torso_X_Back.mp4']",robot_stimuli\R_Torso_X_For.mp4,1,,,,,,,,,,,,,0,72,72,72,,,,,,,,,,,,,,,,,,,1555.0295900999918,,,1571.789080699993,1571.789080699993,1571.789080699993,1,1.278072000015527,1573.0804131000186,1573.0804131000186,1573.0804131000186,1573.0804131000186,1573.0804131000186,1573.0804131000186,1573.0804131000186,1573.0804131000186,None,None,None,,,,,,,,,,,1496.7676151000196,1496.7676151000196,space,58.25043370001367,1568.1515497000073,,,,,1,001,2024-06-24_14h36.28.142,robot_cogshifting_sign,2022.2.5,143.76388221614772,
"['L_Arm_X_For', 'L_Head_Z_For', 'R_Head_X_Back', 'L_Head_X_Back']","{'laterality': 'R_Head_X_Back', 'localisation': 'L_Arm_X_For', 'movement': 'L_Head_Z_For'}","['laterality', 'localisation']",0,laterality,R_Head_X_Back,2,robot,3,False,False,"['robot_stimuli\\L_Arm_X_For.mp4', 'robot_stimuli\\L_Head_Z_For.mp4', 'robot_stimuli\\R_Head_X_Back.mp4', 'robot_stimuli\\L_Head_X_Back.mp4']",robot_stimuli\R_Head_X_Back.mp4,1,,,,,,,,,,,,,0,73,73,73,,,,,,,,,,,,,,,,,,,1573.0804131000186,,,1589.9589893000084,1589.9589893000084,1589.9589893000084,3,4.003239099984057,1593.9798023000185,1593.9798023000185,1593.9798023000185,1593.9798023000185,1593.9798023000185,1593.9798023000185,1593.9798023000185,1593.9798023000185,None,None,None,,,1575.1708482000104,,,,,,,,1573.0804131000186,1573.0804131000186,None,,1586.3284938000143,1573.0804131000186,1573.0804131000186,,,1,001,2024-06-24_14h36.28.142,robot_cogshifting_sign,2022.2.5,143.76388221614772,
"['L_Base_Z_For', 'R_Arm_Z_Back', 'R_Base_X_Back', 'R_Base_Z_For']","{'laterality': 'L_Base_Z_For', 'localisation': 'R_Arm_Z_Back', 'movement': 'R_Base_X_Back'}","['laterality', 'movement']",0,laterality,L_Base_Z_For,2,robot,3,False,False,"['robot_stimuli\\L_Base_Z_For.mp4', 'robot_stimuli\\R_Arm_Z_Back.mp4', 'robot_stimuli\\R_Base_X_Back.mp4', 'robot_stimuli\\R_Base_Z_For.mp4']",robot_stimuli\L_Base_Z_For.mp4,1,,,,,,,,,,,,,0,74,74,74,,,,,,,,,,,,,,,,,,,1593.9798023000185,,,1610.864039100008,1610.864039100008,1610.864039100008,1,1.094167599978391,1611.9750480999937,1611.9750480999937,1611.9750480999937,1611.9750480999937,1611.9750480999937,1611.9750480999937,1611.9750480999937,1611.9750480999937,None,None,None,,,1596.0720686000132,,,,,,,,1593.9798023000185,1593.9798023000185,None,,1607.2350961000193,1593.9798023000185,1593.9798023000185,,,1,001,2024-06-24_14h36.28.142,robot_cogshifting_sign,2022.2.5,143.76388221614772,
"['L_Head_X_Back', 'L_Arm_Z_For', 'L_Arm_X_Back', 'R_Arm_X_For']","{'laterality': 'R_Arm_X_For', 'localisation': 'L_Head_X_Back', 'movement': 'L_Arm_Z_For'}","['laterality', 'movement']",1,movement,L_Arm_Z_For,2,robot,3,False,False,"['robot_stimuli\\L_Head_X_Back.mp4', 'robot_stimuli\\L_Arm_Z_For.mp4', 'robot_stimuli\\L_Arm_X_Back.mp4', 'robot_stimuli\\R_Arm_X_For.mp4']",robot_stimuli\L_Arm_Z_For.mp4,1,,,,,,,,,,,,,0,75,75,75,,,,,,,,,,,,,,,,,,,1611.9750480999937,,,1628.8425315000059,1628.8425315000059,1628.8425315000059,2,4.667832999984967,1633.5231224000163,1633.5231224000163,1633.5231224000163,1633.5231224000163,1633.5231224000163,1633.5231224000163,1633.5231224000163,1633.5231224000163,None,None,None,,,1614.068034099997,,,,,,,,1611.9750480999937,1611.9750480999937,None,,1625.2127626000147,1611.9750480999937,1611.9750480999937,,,1,001,2024-06-24_14h36.28.142,robot_cogshifting_sign,2022.2.5,143.76388221614772,
"['R_Head_Z_Back', 'R_Head_Y_For', 'L_Head_Y_For', 'R_Torso_Y_Back']","{'laterality': 'L_Head_Y_For', 'localisation': 'R_Torso_Y_Back', 'movement': 'R_Head_Z_Back'}","['laterality', 'movement']",0,laterality,L_Head_Y_For,2,robot,3,False,False,"['robot_stimuli\\R_Head_Z_Back.mp4', 'robot_stimuli\\R_Head_Y_For.mp4', 'robot_stimuli\\L_Head_Y_For.mp4', 'robot_stimuli\\R_Torso_Y_Back.mp4']",robot_stimuli\L_Head_Y_For.mp4,1,,,,,,,,,,,,,0,76,76,76,,,,,,,,,,,,,,,,,,,1633.5231224000163,,,1650.419924899994,1650.419924899994,1650.419924899994,3,1.2201015999889933,1651.6546778000193,1651.6546778000193,1651.6546778000193,1651.6546778000193,1651.6546778000193,1651.6546778000193,1651.6546778000193,1651.6546778000193,None,None,None,,,1635.6089423999947,,,,,,,,1633.5231224000163,1633.5231224000163,None,,1646.776757899992,1633.5231224000163,1633.5231224000163,,,1,001,2024-06-24_14h36.28.142,robot_cogshifting_sign,2022.2.5,143.76388221614772,
"['L_Head_Y_Back', 'R_Head_Y_Back', 'R_Head_Z_Back', 'R_Arm_Y_For']","{'laterality': 'L_Head_Y_Back', 'localisation': 'R_Arm_Y_For', 'movement': 'R_Head_Z_Back'}","['localisation', 'movement']",1,movement,R_Head_Z_Back,2,robot,3,False,False,"['robot_stimuli\\L_Head_Y_Back.mp4', 'robot_stimuli\\R_Head_Y_Back.mp4', 'robot_stimuli\\R_Head_Z_Back.mp4', 'robot_stimuli\\R_Arm_Y_For.mp4']",robot_stimuli\R_Head_Z_Back.mp4,1,,,,,,,,,,,,,0,77,77,77,,,,,,,,,,,,,,,,,,,1651.6546778000193,,,1668.4030088,1668.4030088,1668.4030088,3,1.6920702999923378,1670.1168575000193,1670.1168575000193,1670.1168575000193,1670.1168575000193,1670.1168575000193,1670.1168575000193,1670.1168575000193,1670.1168575000193,None,None,None,,,,,,,,,,,1651.6546778000193,1651.6546778000193,None,,1664.9191273000033,1651.6546778000193,1651.6546778000193,,,1,001,2024-06-24_14h36.28.142,robot_cogshifting_sign,2022.2.5,143.76388221614772,
"['R_Arm_X_Back', 'R_Base_X_Back', 'L_Base_X_Back', 'R_Base_Y_For']","{'laterality': 'L_Base_X_Back', 'localisation': 'R_Arm_X_Back', 'movement': 'R_Base_Y_For'}","['laterality', 'localisation']",1,localisation,R_Arm_X_Back,2,robot,3,False,False,"['robot_stimuli\\R_Arm_X_Back.mp4', 'robot_stimuli\\R_Base_X_Back.mp4', 'robot_stimuli\\L_Base_X_Back.mp4', 'robot_stimuli\\R_Base_Y_For.mp4']",robot_stimuli\R_Arm_X_Back.mp4,1,,,,,,,,,,,,,0,78,78,78,,,,,,,,,,,,,,,,,,,1670.1168575000193,,,1686.9562217000057,1686.9562217000057,1686.9562217000057,1,1.40363129999605,1688.3741808999912,1688.3741808999912,1688.3741808999912,1688.3741808999912,1688.3741808999912,1688.3741808999912,1688.3741808999912,1688.3741808999912,None,None,None,,,,,,,,,,,1670.1168575000193,1670.1168575000193,None,,1683.3279788999935,1670.1168575000193,1670.1168575000193,,,1,001,2024-06-24_14h36.28.142,robot_cogshifting_sign,2022.2.5,143.76388221614772,
"['L_Head_X_For', 'R_Head_Y_Back', 'L_Base_Y_For', 'L_Head_Y_For']","{'laterality': 'R_Head_Y_Back', 'localisation': 'L_Base_Y_For', 'movement': 'L_Head_X_For'}","['laterality', 'localisation']",1,localisation,L_Base_Y_For,2,robot,3,False,False,"['robot_stimuli\\L_Head_X_For.mp4', 'robot_stimuli\\R_Head_Y_Back.mp4', 'robot_stimuli\\L_Base_Y_For.mp4', 'robot_stimuli\\L_Head_Y_For.mp4']",robot_stimuli\L_Base_Y_For.mp4,1,,,,,,,,,,,,,0,79,79,79,,,,,,,,,,,,,,,,,,,1688.3741808999912,,,1705.0880415000138,1705.0880415000138,1705.0880415000138,4,2.1893081000016537,1707.2969123999937,1707.2969123999937,1707.2969123999937,1707.2969123999937,1707.2969123999937,1707.2969123999937,1707.2969123999937,1707.2969123999937,None,None,None,,,1690.4632925000042,,,,,,,,1688.3741808999912,1688.3741808999912,None,,1701.457074200007,1688.3741808999912,1688.3741808999912,,,1,001,2024-06-24_14h36.28.142,robot_cogshifting_sign,2022.2.5,143.76388221614772,
"['L_Arm_Y_Back', 'R_Arm_X_Back', 'L_Arm_X_For', 'L_Torso_X_For']","{'laterality': 'R_Arm_X_Back', 'localisation': 'L_Torso_X_For', 'movement': 'L_Arm_Y_Back'}","['laterality', 'movement']",1,movement,L_Arm_Y_Back,2,robot,3,False,False,"['robot_stimuli\\L_Arm_Y_Back.mp4', 'robot_stimuli\\R_Arm_X_Back.mp4', 'robot_stimuli\\L_Arm_X_For.mp4', 'robot_stimuli\\L_Torso_X_For.mp4']",robot_stimuli\L_Arm_Y_Back.mp4,1,,,,,,,,,,,,,0,80,80,80,,,,,,,,,,,,,,,,,,,1707.2969123999937,,,1724.1817123999936,1724.1817123999936,1724.1817123999936,1,1.9308116000029258,1726.1282759000023,1726.1282759000023,1726.1282759000023,1726.1282759000023,1726.1282759000023,1726.1282759000023,1726.1282759000023,1726.1282759000023,None,None,None,,,1709.387518100004,,,,,,,,1707.2969123999937,1707.2969123999937,None,,1720.5491972000164,1707.2969123999937,1707.2969123999937,,,1,001,2024-06-24_14h36.28.142,robot_cogshifting_sign,2022.2.5,143.76388221614772,
"['R_Arm_X_For', 'L_Arm_X_Back', 'L_Head_X_For', 'L_Arm_Y_Back']","{'laterality': 'R_Arm_X_For', 'localisation': 'L_Head_X_For', 'movement': 'L_Arm_Y_Back'}","['localisation', 'movement']",0,localisation,L_Head_X_For,2,robot,3,False,False,"['robot_stimuli\\R_Arm_X_For.mp4', 'robot_stimuli\\L_Arm_X_Back.mp4', 'robot_stimuli\\L_Head_X_For.mp4', 'robot_stimuli\\L_Arm_Y_Back.mp4']",robot_stimuli\L_Head_X_For.mp4,1,,,,,,,,,,,,,0,81,81,81,,,,,,,,,,,,,,,,,,,1726.1282759000023,,,1742.9403921000194,1742.9403921000194,1742.9403921000194,3,1.1471787999907974,1744.1032292000018,1744.1032292000018,1744.1032292000018,1744.1032292000018,1744.1032292000018,1744.1032292000018,1744.1032292000018,1744.1032292000018,None,None,None,,,,,,,,,,,1726.1282759000023,1726.1282759000023,None,,1739.3078666999936,1726.1282759000023,1726.1282759000023,,,1,001,2024-06-24_14h36.28.142,robot_cogshifting_sign,2022.2.5,143.76388221614772,
"['R_Head_Y_For', 'R_Torso_Z_Back', 'R_Head_Z_For', 'L_Head_Z_For']","{'laterality': 'L_Head_Z_For', 'localisation': 'R_Torso_Z_Back', 'movement': 'R_Head_Y_For'}","['localisation', 'movement']",1,movement,R_Head_Y_For,2,robot,3,False,False,"['robot_stimuli\\R_Head_Y_For.mp4', 'robot_stimuli\\R_Torso_Z_Back.mp4', 'robot_stimuli\\R_Head_Z_For.mp4', 'robot_stimuli\\L_Head_Z_For.mp4']",robot_stimuli\R_Head_Y_For.mp4,1,,,,,,,,,,,,,0,82,82,82,,,,,,,,,,,,,,,,,,,1744.1032292000018,,,1760.9790158999967,1760.9790158999967,1760.9790158999967,1,1.7274406000215095,1762.7241327000083,1762.7241327000083,1762.7241327000083,1762.7241327000083,1762.7241327000083,1762.7241327000083,1762.7241327000083,1762.7241327000083,None,None,None,,,1746.1899089000071,,,,,,,,1744.1032292000018,1744.1032292000018,None,,1757.3460484000097,1744.1032292000018,1744.1032292000018,,,1,001,2024-06-24_14h36.28.142,robot_cogshifting_sign,2022.2.5,143.76388221614772,
"['R_Head_X_For', 'R_Torso_X_For', 'R_Head_Z_Back', 'L_Head_X_For']","{'laterality': 'L_Head_X_For', 'localisation': 'R_Torso_X_For', 'movement': 'R_Head_Z_Back'}","['localisation', 'movement']",0,localisation,R_Torso_X_For,2,robot,3,False,True,"['robot_stimuli\\R_Head_X_For.mp4', 'robot_stimuli\\R_Torso_X_For.mp4', 'robot_stimuli\\R_Head_Z_Back.mp4', 'robot_stimuli\\L_Head_X_For.mp4']",robot_stimuli\R_Torso_X_For.mp4,1,,,,,,,,,,,,,0,83,83,83,,,,,,,,,,,,,,,,,,,1762.7241327000083,,,1779.521922600019,1779.521922600019,1779.521922600019,2,1.6445818000065628,1781.1904451000155,1783.9687022000144,1781.1904451000155,1783.9687022000144,1781.1904451000155,1783.9687022000144,1781.1904451000155,1783.9687022000144,23.518518518518526,2.280243600020185,space,,,1764.8092788000067,2.7545273000141606,,,,,,,1762.7241327000083,1762.7241327000083,None,,1775.953141200007,1762.7241327000083,1762.7241327000083,,,1,001,2024-06-24_14h36.28.142,robot_cogshifting_sign,2022.2.5,143.76388221614772,
"['L_Torso_Z_For', 'L_Arm_X_For', 'R_Torso_X_For', 'L_Torso_X_Back']","{'laterality': 'R_Torso_X_For', 'localisation': 'L_Arm_X_For', 'movement': 'L_Torso_Z_For'}","['laterality', 'localisation', 'movement']",1,localisation,L_Arm_X_For,3,robot,3,True,False,"['robot_stimuli\\L_Torso_Z_For.mp4', 'robot_stimuli\\L_Arm_X_For.mp4', 'robot_stimuli\\R_Torso_X_For.mp4', 'robot_stimuli\\L_Torso_X_Back.mp4']",robot_stimuli\L_Arm_X_For.mp4,1,,,,,,,,,,,,,0,84,84,84,,,,,,,,,,,,,,,,,,,1847.3042982000043,,,1864.20257340002,1864.20257340002,1864.20257340002,2,1.7652166000043508,1865.9810320000106,1865.9810320000106,1865.9810320000106,1865.9810320000106,1865.9810320000106,1865.9810320000106,1865.9810320000106,1865.9810320000106,None,None,None,,,1849.391755299992,,,,,,,,1783.9687022000144,1783.9687022000144,space,63.32446470001014,1860.5661414999922,,,,,1,001,2024-06-24_14h36.28.142,robot_cogshifting_sign,2022.2.5,143.76388221614772,
"['L_Arm_X_Back', 'L_Arm_Y_Back', 'L_Torso_X_For', 'R_Arm_X_For']","{'laterality': 'R_Arm_X_For', 'localisation': 'L_Torso_X_For', 'movement': 'L_Arm_Y_Back'}","['laterality', 'localisation', 'movement']",1,localisation,L_Torso_X_For,3,robot,3,False,False,"['robot_stimuli\\L_Arm_X_Back.mp4', 'robot_stimuli\\L_Arm_Y_Back.mp4', 'robot_stimuli\\L_Torso_X_For.mp4', 'robot_stimuli\\R_Arm_X_For.mp4']",robot_stimuli\L_Torso_X_For.mp4,1,,,,,,,,,,,,,0,85,85,85,,,,,,,,,,,,,,,,,,,1865.9810320000106,,,1882.9071594999987,1882.9071594999987,1882.9071594999987,3,1.4951035999984015,1884.4170337000105,1884.4170337000105,1884.4170337000105,1884.4170337000105,1884.4170337000105,1884.4170337000105,1884.4170337000105,1884.4170337000105,None,None,None,,,1868.0879897999985,,,,,,,,1865.9810320000106,1865.9810320000106,None,,1879.2734120000096,1865.9810320000106,1865.9810320000106,,,1,001,2024-06-24_14h36.28.142,robot_cogshifting_sign,2022.2.5,143.76388221614772,
