sequence,odd_ones,parameter,choices,target,target_idx,condition,stimuli,block,is_block_beginning,is_block_ending,sequence_fnames,target_fname,subject,retraining.thisRepN,retraining.thisTrialN,retraining.thisN,retraining.thisIndex,training.thisRepN,training.thisTrialN,training.thisN,training.thisIndex,training_sequence_loop.thisRepN,training_sequence_loop.thisTrialN,training_sequence_loop.thisN,training_sequence_loop.thisIndex,trials.thisRepN,trials.thisTrialN,trials.thisN,trials.thisIndex,sequence_loop.thisRepN,sequence_loop.thisTrialN,sequence_loop.thisN,sequence_loop.thisIndex,langage_text.started,langage_key.started,langage_key.keys,langage_key.rt,intro_text.started,intro_key.started,intro_key.keys,intro_key.rt,training_intro_text.started,training_intro_key.started,training_intro_key.keys,training_intro_key.rt,polygon.started,polygon.stopped,cue_before_text.started,cue_before_text.stopped,training_presentation_letter.started,training_presentation_letter.stopped,recall_key.started,recall_question.started,recall_answer.started,recall_key.keys,recall_key.rt,RSME_labels.started,RSME_labels.stopped,RSME_ticks.started,RSME_ticks.stopped,RSME_text.started,RSME_text.stopped,RSME_key.started,RSME_key.stopped,RSME_ticks.response,RSME_ticks.rt,RSME_key.keys,training_intro_text.stopped,training_intro_key.stopped,RSME_key.rt,training_presentation_movie.started,experiment_beginning_text.started,experiment_beginning_keys.started,experiment_beginning_key.started,experiment_beginning_key.keys,experiment_beginning_key.rt,block_intro_text.started,block_intro_key.started,block_intro_key.keys,block_intro_key.rt,presentation_letter.started,presentation_letter.stopped,block_intro_text.stopped,block_intro_key.stopped,presentation_movie.started,participant,session,date,expName,psychopyVersion,frameRate,
,,,,,,,,,,,,,,,,,,,,,,,,,,,,,,,,,,23.939463899999964,23.939463899999964,f,1.869493000000034,,,,,,,,,,,,,,,,,,,,,,,,,,,,,,,,,,,,,,,,,,,,,,,,,8,001,2024-07-24_14h05.50.871,robot_cogshifting_sign,2022.2.5,60.06056507381638,
,,,,,,,,,,,,,,,,,,,,,,,,,,,,,,,,,,,,,,25.877712799999983,25.877712799999983,space,96.23504050000003,,,,,,,,,,,,,,,,,,,,,,,,,,,,,,,,,,,,,,,,,,,,,8,001,2024-07-24_14h05.50.871,robot_cogshifting_sign,2022.2.5,60.06056507381638,
"['blue_left_D_45', 'blue_right_P_45', 'blue_right_Z_0', 'red_right_C_45']","{'color': 'red_right_C_45', 'position': 'blue_left_D_45', 'orientation': 'blue_right_Z_0'}",position,['position'],blue_left_D_45,0,1,letter,1,True,False,"['robot_stimuli\\\\filler.mp4', 'robot_stimuli\\\\filler.mp4', 'robot_stimuli\\\\filler.mp4', 'robot_stimuli\\\\filler.mp4']",robot_stimuli\\filler.mp4,8,0,0,0,0,0,0,0,0,,,,,,,,,,,,,,,,,,,,,122.1513812,122.1513812,space,2.85095780000006,125.03498479999996,126.03488569999996,126.03488569999996,128.52275989999998,135.0138472,137.05639939999998,137.05639939999998,137.05639939999998,137.05639939999998,1,5.258175100000017,142.39332099999996,142.39332099999996,142.39332099999996,142.39332099999996,142.39332099999996,142.39332099999996,142.39332099999996,142.39332099999996,None,None,None,,,,,,,,,,,,,,,,,,,8,001,2024-07-24_14h05.50.871,robot_cogshifting_sign,2022.2.5,60.06056507381638,
"['red_bottom_L_0', 'red_left_M_45', 'red_bottom_K_45', 'blue_bottom_R_45']","{'color': 'blue_bottom_R_45', 'position': 'red_left_M_45', 'orientation': 'red_bottom_L_0'}",orientation,['orientation'],red_bottom_L_0,0,1,letter,1,False,False,"['robot_stimuli\\\\filler.mp4', 'robot_stimuli\\\\filler.mp4', 'robot_stimuli\\\\filler.mp4', 'robot_stimuli\\\\filler.mp4']",robot_stimuli\\filler.mp4,8,0,0,0,0,0,1,1,1,,,,,,,,,,,,,,,,,,,,,142.39332099999996,142.39332099999996,None,,142.39332099999996,,143.40183459999997,,152.1708526,154.3918592,154.3918592,154.3918592,154.3918592,1,1.1297767000000363,155.55179119999997,155.55179119999997,155.55179119999997,155.55179119999997,155.55179119999997,155.55179119999997,155.55179119999997,155.55179119999997,None,None,None,142.39332099999996,142.39332099999996,,,,,,,,,,,,,,,,,8,001,2024-07-24_14h05.50.871,robot_cogshifting_sign,2022.2.5,60.06056507381638,
"['red_bottom_Z_0', 'blue_top_D_0', 'red_top_C_0', 'red_top_R_45']","{'color': 'blue_top_D_0', 'position': 'red_bottom_Z_0', 'orientation': 'red_top_R_45'}",color,['color'],blue_top_D_0,1,1,letter,1,False,True,"['robot_stimuli\\\\filler.mp4', 'robot_stimuli\\\\filler.mp4', 'robot_stimuli\\\\filler.mp4', 'robot_stimuli\\\\filler.mp4']",robot_stimuli\\filler.mp4,8,0,0,0,0,0,2,2,2,,,,,,,,,,,,,,,,,,,,,155.55179119999997,155.55179119999997,None,,155.55179119999997,156.55191809999997,156.55191809999997,158.624912,165.5289859,167.5553412,167.5553412,167.5553412,167.5553412,2,0.6946621000000732,168.3294136,176.10313249999996,168.3294136,176.10313249999996,168.3294136,176.10313249999996,168.3294136,176.10313249999996,6.234567901234561,5.126171200000044,space,155.55179119999997,155.55179119999997,7.719604700000048,,,,,,,,,,,,,,,,8,001,2024-07-24_14h05.50.871,robot_cogshifting_sign,2022.2.5,60.06056507381638,
"['blue_left_P_0', 'blue_left_L_45', 'red_left_D_0', 'blue_top_W_0']","{'color': 'red_left_D_0', 'position': 'blue_top_W_0', 'orientation': 'blue_left_L_45'}",orientation,"['color', 'orientation']",blue_left_L_45,1,2,letter,1,True,False,"['robot_stimuli\\\\filler.mp4', 'robot_stimuli\\\\filler.mp4', 'robot_stimuli\\\\filler.mp4', 'robot_stimuli\\\\filler.mp4']",robot_stimuli\\filler.mp4,8,0,0,0,0,0,3,3,3,,,,,,,,,,,,,,,,,,,,,176.10313249999996,176.10313249999996,space,3.322890800000039,179.45192939999998,180.4519818,180.4519818,182.5240946,189.2381461,191.4664254,191.4664254,191.4664254,191.4664254,2,5.56776480000002,197.05175509999998,197.05175509999998,197.05175509999998,197.05175509999998,197.05175509999998,197.05175509999998,197.05175509999998,197.05175509999998,None,None,None,,,,,,,,,,,,,,,,,,,8,001,2024-07-24_14h05.50.871,robot_cogshifting_sign,2022.2.5,60.06056507381638,
"['red_top_T_45', 'blue_bottom_R_45', 'red_bottom_J_0', 'red_bottom_L_45']","{'color': 'blue_bottom_R_45', 'position': 'red_top_T_45', 'orientation': 'red_bottom_J_0'}",position,"['orientation', 'position']",red_top_T_45,0,2,letter,1,False,False,"['robot_stimuli\\\\filler.mp4', 'robot_stimuli\\\\filler.mp4', 'robot_stimuli\\\\filler.mp4', 'robot_stimuli\\\\filler.mp4']",robot_stimuli\\filler.mp4,8,0,0,0,0,0,4,4,4,,,,,,,,,,,,,,,,,,,,,197.05175509999998,197.05175509999998,None,,197.05175509999998,198.05187469999998,198.05187469999998,200.1191576,206.82361889999993,209.0479199,209.0479199,209.0479199,209.0479199,2,2.321439400000031,211.40200400000003,211.40200400000003,211.40200400000003,211.40200400000003,211.40200400000003,211.40200400000003,211.40200400000003,211.40200400000003,None,None,None,197.05175509999998,197.05175509999998,,,,,,,,,,,,,,,,,8,001,2024-07-24_14h05.50.871,robot_cogshifting_sign,2022.2.5,60.06056507381638,
"['blue_bottom_Z_45', 'red_bottom_S_0', 'red_left_R_45', 'red_bottom_M_45']","{'color': 'blue_bottom_Z_45', 'position': 'red_left_R_45', 'orientation': 'red_bottom_S_0'}",color,"['color', 'position']",blue_bottom_Z_45,0,2,letter,1,False,True,"['robot_stimuli\\\\filler.mp4', 'robot_stimuli\\\\filler.mp4', 'robot_stimuli\\\\filler.mp4', 'robot_stimuli\\\\filler.mp4']",robot_stimuli\\filler.mp4,8,0,0,0,0,0,5,5,5,,,,,,,,,,,,,,,,,,,,,211.40200400000003,211.40200400000003,None,,211.40200400000003,212.40182170000003,212.40182170000003,214.47363710000002,221.18535180000003,223.20410059999995,223.20410059999995,223.20410059999995,223.20410059999995,2,2.7416589000000613,225.99371559999997,232.43377929999997,225.99371559999997,232.43377929999997,225.99371559999997,232.43377929999997,225.99371559999997,232.43377929999997,37.25308641975308,5.834162500000048,space,211.40200400000003,211.40200400000003,6.383248299999991,,,,,,,,,,,,,,,,8,001,2024-07-24_14h05.50.871,robot_cogshifting_sign,2022.2.5,60.06056507381638,
"['red_right_Q_45', 'blue_right_K_0', 'red_top_W_0', 'red_right_B_0']","{'color': 'blue_right_K_0', 'position': 'red_top_W_0', 'orientation': 'red_right_Q_45'}",color,"['color', 'orientation', 'position']",blue_right_K_0,1,3,letter,1,True,False,"['robot_stimuli\\\\filler.mp4', 'robot_stimuli\\\\filler.mp4', 'robot_stimuli\\\\filler.mp4', 'robot_stimuli\\\\filler.mp4']",robot_stimuli\\filler.mp4,8,0,0,0,0,0,6,6,6,,,,,,,,,,,,,,,,,,,,,232.43377929999997,232.43377929999997,space,2.232132800000045,234.68529520000004,235.6852242,235.6852242,237.75834129999998,244.46579680000002,246.48474320000003,246.48474320000003,246.48474320000003,246.48474320000003,2,3.116126500000064,249.6188634,249.6188634,249.6188634,249.6188634,249.6188634,249.6188634,249.6188634,249.6188634,None,None,None,,,,,,,,,,,,,,,,,,,8,001,2024-07-24_14h05.50.871,robot_cogshifting_sign,2022.2.5,60.06056507381638,
"['blue_top_C_45', 'red_top_W_0', 'blue_top_G_0', 'blue_bottom_L_0']","{'color': 'red_top_W_0', 'position': 'blue_bottom_L_0', 'orientation': 'blue_top_C_45'}",orientation,"['color', 'orientation', 'position']",blue_top_C_45,0,3,letter,1,False,False,"['robot_stimuli\\\\filler.mp4', 'robot_stimuli\\\\filler.mp4', 'robot_stimuli\\\\filler.mp4', 'robot_stimuli\\\\filler.mp4']",robot_stimuli\\filler.mp4,8,0,0,0,0,0,7,7,7,,,,,,,,,,,,,,,,,,,,,249.6188634,249.6188634,None,,249.6188634,250.61855939999998,250.61855939999998,252.69162700000004,259.2045875,261.4258496,261.4258496,261.4258496,261.4258496,1,2.6403488999999354,264.08520809999993,264.08520809999993,264.08520809999993,264.08520809999993,264.08520809999993,264.08520809999993,264.08520809999993,264.08520809999993,None,None,None,249.6188634,249.6188634,,,,,,,,,,,,,,,,,8,001,2024-07-24_14h05.50.871,robot_cogshifting_sign,2022.2.5,60.06056507381638,
"['red_top_J_0', 'blue_top_J_45', 'red_top_W_45', 'red_bottom_Z_45']","{'color': 'blue_top_J_45', 'position': 'red_bottom_Z_45', 'orientation': 'red_top_J_0'}",position,"['color', 'orientation', 'position']",red_bottom_Z_45,3,3,letter,1,False,True,"['robot_stimuli\\\\filler.mp4', 'robot_stimuli\\\\filler.mp4', 'robot_stimuli\\\\filler.mp4', 'robot_stimuli\\\\filler.mp4']",robot_stimuli\\filler.mp4,8,0,0,0,0,0,8,8,8,,,,,,,,,,,,,,,,,,,,,264.08520809999993,264.08520809999993,None,,264.08520809999993,265.08529209999995,265.08529209999995,267.15276759999995,273.86736569999994,275.8874982,275.8874982,275.8874982,275.8874982,4,2.4971878999999717,278.4306954,282.5044467,278.4306954,282.5044467,278.4306954,282.5044467,278.4306954,282.5044467,50.21604938271606,2.670887999999991,space,264.08520809999993,264.08520809999993,4.026753700000086,,,,,,,,,,,,,,,,8,001,2024-07-24_14h05.50.871,robot_cogshifting_sign,2022.2.5,60.06056507381638,
"['L_Head_Y_For', 'L_Head_X_Back', 'L_Arm_Y_For', 'R_Head_Y_For']","{'laterality': 'R_Head_Y_For', 'localisation': 'L_Arm_Y_For', 'movement': 'L_Head_X_Back'}",laterality,['laterality'],R_Head_Y_For,3,1,robot,2,True,False,"['robot_stimuli\\L_Head_Y_For.mp4', 'robot_stimuli\\L_Head_X_Back.mp4', 'robot_stimuli\\L_Arm_Y_For.mp4', 'robot_stimuli\\R_Head_Y_For.mp4']",robot_stimuli\R_Head_Y_For.mp4,8,0,0,0,0,0,9,9,9,,,,,,,,,,,,,,,,,,,,,282.5044467,282.5044467,space,3.2567199000000073,285.7851279,286.7853857,286.7853857,288.8864407,,,303.71215989999996,303.71215989999996,303.71215989999996,4,0.4089948999999251,304.1517679,304.1517679,304.1517679,304.1517679,304.1517679,304.1517679,304.1517679,304.1517679,None,None,None,,,,300.06654130000004,,,,,,,,,,,,,,,8,001,2024-07-24_14h05.50.871,robot_cogshifting_sign,2022.2.5,60.06056507381638,
"['R_Torso_Y_For', 'R_Head_Z_Back', 'R_Head_Y_For', 'L_Head_Y_For']","{'laterality': 'L_Head_Y_For', 'localisation': 'R_Torso_Y_For', 'movement': 'R_Head_Z_Back'}",localisation,['localisation'],R_Torso_Y_For,0,1,robot,2,False,False,"['robot_stimuli\\R_Torso_Y_For.mp4', 'robot_stimuli\\R_Head_Z_Back.mp4', 'robot_stimuli\\R_Head_Y_For.mp4', 'robot_stimuli\\L_Head_Y_For.mp4']",robot_stimuli\R_Torso_Y_For.mp4,8,0,0,0,0,0,10,10,10,,,,,,,,,,,,,,,,,,,,,304.1517679,304.1517679,None,,304.1517679,305.15176569999994,305.15176569999994,307.2324641,,,322.07912009999995,322.07912009999995,322.07912009999995,1,0.5460458000001154,322.65192119999995,322.65192119999995,322.65192119999995,322.65192119999995,322.65192119999995,322.65192119999995,322.65192119999995,322.65192119999995,None,None,None,304.1517679,304.1517679,,318.42702139999994,,,,,,,,,,,,,,,8,001,2024-07-24_14h05.50.871,robot_cogshifting_sign,2022.2.5,60.06056507381638,
"['R_Head_X_For', 'R_Base_X_For', 'R_Head_Y_For', 'L_Head_X_For']","{'laterality': 'L_Head_X_For', 'localisation': 'R_Base_X_For', 'movement': 'R_Head_Y_For'}",movement,['movement'],R_Head_Y_For,2,1,robot,2,False,True,"['robot_stimuli\\R_Head_X_For.mp4', 'robot_stimuli\\R_Base_X_For.mp4', 'robot_stimuli\\R_Head_Y_For.mp4', 'robot_stimuli\\L_Head_X_For.mp4']",robot_stimuli\R_Head_Y_For.mp4,8,0,0,0,0,0,11,11,11,,,,,,,,,,,,,,,,,,,,,322.65192119999995,322.65192119999995,None,,322.65192119999995,323.65198569999995,323.65198569999995,325.7406744,,,340.38043600000003,340.38043600000003,340.38043600000003,3,0.4377772999999934,340.86004719999994,347.26195629999995,340.86004719999994,347.26195629999995,340.86004719999994,347.26195629999995,340.86004719999994,347.26195629999995,20.27777777777778,5.377890699999966,space,322.65192119999995,322.65192119999995,6.333035900000027,336.8111643,,,,,,,,,,,,,,,8,001,2024-07-24_14h05.50.871,robot_cogshifting_sign,2022.2.5,60.06056507381638,
"['R_Arm_Z_Back', 'L_Arm_Y_Back', 'L_Arm_Z_Back', 'L_Torso_Z_Back']","{'laterality': 'R_Arm_Z_Back', 'localisation': 'L_Torso_Z_Back', 'movement': 'L_Arm_Y_Back'}",movement,"['laterality', 'movement']",L_Arm_Y_Back,1,2,robot,2,True,False,"['robot_stimuli\\R_Arm_Z_Back.mp4', 'robot_stimuli\\L_Arm_Y_Back.mp4', 'robot_stimuli\\L_Arm_Z_Back.mp4', 'robot_stimuli\\L_Torso_Z_Back.mp4']",robot_stimuli\L_Arm_Y_Back.mp4,8,0,0,0,0,0,12,12,12,,,,,,,,,,,,,,,,,,,,,347.26195629999995,347.26195629999995,space,5.508076899999992,352.80176289999997,353.80196209999997,353.80196209999997,355.88250099999993,,,370.6221008,370.6221008,370.6221008,1,0.459012400000006,371.10189979999996,371.10189979999996,371.10189979999996,371.10189979999996,371.10189979999996,371.10189979999996,371.10189979999996,371.10189979999996,None,None,None,,,,367.11298939999995,,,,,,,,,,,,,,,8,001,2024-07-24_14h05.50.871,robot_cogshifting_sign,2022.2.5,60.06056507381638,
"['R_Base_X_Back', 'R_Base_Z_For', 'R_Head_X_Back', 'L_Base_X_For']","{'laterality': 'L_Base_X_For', 'localisation': 'R_Head_X_Back', 'movement': 'R_Base_Z_For'}",laterality,"['laterality', 'localisation']",L_Base_X_For,3,2,robot,2,False,False,"['robot_stimuli\\R_Base_X_Back.mp4', 'robot_stimuli\\R_Base_Z_For.mp4', 'robot_stimuli\\R_Head_X_Back.mp4', 'robot_stimuli\\L_Base_X_For.mp4']",robot_stimuli\L_Base_X_For.mp4,8,0,0,0,0,0,13,13,13,,,,,,,,,,,,,,,,,,,,,371.10189979999996,371.10189979999996,None,,371.10189979999996,372.1018619,372.1018619,374.1806617,,,388.96033520000003,388.96033520000003,388.96033520000003,1,3.1856798999999683,392.1685242,392.1685242,392.1685242,392.1685242,392.1685242,392.1685242,392.1685242,392.1685242,None,None,None,371.10189979999996,371.10189979999996,,385.37949189999995,,,,,,,,,,,,,,,8,001,2024-07-24_14h05.50.871,robot_cogshifting_sign,2022.2.5,60.06056507381638,
"['L_Head_Z_Back', 'R_Head_X_For', 'L_Head_X_For', 'L_Base_X_For']","{'laterality': 'R_Head_X_For', 'localisation': 'L_Base_X_For', 'movement': 'L_Head_Z_Back'}",localisation,"['localisation', 'movement']",L_Base_X_For,3,2,robot,2,False,True,"['robot_stimuli\\L_Head_Z_Back.mp4', 'robot_stimuli\\R_Head_X_For.mp4', 'robot_stimuli\\L_Head_X_For.mp4', 'robot_stimuli\\L_Base_X_For.mp4']",robot_stimuli\L_Base_X_For.mp4,8,0,0,0,0,0,14,14,14,,,,,,,,,,,,,,,,,,,,,392.1685242,392.1685242,None,,392.1685242,393.16885149999996,393.16885149999996,395.2448813,,,409.93867149999994,409.93867149999994,409.93867149999994,4,2.0216208000000506,412.00988340000004,420.0929856,412.00988340000004,420.0929856,412.00988340000004,420.0929856,412.00988340000004,420.0929856,36.327160493827165,7.817731399999957,space,392.1685242,392.1685242,8.01475030000006,406.3650762,,,,,,,,,,,,,,,8,001,2024-07-24_14h05.50.871,robot_cogshifting_sign,2022.2.5,60.06056507381638,
"['L_Head_X_For', 'R_Head_Y_For', 'L_Arm_Y_For', 'L_Head_Y_For']","{'laterality': 'R_Head_Y_For', 'localisation': 'L_Arm_Y_For', 'movement': 'L_Head_X_For'}",laterality,"['laterality', 'localisation', 'movement']",R_Head_Y_For,1,3,robot,2,True,False,"['robot_stimuli\\L_Head_X_For.mp4', 'robot_stimuli\\R_Head_Y_For.mp4', 'robot_stimuli\\L_Arm_Y_For.mp4', 'robot_stimuli\\L_Head_Y_For.mp4']",robot_stimuli\R_Head_Y_For.mp4,8,0,0,0,0,0,15,15,15,,,,,,,,,,,,,,,,,,,,,420.0929856,420.0929856,space,2.9331143000000566,423.0518406,424.0519402,424.0519402,426.13440879999996,,,440.8934861,440.8934861,440.8934861,2,1.1155570999999327,442.03522150000003,442.03522150000003,442.03522150000003,442.03522150000003,442.03522150000003,442.03522150000003,442.03522150000003,442.03522150000003,None,None,None,,,,437.24915580000004,,,,,,,,,,,,,,,8,001,2024-07-24_14h05.50.871,robot_cogshifting_sign,2022.2.5,60.06056507381638,
"['R_Torso_X_For', 'R_Torso_Z_Back', 'L_Torso_X_Back', 'R_Arm_X_Back']","{'laterality': 'L_Torso_X_Back', 'localisation': 'R_Arm_X_Back', 'movement': 'R_Torso_Z_Back'}",movement,"['laterality', 'localisation', 'movement']",R_Torso_Z_Back,1,3,robot,2,False,False,"['robot_stimuli\\R_Torso_X_For.mp4', 'robot_stimuli\\R_Torso_Z_Back.mp4', 'robot_stimuli\\L_Torso_X_Back.mp4', 'robot_stimuli\\R_Arm_X_Back.mp4']",robot_stimuli\R_Torso_Z_Back.mp4,8,0,0,0,0,0,16,16,16,,,,,,,,,,,,,,,,,,,,,442.03522150000003,442.03522150000003,None,,442.03522150000003,443.03533459999994,443.03533459999994,445.1115932,,,459.91726919999996,459.91726919999996,459.91726919999996,1,4.916558900000041,464.8518918,464.8518918,464.8518918,464.8518918,464.8518918,464.8518918,464.8518918,464.8518918,None,None,None,442.03522150000003,442.03522150000003,,456.2683329,,,,,,,,,,,,,,,8,001,2024-07-24_14h05.50.871,robot_cogshifting_sign,2022.2.5,60.06056507381638,
"['L_Torso_X_Back', 'R_Torso_Z_For', 'R_Base_X_For', 'R_Torso_X_For']","{'laterality': 'L_Torso_X_Back', 'localisation': 'R_Base_X_For', 'movement': 'R_Torso_Z_For'}",localisation,"['laterality', 'localisation', 'movement']",R_Base_X_For,2,3,robot,2,False,True,"['robot_stimuli\\L_Torso_X_Back.mp4', 'robot_stimuli\\R_Torso_Z_For.mp4', 'robot_stimuli\\R_Base_X_For.mp4', 'robot_stimuli\\R_Torso_X_For.mp4']",robot_stimuli\R_Base_X_For.mp4,8,0,0,0,0,0,17,17,17,,,,,,,,,,,,,,,,,,,,,464.8518918,464.8518918,None,,464.8518918,465.85192359999996,465.85192359999996,467.9425768,,,482.67434000000003,482.67434000000003,482.67434000000003,2,2.5598585000000185,485.2765339,487.57311070000003,485.2765339,487.57311070000003,485.2765339,487.57311070000003,485.2765339,487.57311070000003,41.57407407407407,1.7593047000000297,space,464.8518918,464.8518918,2.251885800000082,479.0446342,,,,,,,,,,,,,,,8,001,2024-07-24_14h05.50.871,robot_cogshifting_sign,2022.2.5,60.06056507381638,
,,,,,,,,,,,,,,0,0,0,0,,,,,,,,,,,,,,,,,,,,,,,,,,,,,,,,,,,,,,,,,,,,,,,,,,,,,,,487.57311070000003,487.57311070000003,487.57311070000003,c,1.844560300000012,,,,,,,,,,8,001,2024-07-24_14h05.50.871,robot_cogshifting_sign,2022.2.5,60.06056507381638,
"['blue_right_K_45', 'blue_top_N_45', 'blue_right_X_0', 'red_right_P_45']","{'color': 'red_right_P_45', 'position': 'blue_top_N_45', 'orientation': 'blue_right_X_0'}",position,['position'],blue_top_N_45,1,1,letter,1,True,False,"['robot_stimuli\\\\filler.mp4', 'robot_stimuli\\\\filler.mp4', 'robot_stimuli\\\\filler.mp4', 'robot_stimuli\\\\filler.mp4']",robot_stimuli\\filler.mp4,8,,,,,,,,,,,,,0,0,0,0,,,,,,,,,,,,,,,,,,,495.3520711,497.4205442,,,506.101404,506.101404,506.101404,2,0.6685604000000467,506.80190159999995,506.80190159999995,506.80190159999995,506.80190159999995,506.80190159999995,506.80190159999995,506.80190159999995,506.80190159999995,None,None,None,,,,,,,,,,489.4548009,489.4548009,space,5.8655390000000125,503.8870087,506.101404,,,,8,001,2024-07-24_14h05.50.871,robot_cogshifting_sign,2022.2.5,60.06056507381638,
"['red_top_T_45', 'blue_left_X_45', 'red_left_B_0', 'red_left_N_45']","{'color': 'blue_left_X_45', 'position': 'red_top_T_45', 'orientation': 'red_left_B_0'}",color,['color'],blue_left_X_45,1,1,letter,1,False,False,"['robot_stimuli\\\\filler.mp4', 'robot_stimuli\\\\filler.mp4', 'robot_stimuli\\\\filler.mp4', 'robot_stimuli\\\\filler.mp4']",robot_stimuli\\filler.mp4,8,,,,,,,,,,,,,0,1,1,1,,,,,,,,,,,,,,,,,,,506.80190159999995,508.8589356,,,517.5515301,517.5515301,517.5515301,2,0.849042000000054,518.4187284999999,518.4187284999999,518.4187284999999,518.4187284999999,518.4187284999999,518.4187284999999,518.4187284999999,518.4187284999999,None,None,None,,,,,,,,,,506.80190159999995,506.80190159999995,None,,515.5269654,517.5515301,506.80190159999995,506.80190159999995,,8,001,2024-07-24_14h05.50.871,robot_cogshifting_sign,2022.2.5,60.06056507381638,
"['blue_bottom_B_45', 'red_bottom_H_45', 'blue_right_M_45', 'blue_bottom_R_0']","{'color': 'red_bottom_H_45', 'position': 'blue_right_M_45', 'orientation': 'blue_bottom_R_0'}",position,['position'],blue_right_M_45,2,1,letter,1,False,False,"['robot_stimuli\\\\filler.mp4', 'robot_stimuli\\\\filler.mp4', 'robot_stimuli\\\\filler.mp4', 'robot_stimuli\\\\filler.mp4']",robot_stimuli\\filler.mp4,8,,,,,,,,,,,,,0,2,2,2,,,,,,,,,,,,,,,,,,,518.4187284999999,520.4743155,,,529.1632817999999,529.1632817999999,529.1632817999999,1,4.366311300000007,533.5522628,533.5522628,533.5522628,533.5522628,533.5522628,533.5522628,533.5522628,533.5522628,None,None,None,,,,,,,,,,518.4187284999999,518.4187284999999,None,,527.1409722,529.1632817999999,518.4187284999999,518.4187284999999,,8,001,2024-07-24_14h05.50.871,robot_cogshifting_sign,2022.2.5,60.06056507381638,
"['red_bottom_G_45', 'red_right_P_0', 'blue_bottom_F_0', 'red_bottom_Z_0']","{'color': 'blue_bottom_F_0', 'position': 'red_right_P_0', 'orientation': 'red_bottom_G_45'}",color,['color'],blue_bottom_F_0,2,1,letter,1,False,False,"['robot_stimuli\\\\filler.mp4', 'robot_stimuli\\\\filler.mp4', 'robot_stimuli\\\\filler.mp4', 'robot_stimuli\\\\filler.mp4']",robot_stimuli\\filler.mp4,8,,,,,,,,,,,,,0,3,3,3,,,,,,,,,,,,,,,,,,,533.5522628,535.6153965,,,544.4897165,544.4897165,544.4897165,3,0.7925465000000713,545.3020914,545.3020914,545.3020914,545.3020914,545.3020914,545.3020914,545.3020914,545.3020914,None,None,None,,,,,,,,,,533.5522628,533.5522628,None,,542.4802158,544.4897165,533.5522628,533.5522628,,8,001,2024-07-24_14h05.50.871,robot_cogshifting_sign,2022.2.5,60.06056507381638,
"['blue_right_C_0', 'blue_right_X_45', 'red_right_B_0', 'blue_left_X_0']","{'color': 'red_right_B_0', 'position': 'blue_left_X_0', 'orientation': 'blue_right_X_45'}",position,['position'],blue_left_X_0,3,1,letter,1,False,False,"['robot_stimuli\\\\filler.mp4', 'robot_stimuli\\\\filler.mp4', 'robot_stimuli\\\\filler.mp4', 'robot_stimuli\\\\filler.mp4']",robot_stimuli\\filler.mp4,8,,,,,,,,,,,,,0,4,4,4,,,,,,,,,,,,,,,,,,,545.3020914,547.3557423,,,556.2452602,556.2452602,556.2452602,4,1.5803391000000602,557.8521647,557.8521647,557.8521647,557.8521647,557.8521647,557.8521647,557.8521647,557.8521647,None,None,None,,,,,,,,,,545.3020914,545.3020914,None,,554.0242777999999,556.2452602,545.3020914,545.3020914,,8,001,2024-07-24_14h05.50.871,robot_cogshifting_sign,2022.2.5,60.06056507381638,
"['blue_top_S_45', 'blue_top_V_0', 'red_top_H_45', 'blue_right_D_45']","{'color': 'red_top_H_45', 'position': 'blue_right_D_45', 'orientation': 'blue_top_V_0'}",orientation,['orientation'],blue_top_V_0,1,1,letter,1,False,False,"['robot_stimuli\\\\filler.mp4', 'robot_stimuli\\\\filler.mp4', 'robot_stimuli\\\\filler.mp4', 'robot_stimuli\\\\filler.mp4']",robot_stimuli\\filler.mp4,8,,,,,,,,,,,,,0,5,5,5,,,,,,,,,,,,,,,,,,,557.8521647,559.9114258,,,568.7974302,568.7974302,568.7974302,2,0.3645756999999321,569.185803,569.185803,569.185803,569.185803,569.185803,569.185803,569.185803,569.185803,None,None,None,,,,,,,,,,557.8521647,557.8521647,None,,566.7789988,568.7974302,557.8521647,557.8521647,,8,001,2024-07-24_14h05.50.871,robot_cogshifting_sign,2022.2.5,60.06056507381638,
"['blue_top_L_45', 'blue_bottom_K_0', 'blue_bottom_N_45', 'red_bottom_L_45']","{'color': 'red_bottom_L_45', 'position': 'blue_top_L_45', 'orientation': 'blue_bottom_K_0'}",color,['color'],red_bottom_L_45,3,1,letter,1,False,False,"['robot_stimuli\\\\filler.mp4', 'robot_stimuli\\\\filler.mp4', 'robot_stimuli\\\\filler.mp4', 'robot_stimuli\\\\filler.mp4']",robot_stimuli\\filler.mp4,8,,,,,,,,,,,,,0,6,6,6,,,,,,,,,,,,,,,,,,,569.185803,571.2453755,,,579.9267902,579.9267902,579.9267902,4,0.40927160000001095,580.3688663,580.3688663,580.3688663,580.3688663,580.3688663,580.3688663,580.3688663,580.3688663,None,None,None,,,,,,,,,,569.185803,569.185803,None,,577.7060134,579.9267902,569.185803,569.185803,,8,001,2024-07-24_14h05.50.871,robot_cogshifting_sign,2022.2.5,60.06056507381638,
"['red_right_G_0', 'blue_right_B_45', 'red_right_F_45', 'red_left_P_45']","{'color': 'blue_right_B_45', 'position': 'red_left_P_45', 'orientation': 'red_right_G_0'}",orientation,['orientation'],red_right_G_0,0,1,letter,1,False,False,"['robot_stimuli\\\\filler.mp4', 'robot_stimuli\\\\filler.mp4', 'robot_stimuli\\\\filler.mp4', 'robot_stimuli\\\\filler.mp4']",robot_stimuli\\filler.mp4,8,,,,,,,,,,,,,0,7,7,7,,,,,,,,,,,,,,,,,,,580.3688663,582.428081,,,591.5041294,591.5041294,591.5041294,1,0.35254070000007687,591.8853438,591.8853438,591.8853438,591.8853438,591.8853438,591.8853438,591.8853438,591.8853438,None,None,None,,,,,,,,,,580.3688663,580.3688663,None,,589.2903255,591.5041294,580.3688663,580.3688663,,8,001,2024-07-24_14h05.50.871,robot_cogshifting_sign,2022.2.5,60.06056507381638,
"['blue_top_G_0', 'red_right_M_0', 'blue_right_X_45', 'blue_right_S_0']","{'color': 'red_right_M_0', 'position': 'blue_top_G_0', 'orientation': 'blue_right_X_45'}",orientation,['orientation'],blue_right_X_45,2,1,letter,1,False,True,"['robot_stimuli\\\\filler.mp4', 'robot_stimuli\\\\filler.mp4', 'robot_stimuli\\\\filler.mp4', 'robot_stimuli\\\\filler.mp4']",robot_stimuli\\filler.mp4,8,,,,,,,,,,,,,0,8,8,8,,,,,,,,,,,,,,,,,,,591.8853438,593.9400633,,,602.8309171,602.8309171,602.8309171,3,0.9703476999999339,603.8464389,609.427696,603.8464389,609.427696,603.8464389,609.427696,603.8464389,609.427696,20.586419753086417,5.141995599999973,space,,,5.537810200000081,,,,,,,591.8853438,591.8853438,None,,600.8182303,602.8309171,591.8853438,591.8853438,,8,001,2024-07-24_14h05.50.871,robot_cogshifting_sign,2022.2.5,60.06056507381638,
"['red_bottom_X_0', 'red_right_X_0', 'red_right_R_45', 'blue_right_Z_0']","{'color': 'blue_right_Z_0', 'position': 'red_bottom_X_0', 'orientation': 'red_right_R_45'}",orientation,"['orientation', 'position']",red_right_R_45,2,2,letter,1,True,False,"['robot_stimuli\\\\filler.mp4', 'robot_stimuli\\\\filler.mp4', 'robot_stimuli\\\\filler.mp4', 'robot_stimuli\\\\filler.mp4']",robot_stimuli\\filler.mp4,8,,,,,,,,,,,,,0,9,9,9,,,,,,,,,,,,,,,,,,,614.3516853,616.4112641,,,624.9094454,624.9094454,624.9094454,2,2.995396600000049,627.9349561,627.9349561,627.9349561,627.9349561,627.9349561,627.9349561,627.9349561,627.9349561,None,None,None,,,,,,,,,,609.427696,609.427696,space,4.893141200000059,622.6880585,624.9094454,,,,8,001,2024-07-24_14h05.50.871,robot_cogshifting_sign,2022.2.5,60.06056507381638,
"['blue_top_N_45', 'blue_top_R_0', 'red_top_X_45', 'blue_left_T_45']","{'color': 'red_top_X_45', 'position': 'blue_left_T_45', 'orientation': 'blue_top_R_0'}",position,"['color', 'position']",blue_left_T_45,3,2,letter,1,False,False,"['robot_stimuli\\\\filler.mp4', 'robot_stimuli\\\\filler.mp4', 'robot_stimuli\\\\filler.mp4', 'robot_stimuli\\\\filler.mp4']",robot_stimuli\\filler.mp4,8,,,,,,,,,,,,,0,10,10,10,,,,,,,,,,,,,,,,,,,627.9349561,630.0107481,,,638.9008244,638.9008244,638.9008244,4,2.1169069999999692,641.035362,641.035362,641.035362,641.035362,641.035362,641.035362,641.035362,641.035362,None,None,None,,,,,,,,,,627.9349561,627.9349561,None,,636.8819787,638.9008244,627.9349561,627.9349561,,8,001,2024-07-24_14h05.50.871,robot_cogshifting_sign,2022.2.5,60.06056507381638,
"['red_right_L_0', 'red_top_X_0', 'blue_top_K_0', 'red_top_D_45']","{'color': 'blue_top_K_0', 'position': 'red_right_L_0', 'orientation': 'red_top_D_45'}",color,"['color', 'position']",blue_top_K_0,2,2,letter,1,False,False,"['robot_stimuli\\\\filler.mp4', 'robot_stimuli\\\\filler.mp4', 'robot_stimuli\\\\filler.mp4', 'robot_stimuli\\\\filler.mp4']",robot_stimuli\\filler.mp4,8,,,,,,,,,,,,,0,11,11,11,,,,,,,,,,,,,,,,,,,641.035362,643.0915351,,,652.1787924,652.1787924,652.1787924,3,2.1668652000000748,654.3686077,654.3686077,654.3686077,654.3686077,654.3686077,654.3686077,654.3686077,654.3686077,None,None,None,,,,,,,,,,641.035362,641.035362,None,,649.9611748,652.1787924,641.035362,641.035362,,8,001,2024-07-24_14h05.50.871,robot_cogshifting_sign,2022.2.5,60.06056507381638,
"['red_right_Z_45', 'blue_right_Z_0', 'blue_bottom_G_45', 'blue_right_M_45']","{'color': 'red_right_Z_45', 'position': 'blue_bottom_G_45', 'orientation': 'blue_right_Z_0'}",position,"['orientation', 'position']",blue_bottom_G_45,2,2,letter,1,False,False,"['robot_stimuli\\\\filler.mp4', 'robot_stimuli\\\\filler.mp4', 'robot_stimuli\\\\filler.mp4', 'robot_stimuli\\\\filler.mp4']",robot_stimuli\\filler.mp4,8,,,,,,,,,,,,,0,12,12,12,,,,,,,,,,,,,,,,,,,654.3686077,656.4233948,,,665.1144026,665.1144026,665.1144026,2,6.239007099999981,671.3856194,671.3856194,671.3856194,671.3856194,671.3856194,671.3856194,671.3856194,671.3856194,None,None,None,,,,,,,,,,654.3686077,654.3686077,None,,662.9035152,665.1144026,654.3686077,654.3686077,,8,001,2024-07-24_14h05.50.871,robot_cogshifting_sign,2022.2.5,60.06056507381638,
"['red_bottom_L_0', 'red_right_F_0', 'red_bottom_L_45', 'blue_bottom_Q_0']","{'color': 'blue_bottom_Q_0', 'position': 'red_right_F_0', 'orientation': 'red_bottom_L_45'}",color,"['color', 'position']",blue_bottom_Q_0,3,2,letter,1,False,False,"['robot_stimuli\\\\filler.mp4', 'robot_stimuli\\\\filler.mp4', 'robot_stimuli\\\\filler.mp4', 'robot_stimuli\\\\filler.mp4']",robot_stimuli\\filler.mp4,8,,,,,,,,,,,,,0,13,13,13,,,,,,,,,,,,,,,,,,,671.3856194,673.4451554999999,,,682.1301873,682.1301873,682.1301873,4,1.967533200000048,684.1189469,684.1189469,684.1189469,684.1189469,684.1189469,684.1189469,684.1189469,684.1189469,None,None,None,,,,,,,,,,671.3856194,671.3856194,None,,679.9123387999999,682.1301873,671.3856194,671.3856194,,8,001,2024-07-24_14h05.50.871,robot_cogshifting_sign,2022.2.5,60.06056507381638,
"['blue_bottom_W_45', 'red_top_L_45', 'red_bottom_J_0', 'red_bottom_W_45']","{'color': 'blue_bottom_W_45', 'position': 'red_top_L_45', 'orientation': 'red_bottom_J_0'}",orientation,"['orientation', 'position']",red_bottom_J_0,2,2,letter,1,False,False,"['robot_stimuli\\\\filler.mp4', 'robot_stimuli\\\\filler.mp4', 'robot_stimuli\\\\filler.mp4', 'robot_stimuli\\\\filler.mp4']",robot_stimuli\\filler.mp4,8,,,,,,,,,,,,,0,14,14,14,,,,,,,,,,,,,,,,,,,684.1189469,686.1749778,,,694.6613869,694.6613869,694.6613869,3,2.499433700000054,697.1854741999999,697.1854741999999,697.1854741999999,697.1854741999999,697.1854741999999,697.1854741999999,697.1854741999999,697.1854741999999,None,None,None,,,,,,,,,,684.1189469,684.1189469,None,,692.648024,694.6613869,684.1189469,684.1189469,,8,001,2024-07-24_14h05.50.871,robot_cogshifting_sign,2022.2.5,60.06056507381638,
"['blue_top_G_0', 'blue_top_N_45', 'red_top_B_0', 'blue_bottom_D_0']","{'color': 'red_top_B_0', 'position': 'blue_bottom_D_0', 'orientation': 'blue_top_N_45'}",position,"['color', 'position']",blue_bottom_D_0,3,2,letter,1,False,False,"['robot_stimuli\\\\filler.mp4', 'robot_stimuli\\\\filler.mp4', 'robot_stimuli\\\\filler.mp4', 'robot_stimuli\\\\filler.mp4']",robot_stimuli\\filler.mp4,8,,,,,,,,,,,,,0,15,15,15,,,,,,,,,,,,,,,,,,,697.1854741999999,699.2417376999999,,,708.131636,708.131636,708.131636,4,1.8211840999999822,709.9855408,709.9855408,709.9855408,709.9855408,709.9855408,709.9855408,709.9855408,709.9855408,None,None,None,,,,,,,,,,697.1854741999999,697.1854741999999,None,,706.1194116,708.131636,697.1854741999999,697.1854741999999,,8,001,2024-07-24_14h05.50.871,robot_cogshifting_sign,2022.2.5,60.06056507381638,
"['red_top_X_0', 'blue_top_C_45', 'red_top_H_45', 'red_bottom_H_45']","{'color': 'blue_top_C_45', 'position': 'red_bottom_H_45', 'orientation': 'red_top_X_0'}",orientation,"['color', 'orientation']",red_top_X_0,0,2,letter,1,False,False,"['robot_stimuli\\\\filler.mp4', 'robot_stimuli\\\\filler.mp4', 'robot_stimuli\\\\filler.mp4', 'robot_stimuli\\\\filler.mp4']",robot_stimuli\\filler.mp4,8,,,,,,,,,,,,,0,16,16,16,,,,,,,,,,,,,,,,,,,709.9855408,712.0483828,,,720.7182493999999,720.7182493999999,720.7182493999999,4,2.483229000000051,723.2187078,723.2187078,723.2187078,723.2187078,723.2187078,723.2187078,723.2187078,723.2187078,None,None,None,,,,,,,,,,709.9855408,709.9855408,None,,718.6996621999999,720.7182493999999,709.9855408,709.9855408,,8,001,2024-07-24_14h05.50.871,robot_cogshifting_sign,2022.2.5,60.06056507381638,
"['red_bottom_P_45', 'blue_bottom_K_0', 'red_bottom_R_0', 'red_left_N_0']","{'color': 'blue_bottom_K_0', 'position': 'red_left_N_0', 'orientation': 'red_bottom_P_45'}",color,"['color', 'position']",blue_bottom_K_0,1,2,letter,1,False,True,"['robot_stimuli\\\\filler.mp4', 'robot_stimuli\\\\filler.mp4', 'robot_stimuli\\\\filler.mp4', 'robot_stimuli\\\\filler.mp4']",robot_stimuli\\filler.mp4,8,,,,,,,,,,,,,0,17,17,17,,,,,,,,,,,,,,,,,,,723.2187078,725.2820905000001,,,734.1655931,734.1655931,734.1655931,1,0.9954804000000195,735.2104024,741.3978983,735.2104024,741.3978983,735.2104024,741.3978983,735.2104024,741.3978983,31.08024691358024,5.096283200000016,space,,,6.1259487000000945,,,,,,,723.2187078,723.2187078,None,,731.9545080999999,734.1655931,723.2187078,723.2187078,,8,001,2024-07-24_14h05.50.871,robot_cogshifting_sign,2022.2.5,60.06056507381638,
"['red_right_H_0', 'blue_right_D_0', 'red_right_T_45', 'red_bottom_P_0']","{'color': 'blue_right_D_0', 'position': 'red_bottom_P_0', 'orientation': 'red_right_T_45'}",orientation,"['color', 'orientation', 'position']",red_right_T_45,2,3,letter,1,True,False,"['robot_stimuli\\\\filler.mp4', 'robot_stimuli\\\\filler.mp4', 'robot_stimuli\\\\filler.mp4', 'robot_stimuli\\\\filler.mp4']",robot_stimuli\\filler.mp4,8,,,,,,,,,,,,,0,18,18,18,,,,,,,,,,,,,,,,,,,752.3520811999999,754.4077566999999,,,762.8832628,762.8832628,762.8832628,3,2.0778647999999293,764.9854092999999,764.9854092999999,764.9854092999999,764.9854092999999,764.9854092999999,764.9854092999999,764.9854092999999,764.9854092999999,None,None,None,,,,,,,,,,741.3978983,741.3978983,space,10.92199960000005,760.8687534999999,762.8832628,,,,8,001,2024-07-24_14h05.50.871,robot_cogshifting_sign,2022.2.5,60.06056507381638,
"['red_bottom_T_0', 'blue_bottom_F_45', 'red_bottom_H_45', 'red_left_J_45']","{'color': 'blue_bottom_F_45', 'position': 'red_left_J_45', 'orientation': 'red_bottom_T_0'}",color,"['color', 'orientation', 'position']",blue_bottom_F_45,1,3,letter,1,False,False,"['robot_stimuli\\\\filler.mp4', 'robot_stimuli\\\\filler.mp4', 'robot_stimuli\\\\filler.mp4', 'robot_stimuli\\\\filler.mp4']",robot_stimuli\\filler.mp4,8,,,,,,,,,,,,,0,19,19,19,,,,,,,,,,,,,,,,,,,764.9854092999999,767.0476471,,,775.9146713,775.9146713,775.9146713,2,1.934503300000074,777.8688536,777.8688536,777.8688536,777.8688536,777.8688536,777.8688536,777.8688536,777.8688536,None,None,None,,,,,,,,,,764.9854092999999,764.9854092999999,None,,773.9011608999999,775.9146713,764.9854092999999,764.9854092999999,,8,001,2024-07-24_14h05.50.871,robot_cogshifting_sign,2022.2.5,60.06056507381638,
"['red_left_Q_45', 'red_right_C_0', 'blue_left_F_0', 'red_left_S_0']","{'color': 'blue_left_F_0', 'position': 'red_right_C_0', 'orientation': 'red_left_Q_45'}",position,"['color', 'orientation', 'position']",red_right_C_0,1,3,letter,1,False,False,"['robot_stimuli\\\\filler.mp4', 'robot_stimuli\\\\filler.mp4', 'robot_stimuli\\\\filler.mp4', 'robot_stimuli\\\\filler.mp4']",robot_stimuli\\filler.mp4,8,,,,,,,,,,,,,0,20,20,20,,,,,,,,,,,,,,,,,,,777.8688536,779.9242007,,,788.8175039,788.8175039,788.8175039,3,2.887489500000015,791.7353327999999,791.7353327999999,791.7353327999999,791.7353327999999,791.7353327999999,791.7353327999999,791.7353327999999,791.7353327999999,None,None,None,,,,,,,,,,777.8688536,777.8688536,None,,786.7984594,788.8175039,777.8688536,777.8688536,,8,001,2024-07-24_14h05.50.871,robot_cogshifting_sign,2022.2.5,60.06056507381638,
"['red_right_B_0', 'red_left_M_45', 'blue_right_N_45', 'red_right_G_45']","{'color': 'blue_right_N_45', 'position': 'red_left_M_45', 'orientation': 'red_right_B_0'}",orientation,"['color', 'orientation', 'position']",red_right_B_0,0,3,letter,1,False,False,"['robot_stimuli\\\\filler.mp4', 'robot_stimuli\\\\filler.mp4', 'robot_stimuli\\\\filler.mp4', 'robot_stimuli\\\\filler.mp4']",robot_stimuli\\filler.mp4,8,,,,,,,,,,,,,0,21,21,21,,,,,,,,,,,,,,,,,,,791.7353327999999,793.79744,,,802.4756825,802.4756825,802.4756825,2,4.004456300000015,806.5020789,806.5020789,806.5020789,806.5020789,806.5020789,806.5020789,806.5020789,806.5020789,None,None,None,,,,,,,,,,791.7353327999999,791.7353327999999,None,,800.2580270999999,802.4756825,791.7353327999999,791.7353327999999,,8,001,2024-07-24_14h05.50.871,robot_cogshifting_sign,2022.2.5,60.06056507381638,
"['red_left_D_0', 'red_left_Z_45', 'red_top_Q_45', 'blue_left_Z_45']","{'color': 'blue_left_Z_45', 'position': 'red_top_Q_45', 'orientation': 'red_left_D_0'}",orientation,"['color', 'orientation', 'position']",red_left_D_0,0,3,letter,1,False,False,"['robot_stimuli\\\\filler.mp4', 'robot_stimuli\\\\filler.mp4', 'robot_stimuli\\\\filler.mp4', 'robot_stimuli\\\\filler.mp4']",robot_stimuli\\filler.mp4,8,,,,,,,,,,,,,0,22,22,22,,,,,,,,,,,,,,,,,,,806.5020789,808.5592972,,,817.4542124,817.4542124,817.4542124,1,0.6188502000001108,818.1020418,818.1020418,818.1020418,818.1020418,818.1020418,818.1020418,818.1020418,818.1020418,None,None,None,,,,,,,,,,806.5020789,806.5020789,None,,815.4463132999999,817.4542124,806.5020789,806.5020789,,8,001,2024-07-24_14h05.50.871,robot_cogshifting_sign,2022.2.5,60.06056507381638,
"['blue_bottom_L_0', 'blue_left_P_0', 'blue_left_V_45', 'red_left_W_0']","{'color': 'red_left_W_0', 'position': 'blue_bottom_L_0', 'orientation': 'blue_left_V_45'}",color,"['color', 'orientation', 'position']",red_left_W_0,3,3,letter,1,False,False,"['robot_stimuli\\\\filler.mp4', 'robot_stimuli\\\\filler.mp4', 'robot_stimuli\\\\filler.mp4', 'robot_stimuli\\\\filler.mp4']",robot_stimuli\\filler.mp4,8,,,,,,,,,,,,,0,23,23,23,,,,,,,,,,,,,,,,,,,818.1020418,820.1576204,,,828.8374471,828.8374471,828.8374471,4,4.155236400000035,833.0184933999999,833.0184933999999,833.0184933999999,833.0184933999999,833.0184933999999,833.0184933999999,833.0184933999999,833.0184933999999,None,None,None,,,,,,,,,,818.1020418,818.1020418,None,,826.6305078999999,828.8374471,818.1020418,818.1020418,,8,001,2024-07-24_14h05.50.871,robot_cogshifting_sign,2022.2.5,60.06056507381638,
"['blue_right_H_45', 'blue_left_P_0', 'blue_left_T_45', 'red_left_Z_45']","{'color': 'red_left_Z_45', 'position': 'blue_right_H_45', 'orientation': 'blue_left_P_0'}",position,"['color', 'orientation', 'position']",blue_right_H_45,0,3,letter,1,False,False,"['robot_stimuli\\\\filler.mp4', 'robot_stimuli\\\\filler.mp4', 'robot_stimuli\\\\filler.mp4', 'robot_stimuli\\\\filler.mp4']",robot_stimuli\\filler.mp4,8,,,,,,,,,,,,,0,24,24,24,,,,,,,,,,,,,,,,,,,833.0184933999999,835.0749671000001,,,843.7680464,843.7680464,843.7680464,1,2.4162302000000864,846.2022661000001,846.2022661000001,846.2022661000001,846.2022661000001,846.2022661000001,846.2022661000001,846.2022661000001,846.2022661000001,None,None,None,,,,,,,,,,833.0184933999999,833.0184933999999,None,,841.7484236,843.7680464,833.0184933999999,833.0184933999999,,8,001,2024-07-24_14h05.50.871,robot_cogshifting_sign,2022.2.5,60.06056507381638,
"['red_bottom_F_0', 'red_bottom_B_45', 'red_right_V_45', 'blue_bottom_J_45']","{'color': 'blue_bottom_J_45', 'position': 'red_right_V_45', 'orientation': 'red_bottom_F_0'}",color,"['color', 'orientation', 'position']",blue_bottom_J_45,3,3,letter,1,False,False,"['robot_stimuli\\\\filler.mp4', 'robot_stimuli\\\\filler.mp4', 'robot_stimuli\\\\filler.mp4', 'robot_stimuli\\\\filler.mp4']",robot_stimuli\\filler.mp4,8,,,,,,,,,,,,,0,25,25,25,,,,,,,,,,,,,,,,,,,846.2022661000001,848.2571774999999,,,856.94084,856.94084,856.94084,3,2.1320824999999104,859.1021721,859.1021721,859.1021721,859.1021721,859.1021721,859.1021721,859.1021721,859.1021721,None,None,None,,,,,,,,,,846.2022661000001,846.2022661000001,None,,854.7218680999999,856.94084,846.2022661000001,846.2022661000001,,8,001,2024-07-24_14h05.50.871,robot_cogshifting_sign,2022.2.5,60.06056507381638,
"['blue_right_Q_0', 'blue_right_D_45', 'red_right_H_45', 'blue_left_N_45']","{'color': 'red_right_H_45', 'position': 'blue_left_N_45', 'orientation': 'blue_right_Q_0'}",position,"['color', 'orientation', 'position']",blue_left_N_45,3,3,letter,1,False,True,"['robot_stimuli\\\\filler.mp4', 'robot_stimuli\\\\filler.mp4', 'robot_stimuli\\\\filler.mp4', 'robot_stimuli\\\\filler.mp4']",robot_stimuli\\filler.mp4,8,,,,,,,,,,,,,0,26,26,26,,,,,,,,,,,,,,,,,,,859.1021721,861.1565659,,,870.0514269999999,870.0514269999999,870.0514269999999,4,2.861481400000116,872.9607928,877.6061047999999,872.9607928,877.6061047999999,872.9607928,877.6061047999999,872.9607928,877.6061047999999,40.956790123456784,3.3755535000000236,space,,,4.583476200000064,,,,,,,859.1021721,859.1021721,None,,868.0309834,870.0514269999999,859.1021721,859.1021721,,8,001,2024-07-24_14h05.50.871,robot_cogshifting_sign,2022.2.5,60.06056507381638,
"['L_Arm_Z_For', 'R_Arm_Z_For', 'L_Arm_Y_For', 'L_Base_Z_For']","{'laterality': 'R_Arm_Z_For', 'localisation': 'L_Base_Z_For', 'movement': 'L_Arm_Y_For'}",movement,['movement'],L_Arm_Y_For,2,1,robot,2,True,False,"['robot_stimuli\\L_Arm_Z_For.mp4', 'robot_stimuli\\R_Arm_Z_For.mp4', 'robot_stimuli\\L_Arm_Y_For.mp4', 'robot_stimuli\\L_Base_Z_For.mp4']",robot_stimuli\L_Arm_Y_For.mp4,8,,,,,,,,,,,,,0,27,27,27,,,,,,,,,,,,,,,,,,,882.8021749,884.8842499,,,899.7104405,899.7104405,899.7104405,4,4.306046699999911,904.0354683,904.0354683,904.0354683,904.0354683,904.0354683,904.0354683,904.0354683,904.0354683,None,None,None,,,,,,,,,,877.6061047999999,877.6061047999999,space,5.17165209999996,,,,,896.0633429,8,001,2024-07-24_14h05.50.871,robot_cogshifting_sign,2022.2.5,60.06056507381638,
"['R_Base_X_For', 'R_Arm_Y_Back', 'R_Base_Y_For', 'L_Base_Y_Back']","{'laterality': 'L_Base_Y_Back', 'localisation': 'R_Arm_Y_Back', 'movement': 'R_Base_X_For'}",localisation,['localisation'],R_Arm_Y_Back,1,1,robot,2,False,False,"['robot_stimuli\\R_Base_X_For.mp4', 'robot_stimuli\\R_Arm_Y_Back.mp4', 'robot_stimuli\\R_Base_Y_For.mp4', 'robot_stimuli\\L_Base_Y_Back.mp4']",robot_stimuli\R_Arm_Y_Back.mp4,8,,,,,,,,,,,,,0,28,28,28,,,,,,,,,,,,,,,,,,,904.0354683,906.110631,,,920.7616482000001,920.7616482000001,920.7616482000001,2,3.191142100000093,923.9858526999999,923.9858526999999,923.9858526999999,923.9858526999999,923.9858526999999,923.9858526999999,923.9858526999999,923.9858526999999,None,None,None,,,,,,,,,,904.0354683,904.0354683,None,,,,904.0354683,904.0354683,917.1838866999999,8,001,2024-07-24_14h05.50.871,robot_cogshifting_sign,2022.2.5,60.06056507381638,
"['R_Torso_Y_Back', 'L_Torso_X_Back', 'R_Head_X_Back', 'R_Torso_X_For']","{'laterality': 'L_Torso_X_Back', 'localisation': 'R_Head_X_Back', 'movement': 'R_Torso_Y_Back'}",movement,['movement'],R_Torso_Y_Back,0,1,robot,2,False,False,"['robot_stimuli\\R_Torso_Y_Back.mp4', 'robot_stimuli\\L_Torso_X_Back.mp4', 'robot_stimuli\\R_Head_X_Back.mp4', 'robot_stimuli\\R_Torso_X_For.mp4']",robot_stimuli\R_Torso_Y_Back.mp4,8,,,,,,,,,,,,,0,29,29,29,,,,,,,,,,,,,,,,,,,923.9858526999999,926.0634709000001,,,940.8766512,940.8766512,940.8766512,2,3.2843781000000263,944.1856456,944.1856456,944.1856456,944.1856456,944.1856456,944.1856456,944.1856456,944.1856456,None,None,None,,,,,,,,,,923.9858526999999,923.9858526999999,None,,,,923.9858526999999,923.9858526999999,937.2422065999999,8,001,2024-07-24_14h05.50.871,robot_cogshifting_sign,2022.2.5,60.06056507381638,
"['R_Base_Z_Back', 'R_Base_X_Back', 'L_Base_Z_For', 'R_Arm_Z_For']","{'laterality': 'L_Base_Z_For', 'localisation': 'R_Arm_Z_For', 'movement': 'R_Base_X_Back'}",laterality,['laterality'],L_Base_Z_For,2,1,robot,2,False,False,"['robot_stimuli\\R_Base_Z_Back.mp4', 'robot_stimuli\\R_Base_X_Back.mp4', 'robot_stimuli\\L_Base_Z_For.mp4', 'robot_stimuli\\R_Arm_Z_For.mp4']",robot_stimuli\L_Base_Z_For.mp4,8,,,,,,,,,,,,,0,30,30,30,,,,,,,,,,,,,,,,,,,944.1856456,946.2560446,,,960.9766010000001,960.9766010000001,960.9766010000001,3,0.8962602000000288,961.9021863999999,961.9021863999999,961.9021863999999,961.9021863999999,961.9021863999999,961.9021863999999,961.9021863999999,961.9021863999999,None,None,None,,,,,,,,,,944.1856456,944.1856456,None,,,,944.1856456,944.1856456,957.3312923999999,8,001,2024-07-24_14h05.50.871,robot_cogshifting_sign,2022.2.5,60.06056507381638,
"['L_Arm_Y_Back', 'L_Head_Z_For', 'L_Arm_Z_Back', 'R_Arm_Z_Back']","{'laterality': 'R_Arm_Z_Back', 'localisation': 'L_Head_Z_For', 'movement': 'L_Arm_Y_Back'}",laterality,['laterality'],R_Arm_Z_Back,3,1,robot,2,False,False,"['robot_stimuli\\L_Arm_Y_Back.mp4', 'robot_stimuli\\L_Head_Z_For.mp4', 'robot_stimuli\\L_Arm_Z_Back.mp4', 'robot_stimuli\\R_Arm_Z_Back.mp4']",robot_stimuli\R_Arm_Z_Back.mp4,8,,,,,,,,,,,,,0,31,31,31,,,,,,,,,,,,,,,,,,,961.9021863999999,963.9785328,,,978.7522895,978.7522895,978.7522895,2,1.7033418999998275,980.4854419000001,980.4854419000001,980.4854419000001,980.4854419000001,980.4854419000001,980.4854419000001,980.4854419000001,980.4854419000001,None,None,None,,,,,,,,,,961.9021863999999,961.9021863999999,None,,,,961.9021863999999,961.9021863999999,975.1242914,8,001,2024-07-24_14h05.50.871,robot_cogshifting_sign,2022.2.5,60.06056507381638,
"['R_Torso_Y_For', 'R_Base_Z_Back', 'R_Base_Y_For', 'L_Base_Y_For']","{'laterality': 'L_Base_Y_For', 'localisation': 'R_Torso_Y_For', 'movement': 'R_Base_Z_Back'}",laterality,['laterality'],L_Base_Y_For,3,1,robot,2,False,False,"['robot_stimuli\\R_Torso_Y_For.mp4', 'robot_stimuli\\R_Base_Z_Back.mp4', 'robot_stimuli\\R_Base_Y_For.mp4', 'robot_stimuli\\L_Base_Y_For.mp4']",robot_stimuli\L_Base_Y_For.mp4,8,,,,,,,,,,,,,0,32,32,32,,,,,,,,,,,,,,,,,,,980.4854419000001,982.5562457999999,,,997.1708057999999,997.1708057999999,997.1708057999999,4,0.39007709999998497,997.5854386999999,997.5854386999999,997.5854386999999,997.5854386999999,997.5854386999999,997.5854386999999,997.5854386999999,997.5854386999999,None,None,None,,,,,,,,,,980.4854419000001,980.4854419000001,None,,,,980.4854419000001,980.4854419000001,993.629792,8,001,2024-07-24_14h05.50.871,robot_cogshifting_sign,2022.2.5,60.06056507381638,
"['L_Arm_Z_For', 'R_Arm_Z_For', 'L_Base_Z_Back', 'L_Arm_X_For']","{'laterality': 'R_Arm_Z_For', 'localisation': 'L_Base_Z_Back', 'movement': 'L_Arm_X_For'}",localisation,['localisation'],L_Base_Z_Back,2,1,robot,2,False,False,"['robot_stimuli\\L_Arm_Z_For.mp4', 'robot_stimuli\\R_Arm_Z_For.mp4', 'robot_stimuli\\L_Base_Z_Back.mp4', 'robot_stimuli\\L_Arm_X_For.mp4']",robot_stimuli\L_Base_Z_Back.mp4,8,,,,,,,,,,,,,0,33,33,33,,,,,,,,,,,,,,,,,,,997.5854386999999,999.6589841,,,1014.4940796999999,1014.4940796999999,1014.4940796999999,3,0.4352513999998564,1014.9520888,1014.9520888,1014.9520888,1014.9520888,1014.9520888,1014.9520888,1014.9520888,1014.9520888,None,None,None,,,,,,,,,,997.5854386999999,997.5854386999999,None,,,,997.5854386999999,997.5854386999999,1010.8448980999999,8,001,2024-07-24_14h05.50.871,robot_cogshifting_sign,2022.2.5,60.06056507381638,
"['R_Head_Z_For', 'R_Arm_Z_For', 'L_Arm_Z_For', 'R_Arm_Y_Back']","{'laterality': 'L_Arm_Z_For', 'localisation': 'R_Head_Z_For', 'movement': 'R_Arm_Y_Back'}",localisation,['localisation'],R_Head_Z_For,0,1,robot,2,False,False,"['robot_stimuli\\R_Head_Z_For.mp4', 'robot_stimuli\\R_Arm_Z_For.mp4', 'robot_stimuli\\L_Arm_Z_For.mp4', 'robot_stimuli\\R_Arm_Y_Back.mp4']",robot_stimuli\R_Head_Z_For.mp4,8,,,,,,,,,,,,,0,34,34,34,,,,,,,,,,,,,,,,,,,1014.9520888,1017.0231764,,,1031.8365753,1031.8365753,1031.8365753,1,0.5806910999999673,1032.4354408,1032.4354408,1032.4354408,1032.4354408,1032.4354408,1032.4354408,1032.4354408,1032.4354408,None,None,None,,,,,,,,,,1014.9520888,1014.9520888,None,,,,1014.9520888,1014.9520888,1028.2052651,8,001,2024-07-24_14h05.50.871,robot_cogshifting_sign,2022.2.5,60.06056507381638,
"['L_Head_Y_Back', 'R_Head_Z_Back', 'R_Arm_Y_For', 'R_Head_Y_For']","{'laterality': 'L_Head_Y_Back', 'localisation': 'R_Arm_Y_For', 'movement': 'R_Head_Z_Back'}",movement,['movement'],R_Head_Z_Back,1,1,robot,2,False,True,"['robot_stimuli\\L_Head_Y_Back.mp4', 'robot_stimuli\\R_Head_Z_Back.mp4', 'robot_stimuli\\R_Arm_Y_For.mp4', 'robot_stimuli\\R_Head_Y_For.mp4']",robot_stimuli\R_Head_Z_Back.mp4,8,,,,,,,,,,,,,0,35,35,35,,,,,,,,,,,,,,,,,,,1032.4354408,1034.5109755,,,1049.2104727,1049.2104727,1049.2104727,1,0.14983919999986028,1049.4106554,1058.7957839,1049.4106554,1058.7957839,1049.4106554,1058.7957839,1049.4106554,1058.7957839,37.87037037037037,8.513213599999972,space,,,9.325952799999868,,,,,,,1032.4354408,1032.4354408,None,,,,1032.4354408,1032.4354408,1045.5755798,8,001,2024-07-24_14h05.50.871,robot_cogshifting_sign,2022.2.5,60.06056507381638,
"['L_Torso_Y_Back', 'L_Torso_X_Back', 'L_Head_X_For', 'R_Torso_X_Back']","{'laterality': 'R_Torso_X_Back', 'localisation': 'L_Head_X_For', 'movement': 'L_Torso_Y_Back'}",laterality,"['laterality', 'localisation', 'movement']",R_Torso_X_Back,3,3,robot,2,True,False,"['robot_stimuli\\L_Torso_Y_Back.mp4', 'robot_stimuli\\L_Torso_X_Back.mp4', 'robot_stimuli\\L_Head_X_For.mp4', 'robot_stimuli\\R_Torso_X_Back.mp4']",robot_stimuli\R_Torso_X_Back.mp4,8,,,,,,,,,,,,,0,36,36,36,,,,,,,,,,,,,,,,,,,1062.2022341,1064.2832623,,,1078.8770327,1078.8770327,1078.8770327,4,2.371493499999815,1081.2690548,1081.2690548,1081.2690548,1081.2690548,1081.2690548,1081.2690548,1081.2690548,1081.2690548,None,None,None,,,,,,,,,,1058.7957839,1058.7957839,space,3.3885689999999613,,,,,1075.2424557,8,001,2024-07-24_14h05.50.871,robot_cogshifting_sign,2022.2.5,60.06056507381638,
"['R_Head_Z_Back', 'L_Base_Z_For', 'L_Head_Y_Back', 'L_Head_Z_For']","{'laterality': 'R_Head_Z_Back', 'localisation': 'L_Base_Z_For', 'movement': 'L_Head_Y_Back'}",localisation,"['laterality', 'localisation', 'movement']",L_Base_Z_For,1,3,robot,2,False,False,"['robot_stimuli\\R_Head_Z_Back.mp4', 'robot_stimuli\\L_Base_Z_For.mp4', 'robot_stimuli\\L_Head_Y_Back.mp4', 'robot_stimuli\\L_Head_Z_For.mp4']",robot_stimuli\L_Base_Z_For.mp4,8,,,,,,,,,,,,,0,37,37,37,,,,,,,,,,,,,,,,,,,1081.2690548,1083.3430146,,,1098.1763329999999,1098.1763329999999,1098.1763329999999,3,3.423856599999908,1101.6188371,1101.6188371,1101.6188371,1101.6188371,1101.6188371,1101.6188371,1101.6188371,1101.6188371,None,None,None,,,,,,,,,,1081.2690548,1081.2690548,None,,,,1081.2690548,1081.2690548,1094.5311014,8,001,2024-07-24_14h05.50.871,robot_cogshifting_sign,2022.2.5,60.06056507381638,
"['L_Torso_X_Back', 'R_Arm_X_For', 'R_Torso_Z_For', 'R_Torso_X_Back']","{'laterality': 'L_Torso_X_Back', 'localisation': 'R_Arm_X_For', 'movement': 'R_Torso_Z_For'}",localisation,"['laterality', 'localisation', 'movement']",R_Arm_X_For,1,3,robot,2,False,False,"['robot_stimuli\\L_Torso_X_Back.mp4', 'robot_stimuli\\R_Arm_X_For.mp4', 'robot_stimuli\\R_Torso_Z_For.mp4', 'robot_stimuli\\R_Torso_X_Back.mp4']",robot_stimuli\R_Arm_X_For.mp4,8,,,,,,,,,,,,,0,38,38,38,,,,,,,,,,,,,,,,,,,1101.6188371,1103.6931439,,,1118.4934468,1118.4934468,1118.4934468,2,6.274964599999976,1124.7854478,1124.7854478,1124.7854478,1124.7854478,1124.7854478,1124.7854478,1124.7854478,1124.7854478,None,None,None,,,,,,,,,,1101.6188371,1101.6188371,None,,,,1101.6188371,1101.6188371,1114.856412,8,001,2024-07-24_14h05.50.871,robot_cogshifting_sign,2022.2.5,60.06056507381638,
"['L_Base_Z_Back', 'L_Torso_X_For', 'L_Torso_Z_Back', 'R_Torso_Z_Back']","{'laterality': 'R_Torso_Z_Back', 'localisation': 'L_Base_Z_Back', 'movement': 'L_Torso_X_For'}",laterality,"['laterality', 'localisation', 'movement']",R_Torso_Z_Back,3,3,robot,2,False,False,"['robot_stimuli\\L_Base_Z_Back.mp4', 'robot_stimuli\\L_Torso_X_For.mp4', 'robot_stimuli\\L_Torso_Z_Back.mp4', 'robot_stimuli\\R_Torso_Z_Back.mp4']",robot_stimuli\R_Torso_Z_Back.mp4,8,,,,,,,,,,,,,0,39,39,39,,,,,,,,,,,,,,,,,,,1124.7854478,1126.8572307,,,1141.527361,1141.527361,1141.527361,4,3.4335723999997754,1144.985778,1144.985778,1144.985778,1144.985778,1144.985778,1144.985778,1144.985778,1144.985778,None,None,None,,,,,,,,,,1124.7854478,1124.7854478,None,,,,1124.7854478,1124.7854478,1137.8811128,8,001,2024-07-24_14h05.50.871,robot_cogshifting_sign,2022.2.5,60.06056507381638,
"['R_Head_Z_Back', 'L_Head_Z_For', 'R_Arm_Z_For', 'R_Head_X_For']","{'laterality': 'L_Head_Z_For', 'localisation': 'R_Arm_Z_For', 'movement': 'R_Head_X_For'}",movement,"['laterality', 'localisation', 'movement']",R_Head_X_For,3,3,robot,2,False,False,"['robot_stimuli\\R_Head_Z_Back.mp4', 'robot_stimuli\\L_Head_Z_For.mp4', 'robot_stimuli\\R_Arm_Z_For.mp4', 'robot_stimuli\\R_Head_X_For.mp4']",robot_stimuli\R_Head_X_For.mp4,8,,,,,,,,,,,,,0,40,40,40,,,,,,,,,,,,,,,,,,,1144.985778,1147.060686,,,1161.8757166,1161.8757166,1161.8757166,4,3.4358608000000004,1165.3354421,1165.3354421,1165.3354421,1165.3354421,1165.3354421,1165.3354421,1165.3354421,1165.3354421,None,None,None,,,,,,,,,,1144.985778,1144.985778,None,,,,1144.985778,1144.985778,1158.2274043,8,001,2024-07-24_14h05.50.871,robot_cogshifting_sign,2022.2.5,60.06056507381638,
"['L_Torso_X_For', 'L_Head_Y_For', 'R_Torso_Y_For', 'L_Torso_Y_Back']","{'laterality': 'R_Torso_Y_For', 'localisation': 'L_Head_Y_For', 'movement': 'L_Torso_X_For'}",movement,"['laterality', 'localisation', 'movement']",L_Torso_X_For,0,3,robot,2,False,False,"['robot_stimuli\\L_Torso_X_For.mp4', 'robot_stimuli\\L_Head_Y_For.mp4', 'robot_stimuli\\R_Torso_Y_For.mp4', 'robot_stimuli\\L_Torso_Y_Back.mp4']",robot_stimuli\L_Torso_X_For.mp4,8,,,,,,,,,,,,,0,41,41,41,,,,,,,,,,,,,,,,,,,1165.3354421,1167.4118143,,,1182.0901956,1182.0901956,1182.0901956,2,4.4708418999998685,1186.5856061,1186.5856061,1186.5856061,1186.5856061,1186.5856061,1186.5856061,1186.5856061,1186.5856061,None,None,None,,,,,,,,,,1165.3354421,1165.3354421,None,,,,1165.3354421,1165.3354421,1178.5817398,8,001,2024-07-24_14h05.50.871,robot_cogshifting_sign,2022.2.5,60.06056507381638,
"['L_Torso_Y_Back', 'L_Torso_Z_For', 'L_Arm_Y_Back', 'R_Torso_Y_Back']","{'laterality': 'R_Torso_Y_Back', 'localisation': 'L_Arm_Y_Back', 'movement': 'L_Torso_Z_For'}",laterality,"['laterality', 'localisation', 'movement']",R_Torso_Y_Back,3,3,robot,2,False,False,"['robot_stimuli\\L_Torso_Y_Back.mp4', 'robot_stimuli\\L_Torso_Z_For.mp4', 'robot_stimuli\\L_Arm_Y_Back.mp4', 'robot_stimuli\\R_Torso_Y_Back.mp4']",robot_stimuli\R_Torso_Y_Back.mp4,8,,,,,,,,,,,,,0,42,42,42,,,,,,,,,,,,,,,,,,,1186.5856061,1188.6614243,,,1203.3240006,1203.3240006,1203.3240006,3,8.396865599999956,1211.7522754,1211.7522754,1211.7522754,1211.7522754,1211.7522754,1211.7522754,1211.7522754,1211.7522754,None,None,None,,,,,,,,,,1186.5856061,1186.5856061,None,,,,1186.5856061,1186.5856061,1199.6881263,8,001,2024-07-24_14h05.50.871,robot_cogshifting_sign,2022.2.5,60.06056507381638,
"['L_Head_Y_Back', 'L_Arm_Z_For', 'L_Head_Z_For', 'R_Head_Z_Back']","{'laterality': 'R_Head_Z_Back', 'localisation': 'L_Arm_Z_For', 'movement': 'L_Head_Y_Back'}",movement,"['laterality', 'localisation', 'movement']",L_Head_Y_Back,0,3,robot,2,False,False,"['robot_stimuli\\L_Head_Y_Back.mp4', 'robot_stimuli\\L_Arm_Z_For.mp4', 'robot_stimuli\\L_Head_Z_For.mp4', 'robot_stimuli\\R_Head_Z_Back.mp4']",robot_stimuli\L_Head_Y_Back.mp4,8,,,,,,,,,,,,,0,43,43,43,,,,,,,,,,,,,,,,,,,1211.7522754,1213.8291616,,,1228.6231739,1228.6231739,1228.6231739,2,2.9615971000000627,1231.6022108,1231.6022108,1231.6022108,1231.6022108,1231.6022108,1231.6022108,1231.6022108,1231.6022108,None,None,None,,,,,,,,,,1211.7522754,1211.7522754,None,,,,1211.7522754,1211.7522754,1224.9874745,8,001,2024-07-24_14h05.50.871,robot_cogshifting_sign,2022.2.5,60.06056507381638,
"['L_Arm_X_Back', 'R_Arm_X_For', 'R_Head_X_For', 'R_Arm_Z_For']","{'laterality': 'L_Arm_X_Back', 'localisation': 'R_Head_X_For', 'movement': 'R_Arm_Z_For'}",localisation,"['laterality', 'localisation', 'movement']",R_Head_X_For,2,3,robot,2,False,True,"['robot_stimuli\\L_Arm_X_Back.mp4', 'robot_stimuli\\R_Arm_X_For.mp4', 'robot_stimuli\\R_Head_X_For.mp4', 'robot_stimuli\\R_Arm_Z_For.mp4']",robot_stimuli\R_Head_X_For.mp4,8,,,,,,,,,,,,,0,44,44,44,,,,,,,,,,,,,,,,,,,1231.6022108,1233.6809615,,,1248.487473,1248.487473,1248.487473,3,3.3540580000001228,1251.892641,1256.3123409,1251.892641,1256.3123409,1251.892641,1256.3123409,1251.892641,1256.3123409,52.99382716049383,3.5406636000000162,space,,,4.362986600000113,,,,,,,1231.6022108,1231.6022108,None,,,,1231.6022108,1231.6022108,1244.8621632,8,001,2024-07-24_14h05.50.871,robot_cogshifting_sign,2022.2.5,60.06056507381638,
"['R_Base_Y_Back', 'L_Base_Z_Back', 'L_Arm_Y_Back', 'L_Base_Y_For']","{'laterality': 'R_Base_Y_Back', 'localisation': 'L_Arm_Y_Back', 'movement': 'L_Base_Z_Back'}",movement,"['laterality', 'movement']",L_Base_Z_Back,1,2,robot,2,True,False,"['robot_stimuli\\R_Base_Y_Back.mp4', 'robot_stimuli\\L_Base_Z_Back.mp4', 'robot_stimuli\\L_Arm_Y_Back.mp4', 'robot_stimuli\\L_Base_Y_For.mp4']",robot_stimuli\L_Base_Z_Back.mp4,8,,,,,,,,,,,,,0,45,45,45,,,,,,,,,,,,,,,,,,,1264.0689077,1266.146806,,,1280.8474878,1280.8474878,1280.8474878,3,1.6893109000000095,1282.5689032999999,1282.5689032999999,1282.5689032999999,1282.5689032999999,1282.5689032999999,1282.5689032999999,1282.5689032999999,1282.5689032999999,None,None,None,,,,,,,,,,1256.3123409,1256.3123409,space,7.72916320000013,,,,,1277.3119606999999,8,001,2024-07-24_14h05.50.871,robot_cogshifting_sign,2022.2.5,60.06056507381638,
"['R_Torso_Z_For', 'R_Torso_X_Back', 'R_Head_X_For', 'L_Torso_X_For']","{'laterality': 'L_Torso_X_For', 'localisation': 'R_Head_X_For', 'movement': 'R_Torso_Z_For'}",localisation,"['localisation', 'movement']",R_Head_X_For,2,2,robot,2,False,False,"['robot_stimuli\\R_Torso_Z_For.mp4', 'robot_stimuli\\R_Torso_X_Back.mp4', 'robot_stimuli\\R_Head_X_For.mp4', 'robot_stimuli\\L_Torso_X_For.mp4']",robot_stimuli\R_Head_X_For.mp4,8,,,,,,,,,,,,,0,46,46,46,,,,,,,,,,,,,,,,,,,1282.5689032999999,1284.6479147,,,1299.4435742,1299.4435742,1299.4435742,2,1.5172209000002113,1300.985483,1300.985483,1300.985483,1300.985483,1300.985483,1300.985483,1300.985483,1300.985483,None,None,None,,,,,,,,,,1282.5689032999999,1282.5689032999999,None,,,,1282.5689032999999,1282.5689032999999,1295.8071964,8,001,2024-07-24_14h05.50.871,robot_cogshifting_sign,2022.2.5,60.06056507381638,
"['R_Base_Y_Back', 'L_Base_X_Back', 'R_Torso_X_Back', 'R_Base_X_For']","{'laterality': 'L_Base_X_Back', 'localisation': 'R_Torso_X_Back', 'movement': 'R_Base_Y_Back'}",laterality,"['laterality', 'movement']",L_Base_X_Back,1,2,robot,2,False,False,"['robot_stimuli\\R_Base_Y_Back.mp4', 'robot_stimuli\\L_Base_X_Back.mp4', 'robot_stimuli\\R_Torso_X_Back.mp4', 'robot_stimuli\\R_Base_X_For.mp4']",robot_stimuli\L_Base_X_Back.mp4,8,,,,,,,,,,,,,0,47,47,47,,,,,,,,,,,,,,,,,,,1300.985483,1303.0560465,,,1317.7251612,1317.7251612,1317.7251612,3,1.4995646000002125,1319.2523908,1319.2523908,1319.2523908,1319.2523908,1319.2523908,1319.2523908,1319.2523908,1319.2523908,None,None,None,,,,,,,,,,1300.985483,1300.985483,None,,,,1300.985483,1300.985483,1314.1911471,8,001,2024-07-24_14h05.50.871,robot_cogshifting_sign,2022.2.5,60.06056507381638,
"['R_Base_Z_Back', 'R_Base_X_For', 'R_Torso_Z_Back', 'L_Base_Z_Back']","{'laterality': 'L_Base_Z_Back', 'localisation': 'R_Torso_Z_Back', 'movement': 'R_Base_X_For'}",laterality,"['laterality', 'localisation']",L_Base_Z_Back,3,2,robot,2,False,False,"['robot_stimuli\\R_Base_Z_Back.mp4', 'robot_stimuli\\R_Base_X_For.mp4', 'robot_stimuli\\R_Torso_Z_Back.mp4', 'robot_stimuli\\L_Base_Z_Back.mp4']",robot_stimuli\L_Base_Z_Back.mp4,8,,,,,,,,,,,,,0,48,48,48,,,,,,,,,,,,,,,,,,,1319.2523908,1321.3241689,,,1335.9269903,1335.9269903,1335.9269903,3,2.401762799999915,1338.352143,1338.352143,1338.352143,1338.352143,1338.352143,1338.352143,1338.352143,1338.352143,None,None,None,,,,,,,,,,1319.2523908,1319.2523908,None,,,,1319.2523908,1319.2523908,1332.2922666,8,001,2024-07-24_14h05.50.871,robot_cogshifting_sign,2022.2.5,60.06056507381638,
"['L_Torso_Y_Back', 'L_Base_X_For', 'L_Torso_X_Back', 'R_Torso_X_Back']","{'laterality': 'R_Torso_X_Back', 'localisation': 'L_Base_X_For', 'movement': 'L_Torso_Y_Back'}",movement,"['laterality', 'movement']",L_Torso_Y_Back,0,2,robot,2,False,False,"['robot_stimuli\\L_Torso_Y_Back.mp4', 'robot_stimuli\\L_Base_X_For.mp4', 'robot_stimuli\\L_Torso_X_Back.mp4', 'robot_stimuli\\R_Torso_X_Back.mp4']",robot_stimuli\L_Torso_Y_Back.mp4,8,,,,,,,,,,,,,0,49,49,49,,,,,,,,,,,,,,,,,,,1338.352143,1340.426773,,,1355.0085111,1355.0085111,1355.0085111,1,1.7279439999999795,1356.7689669,1356.7689669,1356.7689669,1356.7689669,1356.7689669,1356.7689669,1356.7689669,1356.7689669,None,None,None,,,,,,,,,,1338.352143,1338.352143,None,,,,1338.352143,1338.352143,1351.3742207,8,001,2024-07-24_14h05.50.871,robot_cogshifting_sign,2022.2.5,60.06056507381638,
"['R_Arm_Y_For', 'R_Arm_Z_For', 'R_Base_Y_Back', 'L_Arm_Y_Back']","{'laterality': 'L_Arm_Y_Back', 'localisation': 'R_Base_Y_Back', 'movement': 'R_Arm_Z_For'}",laterality,"['laterality', 'movement']",L_Arm_Y_Back,3,2,robot,2,False,False,"['robot_stimuli\\R_Arm_Y_For.mp4', 'robot_stimuli\\R_Arm_Z_For.mp4', 'robot_stimuli\\R_Base_Y_Back.mp4', 'robot_stimuli\\L_Arm_Y_Back.mp4']",robot_stimuli\L_Arm_Y_Back.mp4,8,,,,,,,,,,,,,0,50,50,50,,,,,,,,,,,,,,,,,,,1356.7689669,1358.842683,,,1373.4921664,1373.4921664,1373.4921664,4,1.1725646000002143,1374.6857473,1374.6857473,1374.6857473,1374.6857473,1374.6857473,1374.6857473,1374.6857473,1374.6857473,None,None,None,,,,,,,,,,1356.7689669,1356.7689669,None,,,,1356.7689669,1356.7689669,1369.8575271,8,001,2024-07-24_14h05.50.871,robot_cogshifting_sign,2022.2.5,60.06056507381638,
"['L_Base_Y_For', 'R_Head_Y_For', 'R_Base_Y_Back', 'R_Base_X_For']","{'laterality': 'L_Base_Y_For', 'localisation': 'R_Head_Y_For', 'movement': 'R_Base_X_For'}",movement,"['localisation', 'movement']",R_Base_X_For,3,2,robot,2,False,False,"['robot_stimuli\\L_Base_Y_For.mp4', 'robot_stimuli\\R_Head_Y_For.mp4', 'robot_stimuli\\R_Base_Y_Back.mp4', 'robot_stimuli\\R_Base_X_For.mp4']",robot_stimuli\R_Base_X_For.mp4,8,,,,,,,,,,,,,0,51,51,51,,,,,,,,,,,,,,,,,,,1374.6857473,1376.7604187,,,1391.3425072,1391.3425072,1391.3425072,4,3.577393400000119,1394.9521855,1394.9521855,1394.9521855,1394.9521855,1394.9521855,1394.9521855,1394.9521855,1394.9521855,None,None,None,,,,,,,,,,1374.6857473,1374.6857473,None,,,,1374.6857473,1374.6857473,1387.8048626,8,001,2024-07-24_14h05.50.871,robot_cogshifting_sign,2022.2.5,60.06056507381638,
"['L_Arm_Y_Back', 'R_Arm_Y_Back', 'R_Base_Y_Back', 'R_Arm_Z_For']","{'laterality': 'L_Arm_Y_Back', 'localisation': 'R_Base_Y_Back', 'movement': 'R_Arm_Z_For'}",localisation,"['localisation', 'movement']",R_Base_Y_Back,2,2,robot,2,False,False,"['robot_stimuli\\L_Arm_Y_Back.mp4', 'robot_stimuli\\R_Arm_Y_Back.mp4', 'robot_stimuli\\R_Base_Y_Back.mp4', 'robot_stimuli\\R_Arm_Z_For.mp4']",robot_stimuli\R_Base_Y_Back.mp4,8,,,,,,,,,,,,,0,52,52,52,,,,,,,,,,,,,,,,,,,1394.9521855,1397.0303251,,,1411.8464447,1411.8464447,1411.8464447,3,4.857778300000064,1416.7355776,1416.7355776,1416.7355776,1416.7355776,1416.7355776,1416.7355776,1416.7355776,1416.7355776,None,None,None,,,,,,,,,,1394.9521855,1394.9521855,None,,,,1394.9521855,1394.9521855,1408.2100039,8,001,2024-07-24_14h05.50.871,robot_cogshifting_sign,2022.2.5,60.06056507381638,
"['L_Torso_Z_For', 'L_Base_Z_For', 'R_Base_Z_For', 'L_Base_Y_For']","{'laterality': 'R_Base_Z_For', 'localisation': 'L_Torso_Z_For', 'movement': 'L_Base_Y_For'}",localisation,"['localisation', 'movement']",L_Torso_Z_For,0,2,robot,2,False,True,"['robot_stimuli\\L_Torso_Z_For.mp4', 'robot_stimuli\\L_Base_Z_For.mp4', 'robot_stimuli\\R_Base_Z_For.mp4', 'robot_stimuli\\L_Base_Y_For.mp4']",robot_stimuli\L_Torso_Z_For.mp4,8,,,,,,,,,,,,,0,53,53,53,,,,,,,,,,,,,,,,,,,1416.7355776,1418.8114917999999,,,1433.4936324,1433.4936324,1433.4936324,1,3.5384060000001227,1437.0769814,1443.0286364,1437.0769814,1443.0286364,1437.0769814,1443.0286364,1437.0769814,1443.0286364,42.345679012345684,4.407841200000121,space,,,5.906573499999922,,,,,,,1416.7355776,1416.7355776,None,,,,1416.7355776,1416.7355776,1429.9625364,8,001,2024-07-24_14h05.50.871,robot_cogshifting_sign,2022.2.5,60.06056507381638,
"['blue_top_V_45', 'red_top_R_45', 'red_top_N_0', 'red_bottom_B_45']","{'color': 'blue_top_V_45', 'position': 'red_bottom_B_45', 'orientation': 'red_top_N_0'}",position,['position'],red_bottom_B_45,3,1,letter,3,True,False,"['robot_stimuli\\\\filler.mp4', 'robot_stimuli\\\\filler.mp4', 'robot_stimuli\\\\filler.mp4', 'robot_stimuli\\\\filler.mp4']",robot_stimuli\\filler.mp4,8,,,,,,,,,,,,,0,54,54,54,,,,,,,,,,,,,,,,,,,1450.7353945,1452.7904242,,,1461.270769,1461.270769,1461.270769,4,0.377941200000123,1461.668805,1461.668805,1461.668805,1461.668805,1461.668805,1461.668805,1461.668805,1461.668805,None,None,None,,,,,,,,,,1443.0286364,1443.0286364,space,7.683838100000003,1459.2503857,1461.270769,,,,8,001,2024-07-24_14h05.50.871,robot_cogshifting_sign,2022.2.5,60.06056507381638,
"['red_right_V_45', 'red_top_P_0', 'red_right_S_0', 'blue_right_F_0']","{'color': 'blue_right_F_0', 'position': 'red_top_P_0', 'orientation': 'red_right_V_45'}",position,['position'],red_top_P_0,1,1,letter,3,False,False,"['robot_stimuli\\\\filler.mp4', 'robot_stimuli\\\\filler.mp4', 'robot_stimuli\\\\filler.mp4', 'robot_stimuli\\\\filler.mp4']",robot_stimuli\\filler.mp4,8,,,,,,,,,,,,,0,55,55,55,,,,,,,,,,,,,,,,,,,1461.668805,1463.7231055,,,1472.4101192,1472.4101192,1472.4101192,2,0.3507062999997288,1472.7855751,1472.7855751,1472.7855751,1472.7855751,1472.7855751,1472.7855751,1472.7855751,1472.7855751,None,None,None,,,,,,,,,,1461.668805,1461.668805,None,,1470.4002016,1472.4101192,1461.668805,1461.668805,,8,001,2024-07-24_14h05.50.871,robot_cogshifting_sign,2022.2.5,60.06056507381638,
"['red_top_Z_0', 'blue_top_Z_0', 'red_top_N_45', 'red_bottom_C_0']","{'color': 'blue_top_Z_0', 'position': 'red_bottom_C_0', 'orientation': 'red_top_N_45'}",orientation,['orientation'],red_top_N_45,2,1,letter,3,False,False,"['robot_stimuli\\\\filler.mp4', 'robot_stimuli\\\\filler.mp4', 'robot_stimuli\\\\filler.mp4', 'robot_stimuli\\\\filler.mp4']",robot_stimuli\\filler.mp4,8,,,,,,,,,,,,,0,56,56,56,,,,,,,,,,,,,,,,,,,1472.7855751,1474.8395264,,,1483.5269432,1483.5269432,1483.5269432,3,0.8493679000002885,1484.4023782,1484.4023782,1484.4023782,1484.4023782,1484.4023782,1484.4023782,1484.4023782,1484.4023782,None,None,None,,,,,,,,,,1472.7855751,1472.7855751,None,,1481.3086698,1483.5269432,1472.7855751,1472.7855751,,8,001,2024-07-24_14h05.50.871,robot_cogshifting_sign,2022.2.5,60.06056507381638,
"['blue_left_F_45', 'red_bottom_S_45', 'red_left_T_45', 'red_left_D_0']","{'color': 'blue_left_F_45', 'position': 'red_bottom_S_45', 'orientation': 'red_left_D_0'}",orientation,['orientation'],red_left_D_0,3,1,letter,3,False,False,"['robot_stimuli\\\\filler.mp4', 'robot_stimuli\\\\filler.mp4', 'robot_stimuli\\\\filler.mp4', 'robot_stimuli\\\\filler.mp4']",robot_stimuli\\filler.mp4,8,,,,,,,,,,,,,0,57,57,57,,,,,,,,,,,,,,,,,,,1484.4023782,1486.4581706,,,1495.1440731,1495.1440731,1495.1440731,4,0.3843345999998746,1495.5522064,1495.5522064,1495.5522064,1495.5522064,1495.5522064,1495.5522064,1495.5522064,1495.5522064,None,None,None,,,,,,,,,,1484.4023782,1484.4023782,None,,1492.9260027,1495.1440731,1484.4023782,1484.4023782,,8,001,2024-07-24_14h05.50.871,robot_cogshifting_sign,2022.2.5,60.06056507381638,
"['blue_right_F_45', 'red_right_H_0', 'red_bottom_D_45', 'red_right_N_45']","{'color': 'blue_right_F_45', 'position': 'red_bottom_D_45', 'orientation': 'red_right_H_0'}",orientation,['orientation'],red_right_H_0,1,1,letter,3,False,False,"['robot_stimuli\\\\filler.mp4', 'robot_stimuli\\\\filler.mp4', 'robot_stimuli\\\\filler.mp4', 'robot_stimuli\\\\filler.mp4']",robot_stimuli\\filler.mp4,8,,,,,,,,,,,,,0,58,58,58,,,,,,,,,,,,,,,,,,,1495.5522064,1497.6058971,,,1505.9312001,1505.9312001,1505.9312001,2,2.301123299999972,1508.2522778,1508.2522778,1508.2522778,1508.2522778,1508.2522778,1508.2522778,1508.2522778,1508.2522778,None,None,None,,,,,,,,,,1495.5522064,1495.5522064,None,,1503.9120539,1505.9312001,1495.5522064,1495.5522064,,8,001,2024-07-24_14h05.50.871,robot_cogshifting_sign,2022.2.5,60.06056507381638,
"['red_bottom_B_45', 'blue_bottom_Z_45', 'red_bottom_N_0', 'red_right_S_45']","{'color': 'blue_bottom_Z_45', 'position': 'red_right_S_45', 'orientation': 'red_bottom_N_0'}",color,['color'],blue_bottom_Z_45,1,1,letter,3,False,False,"['robot_stimuli\\\\filler.mp4', 'robot_stimuli\\\\filler.mp4', 'robot_stimuli\\\\filler.mp4', 'robot_stimuli\\\\filler.mp4']",robot_stimuli\\filler.mp4,8,,,,,,,,,,,,,0,59,59,59,,,,,,,,,,,,,,,,,,,1508.2522778,1510.3157032,,,1519.2038892,1519.2038892,1519.2038892,2,1.8360501999998178,1521.0690483,1521.0690483,1521.0690483,1521.0690483,1521.0690483,1521.0690483,1521.0690483,1521.0690483,None,None,None,,,,,,,,,,1508.2522778,1508.2522778,None,,1516.9865484,1519.2038892,1508.2522778,1508.2522778,,8,001,2024-07-24_14h05.50.871,robot_cogshifting_sign,2022.2.5,60.06056507381638,
"['red_right_H_45', 'blue_top_D_45', 'red_top_Z_0', 'red_top_K_45']","{'color': 'blue_top_D_45', 'position': 'red_right_H_45', 'orientation': 'red_top_Z_0'}",color,['color'],blue_top_D_45,1,1,letter,3,False,False,"['robot_stimuli\\\\filler.mp4', 'robot_stimuli\\\\filler.mp4', 'robot_stimuli\\\\filler.mp4', 'robot_stimuli\\\\filler.mp4']",robot_stimuli\\filler.mp4,8,,,,,,,,,,,,,0,60,60,60,,,,,,,,,,,,,,,,,,,1521.0690483,1523.1339306,,,1531.5991769,1531.5991769,1531.5991769,2,0.38522999999986496,1532.0021274,1532.0021274,1532.0021274,1532.0021274,1532.0021274,1532.0021274,1532.0021274,1532.0021274,None,None,None,,,,,,,,,,1521.0690483,1521.0690483,None,,1529.5844213,1531.5991769,1521.0690483,1521.0690483,,8,001,2024-07-24_14h05.50.871,robot_cogshifting_sign,2022.2.5,60.06056507381638,
"['red_bottom_N_45', 'red_right_Q_0', 'red_right_N_45', 'blue_right_Q_45']","{'color': 'blue_right_Q_45', 'position': 'red_bottom_N_45', 'orientation': 'red_right_Q_0'}",position,['position'],red_bottom_N_45,0,1,letter,3,False,False,"['robot_stimuli\\\\filler.mp4', 'robot_stimuli\\\\filler.mp4', 'robot_stimuli\\\\filler.mp4', 'robot_stimuli\\\\filler.mp4']",robot_stimuli\\filler.mp4,8,,,,,,,,,,,,,0,61,61,61,,,,,,,,,,,,,,,,,,,1532.0021274,1534.0561662,,,1542.7361308,1542.7361308,1542.7361308,2,2.0724644999997963,1544.8355264,1544.8355264,1544.8355264,1544.8355264,1544.8355264,1544.8355264,1544.8355264,1544.8355264,None,None,None,,,,,,,,,,1532.0021274,1532.0021274,None,,1540.7127659,1542.7361308,1532.0021274,1532.0021274,,8,001,2024-07-24_14h05.50.871,robot_cogshifting_sign,2022.2.5,60.06056507381638,
"['blue_bottom_V_45', 'red_bottom_H_45', 'red_bottom_L_0', 'red_right_N_45']","{'color': 'blue_bottom_V_45', 'position': 'red_right_N_45', 'orientation': 'red_bottom_L_0'}",color,['color'],blue_bottom_V_45,0,1,letter,3,False,True,"['robot_stimuli\\\\filler.mp4', 'robot_stimuli\\\\filler.mp4', 'robot_stimuli\\\\filler.mp4', 'robot_stimuli\\\\filler.mp4']",robot_stimuli\\filler.mp4,8,,,,,,,,,,,,,0,62,62,62,,,,,,,,,,,,,,,,,,,1544.8355264,1546.896031,,,1555.3702434,1555.3702434,1555.3702434,2,0.49489999999991596,1555.9106505,1559.2170365,1555.9106505,1559.2170365,1555.9106505,1559.2170365,1555.9106505,1559.2170365,19.50617283950617,2.5198811000000205,space,,,3.242086800000152,,,,,,,1544.8355264,1544.8355264,None,,1553.3469029,1555.3702434,1544.8355264,1544.8355264,,8,001,2024-07-24_14h05.50.871,robot_cogshifting_sign,2022.2.5,60.06056507381638,
"['red_left_P_0', 'red_right_M_45', 'red_left_Q_45', 'blue_left_S_45']","{'color': 'blue_left_S_45', 'position': 'red_right_M_45', 'orientation': 'red_left_P_0'}",position,"['orientation', 'position']",red_right_M_45,1,2,letter,3,True,False,"['robot_stimuli\\\\filler.mp4', 'robot_stimuli\\\\filler.mp4', 'robot_stimuli\\\\filler.mp4', 'robot_stimuli\\\\filler.mp4']",robot_stimuli\\filler.mp4,8,,,,,,,,,,,,,0,63,63,63,,,,,,,,,,,,,,,,,,,1569.4689702,1571.5253676,,,1579.9970159,1579.9970159,1579.9970159,2,1.3547230000001491,1581.3688077,1581.3688077,1581.3688077,1581.3688077,1581.3688077,1581.3688077,1581.3688077,1581.3688077,None,None,None,,,,,,,,,,1559.2170365,1559.2170365,space,10.224299700000074,1577.9789642,1579.9970159,,,,8,001,2024-07-24_14h05.50.871,robot_cogshifting_sign,2022.2.5,60.06056507381638,
"['red_left_V_45', 'red_left_L_0', 'red_top_Q_0', 'blue_left_J_0']","{'color': 'blue_left_J_0', 'position': 'red_top_Q_0', 'orientation': 'red_left_V_45'}",orientation,"['color', 'orientation']",red_left_V_45,0,2,letter,3,False,False,"['robot_stimuli\\\\filler.mp4', 'robot_stimuli\\\\filler.mp4', 'robot_stimuli\\\\filler.mp4', 'robot_stimuli\\\\filler.mp4']",robot_stimuli\\filler.mp4,8,,,,,,,,,,,,,0,64,64,64,,,,,,,,,,,,,,,,,,,1581.3688077,1583.4228841,,,1592.1142505999999,1592.1142505999999,1592.1142505999999,3,1.365672399999994,1593.5020562,1593.5020562,1593.5020562,1593.5020562,1593.5020562,1593.5020562,1593.5020562,1593.5020562,None,None,None,,,,,,,,,,1581.3688077,1581.3688077,None,,1589.8906316,1592.1142505999999,1581.3688077,1581.3688077,,8,001,2024-07-24_14h05.50.871,robot_cogshifting_sign,2022.2.5,60.06056507381638,
"['blue_left_X_0', 'blue_right_S_45', 'red_right_M_0', 'blue_right_D_0']","{'color': 'red_right_M_0', 'position': 'blue_left_X_0', 'orientation': 'blue_right_S_45'}",position,"['color', 'position']",blue_left_X_0,0,2,letter,3,False,False,"['robot_stimuli\\\\filler.mp4', 'robot_stimuli\\\\filler.mp4', 'robot_stimuli\\\\filler.mp4', 'robot_stimuli\\\\filler.mp4']",robot_stimuli\\filler.mp4,8,,,,,,,,,,,,,0,65,65,65,,,,,,,,,,,,,,,,,,,1593.5020562,1595.5562155,,,1604.4388873,1604.4388873,1604.4388873,1,2.665300399999751,1607.1356682,1607.1356682,1607.1356682,1607.1356682,1607.1356682,1607.1356682,1607.1356682,1607.1356682,None,None,None,,,,,,,,,,1593.5020562,1593.5020562,None,,1602.2211915,1604.4388873,1593.5020562,1593.5020562,,8,001,2024-07-24_14h05.50.871,robot_cogshifting_sign,2022.2.5,60.06056507381638,
"['blue_left_Q_0', 'red_left_L_0', 'red_left_X_45', 'red_right_Z_0']","{'color': 'blue_left_Q_0', 'position': 'red_right_Z_0', 'orientation': 'red_left_X_45'}",orientation,"['orientation', 'position']",red_left_X_45,2,2,letter,3,False,False,"['robot_stimuli\\\\filler.mp4', 'robot_stimuli\\\\filler.mp4', 'robot_stimuli\\\\filler.mp4', 'robot_stimuli\\\\filler.mp4']",robot_stimuli\\filler.mp4,8,,,,,,,,,,,,,0,66,66,66,,,,,,,,,,,,,,,,,,,1607.1356682,1609.1989776,,,1618.0649697,1618.0649697,1618.0649697,3,1.5909074000001056,1619.6854686,1619.6854686,1619.6854686,1619.6854686,1619.6854686,1619.6854686,1619.6854686,1619.6854686,None,None,None,,,,,,,,,,1607.1356682,1607.1356682,None,,1616.0489809,1618.0649697,1607.1356682,1607.1356682,,8,001,2024-07-24_14h05.50.871,robot_cogshifting_sign,2022.2.5,60.06056507381638,
"['red_bottom_P_0', 'blue_bottom_W_0', 'blue_bottom_K_45', 'blue_left_M_0']","{'color': 'red_bottom_P_0', 'position': 'blue_left_M_0', 'orientation': 'blue_bottom_K_45'}",color,"['color', 'orientation']",red_bottom_P_0,0,2,letter,3,False,False,"['robot_stimuli\\\\filler.mp4', 'robot_stimuli\\\\filler.mp4', 'robot_stimuli\\\\filler.mp4', 'robot_stimuli\\\\filler.mp4']",robot_stimuli\\filler.mp4,8,,,,,,,,,,,,,0,67,67,67,,,,,,,,,,,,,,,,,,,1619.6854686,1621.7406012,,,1630.6272409,1630.6272409,1630.6272409,3,3.629929999999831,1634.285699,1634.285699,1634.285699,1634.285699,1634.285699,1634.285699,1634.285699,1634.285699,None,None,None,,,,,,,,,,1619.6854686,1619.6854686,None,,1628.4075245,1630.6272409,1619.6854686,1619.6854686,,8,001,2024-07-24_14h05.50.871,robot_cogshifting_sign,2022.2.5,60.06056507381638,
"['red_bottom_K_45', 'red_top_G_45', 'red_bottom_D_0', 'blue_bottom_S_45']","{'color': 'blue_bottom_S_45', 'position': 'red_top_G_45', 'orientation': 'red_bottom_D_0'}",color,"['color', 'position']",blue_bottom_S_45,3,2,letter,3,False,False,"['robot_stimuli\\\\filler.mp4', 'robot_stimuli\\\\filler.mp4', 'robot_stimuli\\\\filler.mp4', 'robot_stimuli\\\\filler.mp4']",robot_stimuli\\filler.mp4,8,,,,,,,,,,,,,0,68,68,68,,,,,,,,,,,,,,,,,,,1634.285699,1636.347286,,,1645.0128271,1645.0128271,1645.0128271,4,1.0513887999998133,1646.0856638,1646.0856638,1646.0856638,1646.0856638,1646.0856638,1646.0856638,1646.0856638,1646.0856638,None,None,None,,,,,,,,,,1634.285699,1634.285699,None,,1642.8041804,1645.0128271,1634.285699,1634.285699,,8,001,2024-07-24_14h05.50.871,robot_cogshifting_sign,2022.2.5,60.06056507381638,
"['red_left_G_45', 'red_left_S_0', 'red_right_C_0', 'blue_left_X_0']","{'color': 'blue_left_X_0', 'position': 'red_right_C_0', 'orientation': 'red_left_G_45'}",orientation,"['orientation', 'position']",red_left_G_45,0,2,letter,3,False,False,"['robot_stimuli\\\\filler.mp4', 'robot_stimuli\\\\filler.mp4', 'robot_stimuli\\\\filler.mp4', 'robot_stimuli\\\\filler.mp4']",robot_stimuli\\filler.mp4,8,,,,,,,,,,,,,0,69,69,69,,,,,,,,,,,,,,,,,,,1646.0856638,1648.1404943,,,1656.8220545,1656.8220545,1656.8220545,1,1.2574670000001333,1658.1022654,1658.1022654,1658.1022654,1658.1022654,1658.1022654,1658.1022654,1658.1022654,1658.1022654,None,None,None,,,,,,,,,,1646.0856638,1646.0856638,None,,1654.6039916,1656.8220545,1646.0856638,1646.0856638,,8,001,2024-07-24_14h05.50.871,robot_cogshifting_sign,2022.2.5,60.06056507381638,
"['red_left_Z_0', 'blue_top_W_0', 'blue_left_N_45', 'blue_left_X_0']","{'color': 'red_left_Z_0', 'position': 'blue_top_W_0', 'orientation': 'blue_left_N_45'}",position,"['color', 'position']",blue_top_W_0,1,2,letter,3,False,False,"['robot_stimuli\\\\filler.mp4', 'robot_stimuli\\\\filler.mp4', 'robot_stimuli\\\\filler.mp4', 'robot_stimuli\\\\filler.mp4']",robot_stimuli\\filler.mp4,8,,,,,,,,,,,,,0,70,70,70,,,,,,,,,,,,,,,,,,,1658.1022654,1660.1561258,,,1668.6547828,1668.6547828,1668.6547828,2,2.129679200000055,1670.8023487,1670.8023487,1670.8023487,1670.8023487,1670.8023487,1670.8023487,1670.8023487,1670.8023487,None,None,None,,,,,,,,,,1658.1022654,1658.1022654,None,,1666.6333531,1668.6547828,1658.1022654,1658.1022654,,8,001,2024-07-24_14h05.50.871,robot_cogshifting_sign,2022.2.5,60.06056507381638,
"['red_bottom_T_45', 'red_right_Q_0', 'red_bottom_X_0', 'blue_bottom_C_0']","{'color': 'blue_bottom_C_0', 'position': 'red_right_Q_0', 'orientation': 'red_bottom_T_45'}",color,"['color', 'position']",blue_bottom_C_0,3,2,letter,3,False,True,"['robot_stimuli\\\\filler.mp4', 'robot_stimuli\\\\filler.mp4', 'robot_stimuli\\\\filler.mp4', 'robot_stimuli\\\\filler.mp4']",robot_stimuli\\filler.mp4,8,,,,,,,,,,,,,0,71,71,71,,,,,,,,,,,,,,,,,,,1670.8023487,1672.8678461,,,1681.7349894,1681.7349894,1681.7349894,4,1.704173899999887,1683.505073,1686.7391839,1683.505073,1686.7391839,1683.505073,1686.7391839,1683.505073,1686.7391839,24.598765432098762,2.320433699999967,space,,,3.182723399999759,,,,,,,1670.8023487,1670.8023487,None,,1679.7134963,1681.7349894,1670.8023487,1670.8023487,,8,001,2024-07-24_14h05.50.871,robot_cogshifting_sign,2022.2.5,60.06056507381638,
"['blue_left_L_0', 'blue_top_F_0', 'blue_left_P_45', 'red_left_T_0']","{'color': 'red_left_T_0', 'position': 'blue_top_F_0', 'orientation': 'blue_left_P_45'}",position,"['color', 'orientation', 'position']",blue_top_F_0,1,3,letter,3,True,False,"['robot_stimuli\\\\filler.mp4', 'robot_stimuli\\\\filler.mp4', 'robot_stimuli\\\\filler.mp4', 'robot_stimuli\\\\filler.mp4']",robot_stimuli\\filler.mp4,8,,,,,,,,,,,,,0,72,72,72,,,,,,,,,,,,,,,,,,,1692.1190957,1694.1734156,,,1702.8423277,1702.8423277,1702.8423277,2,1.8615936999999576,1704.7360049,1704.7360049,1704.7360049,1704.7360049,1704.7360049,1704.7360049,1704.7360049,1704.7360049,None,None,None,,,,,,,,,,1686.7391839,1686.7391839,space,5.356866700000182,1700.824679,1702.8423277,,,,8,001,2024-07-24_14h05.50.871,robot_cogshifting_sign,2022.2.5,60.06056507381638,
"['red_right_P_0', 'red_bottom_Z_0', 'blue_bottom_D_0', 'red_bottom_W_45']","{'color': 'blue_bottom_D_0', 'position': 'red_right_P_0', 'orientation': 'red_bottom_W_45'}",orientation,"['color', 'orientation', 'position']",red_bottom_W_45,3,3,letter,3,False,False,"['robot_stimuli\\\\filler.mp4', 'robot_stimuli\\\\filler.mp4', 'robot_stimuli\\\\filler.mp4', 'robot_stimuli\\\\filler.mp4']",robot_stimuli\\filler.mp4,8,,,,,,,,,,,,,0,73,73,73,,,,,,,,,,,,,,,,,,,1704.7360049,1706.7902408,,,1715.2685456,1715.2685456,1715.2685456,3,2.1956645999998727,1717.4857704,1717.4857704,1717.4857704,1717.4857704,1717.4857704,1717.4857704,1717.4857704,1717.4857704,None,None,None,,,,,,,,,,1704.7360049,1704.7360049,None,,1713.2512059,1715.2685456,1704.7360049,1704.7360049,,8,001,2024-07-24_14h05.50.871,robot_cogshifting_sign,2022.2.5,60.06056507381638,
"['red_bottom_X_45', 'blue_bottom_P_45', 'blue_right_R_45', 'blue_bottom_P_0']","{'color': 'red_bottom_X_45', 'position': 'blue_right_R_45', 'orientation': 'blue_bottom_P_0'}",color,"['color', 'orientation', 'position']",red_bottom_X_45,0,3,letter,3,False,False,"['robot_stimuli\\\\filler.mp4', 'robot_stimuli\\\\filler.mp4', 'robot_stimuli\\\\filler.mp4', 'robot_stimuli\\\\filler.mp4']",robot_stimuli\\filler.mp4,8,,,,,,,,,,,,,0,74,74,74,,,,,,,,,,,,,,,,,,,1717.4857704,1719.5465276,,,1728.4246839,1728.4246839,1728.4246839,1,1.5600985999999466,1730.0025296,1730.0025296,1730.0025296,1730.0025296,1730.0025296,1730.0025296,1730.0025296,1730.0025296,None,None,None,,,,,,,,,,1717.4857704,1717.4857704,None,,1726.4029759,1728.4246839,1717.4857704,1717.4857704,,8,001,2024-07-24_14h05.50.871,robot_cogshifting_sign,2022.2.5,60.06056507381638,
"['red_left_M_0', 'blue_left_N_0', 'red_top_V_0', 'red_left_Z_45']","{'color': 'blue_left_N_0', 'position': 'red_top_V_0', 'orientation': 'red_left_Z_45'}",color,"['color', 'orientation', 'position']",blue_left_N_0,1,3,letter,3,False,False,"['robot_stimuli\\\\filler.mp4', 'robot_stimuli\\\\filler.mp4', 'robot_stimuli\\\\filler.mp4', 'robot_stimuli\\\\filler.mp4']",robot_stimuli\\filler.mp4,8,,,,,,,,,,,,,0,75,75,75,,,,,,,,,,,,,,,,,,,1730.0025296,1732.0565844,,,1741.1189901999999,1741.1189901999999,1741.1189901999999,2,1.0490191000001232,1742.1856126999999,1742.1856126999999,1742.1856126999999,1742.1856126999999,1742.1856126999999,1742.1856126999999,1742.1856126999999,1742.1856126999999,None,None,None,,,,,,,,,,1730.0025296,1730.0025296,None,,1738.908155,1741.1189901999999,1730.0025296,1730.0025296,,8,001,2024-07-24_14h05.50.871,robot_cogshifting_sign,2022.2.5,60.06056507381638,
"['blue_bottom_L_0', 'red_top_G_0', 'blue_top_K_45', 'blue_top_J_0']","{'color': 'red_top_G_0', 'position': 'blue_bottom_L_0', 'orientation': 'blue_top_K_45'}",orientation,"['color', 'orientation', 'position']",blue_top_K_45,2,3,letter,3,False,False,"['robot_stimuli\\\\filler.mp4', 'robot_stimuli\\\\filler.mp4', 'robot_stimuli\\\\filler.mp4', 'robot_stimuli\\\\filler.mp4']",robot_stimuli\\filler.mp4,8,,,,,,,,,,,,,0,76,76,76,,,,,,,,,,,,,,,,,,,1742.1856126999999,1744.2423932,,,1752.921345,1752.921345,1752.921345,3,1.8070625000002565,1754.7522872000002,1754.7522872000002,1754.7522872000002,1754.7522872000002,1754.7522872000002,1754.7522872000002,1754.7522872000002,1754.7522872000002,None,None,None,,,,,,,,,,1742.1856126999999,1742.1856126999999,None,,1750.8995216,1752.921345,1742.1856126999999,1742.1856126999999,,8,001,2024-07-24_14h05.50.871,robot_cogshifting_sign,2022.2.5,60.06056507381638,
"['blue_bottom_N_45', 'blue_right_Q_0', 'blue_bottom_W_0', 'red_bottom_J_0']","{'color': 'red_bottom_J_0', 'position': 'blue_right_Q_0', 'orientation': 'blue_bottom_N_45'}",orientation,"['color', 'orientation', 'position']",blue_bottom_N_45,0,3,letter,3,False,False,"['robot_stimuli\\\\filler.mp4', 'robot_stimuli\\\\filler.mp4', 'robot_stimuli\\\\filler.mp4', 'robot_stimuli\\\\filler.mp4']",robot_stimuli\\filler.mp4,8,,,,,,,,,,,,,0,77,77,77,,,,,,,,,,,,,,,,,,,1754.7522872000002,1756.8063438000001,,,1765.8770929,1765.8770929,1765.8770929,2,1.7381776999998237,1767.635539,1767.635539,1767.635539,1767.635539,1767.635539,1767.635539,1767.635539,1767.635539,None,None,None,,,,,,,,,,1754.7522872000002,1754.7522872000002,None,,1763.6592641,1765.8770929,1754.7522872000002,1754.7522872000002,,8,001,2024-07-24_14h05.50.871,robot_cogshifting_sign,2022.2.5,60.06056507381638,
"['red_left_J_0', 'blue_right_C_0', 'red_right_R_0', 'red_right_K_45']","{'color': 'blue_right_C_0', 'position': 'red_left_J_0', 'orientation': 'red_right_K_45'}",color,"['color', 'orientation', 'position']",blue_right_C_0,1,3,letter,3,False,False,"['robot_stimuli\\\\filler.mp4', 'robot_stimuli\\\\filler.mp4', 'robot_stimuli\\\\filler.mp4', 'robot_stimuli\\\\filler.mp4']",robot_stimuli\\filler.mp4,8,,,,,,,,,,,,,0,78,78,78,,,,,,,,,,,,,,,,,,,1767.635539,1769.6881872000001,,,1778.3608941,1778.3608941,1778.3608941,2,1.8794707999998082,1780.2692405999999,1780.2692405999999,1780.2692405999999,1780.2692405999999,1780.2692405999999,1780.2692405999999,1780.2692405999999,1780.2692405999999,None,None,None,,,,,,,,,,1767.635539,1767.635539,None,,1776.1419537,1778.3608941,1767.635539,1767.635539,,8,001,2024-07-24_14h05.50.871,robot_cogshifting_sign,2022.2.5,60.06056507381638,
"['blue_bottom_Q_45', 'red_bottom_X_0', 'blue_bottom_K_0', 'blue_top_J_0']","{'color': 'red_bottom_X_0', 'position': 'blue_top_J_0', 'orientation': 'blue_bottom_Q_45'}",position,"['color', 'orientation', 'position']",blue_top_J_0,3,3,letter,3,False,False,"['robot_stimuli\\\\filler.mp4', 'robot_stimuli\\\\filler.mp4', 'robot_stimuli\\\\filler.mp4', 'robot_stimuli\\\\filler.mp4']",robot_stimuli\\filler.mp4,8,,,,,,,,,,,,,0,79,79,79,,,,,,,,,,,,,,,,,,,1780.2692405999999,1782.3271281,,,1791.0021534999998,1791.0021534999998,1791.0021534999998,4,2.197848500000191,1793.219026,1793.219026,1793.219026,1793.219026,1793.219026,1793.219026,1793.219026,1793.219026,None,None,None,,,,,,,,,,1780.2692405999999,1780.2692405999999,None,,1788.9855644000002,1791.0021534999998,1780.2692405999999,1780.2692405999999,,8,001,2024-07-24_14h05.50.871,robot_cogshifting_sign,2022.2.5,60.06056507381638,
"['blue_top_W_0', 'red_bottom_N_0', 'red_top_G_45', 'red_top_Z_0']","{'color': 'blue_top_W_0', 'position': 'red_bottom_N_0', 'orientation': 'red_top_G_45'}",position,"['color', 'orientation', 'position']",red_bottom_N_0,1,3,letter,3,False,True,"['robot_stimuli\\\\filler.mp4', 'robot_stimuli\\\\filler.mp4', 'robot_stimuli\\\\filler.mp4', 'robot_stimuli\\\\filler.mp4']",robot_stimuli\\filler.mp4,8,,,,,,,,,,,,,0,80,80,80,,,,,,,,,,,,,,,,,,,1793.219026,1795.2819283000001,,,1804.1600557999998,1804.1600557999998,1804.1600557999998,2,2.335774899999933,1806.5442664999998,1812.4176156,1806.5442664999998,1812.4176156,1806.5442664999998,1812.4176156,1806.5442664999998,1812.4176156,40.339506172839506,5.150936600000023,space,,,5.8306286999998065,,,,,,,1793.219026,1793.219026,None,,1802.1471484,1804.1600557999998,1793.219026,1793.219026,,8,001,2024-07-24_14h05.50.871,robot_cogshifting_sign,2022.2.5,60.06056507381638,
"['L_Arm_X_For', 'L_Base_X_For', 'L_Base_Y_For', 'R_Base_X_Back']","{'laterality': 'R_Base_X_Back', 'localisation': 'L_Arm_X_For', 'movement': 'L_Base_Y_For'}",laterality,['laterality'],R_Base_X_Back,3,1,robot,4,True,False,"['robot_stimuli\\L_Arm_X_For.mp4', 'robot_stimuli\\L_Base_X_For.mp4', 'robot_stimuli\\L_Base_Y_For.mp4', 'robot_stimuli\\R_Base_X_Back.mp4']",robot_stimuli\R_Base_X_Back.mp4,8,,,,,,,,,,,,,0,81,81,81,,,,,,,,,,,,,,,,,,,1822.7190795999998,1824.8071306,,,1839.4449253999999,1839.4449253999999,1839.4449253999999,4,0.34750770000005105,1839.8192618,1839.8192618,1839.8192618,1839.8192618,1839.8192618,1839.8192618,1839.8192618,1839.8192618,None,None,None,,,,,,,,,,1812.4176156,1812.4176156,space,10.278083899999956,,,,,1835.8083645999998,8,001,2024-07-24_14h05.50.871,robot_cogshifting_sign,2022.2.5,60.06056507381638,
"['R_Base_Y_Back', 'R_Head_Y_For', 'R_Base_Z_Back', 'L_Base_Y_Back']","{'laterality': 'L_Base_Y_Back', 'localisation': 'R_Head_Y_For', 'movement': 'R_Base_Z_Back'}",movement,['movement'],R_Base_Z_Back,2,1,robot,4,False,False,"['robot_stimuli\\R_Base_Y_Back.mp4', 'robot_stimuli\\R_Head_Y_For.mp4', 'robot_stimuli\\R_Base_Z_Back.mp4', 'robot_stimuli\\L_Base_Y_Back.mp4']",robot_stimuli\R_Base_Z_Back.mp4,8,,,,,,,,,,,,,0,82,82,82,,,,,,,,,,,,,,,,,,,1839.8192618,1841.8946214999999,,,1856.5612503999998,1856.5612503999998,1856.5612503999998,3,0.46293479999962983,1857.0523766,1857.0523766,1857.0523766,1857.0523766,1857.0523766,1857.0523766,1857.0523766,1857.0523766,None,None,None,,,,,,,,,,1839.8192618,1839.8192618,None,,,,1839.8192618,1839.8192618,1852.9808268,8,001,2024-07-24_14h05.50.871,robot_cogshifting_sign,2022.2.5,60.06056507381638,
"['R_Head_X_For', 'R_Base_Z_Back', 'L_Head_Z_Back', 'R_Head_Z_Back']","{'laterality': 'L_Head_Z_Back', 'localisation': 'R_Base_Z_Back', 'movement': 'R_Head_X_For'}",movement,['movement'],R_Head_X_For,0,1,robot,4,False,False,"['robot_stimuli\\R_Head_X_For.mp4', 'robot_stimuli\\R_Base_Z_Back.mp4', 'robot_stimuli\\L_Head_Z_Back.mp4', 'robot_stimuli\\R_Head_Z_Back.mp4']",robot_stimuli\R_Head_X_For.mp4,8,,,,,,,,,,,,,0,83,83,83,,,,,,,,,,,,,,,,,,,1857.0523766,1859.1235229000001,,,1873.9063133000002,1873.9063133000002,1873.9063133000002,1,1.1982086000000436,1875.1357292999999,1875.1357292999999,1875.1357292999999,1875.1357292999999,1875.1357292999999,1875.1357292999999,1875.1357292999999,1875.1357292999999,None,None,None,,,,,,,,,,1857.0523766,1857.0523766,None,,,,1857.0523766,1857.0523766,1870.2632846999998,8,001,2024-07-24_14h05.50.871,robot_cogshifting_sign,2022.2.5,60.06056507381638,
"['R_Head_X_Back', 'L_Base_X_For', 'L_Head_Y_Back', 'L_Head_X_For']","{'laterality': 'R_Head_X_Back', 'localisation': 'L_Base_X_For', 'movement': 'L_Head_Y_Back'}",movement,['movement'],L_Head_Y_Back,2,1,robot,4,False,False,"['robot_stimuli\\R_Head_X_Back.mp4', 'robot_stimuli\\L_Base_X_For.mp4', 'robot_stimuli\\L_Head_Y_Back.mp4', 'robot_stimuli\\L_Head_X_For.mp4']",robot_stimuli\L_Head_Y_Back.mp4,8,,,,,,,,,,,,,0,84,84,84,,,,,,,,,,,,,,,,,,,1875.1357292999999,1877.2072203,,,1891.8758658999998,1891.8758658999998,1891.8758658999998,3,1.8523335000002135,1893.7523972000001,1893.7523972000001,1893.7523972000001,1893.7523972000001,1893.7523972000001,1893.7523972000001,1893.7523972000001,1893.7523972000001,None,None,None,,,,,,,,,,1875.1357292999999,1875.1357292999999,None,,,,1875.1357292999999,1875.1357292999999,1888.3064148,8,001,2024-07-24_14h05.50.871,robot_cogshifting_sign,2022.2.5,60.06056507381638,
"['L_Arm_Z_Back', 'L_Head_X_For', 'L_Head_Z_For', 'R_Head_Z_Back']","{'laterality': 'R_Head_Z_Back', 'localisation': 'L_Arm_Z_Back', 'movement': 'L_Head_X_For'}",localisation,['localisation'],L_Arm_Z_Back,0,1,robot,4,False,False,"['robot_stimuli\\L_Arm_Z_Back.mp4', 'robot_stimuli\\L_Head_X_For.mp4', 'robot_stimuli\\L_Head_Z_For.mp4', 'robot_stimuli\\R_Head_Z_Back.mp4']",robot_stimuli\L_Arm_Z_Back.mp4,8,,,,,,,,,,,,,0,85,85,85,,,,,,,,,,,,,,,,,,,1893.7523972000001,1895.8269437000001,,,1910.563077,1910.563077,1910.563077,1,1.0453384999998434,1911.6357297000002,1911.6357297000002,1911.6357297000002,1911.6357297000002,1911.6357297000002,1911.6357297000002,1911.6357297000002,1911.6357297000002,None,None,None,,,,,,,,,,1893.7523972000001,1893.7523972000001,None,,,,1893.7523972000001,1893.7523972000001,1906.9235123,8,001,2024-07-24_14h05.50.871,robot_cogshifting_sign,2022.2.5,60.06056507381638,
"['L_Base_X_Back', 'L_Base_Y_Back', 'R_Base_X_Back', 'L_Torso_X_For']","{'laterality': 'R_Base_X_Back', 'localisation': 'L_Torso_X_For', 'movement': 'L_Base_Y_Back'}",localisation,['localisation'],L_Torso_X_For,3,1,robot,4,False,False,"['robot_stimuli\\L_Base_X_Back.mp4', 'robot_stimuli\\L_Base_Y_Back.mp4', 'robot_stimuli\\R_Base_X_Back.mp4', 'robot_stimuli\\L_Torso_X_For.mp4']",robot_stimuli\L_Torso_X_For.mp4,8,,,,,,,,,,,,,0,86,86,86,,,,,,,,,,,,,,,,,,,1911.6357297000002,1913.7063669000001,,,1928.4253127999998,1928.4253127999998,1928.4253127999998,2,1.287462899999582,1929.7356487,1929.7356487,1929.7356487,1929.7356487,1929.7356487,1929.7356487,1929.7356487,1929.7356487,None,None,None,,,,,,,,,,1911.6357297000002,1911.6357297000002,None,,,,1911.6357297000002,1911.6357297000002,1924.7813896,8,001,2024-07-24_14h05.50.871,robot_cogshifting_sign,2022.2.5,60.06056507381638,
"['R_Torso_Z_Back', 'L_Torso_Y_For', 'L_Torso_Z_For', 'L_Head_Z_For']","{'laterality': 'R_Torso_Z_Back', 'localisation': 'L_Head_Z_For', 'movement': 'L_Torso_Y_For'}",localisation,['localisation'],L_Head_Z_For,3,1,robot,4,False,False,"['robot_stimuli\\R_Torso_Z_Back.mp4', 'robot_stimuli\\L_Torso_Y_For.mp4', 'robot_stimuli\\L_Torso_Z_For.mp4', 'robot_stimuli\\L_Head_Z_For.mp4']",robot_stimuli\L_Head_Z_For.mp4,8,,,,,,,,,,,,,0,87,87,87,,,,,,,,,,,,,,,,,,,1929.7356487,1931.8052163999998,,,1946.6087983999998,1946.6087983999998,1946.6087983999998,4,1.0716138000000228,1947.7023898,1947.7023898,1947.7023898,1947.7023898,1947.7023898,1947.7023898,1947.7023898,1947.7023898,None,None,None,,,,,,,,,,1929.7356487,1929.7356487,None,,,,1929.7356487,1929.7356487,1942.9770981999998,8,001,2024-07-24_14h05.50.871,robot_cogshifting_sign,2022.2.5,60.06056507381638,
"['L_Base_Y_Back', 'L_Base_X_For', 'R_Base_X_Back', 'L_Torso_X_Back']","{'laterality': 'R_Base_X_Back', 'localisation': 'L_Torso_X_Back', 'movement': 'L_Base_Y_Back'}",laterality,['laterality'],R_Base_X_Back,2,1,robot,4,False,False,"['robot_stimuli\\L_Base_Y_Back.mp4', 'robot_stimuli\\L_Base_X_For.mp4', 'robot_stimuli\\R_Base_X_Back.mp4', 'robot_stimuli\\L_Torso_X_Back.mp4']",robot_stimuli\R_Base_X_Back.mp4,8,,,,,,,,,,,,,0,88,88,88,,,,,,,,,,,,,,,,,,,1947.7023898,1949.7734435999998,,,1964.4387402999998,1964.4387402999998,1964.4387402999998,3,0.4962505000000874,1964.9523054,1964.9523054,1964.9523054,1964.9523054,1964.9523054,1964.9523054,1964.9523054,1964.9523054,None,None,None,,,,,,,,,,1947.7023898,1947.7023898,None,,,,1947.7023898,1947.7023898,1960.8125011999998,8,001,2024-07-24_14h05.50.871,robot_cogshifting_sign,2022.2.5,60.06056507381638,
"['R_Torso_X_Back', 'L_Arm_X_Back', 'L_Torso_Z_Back', 'L_Torso_X_Back']","{'laterality': 'R_Torso_X_Back', 'localisation': 'L_Arm_X_Back', 'movement': 'L_Torso_Z_Back'}",laterality,['laterality'],R_Torso_X_Back,0,1,robot,4,False,True,"['robot_stimuli\\R_Torso_X_Back.mp4', 'robot_stimuli\\L_Arm_X_Back.mp4', 'robot_stimuli\\L_Torso_Z_Back.mp4', 'robot_stimuli\\L_Torso_X_Back.mp4']",robot_stimuli\R_Torso_X_Back.mp4,8,,,,,,,,,,,,,0,89,89,89,,,,,,,,,,,,,,,,,,,1964.9523054,1967.0280796999998,,,1981.7056181,1981.7056181,1981.7056181,1,0.4070878999998513,1982.160454,1988.2999732,1982.160454,1988.2999732,1982.160454,1988.2999732,1982.160454,1988.2999732,30.46296296296296,4.963609899999938,space,,,6.0787715999997545,,,,,,,1964.9523054,1964.9523054,None,,,,1964.9523054,1964.9523054,1978.063461,8,001,2024-07-24_14h05.50.871,robot_cogshifting_sign,2022.2.5,60.06056507381638,
"['L_Torso_Z_For', 'L_Base_X_Back', 'L_Base_Z_Back', 'R_Base_Z_For']","{'laterality': 'R_Base_Z_For', 'localisation': 'L_Torso_Z_For', 'movement': 'L_Base_X_Back'}",laterality,"['laterality', 'localisation', 'movement']",R_Base_Z_For,3,3,robot,4,True,False,"['robot_stimuli\\L_Torso_Z_For.mp4', 'robot_stimuli\\L_Base_X_Back.mp4', 'robot_stimuli\\L_Base_Z_Back.mp4', 'robot_stimuli\\R_Base_Z_For.mp4']",robot_stimuli\R_Base_Z_For.mp4,8,,,,,,,,,,,,,0,90,90,90,,,,,,,,,,,,,,,,,,,1994.2524807000002,1996.3259704,,,2011.0713469,2011.0713469,2011.0713469,4,1.999897899999496,2013.1025269999998,2013.1025269999998,2013.1025269999998,2013.1025269999998,2013.1025269999998,2013.1025269999998,2013.1025269999998,2013.1025269999998,None,None,None,,,,,,,,,,1988.2999732,1988.2999732,space,5.930826000000025,,,,,2007.4347538999998,8,001,2024-07-24_14h05.50.871,robot_cogshifting_sign,2022.2.5,60.06056507381638,
"['L_Head_Z_Back', 'L_Head_Y_Back', 'L_Torso_Y_Back', 'R_Head_Y_Back']","{'laterality': 'R_Head_Y_Back', 'localisation': 'L_Torso_Y_Back', 'movement': 'L_Head_Z_Back'}",movement,"['laterality', 'localisation', 'movement']",L_Head_Z_Back,0,3,robot,4,False,False,"['robot_stimuli\\L_Head_Z_Back.mp4', 'robot_stimuli\\L_Head_Y_Back.mp4', 'robot_stimuli\\L_Torso_Y_Back.mp4', 'robot_stimuli\\R_Head_Y_Back.mp4']",robot_stimuli\L_Head_Z_Back.mp4,8,,,,,,,,,,,,,0,91,91,91,,,,,,,,,,,,,,,,,,,2013.1025269999998,2015.17604,,,2029.8239492,2029.8239492,2029.8239492,4,5.895953099999815,2035.7525437000002,2035.7525437000002,2035.7525437000002,2035.7525437000002,2035.7525437000002,2035.7525437000002,2035.7525437000002,2035.7525437000002,None,None,None,,,,,,,,,,2013.1025269999998,2013.1025269999998,None,,,,2013.1025269999998,2013.1025269999998,2026.1902865,8,001,2024-07-24_14h05.50.871,robot_cogshifting_sign,2022.2.5,60.06056507381638,
"['R_Base_Z_Back', 'L_Arm_Z_Back', 'R_Arm_Z_Back', 'R_Arm_Y_For']","{'laterality': 'L_Arm_Z_Back', 'localisation': 'R_Base_Z_Back', 'movement': 'R_Arm_Y_For'}",localisation,"['laterality', 'localisation', 'movement']",R_Base_Z_Back,0,3,robot,4,False,False,"['robot_stimuli\\R_Base_Z_Back.mp4', 'robot_stimuli\\L_Arm_Z_Back.mp4', 'robot_stimuli\\R_Arm_Z_Back.mp4', 'robot_stimuli\\R_Arm_Y_For.mp4']",robot_stimuli\R_Base_Z_Back.mp4,8,,,,,,,,,,,,,0,92,92,92,,,,,,,,,,,,,,,,,,,2035.7525437000002,2037.8282471,,,2052.3792956999996,2052.3792956999996,2052.3792956999996,4,3.555896200000234,2055.9522951999998,2055.9522951999998,2055.9522951999998,2055.9522951999998,2055.9522951999998,2055.9522951999998,2055.9522951999998,2055.9522951999998,None,None,None,,,,,,,,,,2035.7525437000002,2035.7525437000002,None,,,,2035.7525437000002,2035.7525437000002,2048.8772000999998,8,001,2024-07-24_14h05.50.871,robot_cogshifting_sign,2022.2.5,60.06056507381638,
"['R_Head_X_Back', 'L_Head_Y_For', 'R_Arm_Y_Back', 'R_Head_Y_Back']","{'laterality': 'L_Head_Y_For', 'localisation': 'R_Arm_Y_Back', 'movement': 'R_Head_X_Back'}",laterality,"['laterality', 'localisation', 'movement']",L_Head_Y_For,1,3,robot,4,False,False,"['robot_stimuli\\R_Head_X_Back.mp4', 'robot_stimuli\\L_Head_Y_For.mp4', 'robot_stimuli\\R_Arm_Y_Back.mp4', 'robot_stimuli\\R_Head_Y_Back.mp4']",robot_stimuli\L_Head_Y_For.mp4,8,,,,,,,,,,,,,0,93,93,93,,,,,,,,,,,,,,,,,,,2055.9522951999998,2058.0268297000002,,,2072.8420807,2072.8420807,2072.8420807,3,2.4285443999999643,2075.3023829000003,2075.3023829000003,2075.3023829000003,2075.3023829000003,2075.3023829000003,2075.3023829000003,2075.3023829000003,2075.3023829000003,None,None,None,,,,,,,,,,2055.9522951999998,2055.9522951999998,None,,,,2055.9522951999998,2055.9522951999998,2069.1971348999996,8,001,2024-07-24_14h05.50.871,robot_cogshifting_sign,2022.2.5,60.06056507381638,
"['L_Head_X_For', 'R_Head_Z_For', 'R_Head_X_For', 'R_Base_X_Back']","{'laterality': 'L_Head_X_For', 'localisation': 'R_Base_X_Back', 'movement': 'R_Head_Z_For'}",movement,"['laterality', 'localisation', 'movement']",R_Head_Z_For,1,3,robot,4,False,False,"['robot_stimuli\\L_Head_X_For.mp4', 'robot_stimuli\\R_Head_Z_For.mp4', 'robot_stimuli\\R_Head_X_For.mp4', 'robot_stimuli\\R_Base_X_Back.mp4']",robot_stimuli\R_Head_Z_For.mp4,8,,,,,,,,,,,,,0,94,94,94,,,,,,,,,,,,,,,,,,,2075.3023829000003,2077.3743033,,,2092.1084898,2092.1084898,2092.1084898,3,9.363907700000027,2101.5022652,2101.5022652,2101.5022652,2101.5022652,2101.5022652,2101.5022652,2101.5022652,2101.5022652,None,None,None,,,,,,,,,,2075.3023829000003,2075.3023829000003,None,,,,2075.3023829000003,2075.3023829000003,2088.4713401999998,8,001,2024-07-24_14h05.50.871,robot_cogshifting_sign,2022.2.5,60.06056507381638,
