sequence,odd_ones,parameter,choices,target,target_idx,condition,stimuli,block,is_block_beginning,is_block_ending,sequence_fnames,target_fname,subject,retraining.thisRepN,retraining.thisTrialN,retraining.thisN,retraining.thisIndex,training.thisRepN,training.thisTrialN,training.thisN,training.thisIndex,training_sequence_loop.thisRepN,training_sequence_loop.thisTrialN,training_sequence_loop.thisN,training_sequence_loop.thisIndex,trials.thisRepN,trials.thisTrialN,trials.thisN,trials.thisIndex,sequence_loop.thisRepN,sequence_loop.thisTrialN,sequence_loop.thisN,sequence_loop.thisIndex,langage_text.started,langage_key.started,langage_key.keys,langage_key.rt,intro_text.started,intro_key.started,intro_key.keys,intro_key.rt,training_intro_text.started,training_intro_key.started,training_intro_key.keys,training_intro_key.rt,polygon.started,polygon.stopped,cue_before_text.started,cue_before_text.stopped,training_presentation_letter.started,training_presentation_letter.stopped,recall_key.started,recall_question.started,recall_answer.started,recall_key.keys,recall_key.rt,RSME_labels.started,RSME_labels.stopped,RSME_ticks.started,RSME_ticks.stopped,RSME_text.started,RSME_text.stopped,RSME_key.started,RSME_key.stopped,RSME_ticks.response,RSME_ticks.rt,RSME_key.keys,training_intro_text.stopped,training_intro_key.stopped,RSME_key.rt,training_presentation_movie.started,experiment_beginning_text.started,experiment_beginning_keys.started,experiment_beginning_key.started,experiment_beginning_key.keys,experiment_beginning_key.rt,block_intro_text.started,block_intro_key.started,block_intro_key.keys,block_intro_key.rt,presentation_movie.started,block_intro_text.stopped,block_intro_key.stopped,presentation_letter.started,presentation_letter.stopped,participant,session,date,expName,psychopyVersion,frameRate,
,,,,,,,,,,,,,,,,,,,,,,,,,,,,,,,,,,100.74966350000005,100.74966350000005,f,133.9271257000001,,,,,,,,,,,,,,,,,,,,,,,,,,,,,,,,,,,,,,,,,,,,,,,,,3,001,2024-07-10_14h00.52.801,robot_cogshifting_sign,2022.2.5,59.924303619692495,
,,,,,,,,,,,,,,,,,,,,,,,,,,,,,,,,,,,,,,234.73970630000002,234.73970630000002,space,137.66485189999997,,,,,,,,,,,,,,,,,,,,,,,,,,,,,,,,,,,,,,,,,,,,,3,001,2024-07-10_14h00.52.801,robot_cogshifting_sign,2022.2.5,59.924303619692495,
"['red_right_K_45', 'red_right_L_0', 'blue_right_F_45', 'red_top_X_45']","{'color': 'blue_right_F_45', 'position': 'red_top_X_45', 'orientation': 'red_right_L_0'}",orientation,['orientation'],red_right_L_0,1,1,letter,2,True,False,"['robot_stimuli\\\\filler.mp4', 'robot_stimuli\\\\filler.mp4', 'robot_stimuli\\\\filler.mp4', 'robot_stimuli\\\\filler.mp4']",robot_stimuli\\filler.mp4,3,0,0,0,0,0,0,0,0,,,,,,,,,,,,,,,,,,,,,372.4547322,372.4547322,space,2.886160500000017,375.3692253,376.36920890000005,376.36920890000005,378.8631509,385.5765984,387.61560849999995,387.61560849999995,387.61560849999995,387.61560849999995,2,2.8848240000000374,390.6136038,390.6136038,390.6136038,390.6136038,390.6136038,390.6136038,390.6136038,390.6136038,None,None,None,,,,,,,,,,,,,,,,,,,3,001,2024-07-10_14h00.52.801,robot_cogshifting_sign,2022.2.5,59.924303619692495,
"['red_left_W_45', 'blue_left_F_45', 'blue_right_G_45', 'blue_left_M_0']","{'color': 'red_left_W_45', 'position': 'blue_right_G_45', 'orientation': 'blue_left_M_0'}",position,['position'],blue_right_G_45,2,1,letter,2,False,False,"['robot_stimuli\\\\filler.mp4', 'robot_stimuli\\\\filler.mp4', 'robot_stimuli\\\\filler.mp4', 'robot_stimuli\\\\filler.mp4']",robot_stimuli\\filler.mp4,3,0,0,0,0,0,1,1,1,,,,,,,,,,,,,,,,,,,,,390.6136038,390.6136038,None,,390.6136038,,391.6192861,,400.41070510000003,402.43189720000004,402.43189720000004,402.43189720000004,402.43189720000004,3,0.48485140000008187,402.9360268,402.9360268,402.9360268,402.9360268,402.9360268,402.9360268,402.9360268,402.9360268,None,None,None,390.6136038,390.6136038,,,,,,,,,,,,,,,,,3,001,2024-07-10_14h00.52.801,robot_cogshifting_sign,2022.2.5,59.924303619692495,
"['blue_right_N_45', 'red_top_Z_45', 'red_right_Z_0', 'red_right_K_45']","{'color': 'blue_right_N_45', 'position': 'red_top_Z_45', 'orientation': 'red_right_Z_0'}",color,['color'],blue_right_N_45,0,1,letter,2,False,True,"['robot_stimuli\\\\filler.mp4', 'robot_stimuli\\\\filler.mp4', 'robot_stimuli\\\\filler.mp4', 'robot_stimuli\\\\filler.mp4']",robot_stimuli\\filler.mp4,3,0,0,0,0,0,2,2,2,,,,,,,,,,,,,,,,,,,,,402.9360268,402.9360268,None,,402.9360268,403.93596499999995,403.93596499999995,406.0096719,412.52014620000006,414.5485515,414.5485515,414.5485515,414.5485515,1,3.087896599999965,417.70922820000004,424.98363680000006,417.70922820000004,424.98363680000006,417.70922820000004,424.98363680000006,417.70922820000004,424.98363680000006,9.938271604938265,5.418607700000052,space,402.9360268,402.9360268,7.1989884999999845,,,,,,,,,,,,,,,,3,001,2024-07-10_14h00.52.801,robot_cogshifting_sign,2022.2.5,59.924303619692495,
"['red_left_L_0', 'red_right_C_0', 'blue_left_M_0', 'red_left_V_45']","{'color': 'blue_left_M_0', 'position': 'red_right_C_0', 'orientation': 'red_left_V_45'}",orientation,"['orientation', 'position']",red_left_V_45,3,2,letter,2,True,False,"['robot_stimuli\\\\filler.mp4', 'robot_stimuli\\\\filler.mp4', 'robot_stimuli\\\\filler.mp4', 'robot_stimuli\\\\filler.mp4']",robot_stimuli\\filler.mp4,3,0,0,0,0,0,3,3,3,,,,,,,,,,,,,,,,,,,,,424.98363680000006,424.98363680000006,space,2.7255498000000102,427.73594870000005,428.7358265,428.7358265,430.8063603,437.3197134,439.34576080000005,439.34576080000005,439.34576080000005,439.34576080000005,4,3.40224070000005,442.7692874,442.7692874,442.7692874,442.7692874,442.7692874,442.7692874,442.7692874,442.7692874,None,None,None,,,,,,,,,,,,,,,,,,,3,001,2024-07-10_14h00.52.801,robot_cogshifting_sign,2022.2.5,59.924303619692495,
"['blue_left_M_0', 'blue_left_H_45', 'red_left_T_0', 'blue_bottom_G_0']","{'color': 'red_left_T_0', 'position': 'blue_bottom_G_0', 'orientation': 'blue_left_H_45'}",position,"['orientation', 'position']",blue_bottom_G_0,3,2,letter,2,False,False,"['robot_stimuli\\\\filler.mp4', 'robot_stimuli\\\\filler.mp4', 'robot_stimuli\\\\filler.mp4', 'robot_stimuli\\\\filler.mp4']",robot_stimuli\\filler.mp4,3,0,0,0,0,0,4,4,4,,,,,,,,,,,,,,,,,,,,,442.7692874,442.7692874,None,,442.7692874,443.76932960000005,443.76932960000005,445.84455140000006,452.153117,454.17697419999996,454.17697419999996,454.17697419999996,454.17697419999996,4,1.8510193000000186,456.0527398,456.0527398,456.0527398,456.0527398,456.0527398,456.0527398,456.0527398,456.0527398,None,None,None,442.7692874,442.7692874,,,,,,,,,,,,,,,,,3,001,2024-07-10_14h00.52.801,robot_cogshifting_sign,2022.2.5,59.924303619692495,
"['red_right_F_0', 'red_left_M_0', 'red_left_X_45', 'blue_left_X_0']","{'color': 'blue_left_X_0', 'position': 'red_right_F_0', 'orientation': 'red_left_X_45'}",color,"['color', 'position']",blue_left_X_0,3,2,letter,2,False,True,"['robot_stimuli\\\\filler.mp4', 'robot_stimuli\\\\filler.mp4', 'robot_stimuli\\\\filler.mp4', 'robot_stimuli\\\\filler.mp4']",robot_stimuli\\filler.mp4,3,0,0,0,0,0,5,5,5,,,,,,,,,,,,,,,,,,,,,456.0527398,456.0527398,None,,456.0527398,457.05267069999996,457.05267069999996,459.12833900000004,465.84229050000005,467.86398890000004,467.86398890000004,467.86398890000004,467.86398890000004,4,2.1975183999999786,470.1103394,478.0051041,470.1103394,478.0051041,470.1103394,478.0051041,470.1103394,478.0051041,25.216049382716037,6.552042799999981,space,456.0527398,456.0527398,7.837461699999892,,,,,,,,,,,,,,,,3,001,2024-07-10_14h00.52.801,robot_cogshifting_sign,2022.2.5,59.924303619692495,
"['blue_top_X_0', 'blue_bottom_C_0', 'blue_bottom_X_45', 'red_bottom_N_0']","{'color': 'red_bottom_N_0', 'position': 'blue_top_X_0', 'orientation': 'blue_bottom_X_45'}",orientation,"['color', 'orientation', 'position']",blue_bottom_X_45,2,3,letter,2,True,False,"['robot_stimuli\\\\filler.mp4', 'robot_stimuli\\\\filler.mp4', 'robot_stimuli\\\\filler.mp4', 'robot_stimuli\\\\filler.mp4']",robot_stimuli\\filler.mp4,3,0,0,0,0,0,6,6,6,,,,,,,,,,,,,,,,,,,,,478.0051041,478.0051041,space,1.3433835000000158,479.36937340000003,480.36946170000004,480.36946170000004,482.43970199999995,488.96052390000006,491.1766863,491.1766863,491.1766863,491.1766863,3,5.532400699999982,496.7360388,496.7360388,496.7360388,496.7360388,496.7360388,496.7360388,496.7360388,496.7360388,None,None,None,,,,,,,,,,,,,,,,,,,3,001,2024-07-10_14h00.52.801,robot_cogshifting_sign,2022.2.5,59.924303619692495,
"['red_right_S_0', 'blue_left_F_0', 'red_left_K_45', 'red_left_T_0']","{'color': 'blue_left_F_0', 'position': 'red_right_S_0', 'orientation': 'red_left_K_45'}",color,"['color', 'orientation', 'position']",blue_left_F_0,1,3,letter,2,False,False,"['robot_stimuli\\\\filler.mp4', 'robot_stimuli\\\\filler.mp4', 'robot_stimuli\\\\filler.mp4', 'robot_stimuli\\\\filler.mp4']",robot_stimuli\\filler.mp4,3,0,0,0,0,0,7,7,7,,,,,,,,,,,,,,,,,,,,,496.7360388,496.7360388,None,,496.7360388,497.73605790000005,497.73605790000005,499.8126756,506.32999780000006,508.3470229,508.3470229,508.3470229,508.3470229,2,11.914254099999937,520.286402,520.286402,520.286402,520.286402,520.286402,520.286402,520.286402,520.286402,None,None,None,496.7360388,496.7360388,,,,,,,,,,,,,,,,,3,001,2024-07-10_14h00.52.801,robot_cogshifting_sign,2022.2.5,59.924303619692495,
"['blue_bottom_F_0', 'blue_bottom_W_45', 'red_bottom_T_0', 'blue_top_R_0']","{'color': 'red_bottom_T_0', 'position': 'blue_top_R_0', 'orientation': 'blue_bottom_W_45'}",position,"['color', 'orientation', 'position']",blue_top_R_0,3,3,letter,2,False,True,"['robot_stimuli\\\\filler.mp4', 'robot_stimuli\\\\filler.mp4', 'robot_stimuli\\\\filler.mp4', 'robot_stimuli\\\\filler.mp4']",robot_stimuli\\filler.mp4,3,0,0,0,0,0,8,8,8,,,,,,,,,,,,,,,,,,,,,520.286402,520.286402,None,,520.286402,521.2861075999999,521.2861075999999,523.3596852000001,529.8628977999999,532.0705379000001,532.0705379000001,532.0705379000001,532.0705379000001,4,1.318969299999992,533.4446092999999,539.2204379,533.4446092999999,539.2204379,533.4446092999999,539.2204379,533.4446092999999,539.2204379,37.098765432098766,3.1439302999999654,space,520.286402,520.286402,5.703309199999978,,,,,,,,,,,,,,,,3,001,2024-07-10_14h00.52.801,robot_cogshifting_sign,2022.2.5,59.924303619692495,
"['R_Torso_Z_Back', 'R_Torso_Y_For', 'L_Torso_Z_Back', 'R_Head_Z_Back']","{'laterality': 'L_Torso_Z_Back', 'localisation': 'R_Head_Z_Back', 'movement': 'R_Torso_Y_For'}",localisation,['localisation'],R_Head_Z_Back,3,1,robot,1,True,False,"['robot_stimuli\\R_Torso_Z_Back.mp4', 'robot_stimuli\\R_Torso_Y_For.mp4', 'robot_stimuli\\L_Torso_Z_Back.mp4', 'robot_stimuli\\R_Head_Z_Back.mp4']",robot_stimuli\R_Head_Z_Back.mp4,3,0,0,0,0,0,9,9,9,,,,,,,,,,,,,,,,,,,,,539.2204379,539.2204379,space,0.7203141000000528,539.9694475000001,540.9692749999999,540.9692749999999,543.0708353,,,557.8001024,557.8001024,557.8001024,4,0.7414395999999783,558.5694948,558.5694948,558.5694948,558.5694948,558.5694948,558.5694948,558.5694948,558.5694948,None,None,None,,,,554.1625767,,,,,,,,,,,,,,,3,001,2024-07-10_14h00.52.801,robot_cogshifting_sign,2022.2.5,59.924303619692495,
"['R_Base_Y_For', 'R_Arm_Z_For', 'L_Arm_Y_For', 'R_Arm_Y_For']","{'laterality': 'L_Arm_Y_For', 'localisation': 'R_Base_Y_For', 'movement': 'R_Arm_Z_For'}",movement,['movement'],R_Arm_Z_For,1,1,robot,1,False,False,"['robot_stimuli\\R_Base_Y_For.mp4', 'robot_stimuli\\R_Arm_Z_For.mp4', 'robot_stimuli\\L_Arm_Y_For.mp4', 'robot_stimuli\\R_Arm_Y_For.mp4']",robot_stimuli\R_Arm_Z_For.mp4,3,0,0,0,0,0,10,10,10,,,,,,,,,,,,,,,,,,,,,558.5694948,558.5694948,None,,558.5694948,559.5695164000001,559.5695164000001,561.66191,,,576.3998319,576.3998319,576.3998319,2,0.4923736000000076,576.919427,576.919427,576.919427,576.919427,576.919427,576.919427,576.919427,576.919427,None,None,None,558.5694948,558.5694948,,572.8838481,,,,,,,,,,,,,,,3,001,2024-07-10_14h00.52.801,robot_cogshifting_sign,2022.2.5,59.924303619692495,
"['L_Head_X_Back', 'L_Head_Y_For', 'L_Torso_X_Back', 'R_Head_X_For']","{'laterality': 'R_Head_X_For', 'localisation': 'L_Torso_X_Back', 'movement': 'L_Head_Y_For'}",laterality,['laterality'],R_Head_X_For,3,1,robot,1,False,True,"['robot_stimuli\\L_Head_X_Back.mp4', 'robot_stimuli\\L_Head_Y_For.mp4', 'robot_stimuli\\L_Torso_X_Back.mp4', 'robot_stimuli\\R_Head_X_For.mp4']",robot_stimuli\R_Head_X_For.mp4,3,0,0,0,0,0,11,11,11,,,,,,,,,,,,,,,,,,,,,576.919427,576.919427,None,,576.919427,577.9194616,577.9194616,580.0126765,,,594.8476622999999,594.8476622999999,594.8476622999999,4,1.2852230000000304,596.1769145000001,603.8012221000001,596.1769145000001,603.8012221000001,596.1769145000001,603.8012221000001,596.1769145000001,603.8012221000001,6.388888888888886,6.4934134999998605,space,576.919427,576.919427,7.571928699999887,591.2018089999999,,,,,,,,,,,,,,,3,001,2024-07-10_14h00.52.801,robot_cogshifting_sign,2022.2.5,59.924303619692495,
"['L_Arm_Y_Back', 'L_Head_Y_For', 'L_Head_Z_For', 'R_Head_Y_For']","{'laterality': 'R_Head_Y_For', 'localisation': 'L_Arm_Y_Back', 'movement': 'L_Head_Z_For'}",laterality,"['laterality', 'localisation']",R_Head_Y_For,3,2,robot,1,True,False,"['robot_stimuli\\L_Arm_Y_Back.mp4', 'robot_stimuli\\L_Head_Y_For.mp4', 'robot_stimuli\\L_Head_Z_For.mp4', 'robot_stimuli\\R_Head_Y_For.mp4']",robot_stimuli\R_Head_Y_For.mp4,3,0,0,0,0,0,12,12,12,,,,,,,,,,,,,,,,,,,,,603.8012221000001,603.8012221000001,space,0.6674677999999972,604.4862018000001,605.4862924000001,605.4862924000001,607.5686517000001,,,622.442376,622.442376,622.442376,4,5.96166629999999,628.4361443,628.4361443,628.4361443,628.4361443,628.4361443,628.4361443,628.4361443,628.4361443,None,None,None,,,,618.8001014000001,,,,,,,,,,,,,,,3,001,2024-07-10_14h00.52.801,robot_cogshifting_sign,2022.2.5,59.924303619692495,
"['L_Arm_Y_For', 'L_Base_Y_For', 'R_Base_Y_Back', 'L_Base_Z_For']","{'laterality': 'R_Base_Y_Back', 'localisation': 'L_Arm_Y_For', 'movement': 'L_Base_Z_For'}",movement,"['laterality', 'movement']",L_Base_Z_For,3,2,robot,1,False,False,"['robot_stimuli\\L_Arm_Y_For.mp4', 'robot_stimuli\\L_Base_Y_For.mp4', 'robot_stimuli\\R_Base_Y_Back.mp4', 'robot_stimuli\\L_Base_Z_For.mp4']",robot_stimuli\L_Base_Z_For.mp4,3,0,0,0,0,0,13,13,13,,,,,,,,,,,,,,,,,,,,,628.4361443,628.4361443,None,,628.4361443,629.4362413000001,629.4362413000001,631.5154533,,,646.2623227000001,646.2623227000001,646.2623227000001,4,1.6784359999999765,647.9694409000001,647.9694409000001,647.9694409000001,647.9694409000001,647.9694409000001,647.9694409000001,647.9694409000001,647.9694409000001,None,None,None,628.4361443,628.4361443,,642.6152506000001,,,,,,,,,,,,,,,3,001,2024-07-10_14h00.52.801,robot_cogshifting_sign,2022.2.5,59.924303619692495,
"['R_Base_Y_For', 'L_Arm_Y_Back', 'R_Arm_Y_For', 'R_Arm_Z_For']","{'laterality': 'L_Arm_Y_Back', 'localisation': 'R_Base_Y_For', 'movement': 'R_Arm_Z_For'}",localisation,"['laterality', 'localisation']",R_Base_Y_For,0,2,robot,1,False,True,"['robot_stimuli\\R_Base_Y_For.mp4', 'robot_stimuli\\L_Arm_Y_Back.mp4', 'robot_stimuli\\R_Arm_Y_For.mp4', 'robot_stimuli\\R_Arm_Z_For.mp4']",robot_stimuli\R_Base_Y_For.mp4,3,0,0,0,0,0,14,14,14,,,,,,,,,,,,,,,,,,,,,647.9694409000001,647.9694409000001,None,,647.9694409000001,648.96972,648.96972,651.0584919,,,665.7638985000001,665.7638985000001,665.7638985000001,4,6.656101600000113,672.4770546,679.4026932000002,672.4770546,679.4026932000002,672.4770546,679.4026932000002,672.4770546,679.4026932000002,34.4753086419753,6.53706249999982,space,647.9694409000001,647.9694409000001,6.879335299999923,662.1277063,,,,,,,,,,,,,,,3,001,2024-07-10_14h00.52.801,robot_cogshifting_sign,2022.2.5,59.924303619692495,
"['L_Base_Z_For', 'L_Head_Z_Back', 'R_Head_Z_For', 'L_Head_X_Back']","{'laterality': 'R_Head_Z_For', 'localisation': 'L_Base_Z_For', 'movement': 'L_Head_X_Back'}",laterality,"['laterality', 'localisation', 'movement']",R_Head_Z_For,2,3,robot,1,True,False,"['robot_stimuli\\L_Base_Z_For.mp4', 'robot_stimuli\\L_Head_Z_Back.mp4', 'robot_stimuli\\R_Head_Z_For.mp4', 'robot_stimuli\\L_Head_X_Back.mp4']",robot_stimuli\R_Head_Z_For.mp4,3,0,0,0,0,0,15,15,15,,,,,,,,,,,,,,,,,,,,,679.4026932000002,679.4026932000002,space,0.9060381999998413,680.3361359,681.3363192000002,681.3363192000002,683.4285167,,,698.2289166,698.2289166,698.2289166,3,2.792691599999955,701.0529261000001,701.0529261000001,701.0529261000001,701.0529261000001,701.0529261000001,701.0529261000001,701.0529261000001,701.0529261000001,None,None,None,,,,694.5944783,,,,,,,,,,,,,,,3,001,2024-07-10_14h00.52.801,robot_cogshifting_sign,2022.2.5,59.924303619692495,
"['L_Head_X_Back', 'L_Arm_Y_For', 'L_Head_Y_Back', 'R_Head_Y_For']","{'laterality': 'R_Head_Y_For', 'localisation': 'L_Arm_Y_For', 'movement': 'L_Head_X_Back'}",localisation,"['laterality', 'localisation', 'movement']",L_Arm_Y_For,1,3,robot,1,False,False,"['robot_stimuli\\L_Head_X_Back.mp4', 'robot_stimuli\\L_Arm_Y_For.mp4', 'robot_stimuli\\L_Head_Y_Back.mp4', 'robot_stimuli\\R_Head_Y_For.mp4']",robot_stimuli\L_Arm_Y_For.mp4,3,0,0,0,0,0,16,16,16,,,,,,,,,,,,,,,,,,,,,701.0529261000001,701.0529261000001,None,,701.0529261000001,702.0529421000001,702.0529421000001,704.1308871000001,,,718.9466079000001,718.9466079000001,718.9466079000001,2,7.85763060000005,726.8361646000001,726.8361646000001,726.8361646000001,726.8361646000001,726.8361646000001,726.8361646000001,726.8361646000001,726.8361646000001,None,None,None,701.0529261000001,701.0529261000001,,715.313654,,,,,,,,,,,,,,,3,001,2024-07-10_14h00.52.801,robot_cogshifting_sign,2022.2.5,59.924303619692495,
"['L_Head_Y_Back', 'L_Arm_Z_For', 'R_Arm_Y_For', 'L_Arm_Y_For']","{'laterality': 'R_Arm_Y_For', 'localisation': 'L_Head_Y_Back', 'movement': 'L_Arm_Z_For'}",movement,"['laterality', 'localisation', 'movement']",L_Arm_Z_For,1,3,robot,1,False,True,"['robot_stimuli\\L_Head_Y_Back.mp4', 'robot_stimuli\\L_Arm_Z_For.mp4', 'robot_stimuli\\R_Arm_Y_For.mp4', 'robot_stimuli\\L_Arm_Y_For.mp4']",robot_stimuli\L_Arm_Z_For.mp4,3,0,0,0,0,0,17,17,17,,,,,,,,,,,,,,,,,,,,,726.8361646000001,726.8361646000001,None,,726.8361646000001,727.8363544000001,727.8363544000001,729.9193026,,,744.6156348,744.6156348,744.6156348,1,14.11677509999987,758.7777326,766.0077945,758.7777326,766.0077945,758.7777326,766.0077945,758.7777326,766.0077945,37.561728395061735,6.536905100000013,space,726.8361646000001,726.8361646000001,7.18686299999996,740.9764949,,,,,,,,,,,,,,,3,001,2024-07-10_14h00.52.801,robot_cogshifting_sign,2022.2.5,59.924303619692495,
,,,,,,,,,,,,,,0,0,0,0,,,,,,,,,,,,,,,,,,,,,,,,,,,,,,,,,,,,,,,,,,,,,,,,,,,,,,,766.0077945,766.0077945,766.0077945,c,1.868974000000037,,,,,,,,,,3,001,2024-07-10_14h00.52.801,robot_cogshifting_sign,2022.2.5,59.924303619692495,
"['L_Arm_Y_For', 'L_Arm_X_Back', 'L_Head_X_For', 'R_Arm_X_For']","{'laterality': 'R_Arm_X_For', 'localisation': 'L_Head_X_For', 'movement': 'L_Arm_Y_For'}",localisation,"['laterality', 'localisation', 'movement']",L_Head_X_For,2,3,robot,1,True,False,"['robot_stimuli\\L_Arm_Y_For.mp4', 'robot_stimuli\\L_Arm_X_Back.mp4', 'robot_stimuli\\L_Head_X_For.mp4', 'robot_stimuli\\R_Arm_X_For.mp4']",robot_stimuli\L_Head_X_For.mp4,3,,,,,,,,,,,,,0,0,0,0,,,,,,,,,,,,,,,,,,,770.4364350000001,772.5132625000001,,,787.2769945,787.2769945,787.2769945,4,5.167851100000064,792.4696799000001,792.4696799000001,792.4696799000001,792.4696799000001,792.4696799000001,792.4696799000001,792.4696799000001,792.4696799000001,None,None,None,,,,,,,,,,767.9204795,767.9204795,space,2.4911279000000945,783.6347074,,,,,3,001,2024-07-10_14h00.52.801,robot_cogshifting_sign,2022.2.5,59.924303619692495,
"['R_Arm_Z_For', 'R_Head_Z_For', 'R_Arm_X_For', 'L_Arm_Z_Back']","{'laterality': 'L_Arm_Z_Back', 'localisation': 'R_Head_Z_For', 'movement': 'R_Arm_X_For'}",laterality,"['laterality', 'localisation', 'movement']",L_Arm_Z_Back,3,3,robot,1,False,False,"['robot_stimuli\\R_Arm_Z_For.mp4', 'robot_stimuli\\R_Head_Z_For.mp4', 'robot_stimuli\\R_Arm_X_For.mp4', 'robot_stimuli\\L_Arm_Z_Back.mp4']",robot_stimuli\L_Arm_Z_Back.mp4,3,,,,,,,,,,,,,0,1,1,1,,,,,,,,,,,,,,,,,,,792.4696799000001,794.5432099,,,809.3487467,809.3487467,809.3487467,4,5.679493100000002,815.0529664000001,815.0529664000001,815.0529664000001,815.0529664000001,815.0529664000001,815.0529664000001,815.0529664000001,815.0529664000001,None,None,None,,,,,,,,,,792.4696799000001,792.4696799000001,None,,805.6972083,792.4696799000001,792.4696799000001,,,3,001,2024-07-10_14h00.52.801,robot_cogshifting_sign,2022.2.5,59.924303619692495,
"['R_Arm_X_For', 'L_Arm_X_Back', 'L_Torso_X_Back', 'L_Arm_Y_Back']","{'laterality': 'R_Arm_X_For', 'localisation': 'L_Torso_X_Back', 'movement': 'L_Arm_Y_Back'}",localisation,"['laterality', 'localisation', 'movement']",L_Torso_X_Back,2,3,robot,1,False,False,"['robot_stimuli\\R_Arm_X_For.mp4', 'robot_stimuli\\L_Arm_X_Back.mp4', 'robot_stimuli\\L_Torso_X_Back.mp4', 'robot_stimuli\\L_Arm_Y_Back.mp4']",robot_stimuli\L_Torso_X_Back.mp4,3,,,,,,,,,,,,,0,2,2,2,,,,,,,,,,,,,,,,,,,815.0529664000001,817.1423657,,,831.9579931000001,831.9579931000001,831.9579931000001,1,5.709667700000011,837.6863827,837.6863827,837.6863827,837.6863827,837.6863827,837.6863827,837.6863827,837.6863827,None,None,None,,,,,,,,,,815.0529664000001,815.0529664000001,None,,828.3142036000002,815.0529664000001,815.0529664000001,,,3,001,2024-07-10_14h00.52.801,robot_cogshifting_sign,2022.2.5,59.924303619692495,
"['L_Arm_X_For', 'L_Head_Y_For', 'L_Arm_Y_For', 'R_Arm_Y_Back']","{'laterality': 'R_Arm_Y_Back', 'localisation': 'L_Head_Y_For', 'movement': 'L_Arm_X_For'}",localisation,"['laterality', 'localisation', 'movement']",L_Head_Y_For,1,3,robot,1,False,False,"['robot_stimuli\\L_Arm_X_For.mp4', 'robot_stimuli\\L_Head_Y_For.mp4', 'robot_stimuli\\L_Arm_Y_For.mp4', 'robot_stimuli\\R_Arm_Y_Back.mp4']",robot_stimuli\L_Head_Y_For.mp4,3,,,,,,,,,,,,,0,3,3,3,,,,,,,,,,,,,,,,,,,837.6863827,839.7622588000002,,,854.5898723,854.5898723,854.5898723,3,37.48639209999993,892.1031318,892.1031318,892.1031318,892.1031318,892.1031318,892.1031318,892.1031318,892.1031318,None,None,None,,,,,,,,,,837.6863827,837.6863827,None,,850.948161,837.6863827,837.6863827,,,3,001,2024-07-10_14h00.52.801,robot_cogshifting_sign,2022.2.5,59.924303619692495,
"['L_Base_Z_Back', 'R_Base_X_Back', 'L_Base_X_For', 'L_Head_X_Back']","{'laterality': 'R_Base_X_Back', 'localisation': 'L_Head_X_Back', 'movement': 'L_Base_Z_Back'}",movement,"['laterality', 'localisation', 'movement']",L_Base_Z_Back,0,3,robot,1,False,False,"['robot_stimuli\\L_Base_Z_Back.mp4', 'robot_stimuli\\R_Base_X_Back.mp4', 'robot_stimuli\\L_Base_X_For.mp4', 'robot_stimuli\\L_Head_X_Back.mp4']",robot_stimuli\L_Base_Z_Back.mp4,3,,,,,,,,,,,,,0,4,4,4,,,,,,,,,,,,,,,,,,,892.1031318,894.1845748000001,,,908.9619711,908.9619711,908.9619711,4,8.665795200000105,917.6532826,917.6532826,917.6532826,917.6532826,917.6532826,917.6532826,917.6532826,917.6532826,None,None,None,,,,,,,,,,892.1031318,892.1031318,None,,905.3141403,892.1031318,892.1031318,,,3,001,2024-07-10_14h00.52.801,robot_cogshifting_sign,2022.2.5,59.924303619692495,
"['L_Arm_Y_For', 'L_Arm_X_For', 'R_Arm_X_For', 'L_Torso_X_Back']","{'laterality': 'R_Arm_X_For', 'localisation': 'L_Torso_X_Back', 'movement': 'L_Arm_Y_For'}",movement,"['laterality', 'localisation', 'movement']",L_Arm_Y_For,0,3,robot,1,False,False,"['robot_stimuli\\L_Arm_Y_For.mp4', 'robot_stimuli\\L_Arm_X_For.mp4', 'robot_stimuli\\R_Arm_X_For.mp4', 'robot_stimuli\\L_Torso_X_Back.mp4']",robot_stimuli\L_Arm_Y_For.mp4,3,,,,,,,,,,,,,0,5,5,5,,,,,,,,,,,,,,,,,,,917.6532826,919.7316381,,,934.5550501,934.5550501,934.5550501,4,6.225244300000043,940.8031801,940.8031801,940.8031801,940.8031801,940.8031801,940.8031801,940.8031801,940.8031801,None,None,None,,,,,,,,,,917.6532826,917.6532826,None,,930.9148646000001,917.6532826,917.6532826,,,3,001,2024-07-10_14h00.52.801,robot_cogshifting_sign,2022.2.5,59.924303619692495,
"['L_Head_Y_For', 'L_Head_X_For', 'L_Torso_Y_For', 'R_Head_Y_For']","{'laterality': 'R_Head_Y_For', 'localisation': 'L_Torso_Y_For', 'movement': 'L_Head_X_For'}",laterality,"['laterality', 'localisation', 'movement']",R_Head_Y_For,3,3,robot,1,False,False,"['robot_stimuli\\L_Head_Y_For.mp4', 'robot_stimuli\\L_Head_X_For.mp4', 'robot_stimuli\\L_Torso_Y_For.mp4', 'robot_stimuli\\R_Head_Y_For.mp4']",robot_stimuli\R_Head_Y_For.mp4,3,,,,,,,,,,,,,0,6,6,6,,,,,,,,,,,,,,,,,,,940.8031801,942.8828903000001,,,957.6560194000001,957.6560194000001,957.6560194000001,4,3.708549099999857,961.3862905000001,961.3862905000001,961.3862905000001,961.3862905000001,961.3862905000001,961.3862905000001,961.3862905000001,961.3862905000001,None,None,None,,,,,,,,,,940.8031801,940.8031801,None,,954.0175926000002,940.8031801,940.8031801,,,3,001,2024-07-10_14h00.52.801,robot_cogshifting_sign,2022.2.5,59.924303619692495,
"['R_Base_Y_For', 'R_Base_X_Back', 'L_Base_X_Back', 'R_Head_X_Back']","{'laterality': 'L_Base_X_Back', 'localisation': 'R_Head_X_Back', 'movement': 'R_Base_Y_For'}",movement,"['laterality', 'localisation', 'movement']",R_Base_Y_For,0,3,robot,1,False,False,"['robot_stimuli\\R_Base_Y_For.mp4', 'robot_stimuli\\R_Base_X_Back.mp4', 'robot_stimuli\\L_Base_X_Back.mp4', 'robot_stimuli\\R_Head_X_Back.mp4']",robot_stimuli\R_Base_Y_For.mp4,3,,,,,,,,,,,,,0,7,7,7,,,,,,,,,,,,,,,,,,,961.3862905000001,963.4617861000002,,,978.2274439,978.2274439,978.2274439,4,3.8654844000000708,982.1198639000002,982.1198639000002,982.1198639000002,982.1198639000002,982.1198639000002,982.1198639000002,982.1198639000002,982.1198639000002,None,None,None,,,,,,,,,,961.3862905000001,961.3862905000001,None,,974.5798211000001,961.3862905000001,961.3862905000001,,,3,001,2024-07-10_14h00.52.801,robot_cogshifting_sign,2022.2.5,59.924303619692495,
"['L_Base_Z_For', 'R_Base_Y_For', 'R_Base_Z_For', 'R_Arm_Z_For']","{'laterality': 'L_Base_Z_For', 'localisation': 'R_Arm_Z_For', 'movement': 'R_Base_Y_For'}",laterality,"['laterality', 'localisation', 'movement']",L_Base_Z_For,0,3,robot,1,False,True,"['robot_stimuli\\L_Base_Z_For.mp4', 'robot_stimuli\\R_Base_Y_For.mp4', 'robot_stimuli\\R_Base_Z_For.mp4', 'robot_stimuli\\R_Arm_Z_For.mp4']",robot_stimuli\L_Base_Z_For.mp4,3,,,,,,,,,,,,,0,8,8,8,,,,,,,,,,,,,,,,,,,982.1198639000002,984.1948170000001,,,998.9973721000001,998.9973721000001,998.9973721000001,3,8.286782999999843,1007.3282637,1012.0806139000001,1007.3282637,1012.0806139000001,1007.3282637,1012.0806139000001,1007.3282637,1012.0806139000001,40.18518518518519,4.005913500000133,space,,,4.692406200000107,,,,,,,982.1198639000002,982.1198639000002,None,,995.3606933000001,982.1198639000002,982.1198639000002,,,3,001,2024-07-10_14h00.52.801,robot_cogshifting_sign,2022.2.5,59.924303619692495,
"['R_Torso_Z_Back', 'L_Torso_X_For', 'L_Torso_Z_For', 'L_Head_Z_Back']","{'laterality': 'R_Torso_Z_Back', 'localisation': 'L_Head_Z_Back', 'movement': 'L_Torso_X_For'}",laterality,['laterality'],R_Torso_Z_Back,0,1,robot,1,True,False,"['robot_stimuli\\R_Torso_Z_Back.mp4', 'robot_stimuli\\L_Torso_X_For.mp4', 'robot_stimuli\\L_Torso_Z_For.mp4', 'robot_stimuli\\L_Head_Z_Back.mp4']",robot_stimuli\R_Torso_Z_Back.mp4,3,,,,,,,,,,,,,0,9,9,9,,,,,,,,,,,,,,,,,,,1013.9699671000001,1016.0605301,,,1030.8920747,1030.8920747,1030.8920747,1,0.4402806999999598,1031.3531155,1031.3531155,1031.3531155,1031.3531155,1031.3531155,1031.3531155,1031.3531155,1031.3531155,None,None,None,,,,,,,,,,1012.0806139000001,1012.0806139000001,space,1.8596451000001366,1027.2474896,,,,,3,001,2024-07-10_14h00.52.801,robot_cogshifting_sign,2022.2.5,59.924303619692495,
"['R_Base_Y_For', 'R_Head_Y_For', 'L_Head_Y_For', 'R_Head_X_For']","{'laterality': 'L_Head_Y_For', 'localisation': 'R_Base_Y_For', 'movement': 'R_Head_X_For'}",laterality,['laterality'],L_Head_Y_For,2,1,robot,1,False,False,"['robot_stimuli\\R_Base_Y_For.mp4', 'robot_stimuli\\R_Head_Y_For.mp4', 'robot_stimuli\\L_Head_Y_For.mp4', 'robot_stimuli\\R_Head_X_For.mp4']",robot_stimuli\L_Head_Y_For.mp4,3,,,,,,,,,,,,,0,10,10,10,,,,,,,,,,,,,,,,,,,1031.3531155,1033.4317298,,,1048.2199226,1048.2199226,1048.2199226,3,0.5760731000000874,1048.8199195,1048.8199195,1048.8199195,1048.8199195,1048.8199195,1048.8199195,1048.8199195,1048.8199195,None,None,None,,,,,,,,,,1031.3531155,1031.3531155,None,,1044.5900349,1031.3531155,1031.3531155,,,3,001,2024-07-10_14h00.52.801,robot_cogshifting_sign,2022.2.5,59.924303619692495,
"['L_Torso_Z_Back', 'L_Arm_Z_Back', 'R_Torso_Z_Back', 'L_Torso_X_Back']","{'laterality': 'R_Torso_Z_Back', 'localisation': 'L_Arm_Z_Back', 'movement': 'L_Torso_X_Back'}",laterality,['laterality'],R_Torso_Z_Back,2,1,robot,1,False,False,"['robot_stimuli\\L_Torso_Z_Back.mp4', 'robot_stimuli\\L_Arm_Z_Back.mp4', 'robot_stimuli\\R_Torso_Z_Back.mp4', 'robot_stimuli\\L_Torso_X_Back.mp4']",robot_stimuli\R_Torso_Z_Back.mp4,3,,,,,,,,,,,,,0,11,11,11,,,,,,,,,,,,,,,,,,,1048.8199195,1050.8985417000001,,,1065.5769207,1065.5769207,1065.5769207,3,1.0349579000001654,1066.6364905,1066.6364905,1066.6364905,1066.6364905,1066.6364905,1066.6364905,1066.6364905,1066.6364905,None,None,None,,,,,,,,,,1048.8199195,1048.8199195,None,,1061.9459297,1048.8199195,1048.8199195,,,3,001,2024-07-10_14h00.52.801,robot_cogshifting_sign,2022.2.5,59.924303619692495,
"['L_Torso_X_For', 'L_Torso_Z_For', 'L_Base_Z_For', 'R_Torso_Z_Back']","{'laterality': 'R_Torso_Z_Back', 'localisation': 'L_Base_Z_For', 'movement': 'L_Torso_X_For'}",movement,['movement'],L_Torso_X_For,0,1,robot,1,False,False,"['robot_stimuli\\L_Torso_X_For.mp4', 'robot_stimuli\\L_Torso_Z_For.mp4', 'robot_stimuli\\L_Base_Z_For.mp4', 'robot_stimuli\\R_Torso_Z_Back.mp4']",robot_stimuli\L_Torso_X_For.mp4,3,,,,,,,,,,,,,0,12,12,12,,,,,,,,,,,,,,,,,,,1066.6364905,1068.7095011000001,,,1083.4942135000001,1083.4942135000001,1083.4942135000001,1,0.4774301999999011,1084.003152,1084.003152,1084.003152,1084.003152,1084.003152,1084.003152,1084.003152,1084.003152,None,None,None,,,,,,,,,,1066.6364905,1066.6364905,None,,1079.8603091,1066.6364905,1066.6364905,,,3,001,2024-07-10_14h00.52.801,robot_cogshifting_sign,2022.2.5,59.924303619692495,
"['R_Base_X_For', 'L_Base_Z_For', 'R_Torso_Z_Back', 'R_Base_Z_Back']","{'laterality': 'L_Base_Z_For', 'localisation': 'R_Torso_Z_Back', 'movement': 'R_Base_X_For'}",movement,['movement'],R_Base_X_For,0,1,robot,1,False,False,"['robot_stimuli\\R_Base_X_For.mp4', 'robot_stimuli\\L_Base_Z_For.mp4', 'robot_stimuli\\R_Torso_Z_Back.mp4', 'robot_stimuli\\R_Base_Z_Back.mp4']",robot_stimuli\R_Base_X_For.mp4,3,,,,,,,,,,,,,0,13,13,13,,,,,,,,,,,,,,,,,,,1084.003152,1086.0819406,,,1100.7218229,1100.7218229,1100.7218229,1,0.3065920000001938,1101.0533641,1101.0533641,1101.0533641,1101.0533641,1101.0533641,1101.0533641,1101.0533641,1101.0533641,None,None,None,,,,,,,,,,1084.003152,1084.003152,None,,1097.1806705000001,1084.003152,1084.003152,,,3,001,2024-07-10_14h00.52.801,robot_cogshifting_sign,2022.2.5,59.924303619692495,
"['L_Arm_Z_Back', 'R_Base_Z_Back', 'R_Arm_Z_Back', 'R_Arm_Y_Back']","{'laterality': 'L_Arm_Z_Back', 'localisation': 'R_Base_Z_Back', 'movement': 'R_Arm_Y_Back'}",movement,['movement'],R_Arm_Y_Back,3,1,robot,1,False,False,"['robot_stimuli\\L_Arm_Z_Back.mp4', 'robot_stimuli\\R_Base_Z_Back.mp4', 'robot_stimuli\\R_Arm_Z_Back.mp4', 'robot_stimuli\\R_Arm_Y_Back.mp4']",robot_stimuli\R_Arm_Y_Back.mp4,3,,,,,,,,,,,,,0,14,14,14,,,,,,,,,,,,,,,,,,,1101.0533641,1103.1301987000002,,,1117.8309530000001,1117.8309530000001,1117.8309530000001,4,0.7250511999998821,1118.5868031,1118.5868031,1118.5868031,1118.5868031,1118.5868031,1118.5868031,1118.5868031,1118.5868031,None,None,None,,,,,,,,,,1101.0533641,1101.0533641,None,,1114.1968555,1101.0533641,1101.0533641,,,3,001,2024-07-10_14h00.52.801,robot_cogshifting_sign,2022.2.5,59.924303619692495,
"['R_Arm_Y_Back', 'R_Base_Y_For', 'L_Arm_Y_Back', 'R_Arm_X_For']","{'laterality': 'L_Arm_Y_Back', 'localisation': 'R_Base_Y_For', 'movement': 'R_Arm_X_For'}",localisation,['localisation'],R_Base_Y_For,1,1,robot,1,False,False,"['robot_stimuli\\R_Arm_Y_Back.mp4', 'robot_stimuli\\R_Base_Y_For.mp4', 'robot_stimuli\\L_Arm_Y_Back.mp4', 'robot_stimuli\\R_Arm_X_For.mp4']",robot_stimuli\R_Base_Y_For.mp4,3,,,,,,,,,,,,,0,15,15,15,,,,,,,,,,,,,,,,,,,1118.5868031,1120.6734158000002,,,1135.4799235,1135.4799235,1135.4799235,4,5.299595600000032,1140.803188,1140.803188,1140.803188,1140.803188,1140.803188,1140.803188,1140.803188,1140.803188,None,None,None,,,,,,,,,,1118.5868031,1118.5868031,None,,1131.8434293,1118.5868031,1118.5868031,,,3,001,2024-07-10_14h00.52.801,robot_cogshifting_sign,2022.2.5,59.924303619692495,
"['R_Head_X_For', 'R_Arm_Z_For', 'R_Arm_X_Back', 'L_Arm_X_For']","{'laterality': 'L_Arm_X_For', 'localisation': 'R_Head_X_For', 'movement': 'R_Arm_Z_For'}",localisation,['localisation'],R_Head_X_For,0,1,robot,1,False,False,"['robot_stimuli\\R_Head_X_For.mp4', 'robot_stimuli\\R_Arm_Z_For.mp4', 'robot_stimuli\\R_Arm_X_Back.mp4', 'robot_stimuli\\L_Arm_X_For.mp4']",robot_stimuli\R_Head_X_For.mp4,3,,,,,,,,,,,,,0,16,16,16,,,,,,,,,,,,,,,,,,,1140.803188,1142.8798934000001,,,1157.704729,1157.704729,1157.704729,1,2.3237331999999356,1160.0532921000001,1160.0532921000001,1160.0532921000001,1160.0532921000001,1160.0532921000001,1160.0532921000001,1160.0532921000001,1160.0532921000001,None,None,None,,,,,,,,,,1140.803188,1140.803188,None,,1154.0698771,1140.803188,1140.803188,,,3,001,2024-07-10_14h00.52.801,robot_cogshifting_sign,2022.2.5,59.924303619692495,
"['L_Torso_Y_For', 'L_Base_Y_Back', 'R_Torso_Y_Back', 'L_Torso_X_For']","{'laterality': 'R_Torso_Y_Back', 'localisation': 'L_Base_Y_Back', 'movement': 'L_Torso_X_For'}",localisation,['localisation'],L_Base_Y_Back,1,1,robot,1,False,True,"['robot_stimuli\\L_Torso_Y_For.mp4', 'robot_stimuli\\L_Base_Y_Back.mp4', 'robot_stimuli\\R_Torso_Y_Back.mp4', 'robot_stimuli\\L_Torso_X_For.mp4']",robot_stimuli\L_Base_Y_Back.mp4,3,,,,,,,,,,,,,0,17,17,17,,,,,,,,,,,,,,,,,,,1160.0532921000001,1162.1306896,,,1176.8742628,1176.8742628,1176.8742628,2,0.6254009999998402,1177.5444451,1183.6059241,1177.5444451,1183.6059241,1177.5444451,1183.6059241,1177.5444451,1183.6059241,16.41975308641975,5.639958100000058,space,,,5.995482300000106,,,,,,,1160.0532921000001,1160.0532921000001,None,,1173.2327182000001,1160.0532921000001,1160.0532921000001,,,3,001,2024-07-10_14h00.52.801,robot_cogshifting_sign,2022.2.5,59.924303619692495,
"['R_Arm_X_For', 'R_Torso_Z_For', 'R_Torso_X_Back', 'L_Torso_X_Back']","{'laterality': 'L_Torso_X_Back', 'localisation': 'R_Arm_X_For', 'movement': 'R_Torso_Z_For'}",movement,"['laterality', 'movement']",R_Torso_Z_For,1,2,robot,1,True,False,"['robot_stimuli\\R_Arm_X_For.mp4', 'robot_stimuli\\R_Torso_Z_For.mp4', 'robot_stimuli\\R_Torso_X_Back.mp4', 'robot_stimuli\\L_Torso_X_Back.mp4']",robot_stimuli\R_Torso_Z_For.mp4,3,,,,,,,,,,,,,0,18,18,18,,,,,,,,,,,,,,,,,,,1184.7865951,1186.8607333,,,1201.6573797,1201.6573797,1201.6573797,1,5.444009700000208,1207.1198776,1207.1198776,1207.1198776,1207.1198776,1207.1198776,1207.1198776,1207.1198776,1207.1198776,None,None,None,,,,,,,,,,1183.6059241,1183.6059241,space,1.1501469000000384,1198.0241215,,,,,3,001,2024-07-10_14h00.52.801,robot_cogshifting_sign,2022.2.5,59.924303619692495,
"['L_Torso_Z_For', 'R_Torso_Y_Back', 'R_Torso_Z_For', 'R_Base_Z_Back']","{'laterality': 'L_Torso_Z_For', 'localisation': 'R_Base_Z_Back', 'movement': 'R_Torso_Y_Back'}",laterality,"['laterality', 'localisation']",L_Torso_Z_For,0,2,robot,1,False,False,"['robot_stimuli\\L_Torso_Z_For.mp4', 'robot_stimuli\\R_Torso_Y_Back.mp4', 'robot_stimuli\\R_Torso_Z_For.mp4', 'robot_stimuli\\R_Base_Z_Back.mp4']",robot_stimuli\L_Torso_Z_For.mp4,3,,,,,,,,,,,,,0,19,19,19,,,,,,,,,,,,,,,,,,,1207.1198776,1209.1952935000002,,,1223.9065961000001,1223.9065961000001,1223.9065961000001,1,2.7539353000000233,1226.6867120000002,1226.6867120000002,1226.6867120000002,1226.6867120000002,1226.6867120000002,1226.6867120000002,1226.6867120000002,1226.6867120000002,None,None,None,,,,,,,,,,1207.1198776,1207.1198776,None,,1220.3743423,1207.1198776,1207.1198776,,,3,001,2024-07-10_14h00.52.801,robot_cogshifting_sign,2022.2.5,59.924303619692495,
"['R_Head_Z_For', 'R_Base_Y_For', 'R_Head_Y_Back', 'L_Head_Y_Back']","{'laterality': 'L_Head_Y_Back', 'localisation': 'R_Base_Y_For', 'movement': 'R_Head_Z_For'}",localisation,"['localisation', 'movement']",R_Base_Y_For,1,2,robot,1,False,False,"['robot_stimuli\\R_Head_Z_For.mp4', 'robot_stimuli\\R_Base_Y_For.mp4', 'robot_stimuli\\R_Head_Y_Back.mp4', 'robot_stimuli\\L_Head_Y_Back.mp4']",robot_stimuli\R_Base_Y_For.mp4,3,,,,,,,,,,,,,0,20,20,20,,,,,,,,,,,,,,,,,,,1226.6867120000002,1228.7605488000002,,,1243.5822104000001,1243.5822104000001,1243.5822104000001,4,1.3021902999999497,1244.9032894000002,1244.9032894000002,1244.9032894000002,1244.9032894000002,1244.9032894000002,1244.9032894000002,1244.9032894000002,1244.9032894000002,None,None,None,,,,,,,,,,1226.6867120000002,1226.6867120000002,None,,1239.9453234,1226.6867120000002,1226.6867120000002,,,3,001,2024-07-10_14h00.52.801,robot_cogshifting_sign,2022.2.5,59.924303619692495,
"['L_Arm_X_For', 'R_Arm_X_For', 'R_Torso_X_For', 'R_Arm_Y_For']","{'laterality': 'L_Arm_X_For', 'localisation': 'R_Torso_X_For', 'movement': 'R_Arm_Y_For'}",localisation,"['laterality', 'localisation']",R_Torso_X_For,2,2,robot,1,False,False,"['robot_stimuli\\L_Arm_X_For.mp4', 'robot_stimuli\\R_Arm_X_For.mp4', 'robot_stimuli\\R_Torso_X_For.mp4', 'robot_stimuli\\R_Arm_Y_For.mp4']",robot_stimuli\R_Torso_X_For.mp4,3,,,,,,,,,,,,,0,21,21,21,,,,,,,,,,,,,,,,,,,1244.9032894000002,1246.9764884,,,1261.6604427,1261.6604427,1261.6604427,1,6.351333899999929,1268.0367103,1268.0367103,1268.0367103,1268.0367103,1268.0367103,1268.0367103,1268.0367103,1268.0367103,None,None,None,,,,,,,,,,1244.9032894000002,1244.9032894000002,None,,1258.1496595,1244.9032894000002,1244.9032894000002,,,3,001,2024-07-10_14h00.52.801,robot_cogshifting_sign,2022.2.5,59.924303619692495,
"['R_Arm_Y_For', 'L_Arm_Z_Back', 'R_Torso_Z_For', 'R_Arm_Z_For']","{'laterality': 'L_Arm_Z_Back', 'localisation': 'R_Torso_Z_For', 'movement': 'R_Arm_Y_For'}",localisation,"['laterality', 'localisation']",R_Torso_Z_For,2,2,robot,1,False,False,"['robot_stimuli\\R_Arm_Y_For.mp4', 'robot_stimuli\\L_Arm_Z_Back.mp4', 'robot_stimuli\\R_Torso_Z_For.mp4', 'robot_stimuli\\R_Arm_Z_For.mp4']",robot_stimuli\R_Torso_Z_For.mp4,3,,,,,,,,,,,,,0,22,22,22,,,,,,,,,,,,,,,,,,,1268.0367103,1270.1305703,,,1284.8032425000001,1284.8032425000001,1284.8032425000001,3,5.63226509999987,1290.4534896,1290.4534896,1290.4534896,1290.4534896,1290.4534896,1290.4534896,1290.4534896,1290.4534896,None,None,None,,,,,,,,,,1268.0367103,1268.0367103,None,,1281.1685552000001,1268.0367103,1268.0367103,,,3,001,2024-07-10_14h00.52.801,robot_cogshifting_sign,2022.2.5,59.924303619692495,
"['R_Torso_Y_For', 'L_Torso_Z_Back', 'L_Torso_Y_For', 'L_Arm_Y_Back']","{'laterality': 'R_Torso_Y_For', 'localisation': 'L_Arm_Y_Back', 'movement': 'L_Torso_Z_Back'}",movement,"['localisation', 'movement']",L_Torso_Z_Back,1,2,robot,1,False,False,"['robot_stimuli\\R_Torso_Y_For.mp4', 'robot_stimuli\\L_Torso_Z_Back.mp4', 'robot_stimuli\\L_Torso_Y_For.mp4', 'robot_stimuli\\L_Arm_Y_Back.mp4']",robot_stimuli\L_Torso_Z_Back.mp4,3,,,,,,,,,,,,,0,23,23,23,,,,,,,,,,,,,,,,,,,1290.4534896,1292.5271195,,,1307.1802505,1307.1802505,1307.1802505,2,14.272682300000099,1321.4699786,1321.4699786,1321.4699786,1321.4699786,1321.4699786,1321.4699786,1321.4699786,1321.4699786,None,None,None,,,,,,,,,,1290.4534896,1290.4534896,None,,1303.5471391,1290.4534896,1290.4534896,,,3,001,2024-07-10_14h00.52.801,robot_cogshifting_sign,2022.2.5,59.924303619692495,
"['R_Arm_Y_Back', 'R_Torso_Z_Back', 'L_Arm_Z_Back', 'R_Arm_Z_For']","{'laterality': 'L_Arm_Z_Back', 'localisation': 'R_Torso_Z_Back', 'movement': 'R_Arm_Y_Back'}",laterality,"['laterality', 'movement']",L_Arm_Z_Back,2,2,robot,1,False,False,"['robot_stimuli\\R_Arm_Y_Back.mp4', 'robot_stimuli\\R_Torso_Z_Back.mp4', 'robot_stimuli\\L_Arm_Z_Back.mp4', 'robot_stimuli\\R_Arm_Z_For.mp4']",robot_stimuli\L_Arm_Z_Back.mp4,3,,,,,,,,,,,,,0,24,24,24,,,,,,,,,,,,,,,,,,,1321.4699786,1323.5521503,,,1338.3612364,1338.3612364,1338.3612364,3,24.459215099999994,1362.8533683,1362.8533683,1362.8533683,1362.8533683,1362.8533683,1362.8533683,1362.8533683,1362.8533683,None,None,None,,,,,,,,,,1321.4699786,1321.4699786,None,,1334.7299629000001,1321.4699786,1321.4699786,,,3,001,2024-07-10_14h00.52.801,robot_cogshifting_sign,2022.2.5,59.924303619692495,
"['R_Base_Y_For', 'R_Head_Z_For', 'L_Head_Y_For', 'R_Head_Y_For']","{'laterality': 'L_Head_Y_For', 'localisation': 'R_Base_Y_For', 'movement': 'R_Head_Z_For'}",laterality,"['laterality', 'localisation']",L_Head_Y_For,2,2,robot,1,False,False,"['robot_stimuli\\R_Base_Y_For.mp4', 'robot_stimuli\\R_Head_Z_For.mp4', 'robot_stimuli\\L_Head_Y_For.mp4', 'robot_stimuli\\R_Head_Y_For.mp4']",robot_stimuli\L_Head_Y_For.mp4,3,,,,,,,,,,,,,0,25,25,25,,,,,,,,,,,,,,,,,,,1362.8533683,1364.9342412,,,1379.7267719000001,1379.7267719000001,1379.7267719000001,3,5.5176951000001395,1385.2701495000001,1385.2701495000001,1385.2701495000001,1385.2701495000001,1385.2701495000001,1385.2701495000001,1385.2701495000001,1385.2701495000001,None,None,None,,,,,,,,,,1362.8533683,1362.8533683,None,,1376.095783,1362.8533683,1362.8533683,,,3,001,2024-07-10_14h00.52.801,robot_cogshifting_sign,2022.2.5,59.924303619692495,
"['R_Base_Z_Back', 'R_Torso_Z_For', 'L_Torso_Z_For', 'R_Torso_Y_For']","{'laterality': 'L_Torso_Z_For', 'localisation': 'R_Base_Z_Back', 'movement': 'R_Torso_Y_For'}",movement,"['localisation', 'movement']",R_Torso_Y_For,3,2,robot,1,False,True,"['robot_stimuli\\R_Base_Z_Back.mp4', 'robot_stimuli\\R_Torso_Z_For.mp4', 'robot_stimuli\\L_Torso_Z_For.mp4', 'robot_stimuli\\R_Torso_Y_For.mp4']",robot_stimuli\R_Torso_Y_For.mp4,3,,,,,,,,,,,,,0,26,26,26,,,,,,,,,,,,,,,,,,,1385.2701495000001,1387.3486132,,,1402.0935621,1402.0935621,1402.0935621,4,4.111898200000098,1406.2616756,1412.7519357,1406.2616756,1412.7519357,1406.2616756,1412.7519357,1406.2616756,1412.7519357,36.172839506172835,5.9420127999999295,space,,,6.446898900000008,,,,,,,1385.2701495000001,1385.2701495000001,None,,1398.4497808,1385.2701495000001,1385.2701495000001,,,3,001,2024-07-10_14h00.52.801,robot_cogshifting_sign,2022.2.5,59.924303619692495,
"['blue_right_F_45', 'blue_right_C_0', 'red_right_C_45', 'blue_bottom_V_45']","{'color': 'red_right_C_45', 'position': 'blue_bottom_V_45', 'orientation': 'blue_right_C_0'}",orientation,"['color', 'orientation', 'position']",blue_right_C_0,1,3,letter,2,True,False,"['robot_stimuli\\\\filler.mp4', 'robot_stimuli\\\\filler.mp4', 'robot_stimuli\\\\filler.mp4', 'robot_stimuli\\\\filler.mp4']",robot_stimuli\\filler.mp4,3,,,,,,,,,,,,,0,27,27,27,,,,,,,,,,,,,,,,,,,1418.3703939,1420.426159,,,1428.7063359,1428.7063359,1428.7063359,2,3.617983200000083,1432.3534261,1432.3534261,1432.3534261,1432.3534261,1432.3534261,1432.3534261,1432.3534261,1432.3534261,None,None,None,,,,,,,,,,1412.7519357,1412.7519357,space,5.5964779999999905,,,,1426.6877847,1428.7063359,3,001,2024-07-10_14h00.52.801,robot_cogshifting_sign,2022.2.5,59.924303619692495,
"['red_bottom_Z_45', 'red_top_R_45', 'red_bottom_S_0', 'blue_bottom_F_45']","{'color': 'blue_bottom_F_45', 'position': 'red_top_R_45', 'orientation': 'red_bottom_S_0'}",position,"['color', 'orientation', 'position']",red_top_R_45,1,3,letter,2,False,False,"['robot_stimuli\\\\filler.mp4', 'robot_stimuli\\\\filler.mp4', 'robot_stimuli\\\\filler.mp4', 'robot_stimuli\\\\filler.mp4']",robot_stimuli\\filler.mp4,3,,,,,,,,,,,,,0,28,28,28,,,,,,,,,,,,,,,,,,,1432.3534261,1434.4182175,,,1443.0960118,1443.0960118,1443.0960118,3,4.043839499999933,1447.1700719,1447.1700719,1447.1700719,1447.1700719,1447.1700719,1447.1700719,1447.1700719,1447.1700719,None,None,None,,,,,,,,,,1432.3534261,1432.3534261,None,,,1432.3534261,1432.3534261,1441.0766548000001,1443.0960118,3,001,2024-07-10_14h00.52.801,robot_cogshifting_sign,2022.2.5,59.924303619692495,
"['red_left_T_45', 'blue_left_H_0', 'blue_bottom_B_45', 'blue_left_R_45']","{'color': 'red_left_T_45', 'position': 'blue_bottom_B_45', 'orientation': 'blue_left_H_0'}",color,"['color', 'orientation', 'position']",red_left_T_45,0,3,letter,2,False,False,"['robot_stimuli\\\\filler.mp4', 'robot_stimuli\\\\filler.mp4', 'robot_stimuli\\\\filler.mp4', 'robot_stimuli\\\\filler.mp4']",robot_stimuli\\filler.mp4,3,,,,,,,,,,,,,0,29,29,29,,,,,,,,,,,,,,,,,,,1447.1700719,1449.2264058,,,1458.0912855000001,1458.0912855000001,1458.0912855000001,2,20.19214879999987,1478.3034367,1478.3034367,1478.3034367,1478.3034367,1478.3034367,1478.3034367,1478.3034367,1478.3034367,None,None,None,,,,,,,,,,1447.1700719,1447.1700719,None,,,1447.1700719,1447.1700719,1455.8712115,1458.0912855000001,3,001,2024-07-10_14h00.52.801,robot_cogshifting_sign,2022.2.5,59.924303619692495,
"['blue_right_X_45', 'blue_right_V_0', 'red_right_H_0', 'blue_top_B_0']","{'color': 'red_right_H_0', 'position': 'blue_top_B_0', 'orientation': 'blue_right_X_45'}",orientation,"['color', 'orientation', 'position']",blue_right_X_45,0,3,letter,2,False,False,"['robot_stimuli\\\\filler.mp4', 'robot_stimuli\\\\filler.mp4', 'robot_stimuli\\\\filler.mp4', 'robot_stimuli\\\\filler.mp4']",robot_stimuli\\filler.mp4,3,,,,,,,,,,,,,0,30,30,30,,,,,,,,,,,,,,,,,,,1478.3034367,1480.3582992000001,,,1489.0432474000002,1489.0432474000002,1489.0432474000002,1,2.5287328000000002,1491.6035524000001,1491.6035524000001,1491.6035524000001,1491.6035524000001,1491.6035524000001,1491.6035524000001,1491.6035524000001,1491.6035524000001,None,None,None,,,,,,,,,,1478.3034367,1478.3034367,None,,,1478.3034367,1478.3034367,1486.8227257,1489.0432474000002,3,001,2024-07-10_14h00.52.801,robot_cogshifting_sign,2022.2.5,59.924303619692495,
"['red_right_N_0', 'blue_right_N_0', 'blue_right_K_45', 'blue_bottom_M_0']","{'color': 'red_right_N_0', 'position': 'blue_bottom_M_0', 'orientation': 'blue_right_K_45'}",position,"['color', 'orientation', 'position']",blue_bottom_M_0,3,3,letter,2,False,False,"['robot_stimuli\\\\filler.mp4', 'robot_stimuli\\\\filler.mp4', 'robot_stimuli\\\\filler.mp4', 'robot_stimuli\\\\filler.mp4']",robot_stimuli\\filler.mp4,3,,,,,,,,,,,,,0,31,31,31,,,,,,,,,,,,,,,,,,,1491.6035524000001,1493.6641876,,,1502.1431178,1502.1431178,1502.1431178,4,1.5964376000000016,1503.7702899,1503.7702899,1503.7702899,1503.7702899,1503.7702899,1503.7702899,1503.7702899,1503.7702899,None,None,None,,,,,,,,,,1491.6035524000001,1491.6035524000001,None,,,1491.6035524000001,1491.6035524000001,1499.9233403,1502.1431178,3,001,2024-07-10_14h00.52.801,robot_cogshifting_sign,2022.2.5,59.924303619692495,
"['red_right_S_0', 'red_bottom_L_45', 'red_bottom_F_0', 'blue_bottom_C_0']","{'color': 'blue_bottom_C_0', 'position': 'red_right_S_0', 'orientation': 'red_bottom_L_45'}",color,"['color', 'orientation', 'position']",blue_bottom_C_0,3,3,letter,2,False,False,"['robot_stimuli\\\\filler.mp4', 'robot_stimuli\\\\filler.mp4', 'robot_stimuli\\\\filler.mp4', 'robot_stimuli\\\\filler.mp4']",robot_stimuli\\filler.mp4,3,,,,,,,,,,,,,0,32,32,32,,,,,,,,,,,,,,,,,,,1503.7702899,1505.8246814000001,,,1514.3001748000001,1514.3001748000001,1514.3001748000001,4,0.82362970000014,1515.1532295,1515.1532295,1515.1532295,1515.1532295,1515.1532295,1515.1532295,1515.1532295,1515.1532295,None,None,None,,,,,,,,,,1503.7702899,1503.7702899,None,,,1503.7702899,1503.7702899,1512.2787808,1514.3001748000001,3,001,2024-07-10_14h00.52.801,robot_cogshifting_sign,2022.2.5,59.924303619692495,
"['blue_top_C_45', 'blue_top_T_0', 'blue_left_V_0', 'red_top_J_0']","{'color': 'red_top_J_0', 'position': 'blue_left_V_0', 'orientation': 'blue_top_C_45'}",position,"['color', 'orientation', 'position']",blue_left_V_0,2,3,letter,2,False,False,"['robot_stimuli\\\\filler.mp4', 'robot_stimuli\\\\filler.mp4', 'robot_stimuli\\\\filler.mp4', 'robot_stimuli\\\\filler.mp4']",robot_stimuli\\filler.mp4,3,,,,,,,,,,,,,0,33,33,33,,,,,,,,,,,,,,,,,,,1515.1532295,1517.2076623,,,1525.6835304,1525.6835304,1525.6835304,3,1.6007393999998953,1527.3035121,1527.3035121,1527.3035121,1527.3035121,1527.3035121,1527.3035121,1527.3035121,1527.3035121,None,None,None,,,,,,,,,,1515.1532295,1515.1532295,None,,,1515.1532295,1515.1532295,1523.6671415,1525.6835304,3,001,2024-07-10_14h00.52.801,robot_cogshifting_sign,2022.2.5,59.924303619692495,
"['blue_bottom_Q_0', 'red_top_Z_0', 'red_bottom_G_45', 'red_bottom_M_0']","{'color': 'blue_bottom_Q_0', 'position': 'red_top_Z_0', 'orientation': 'red_bottom_G_45'}",color,"['color', 'orientation', 'position']",blue_bottom_Q_0,0,3,letter,2,False,False,"['robot_stimuli\\\\filler.mp4', 'robot_stimuli\\\\filler.mp4', 'robot_stimuli\\\\filler.mp4', 'robot_stimuli\\\\filler.mp4']",robot_stimuli\\filler.mp4,3,,,,,,,,,,,,,0,34,34,34,,,,,,,,,,,,,,,,,,,1527.3035121,1529.3610575,,,1537.8431947000001,1537.8431947000001,1537.8431947000001,3,5.640132600000072,1543.5035517000001,1543.5035517000001,1543.5035517000001,1543.5035517000001,1543.5035517000001,1543.5035517000001,1543.5035517000001,1543.5035517000001,None,None,None,,,,,,,,,,1527.3035121,1527.3035121,None,,,1527.3035121,1527.3035121,1535.6226203,1537.8431947000001,3,001,2024-07-10_14h00.52.801,robot_cogshifting_sign,2022.2.5,59.924303619692495,
"['red_top_S_0', 'red_top_T_45', 'blue_top_F_0', 'red_left_G_0']","{'color': 'blue_top_F_0', 'position': 'red_left_G_0', 'orientation': 'red_top_T_45'}",orientation,"['color', 'orientation', 'position']",red_top_T_45,1,3,letter,2,False,True,"['robot_stimuli\\\\filler.mp4', 'robot_stimuli\\\\filler.mp4', 'robot_stimuli\\\\filler.mp4', 'robot_stimuli\\\\filler.mp4']",robot_stimuli\\filler.mp4,3,,,,,,,,,,,,,0,35,35,35,,,,,,,,,,,,,,,,,,,1543.5035517000001,1545.557517,,,1554.2473094,1554.2473094,1554.2473094,3,3.340562600000169,1557.6478013,1564.3398041,1557.6478013,1564.3398041,1557.6478013,1564.3398041,1557.6478013,1564.3398041,44.04320987654321,5.540376700000024,space,,,6.644220199999893,,,,,,,1543.5035517000001,1543.5035517000001,None,,,1543.5035517000001,1543.5035517000001,1552.0214985,1554.2473094,3,001,2024-07-10_14h00.52.801,robot_cogshifting_sign,2022.2.5,59.924303619692495,
"['red_top_P_0', 'red_left_B_45', 'blue_left_L_0', 'red_left_P_0']","{'color': 'blue_left_L_0', 'position': 'red_top_P_0', 'orientation': 'red_left_B_45'}",color,"['color', 'orientation']",blue_left_L_0,2,2,letter,2,True,False,"['robot_stimuli\\\\filler.mp4', 'robot_stimuli\\\\filler.mp4', 'robot_stimuli\\\\filler.mp4', 'robot_stimuli\\\\filler.mp4']",robot_stimuli\\filler.mp4,3,,,,,,,,,,,,,0,36,36,36,,,,,,,,,,,,,,,,,,,1573.0701602000001,1575.1302386,,,1583.6015529000001,1583.6015529000001,1583.6015529000001,3,2.3382506000000944,1585.9703259,1585.9703259,1585.9703259,1585.9703259,1585.9703259,1585.9703259,1585.9703259,1585.9703259,None,None,None,,,,,,,,,,1564.3398041,1564.3398041,space,8.704656200000102,,,,1581.5830045,1583.6015529000001,3,001,2024-07-10_14h00.52.801,robot_cogshifting_sign,2022.2.5,59.924303619692495,
"['blue_left_P_0', 'red_right_T_0', 'blue_right_G_0', 'blue_right_G_45']","{'color': 'red_right_T_0', 'position': 'blue_left_P_0', 'orientation': 'blue_right_G_45'}",orientation,"['color', 'orientation']",blue_right_G_45,3,2,letter,2,False,False,"['robot_stimuli\\\\filler.mp4', 'robot_stimuli\\\\filler.mp4', 'robot_stimuli\\\\filler.mp4', 'robot_stimuli\\\\filler.mp4']",robot_stimuli\\filler.mp4,3,,,,,,,,,,,,,0,37,37,37,,,,,,,,,,,,,,,,,,,1585.9703259,1588.0255361,,,1596.5244683,1596.5244683,1596.5244683,4,1.5525914999998918,1598.103509,1598.103509,1598.103509,1598.103509,1598.103509,1598.103509,1598.103509,1598.103509,None,None,None,,,,,,,,,,1585.9703259,1585.9703259,None,,,1585.9703259,1585.9703259,1594.4994444000001,1596.5244683,3,001,2024-07-10_14h00.52.801,robot_cogshifting_sign,2022.2.5,59.924303619692495,
"['red_left_X_45', 'blue_top_Z_45', 'blue_left_W_45', 'blue_left_S_0']","{'color': 'red_left_X_45', 'position': 'blue_top_Z_45', 'orientation': 'blue_left_S_0'}",position,"['orientation', 'position']",blue_top_Z_45,1,2,letter,2,False,False,"['robot_stimuli\\\\filler.mp4', 'robot_stimuli\\\\filler.mp4', 'robot_stimuli\\\\filler.mp4', 'robot_stimuli\\\\filler.mp4']",robot_stimuli\\filler.mp4,3,,,,,,,,,,,,,0,38,38,38,,,,,,,,,,,,,,,,,,,1598.103509,1600.1580895,,,1608.8405529000001,1608.8405529000001,1608.8405529000001,3,5.642856199999926,1614.5035231000002,1614.5035231000002,1614.5035231000002,1614.5035231000002,1614.5035231000002,1614.5035231000002,1614.5035231000002,1614.5035231000002,None,None,None,,,,,,,,,,1598.103509,1598.103509,None,,,1598.103509,1598.103509,1606.6234419,1608.8405529000001,3,001,2024-07-10_14h00.52.801,robot_cogshifting_sign,2022.2.5,59.924303619692495,
"['blue_top_V_45', 'blue_left_F_45', 'blue_top_F_0', 'red_top_H_45']","{'color': 'red_top_H_45', 'position': 'blue_left_F_45', 'orientation': 'blue_top_F_0'}",orientation,"['orientation', 'position']",blue_top_F_0,2,2,letter,2,False,False,"['robot_stimuli\\\\filler.mp4', 'robot_stimuli\\\\filler.mp4', 'robot_stimuli\\\\filler.mp4', 'robot_stimuli\\\\filler.mp4']",robot_stimuli\\filler.mp4,3,,,,,,,,,,,,,0,39,39,39,,,,,,,,,,,,,,,,,,,1614.5035231000002,1616.5589453,,,1624.8451261000002,1624.8451261000002,1624.8451261000002,2,4.934822200000156,1629.8036484000002,1629.8036484000002,1629.8036484000002,1629.8036484000002,1629.8036484000002,1629.8036484000002,1629.8036484000002,1629.8036484000002,None,None,None,,,,,,,,,,1614.5035231000002,1614.5035231000002,None,,,1614.5035231000002,1614.5035231000002,1622.8171857,1624.8451261000002,3,001,2024-07-10_14h00.52.801,robot_cogshifting_sign,2022.2.5,59.924303619692495,
"['red_top_M_0', 'red_right_K_45', 'blue_top_W_45', 'red_top_H_45']","{'color': 'blue_top_W_45', 'position': 'red_right_K_45', 'orientation': 'red_top_M_0'}",color,"['color', 'position']",blue_top_W_45,2,2,letter,2,False,False,"['robot_stimuli\\\\filler.mp4', 'robot_stimuli\\\\filler.mp4', 'robot_stimuli\\\\filler.mp4', 'robot_stimuli\\\\filler.mp4']",robot_stimuli\\filler.mp4,3,,,,,,,,,,,,,0,40,40,40,,,,,,,,,,,,,,,,,,,1629.8036484000002,1631.8615023,,,1640.3372278,1640.3372278,1640.3372278,3,3.0506611000003545,1643.4201449,1643.4201449,1643.4201449,1643.4201449,1643.4201449,1643.4201449,1643.4201449,1643.4201449,None,None,None,,,,,,,,,,1629.8036484000002,1629.8036484000002,None,,,1629.8036484000002,1629.8036484000002,1638.3122659000003,1640.3372278,3,001,2024-07-10_14h00.52.801,robot_cogshifting_sign,2022.2.5,59.924303619692495,
"['blue_right_W_0', 'red_right_W_0', 'red_left_N_0', 'red_right_J_45']","{'color': 'blue_right_W_0', 'position': 'red_left_N_0', 'orientation': 'red_right_J_45'}",position,"['color', 'position']",red_left_N_0,2,2,letter,2,False,False,"['robot_stimuli\\\\filler.mp4', 'robot_stimuli\\\\filler.mp4', 'robot_stimuli\\\\filler.mp4', 'robot_stimuli\\\\filler.mp4']",robot_stimuli\\filler.mp4,3,,,,,,,,,,,,,0,41,41,41,,,,,,,,,,,,,,,,,,,1643.4201449,1645.4764174,,,1653.7679142,1653.7679142,1653.7679142,3,6.188112499999818,1659.9870535000002,1659.9870535000002,1659.9870535000002,1659.9870535000002,1659.9870535000002,1659.9870535000002,1659.9870535000002,1659.9870535000002,None,None,None,,,,,,,,,,1643.4201449,1643.4201449,None,,,1643.4201449,1643.4201449,1651.7535661,1653.7679142,3,001,2024-07-10_14h00.52.801,robot_cogshifting_sign,2022.2.5,59.924303619692495,
"['blue_left_H_45', 'blue_top_N_0', 'blue_top_X_45', 'red_top_T_45']","{'color': 'red_top_T_45', 'position': 'blue_left_H_45', 'orientation': 'blue_top_N_0'}",position,"['orientation', 'position']",blue_left_H_45,0,2,letter,2,False,False,"['robot_stimuli\\\\filler.mp4', 'robot_stimuli\\\\filler.mp4', 'robot_stimuli\\\\filler.mp4', 'robot_stimuli\\\\filler.mp4']",robot_stimuli\\filler.mp4,3,,,,,,,,,,,,,0,42,42,42,,,,,,,,,,,,,,,,,,,1659.9870535000002,1662.0430167000002,,,1670.5268099000002,1670.5268099000002,1670.5268099000002,1,3.4124660999999037,1673.9705829000002,1673.9705829000002,1673.9705829000002,1673.9705829000002,1673.9705829000002,1673.9705829000002,1673.9705829000002,1673.9705829000002,None,None,None,,,,,,,,,,1659.9870535000002,1659.9870535000002,None,,,1659.9870535000002,1659.9870535000002,1668.3075112,1670.5268099000002,3,001,2024-07-10_14h00.52.801,robot_cogshifting_sign,2022.2.5,59.924303619692495,
"['blue_top_T_0', 'blue_bottom_T_0', 'red_bottom_P_0', 'blue_bottom_W_45']","{'color': 'red_bottom_P_0', 'position': 'blue_top_T_0', 'orientation': 'blue_bottom_W_45'}",orientation,"['color', 'orientation']",blue_bottom_W_45,3,2,letter,2,False,False,"['robot_stimuli\\\\filler.mp4', 'robot_stimuli\\\\filler.mp4', 'robot_stimuli\\\\filler.mp4', 'robot_stimuli\\\\filler.mp4']",robot_stimuli\\filler.mp4,3,,,,,,,,,,,,,0,43,43,43,,,,,,,,,,,,,,,,,,,1673.9705829000002,1676.0282499000002,,,1684.5124189,1684.5124189,1684.5124189,4,0.9467644999998015,1685.4870001000002,1685.4870001000002,1685.4870001000002,1685.4870001000002,1685.4870001000002,1685.4870001000002,1685.4870001000002,1685.4870001000002,None,None,None,,,,,,,,,,1673.9705829000002,1673.9705829000002,None,,,1673.9705829000002,1673.9705829000002,1682.485824,1684.5124189,3,001,2024-07-10_14h00.52.801,robot_cogshifting_sign,2022.2.5,59.924303619692495,
"['blue_right_R_45', 'blue_right_P_0', 'blue_left_N_45', 'red_right_B_45']","{'color': 'red_right_B_45', 'position': 'blue_left_N_45', 'orientation': 'blue_right_P_0'}",color,"['color', 'position']",red_right_B_45,3,2,letter,2,False,True,"['robot_stimuli\\\\filler.mp4', 'robot_stimuli\\\\filler.mp4', 'robot_stimuli\\\\filler.mp4', 'robot_stimuli\\\\filler.mp4']",robot_stimuli\\filler.mp4,3,,,,,,,,,,,,,0,44,44,44,,,,,,,,,,,,,,,,,,,1685.4870001000002,1687.5411768000001,,,1696.0207050000001,1696.0207050000001,1696.0207050000001,4,0.9115792999999144,1696.9795987,1700.2526969000003,1696.9795987,1700.2526969000003,1696.9795987,1700.2526969000003,1696.9795987,1700.2526969000003,36.635802469135804,2.6344076999998833,space,,,3.2238301999998953,,,,,,,1685.4870001000002,1685.4870001000002,None,,,1685.4870001000002,1685.4870001000002,1694.0006960000003,1696.0207050000001,3,001,2024-07-10_14h00.52.801,robot_cogshifting_sign,2022.2.5,59.924303619692495,
"['blue_left_D_45', 'blue_bottom_Q_45', 'blue_bottom_N_0', 'red_bottom_Q_45']","{'color': 'red_bottom_Q_45', 'position': 'blue_left_D_45', 'orientation': 'blue_bottom_N_0'}",position,['position'],blue_left_D_45,0,1,letter,2,True,False,"['robot_stimuli\\\\filler.mp4', 'robot_stimuli\\\\filler.mp4', 'robot_stimuli\\\\filler.mp4', 'robot_stimuli\\\\filler.mp4']",robot_stimuli\\filler.mp4,3,,,,,,,,,,,,,0,45,45,45,,,,,,,,,,,,,,,,,,,1702.0036364999999,1704.062675,,,1712.3473058000002,1712.3473058000002,1712.3473058000002,1,0.8079187999999817,1713.1869173000002,1713.1869173000002,1713.1869173000002,1713.1869173000002,1713.1869173000002,1713.1869173000002,1713.1869173000002,1713.1869173000002,None,None,None,,,,,,,,,,1700.2526969000003,1700.2526969000003,space,1.7270905000003154,,,,1710.3275701,1712.3473058000002,3,001,2024-07-10_14h00.52.801,robot_cogshifting_sign,2022.2.5,59.924303619692495,
"['red_top_B_45', 'red_top_D_0', 'blue_top_P_45', 'red_right_G_45']","{'color': 'blue_top_P_45', 'position': 'red_right_G_45', 'orientation': 'red_top_D_0'}",orientation,['orientation'],red_top_D_0,1,1,letter,2,False,False,"['robot_stimuli\\\\filler.mp4', 'robot_stimuli\\\\filler.mp4', 'robot_stimuli\\\\filler.mp4', 'robot_stimuli\\\\filler.mp4']",robot_stimuli\\filler.mp4,3,,,,,,,,,,,,,0,46,46,46,,,,,,,,,,,,,,,,,,,1713.1869173000002,1715.2452497000002,,,1723.5209849,1723.5209849,1723.5209849,2,0.5788379999997346,1724.1202556,1724.1202556,1724.1202556,1724.1202556,1724.1202556,1724.1202556,1724.1202556,1724.1202556,None,None,None,,,,,,,,,,1713.1869173000002,1713.1869173000002,None,,,1713.1869173000002,1713.1869173000002,1721.4926014999999,1723.5209849,3,001,2024-07-10_14h00.52.801,robot_cogshifting_sign,2022.2.5,59.924303619692495,
"['red_right_D_0', 'red_top_J_45', 'red_right_Q_45', 'blue_right_M_45']","{'color': 'blue_right_M_45', 'position': 'red_top_J_45', 'orientation': 'red_right_D_0'}",orientation,['orientation'],red_right_D_0,0,1,letter,2,False,False,"['robot_stimuli\\\\filler.mp4', 'robot_stimuli\\\\filler.mp4', 'robot_stimuli\\\\filler.mp4', 'robot_stimuli\\\\filler.mp4']",robot_stimuli\\filler.mp4,3,,,,,,,,,,,,,0,47,47,47,,,,,,,,,,,,,,,,,,,1724.1202556,1726.1740322000003,,,1734.8505019000002,1734.8505019000002,1734.8505019000002,2,1.1134208999999942,1735.9871182,1735.9871182,1735.9871182,1735.9871182,1735.9871182,1735.9871182,1735.9871182,1735.9871182,None,None,None,,,,,,,,,,1724.1202556,1724.1202556,None,,,1724.1202556,1724.1202556,1732.8267198,1734.8505019000002,3,001,2024-07-10_14h00.52.801,robot_cogshifting_sign,2022.2.5,59.924303619692495,
"['red_right_C_45', 'blue_top_B_45', 'blue_right_Q_0', 'blue_right_B_45']","{'color': 'red_right_C_45', 'position': 'blue_top_B_45', 'orientation': 'blue_right_Q_0'}",position,['position'],blue_top_B_45,1,1,letter,2,False,False,"['robot_stimuli\\\\filler.mp4', 'robot_stimuli\\\\filler.mp4', 'robot_stimuli\\\\filler.mp4', 'robot_stimuli\\\\filler.mp4']",robot_stimuli\\filler.mp4,3,,,,,,,,,,,,,0,48,48,48,,,,,,,,,,,,,,,,,,,1735.9871182,1738.0413391,,,1746.7284831,1746.7284831,1746.7284831,2,1.5147786999999084,1748.2704360999999,1748.2704360999999,1748.2704360999999,1748.2704360999999,1748.2704360999999,1748.2704360999999,1748.2704360999999,1748.2704360999999,None,None,None,,,,,,,,,,1735.9871182,1735.9871182,None,,,1735.9871182,1735.9871182,1744.5086621000003,1746.7284831,3,001,2024-07-10_14h00.52.801,robot_cogshifting_sign,2022.2.5,59.924303619692495,
"['blue_bottom_W_45', 'red_bottom_D_0', 'blue_bottom_S_0', 'blue_right_Q_0']","{'color': 'red_bottom_D_0', 'position': 'blue_right_Q_0', 'orientation': 'blue_bottom_W_45'}",orientation,['orientation'],blue_bottom_W_45,0,1,letter,2,False,False,"['robot_stimuli\\\\filler.mp4', 'robot_stimuli\\\\filler.mp4', 'robot_stimuli\\\\filler.mp4', 'robot_stimuli\\\\filler.mp4']",robot_stimuli\\filler.mp4,3,,,,,,,,,,,,,0,49,49,49,,,,,,,,,,,,,,,,,,,1748.2704360999999,1750.3249868999999,,,1759.0455523000003,1759.0455523000003,1759.0455523000003,1,0.21459480000004305,1759.2870257000002,1759.2870257000002,1759.2870257000002,1759.2870257000002,1759.2870257000002,1759.2870257000002,1759.2870257000002,1759.2870257000002,None,None,None,,,,,,,,,,1748.2704360999999,1748.2704360999999,None,,,1748.2704360999999,1748.2704360999999,1756.8241876,1759.0455523000003,3,001,2024-07-10_14h00.52.801,robot_cogshifting_sign,2022.2.5,59.924303619692495,
"['blue_bottom_C_45', 'blue_bottom_G_0', 'blue_left_G_45', 'red_bottom_S_45']","{'color': 'red_bottom_S_45', 'position': 'blue_left_G_45', 'orientation': 'blue_bottom_G_0'}",color,['color'],red_bottom_S_45,3,1,letter,2,False,False,"['robot_stimuli\\\\filler.mp4', 'robot_stimuli\\\\filler.mp4', 'robot_stimuli\\\\filler.mp4', 'robot_stimuli\\\\filler.mp4']",robot_stimuli\\filler.mp4,3,,,,,,,,,,,,,0,50,50,50,,,,,,,,,,,,,,,,,,,1759.2870257000002,1761.343877,,,1770.0337929,1770.0337929,1770.0337929,4,0.29038160000010294,1770.3536522000002,1770.3536522000002,1770.3536522000002,1770.3536522000002,1770.3536522000002,1770.3536522000002,1770.3536522000002,1770.3536522000002,None,None,None,,,,,,,,,,1759.2870257000002,1759.2870257000002,None,,,1759.2870257000002,1759.2870257000002,1768.0112437999999,1770.0337929,3,001,2024-07-10_14h00.52.801,robot_cogshifting_sign,2022.2.5,59.924303619692495,
"['red_left_D_0', 'red_right_K_45', 'blue_right_C_0', 'red_right_H_0']","{'color': 'blue_right_C_0', 'position': 'red_left_D_0', 'orientation': 'red_right_K_45'}",color,['color'],blue_right_C_0,2,1,letter,2,False,False,"['robot_stimuli\\\\filler.mp4', 'robot_stimuli\\\\filler.mp4', 'robot_stimuli\\\\filler.mp4', 'robot_stimuli\\\\filler.mp4']",robot_stimuli\\filler.mp4,3,,,,,,,,,,,,,0,51,51,51,,,,,,,,,,,,,,,,,,,1770.3536522000002,1772.4087865,,,1781.2894038000002,1781.2894038000002,1781.2894038000002,3,1.0744837999998822,1782.3872205999999,1782.3872205999999,1782.3872205999999,1782.3872205999999,1782.3872205999999,1782.3872205999999,1782.3872205999999,1782.3872205999999,None,None,None,,,,,,,,,,1770.3536522000002,1770.3536522000002,None,,,1770.3536522000002,1770.3536522000002,1779.0747828,1781.2894038000002,3,001,2024-07-10_14h00.52.801,robot_cogshifting_sign,2022.2.5,59.924303619692495,
"['blue_left_Z_45', 'blue_left_V_0', 'blue_bottom_W_0', 'red_left_M_0']","{'color': 'red_left_M_0', 'position': 'blue_bottom_W_0', 'orientation': 'blue_left_Z_45'}",position,['position'],blue_bottom_W_0,2,1,letter,2,False,False,"['robot_stimuli\\\\filler.mp4', 'robot_stimuli\\\\filler.mp4', 'robot_stimuli\\\\filler.mp4', 'robot_stimuli\\\\filler.mp4']",robot_stimuli\\filler.mp4,3,,,,,,,,,,,,,0,52,52,52,,,,,,,,,,,,,,,,,,,1782.3872205999999,1784.4450660999998,,,1792.9180451,1792.9180451,1792.9180451,3,0.44595370000007506,1793.3873903,1793.3873903,1793.3873903,1793.3873903,1793.3873903,1793.3873903,1793.3873903,1793.3873903,None,None,None,,,,,,,,,,1782.3872205999999,1782.3872205999999,None,,,1782.3872205999999,1782.3872205999999,1790.8971322,1792.9180451,3,001,2024-07-10_14h00.52.801,robot_cogshifting_sign,2022.2.5,59.924303619692495,
"['blue_top_G_0', 'blue_left_F_0', 'blue_left_G_45', 'red_left_B_0']","{'color': 'red_left_B_0', 'position': 'blue_top_G_0', 'orientation': 'blue_left_G_45'}",color,['color'],red_left_B_0,3,1,letter,2,False,True,"['robot_stimuli\\\\filler.mp4', 'robot_stimuli\\\\filler.mp4', 'robot_stimuli\\\\filler.mp4', 'robot_stimuli\\\\filler.mp4']",robot_stimuli\\filler.mp4,3,,,,,,,,,,,,,0,53,53,53,,,,,,,,,,,,,,,,,,,1793.3873903,1795.4423278000002,,,1803.9119714,1803.9119714,1803.9119714,4,0.5571740999997132,1804.514152,1809.5106456,1804.514152,1809.5106456,1804.514152,1809.5106456,1804.514152,1809.5106456,6.234567901234561,3.803548899999896,space,,,4.937376900000174,,,,,,,1793.3873903,1793.3873903,None,,,1793.3873903,1793.3873903,1801.8947504,1803.9119714,3,001,2024-07-10_14h00.52.801,robot_cogshifting_sign,2022.2.5,59.924303619692495,
"['L_Torso_X_For', 'R_Head_X_Back', 'R_Torso_Z_Back', 'R_Torso_X_For']","{'laterality': 'L_Torso_X_For', 'localisation': 'R_Head_X_Back', 'movement': 'R_Torso_Z_Back'}",movement,['movement'],R_Torso_Z_Back,2,1,robot,3,True,False,"['robot_stimuli\\L_Torso_X_For.mp4', 'robot_stimuli\\R_Head_X_Back.mp4', 'robot_stimuli\\R_Torso_Z_Back.mp4', 'robot_stimuli\\R_Torso_X_For.mp4']",robot_stimuli\R_Torso_Z_Back.mp4,3,,,,,,,,,,,,,0,54,54,54,,,,,,,,,,,,,,,,,,,1812.8369485,1814.924291,,,1829.7130123,1829.7130123,1829.7130123,3,1.0909933999999453,1830.8202869,1830.8202869,1830.8202869,1830.8202869,1830.8202869,1830.8202869,1830.8202869,1830.8202869,None,None,None,,,,,,,,,,1809.5106456,1809.5106456,space,3.309480299999734,1826.0804147000001,,,,,3,001,2024-07-10_14h00.52.801,robot_cogshifting_sign,2022.2.5,59.924303619692495,
"['L_Arm_Z_For', 'L_Base_Z_For', 'R_Base_Z_For', 'L_Base_Y_Back']","{'laterality': 'R_Base_Z_For', 'localisation': 'L_Arm_Z_For', 'movement': 'L_Base_Y_Back'}",localisation,['localisation'],L_Arm_Z_For,0,1,robot,3,False,False,"['robot_stimuli\\L_Arm_Z_For.mp4', 'robot_stimuli\\L_Base_Z_For.mp4', 'robot_stimuli\\R_Base_Z_For.mp4', 'robot_stimuli\\L_Base_Y_Back.mp4']",robot_stimuli\L_Arm_Z_For.mp4,3,,,,,,,,,,,,,0,55,55,55,,,,,,,,,,,,,,,,,,,1830.8202869,1832.8997443,,,1847.6495533,1847.6495533,1847.6495533,1,0.8275833000000716,1848.5036616999998,1848.5036616999998,1848.5036616999998,1848.5036616999998,1848.5036616999998,1848.5036616999998,1848.5036616999998,1848.5036616999998,None,None,None,,,,,,,,,,1830.8202869,1830.8202869,None,,1844.0798058000003,1830.8202869,1830.8202869,,,3,001,2024-07-10_14h00.52.801,robot_cogshifting_sign,2022.2.5,59.924303619692495,
"['R_Base_Y_Back', 'R_Head_Y_Back', 'R_Base_X_Back', 'L_Base_Y_For']","{'laterality': 'L_Base_Y_For', 'localisation': 'R_Head_Y_Back', 'movement': 'R_Base_X_Back'}",localisation,['localisation'],R_Head_Y_Back,1,1,robot,3,False,False,"['robot_stimuli\\R_Base_Y_Back.mp4', 'robot_stimuli\\R_Head_Y_Back.mp4', 'robot_stimuli\\R_Base_X_Back.mp4', 'robot_stimuli\\L_Base_Y_For.mp4']",robot_stimuli\R_Head_Y_Back.mp4,3,,,,,,,,,,,,,0,56,56,56,,,,,,,,,,,,,,,,,,,1848.5036616999998,1850.5776518,,,1865.2947421000001,1865.2947421000001,1865.2947421000001,2,0.5244648000000893,1865.837111,1865.837111,1865.837111,1865.837111,1865.837111,1865.837111,1865.837111,1865.837111,None,None,None,,,,,,,,,,1848.5036616999998,1848.5036616999998,None,,1861.7488436,1848.5036616999998,1848.5036616999998,,,3,001,2024-07-10_14h00.52.801,robot_cogshifting_sign,2022.2.5,59.924303619692495,
"['R_Base_Y_Back', 'R_Head_Y_Back', 'R_Head_Z_Back', 'L_Head_Y_For']","{'laterality': 'L_Head_Y_For', 'localisation': 'R_Base_Y_Back', 'movement': 'R_Head_Z_Back'}",movement,['movement'],R_Head_Z_Back,2,1,robot,3,False,False,"['robot_stimuli\\R_Base_Y_Back.mp4', 'robot_stimuli\\R_Head_Y_Back.mp4', 'robot_stimuli\\R_Head_Z_Back.mp4', 'robot_stimuli\\L_Head_Y_For.mp4']",robot_stimuli\R_Head_Z_Back.mp4,3,,,,,,,,,,,,,0,57,57,57,,,,,,,,,,,,,,,,,,,1865.837111,1867.9095156,,,1882.6939392000002,1882.6939392000002,1882.6939392000002,1,6.430188399999963,1889.1535821999998,1889.1535821999998,1889.1535821999998,1889.1535821999998,1889.1535821999998,1889.1535821999998,1889.1535821999998,1889.1535821999998,None,None,None,,,,,,,,,,1865.837111,1865.837111,None,,1879.0590573000002,1865.837111,1865.837111,,,3,001,2024-07-10_14h00.52.801,robot_cogshifting_sign,2022.2.5,59.924303619692495,
"['L_Base_X_Back', 'L_Head_Y_For', 'L_Head_X_Back', 'R_Head_X_Back']","{'laterality': 'R_Head_X_Back', 'localisation': 'L_Base_X_Back', 'movement': 'L_Head_Y_For'}",movement,['movement'],L_Head_Y_For,1,1,robot,3,False,False,"['robot_stimuli\\L_Base_X_Back.mp4', 'robot_stimuli\\L_Head_Y_For.mp4', 'robot_stimuli\\L_Head_X_Back.mp4', 'robot_stimuli\\R_Head_X_Back.mp4']",robot_stimuli\L_Head_Y_For.mp4,3,,,,,,,,,,,,,0,58,58,58,,,,,,,,,,,,,,,,,,,1889.1535821999998,1891.2281922,,,1905.9753539,1905.9753539,1905.9753539,2,0.387935999999911,1906.3871931,1906.3871931,1906.3871931,1906.3871931,1906.3871931,1906.3871931,1906.3871931,1906.3871931,None,None,None,,,,,,,,,,1889.1535821999998,1889.1535821999998,None,,1902.3443533000002,1889.1535821999998,1889.1535821999998,,,3,001,2024-07-10_14h00.52.801,robot_cogshifting_sign,2022.2.5,59.924303619692495,
"['R_Arm_X_For', 'L_Base_X_Back', 'R_Base_X_For', 'R_Base_Y_Back']","{'laterality': 'L_Base_X_Back', 'localisation': 'R_Arm_X_For', 'movement': 'R_Base_Y_Back'}",localisation,['localisation'],R_Arm_X_For,0,1,robot,3,False,False,"['robot_stimuli\\R_Arm_X_For.mp4', 'robot_stimuli\\L_Base_X_Back.mp4', 'robot_stimuli\\R_Base_X_For.mp4', 'robot_stimuli\\R_Base_Y_Back.mp4']",robot_stimuli\R_Arm_X_For.mp4,3,,,,,,,,,,,,,0,59,59,59,,,,,,,,,,,,,,,,,,,1906.3871931,1908.4612137000001,,,1923.1261938,1923.1261938,1923.1261938,1,0.41482230000002573,1923.5705007,1923.5705007,1923.5705007,1923.5705007,1923.5705007,1923.5705007,1923.5705007,1923.5705007,None,None,None,,,,,,,,,,1906.3871931,1906.3871931,None,,1919.4821762,1906.3871931,1906.3871931,,,3,001,2024-07-10_14h00.52.801,robot_cogshifting_sign,2022.2.5,59.924303619692495,
"['L_Arm_X_Back', 'L_Head_X_For', 'R_Arm_X_For', 'L_Arm_Z_For']","{'laterality': 'R_Arm_X_For', 'localisation': 'L_Head_X_For', 'movement': 'L_Arm_Z_For'}",laterality,['laterality'],R_Arm_X_For,2,1,robot,3,False,False,"['robot_stimuli\\L_Arm_X_Back.mp4', 'robot_stimuli\\L_Head_X_For.mp4', 'robot_stimuli\\R_Arm_X_For.mp4', 'robot_stimuli\\L_Arm_Z_For.mp4']",robot_stimuli\R_Arm_X_For.mp4,3,,,,,,,,,,,,,0,60,60,60,,,,,,,,,,,,,,,,,,,1923.5705007,1925.6450773,,,1940.3922322,1940.3922322,1940.3922322,3,0.3394369999999185,1940.753919,1940.753919,1940.753919,1940.753919,1940.753919,1940.753919,1940.753919,1940.753919,None,None,None,,,,,,,,,,1923.5705007,1923.5705007,None,,1936.7503913000003,1923.5705007,1923.5705007,,,3,001,2024-07-10_14h00.52.801,robot_cogshifting_sign,2022.2.5,59.924303619692495,
"['L_Arm_X_Back', 'L_Arm_Z_Back', 'R_Arm_Z_For', 'L_Base_Z_For']","{'laterality': 'R_Arm_Z_For', 'localisation': 'L_Base_Z_For', 'movement': 'L_Arm_X_Back'}",laterality,['laterality'],R_Arm_Z_For,2,1,robot,3,False,False,"['robot_stimuli\\L_Arm_X_Back.mp4', 'robot_stimuli\\L_Arm_Z_Back.mp4', 'robot_stimuli\\R_Arm_Z_For.mp4', 'robot_stimuli\\L_Base_Z_For.mp4']",robot_stimuli\R_Arm_Z_For.mp4,3,,,,,,,,,,,,,0,61,61,61,,,,,,,,,,,,,,,,,,,1940.753919,1942.8324048000002,,,1957.6399970999998,1957.6399970999998,1957.6399970999998,3,0.36483029999982364,1958.0371479000003,1958.0371479000003,1958.0371479000003,1958.0371479000003,1958.0371479000003,1958.0371479000003,1958.0371479000003,1958.0371479000003,None,None,None,,,,,,,,,,1940.753919,1940.753919,None,,1954.0092846999999,1940.753919,1940.753919,,,3,001,2024-07-10_14h00.52.801,robot_cogshifting_sign,2022.2.5,59.924303619692495,
"['L_Torso_X_Back', 'L_Torso_Z_Back', 'R_Torso_Z_For', 'L_Head_Z_Back']","{'laterality': 'R_Torso_Z_For', 'localisation': 'L_Head_Z_Back', 'movement': 'L_Torso_X_Back'}",laterality,['laterality'],R_Torso_Z_For,2,1,robot,3,False,True,"['robot_stimuli\\L_Torso_X_Back.mp4', 'robot_stimuli\\L_Torso_Z_Back.mp4', 'robot_stimuli\\R_Torso_Z_For.mp4', 'robot_stimuli\\L_Head_Z_Back.mp4']",robot_stimuli\R_Torso_Z_For.mp4,3,,,,,,,,,,,,,0,62,62,62,,,,,,,,,,,,,,,,,,,1958.0371479000003,1960.1113204,,,1974.7899452,1974.7899452,1974.7899452,3,1.757754800000214,1976.5951231000001,1980.3222913000002,1976.5951231000001,1980.3222913000002,1976.5951231000001,1980.3222913000002,1976.5951231000001,1980.3222913000002,12.098765432098766,3.213444900000013,space,,,3.680255000000045,,,,,,,1958.0371479000003,1958.0371479000003,None,,1971.1568267,1958.0371479000003,1958.0371479000003,,,3,001,2024-07-10_14h00.52.801,robot_cogshifting_sign,2022.2.5,59.924303619692495,
"['L_Torso_X_Back', 'R_Torso_X_Back', 'R_Torso_Y_For', 'R_Head_X_For']","{'laterality': 'L_Torso_X_Back', 'localisation': 'R_Head_X_For', 'movement': 'R_Torso_Y_For'}",laterality,"['laterality', 'localisation', 'movement']",L_Torso_X_Back,0,3,robot,3,True,False,"['robot_stimuli\\L_Torso_X_Back.mp4', 'robot_stimuli\\R_Torso_X_Back.mp4', 'robot_stimuli\\R_Torso_Y_For.mp4', 'robot_stimuli\\R_Head_X_For.mp4']",robot_stimuli\L_Torso_X_Back.mp4,3,,,,,,,,,,,,,0,63,63,63,,,,,,,,,,,,,,,,,,,1984.3205185,1986.4109013,,,2001.2067012999998,2001.2067012999998,2001.2067012999998,1,2.5981703000000493,2003.8372904999999,2003.8372904999999,2003.8372904999999,2003.8372904999999,2003.8372904999999,2003.8372904999999,2003.8372904999999,2003.8372904999999,None,None,None,,,,,,,,,,1980.3222913000002,1980.3222913000002,space,3.9700937000000636,1997.5744925000001,,,,,3,001,2024-07-10_14h00.52.801,robot_cogshifting_sign,2022.2.5,59.924303619692495,
"['L_Arm_X_Back', 'L_Torso_Z_For', 'L_Arm_Z_Back', 'R_Arm_Z_Back']","{'laterality': 'R_Arm_Z_Back', 'localisation': 'L_Torso_Z_For', 'movement': 'L_Arm_X_Back'}",localisation,"['laterality', 'localisation', 'movement']",L_Torso_Z_For,1,3,robot,3,False,False,"['robot_stimuli\\L_Arm_X_Back.mp4', 'robot_stimuli\\L_Torso_Z_For.mp4', 'robot_stimuli\\L_Arm_Z_Back.mp4', 'robot_stimuli\\R_Arm_Z_Back.mp4']",robot_stimuli\L_Torso_Z_For.mp4,3,,,,,,,,,,,,,0,64,64,64,,,,,,,,,,,,,,,,,,,2003.8372904999999,2005.9119825,,,2020.7118921,2020.7118921,2020.7118921,2,10.284480000000087,2031.0204244,2031.0204244,2031.0204244,2031.0204244,2031.0204244,2031.0204244,2031.0204244,2031.0204244,None,None,None,,,,,,,,,,2003.8372904999999,2003.8372904999999,None,,2017.0802416,2003.8372904999999,2003.8372904999999,,,3,001,2024-07-10_14h00.52.801,robot_cogshifting_sign,2022.2.5,59.924303619692495,
"['R_Torso_Z_Back', 'R_Torso_Y_Back', 'L_Torso_Z_Back', 'R_Base_Z_Back']","{'laterality': 'L_Torso_Z_Back', 'localisation': 'R_Base_Z_Back', 'movement': 'R_Torso_Y_Back'}",localisation,"['laterality', 'localisation', 'movement']",R_Base_Z_Back,3,3,robot,3,False,False,"['robot_stimuli\\R_Torso_Z_Back.mp4', 'robot_stimuli\\R_Torso_Y_Back.mp4', 'robot_stimuli\\L_Torso_Z_Back.mp4', 'robot_stimuli\\R_Base_Z_Back.mp4']",robot_stimuli\R_Base_Z_Back.mp4,3,,,,,,,,,,,,,0,65,65,65,,,,,,,,,,,,,,,,,,,2031.0204244,2033.1041622999999,,,2047.6786622000002,2047.6786622000002,2047.6786622000002,4,6.365222700000061,2054.0706351999997,2054.0706351999997,2054.0706351999997,2054.0706351999997,2054.0706351999997,2054.0706351999997,2054.0706351999997,2054.0706351999997,None,None,None,,,,,,,,,,2031.0204244,2031.0204244,None,,2044.1436652,2031.0204244,2031.0204244,,,3,001,2024-07-10_14h00.52.801,robot_cogshifting_sign,2022.2.5,59.924303619692495,
"['R_Arm_X_For', 'L_Arm_X_For', 'R_Base_X_Back', 'R_Arm_Y_Back']","{'laterality': 'L_Arm_X_For', 'localisation': 'R_Base_X_Back', 'movement': 'R_Arm_Y_Back'}",movement,"['laterality', 'localisation', 'movement']",R_Arm_Y_Back,3,3,robot,3,False,False,"['robot_stimuli\\R_Arm_X_For.mp4', 'robot_stimuli\\L_Arm_X_For.mp4', 'robot_stimuli\\R_Base_X_Back.mp4', 'robot_stimuli\\R_Arm_Y_Back.mp4']",robot_stimuli\R_Arm_Y_Back.mp4,3,,,,,,,,,,,,,0,66,66,66,,,,,,,,,,,,,,,,,,,2054.0706351999997,2056.1453403,,,2070.962717,2070.962717,2070.962717,3,4.7450028999999745,2075.7373614999997,2075.7373614999997,2075.7373614999997,2075.7373614999997,2075.7373614999997,2075.7373614999997,2075.7373614999997,2075.7373614999997,None,None,None,,,,,,,,,,2054.0706351999997,2054.0706351999997,None,,2067.3166032999998,2054.0706351999997,2054.0706351999997,,,3,001,2024-07-10_14h00.52.801,robot_cogshifting_sign,2022.2.5,59.924303619692495,
"['R_Arm_Y_Back', 'R_Base_Y_Back', 'L_Base_Y_For', 'R_Base_Z_Back']","{'laterality': 'L_Base_Y_For', 'localisation': 'R_Arm_Y_Back', 'movement': 'R_Base_Z_Back'}",localisation,"['laterality', 'localisation', 'movement']",R_Arm_Y_Back,0,3,robot,3,False,False,"['robot_stimuli\\R_Arm_Y_Back.mp4', 'robot_stimuli\\R_Base_Y_Back.mp4', 'robot_stimuli\\L_Base_Y_For.mp4', 'robot_stimuli\\R_Base_Z_Back.mp4']",robot_stimuli\R_Arm_Y_Back.mp4,3,,,,,,,,,,,,,0,67,67,67,,,,,,,,,,,,,,,,,,,2075.7373614999997,2077.8163459999996,,,2092.41786,2092.41786,2092.41786,4,21.298548999999923,2113.7374342,2113.7374342,2113.7374342,2113.7374342,2113.7374342,2113.7374342,2113.7374342,2113.7374342,None,None,None,,,,,,,,,,2075.7373614999997,2075.7373614999997,None,,2088.8824703,2075.7373614999997,2075.7373614999997,,,3,001,2024-07-10_14h00.52.801,robot_cogshifting_sign,2022.2.5,59.924303619692495,
"['R_Base_Z_Back', 'L_Base_X_For', 'R_Base_X_Back', 'R_Head_X_Back']","{'laterality': 'L_Base_X_For', 'localisation': 'R_Head_X_Back', 'movement': 'R_Base_Z_Back'}",movement,"['laterality', 'localisation', 'movement']",R_Base_Z_Back,0,3,robot,3,False,False,"['robot_stimuli\\R_Base_Z_Back.mp4', 'robot_stimuli\\L_Base_X_For.mp4', 'robot_stimuli\\R_Base_X_Back.mp4', 'robot_stimuli\\R_Head_X_Back.mp4']",robot_stimuli\R_Base_Z_Back.mp4,3,,,,,,,,,,,,,0,68,68,68,,,,,,,,,,,,,,,,,,,2113.7374342,2115.8183560999996,,,2130.4475193,2130.4475193,2130.4475193,4,5.444070899999872,2135.9206676,2135.9206676,2135.9206676,2135.9206676,2135.9206676,2135.9206676,2135.9206676,2135.9206676,None,None,None,,,,,,,,,,2113.7374342,2113.7374342,None,,2126.8129125,2113.7374342,2113.7374342,,,3,001,2024-07-10_14h00.52.801,robot_cogshifting_sign,2022.2.5,59.924303619692495,
"['L_Base_Y_For', 'L_Base_Z_Back', 'R_Base_Z_For', 'L_Arm_Z_For']","{'laterality': 'R_Base_Z_For', 'localisation': 'L_Arm_Z_For', 'movement': 'L_Base_Y_For'}",laterality,"['laterality', 'localisation', 'movement']",R_Base_Z_For,2,3,robot,3,False,False,"['robot_stimuli\\L_Base_Y_For.mp4', 'robot_stimuli\\L_Base_Z_Back.mp4', 'robot_stimuli\\R_Base_Z_For.mp4', 'robot_stimuli\\L_Arm_Z_For.mp4']",robot_stimuli\R_Base_Z_For.mp4,3,,,,,,,,,,,,,0,69,69,69,,,,,,,,,,,,,,,,,,,2135.9206676,2137.9938174999997,,,2152.6977884999997,2152.6977884999997,2152.6977884999997,3,7.057157999999902,2159.7875571,2159.7875571,2159.7875571,2159.7875571,2159.7875571,2159.7875571,2159.7875571,2159.7875571,None,None,None,,,,,,,,,,2135.9206676,2135.9206676,None,,2149.0519127999996,2135.9206676,2135.9206676,,,3,001,2024-07-10_14h00.52.801,robot_cogshifting_sign,2022.2.5,59.924303619692495,
"['L_Torso_Z_For', 'R_Head_Z_Back', 'R_Torso_Z_Back', 'R_Torso_Y_For']","{'laterality': 'L_Torso_Z_For', 'localisation': 'R_Head_Z_Back', 'movement': 'R_Torso_Y_For'}",laterality,"['laterality', 'localisation', 'movement']",L_Torso_Z_For,0,3,robot,3,False,False,"['robot_stimuli\\L_Torso_Z_For.mp4', 'robot_stimuli\\R_Head_Z_Back.mp4', 'robot_stimuli\\R_Torso_Z_Back.mp4', 'robot_stimuli\\R_Torso_Y_For.mp4']",robot_stimuli\L_Torso_Z_For.mp4,3,,,,,,,,,,,,,0,70,70,70,,,,,,,,,,,,,,,,,,,2159.7875571,2161.8645438999997,,,2176.6589175,2176.6589175,2176.6589175,1,5.017256100000225,2181.703995,2181.703995,2181.703995,2181.703995,2181.703995,2181.703995,2181.703995,2181.703995,None,None,None,,,,,,,,,,2159.7875571,2159.7875571,None,,2173.0263053,2159.7875571,2159.7875571,,,3,001,2024-07-10_14h00.52.801,robot_cogshifting_sign,2022.2.5,59.924303619692495,
"['R_Arm_Y_For', 'R_Torso_Y_Back', 'L_Arm_Y_For', 'R_Arm_Z_Back']","{'laterality': 'L_Arm_Y_For', 'localisation': 'R_Torso_Y_Back', 'movement': 'R_Arm_Z_Back'}",movement,"['laterality', 'localisation', 'movement']",R_Arm_Z_Back,3,3,robot,3,False,True,"['robot_stimuli\\R_Arm_Y_For.mp4', 'robot_stimuli\\R_Torso_Y_Back.mp4', 'robot_stimuli\\L_Arm_Y_For.mp4', 'robot_stimuli\\R_Arm_Z_Back.mp4']",robot_stimuli\R_Arm_Z_Back.mp4,3,,,,,,,,,,,,,0,71,71,71,,,,,,,,,,,,,,,,,,,2181.703995,2183.7836525999996,,,2198.4740067999996,2198.4740067999996,2198.4740067999996,3,9.889636400000029,2208.4123072999996,2217.5000962999998,2208.4123072999996,2217.5000962999998,2208.4123072999996,2217.5000962999998,2208.4123072999996,2217.5000962999998,49.44444444444444,6.210513100000298,space,,,9.040426599999876,,,,,,,2181.703995,2181.703995,None,,2194.8324116999997,2181.703995,2181.703995,,,3,001,2024-07-10_14h00.52.801,robot_cogshifting_sign,2022.2.5,59.924303619692495,
"['L_Arm_Z_Back', 'L_Arm_X_Back', 'L_Torso_X_Back', 'R_Arm_X_For']","{'laterality': 'R_Arm_X_For', 'localisation': 'L_Torso_X_Back', 'movement': 'L_Arm_Z_Back'}",localisation,"['localisation', 'movement']",L_Torso_X_Back,2,2,robot,3,True,False,"['robot_stimuli\\L_Arm_Z_Back.mp4', 'robot_stimuli\\L_Arm_X_Back.mp4', 'robot_stimuli\\L_Torso_X_Back.mp4', 'robot_stimuli\\R_Arm_X_For.mp4']",robot_stimuli\L_Torso_X_Back.mp4,3,,,,,,,,,,,,,0,72,72,72,,,,,,,,,,,,,,,,,,,2219.9206891,2221.9961587,,,2236.796168,2236.796168,2236.796168,3,4.392529300000035,2241.2206770999996,2241.2206770999996,2241.2206770999996,2241.2206770999996,2241.2206770999996,2241.2206770999996,2241.2206770999996,2241.2206770999996,None,None,None,,,,,,,,,,2217.5000962999998,2217.5000962999998,space,2.3915282999999476,2233.1580095,,,,,3,001,2024-07-10_14h00.52.801,robot_cogshifting_sign,2022.2.5,59.924303619692495,
"['L_Torso_Y_Back', 'R_Head_Y_For', 'R_Torso_Z_For', 'R_Torso_Y_For']","{'laterality': 'L_Torso_Y_Back', 'localisation': 'R_Head_Y_For', 'movement': 'R_Torso_Z_For'}",localisation,"['laterality', 'localisation']",R_Head_Y_For,1,2,robot,3,False,False,"['robot_stimuli\\L_Torso_Y_Back.mp4', 'robot_stimuli\\R_Head_Y_For.mp4', 'robot_stimuli\\R_Torso_Z_For.mp4', 'robot_stimuli\\R_Torso_Y_For.mp4']",robot_stimuli\R_Head_Y_For.mp4,3,,,,,,,,,,,,,0,73,73,73,,,,,,,,,,,,,,,,,,,2241.2206770999996,2243.2978989999997,,,2257.9573333999997,2257.9573333999997,2257.9573333999997,2,8.34263029999994,2266.3209408,2266.3209408,2266.3209408,2266.3209408,2266.3209408,2266.3209408,2266.3209408,2266.3209408,None,None,None,,,,,,,,,,2241.2206770999996,2241.2206770999996,None,,2254.3253126,2241.2206770999996,2241.2206770999996,,,3,001,2024-07-10_14h00.52.801,robot_cogshifting_sign,2022.2.5,59.924303619692495,
"['L_Arm_X_Back', 'R_Arm_X_Back', 'R_Base_X_For', 'R_Arm_Z_For']","{'laterality': 'L_Arm_X_Back', 'localisation': 'R_Base_X_For', 'movement': 'R_Arm_Z_For'}",movement,"['laterality', 'movement']",R_Arm_Z_For,3,2,robot,3,False,False,"['robot_stimuli\\L_Arm_X_Back.mp4', 'robot_stimuli\\R_Arm_X_Back.mp4', 'robot_stimuli\\R_Base_X_For.mp4', 'robot_stimuli\\R_Arm_Z_For.mp4']",robot_stimuli\R_Arm_Z_For.mp4,3,,,,,,,,,,,,,0,74,74,74,,,,,,,,,,,,,,,,,,,2266.3209408,2268.3974759999996,,,2283.0785702,2283.0785702,2283.0785702,4,3.661029599999722,2286.7707699999996,2286.7707699999996,2286.7707699999996,2286.7707699999996,2286.7707699999996,2286.7707699999996,2286.7707699999996,2286.7707699999996,None,None,None,,,,,,,,,,2266.3209408,2266.3209408,None,,2279.4442474999996,2266.3209408,2266.3209408,,,3,001,2024-07-10_14h00.52.801,robot_cogshifting_sign,2022.2.5,59.924303619692495,
"['L_Arm_Z_For', 'L_Base_X_Back', 'R_Base_Z_For', 'L_Base_Z_Back']","{'laterality': 'R_Base_Z_For', 'localisation': 'L_Arm_Z_For', 'movement': 'L_Base_X_Back'}",laterality,"['laterality', 'movement']",R_Base_Z_For,2,2,robot,3,False,False,"['robot_stimuli\\L_Arm_Z_For.mp4', 'robot_stimuli\\L_Base_X_Back.mp4', 'robot_stimuli\\R_Base_Z_For.mp4', 'robot_stimuli\\L_Base_Z_Back.mp4']",robot_stimuli\R_Base_Z_For.mp4,3,,,,,,,,,,,,,0,75,75,75,,,,,,,,,,,,,,,,,,,2286.7707699999996,2288.8484101,,,2303.6636326,2303.6636326,2303.6636326,3,1.867414999999994,2305.5539491,2305.5539491,2305.5539491,2305.5539491,2305.5539491,2305.5539491,2305.5539491,2305.5539491,None,None,None,,,,,,,,,,2286.7707699999996,2286.7707699999996,None,,2300.0195354999996,2286.7707699999996,2286.7707699999996,,,3,001,2024-07-10_14h00.52.801,robot_cogshifting_sign,2022.2.5,59.924303619692495,
"['R_Arm_Y_Back', 'R_Base_X_Back', 'L_Arm_X_Back', 'R_Arm_X_For']","{'laterality': 'L_Arm_X_Back', 'localisation': 'R_Base_X_Back', 'movement': 'R_Arm_Y_Back'}",laterality,"['laterality', 'movement']",L_Arm_X_Back,2,2,robot,3,False,False,"['robot_stimuli\\R_Arm_Y_Back.mp4', 'robot_stimuli\\R_Base_X_Back.mp4', 'robot_stimuli\\L_Arm_X_Back.mp4', 'robot_stimuli\\R_Arm_X_For.mp4']",robot_stimuli\L_Arm_X_Back.mp4,3,,,,,,,,,,,,,0,76,76,76,,,,,,,,,,,,,,,,,,,2305.5539491,2307.6298011,,,2322.4391963999997,2322.4391963999997,2322.4391963999997,3,2.8605212000000506,2325.3207623999997,2325.3207623999997,2325.3207623999997,2325.3207623999997,2325.3207623999997,2325.3207623999997,2325.3207623999997,2325.3207623999997,None,None,None,,,,,,,,,,2305.5539491,2305.5539491,None,,2318.8020791,2305.5539491,2305.5539491,,,3,001,2024-07-10_14h00.52.801,robot_cogshifting_sign,2022.2.5,59.924303619692495,
"['L_Head_Y_Back', 'R_Head_Y_Back', 'R_Head_X_Back', 'R_Torso_Y_For']","{'laterality': 'L_Head_Y_Back', 'localisation': 'R_Torso_Y_For', 'movement': 'R_Head_X_Back'}",movement,"['localisation', 'movement']",R_Head_X_Back,2,2,robot,3,False,False,"['robot_stimuli\\L_Head_Y_Back.mp4', 'robot_stimuli\\R_Head_Y_Back.mp4', 'robot_stimuli\\R_Head_X_Back.mp4', 'robot_stimuli\\R_Torso_Y_For.mp4']",robot_stimuli\R_Head_X_Back.mp4,3,,,,,,,,,,,,,0,77,77,77,,,,,,,,,,,,,,,,,,,2325.3207623999997,2327.3954501999997,,,2342.1931207,2342.1931207,2342.1931207,3,7.299666300000183,2349.5208327,2349.5208327,2349.5208327,2349.5208327,2349.5208327,2349.5208327,2349.5208327,2349.5208327,None,None,None,,,,,,,,,,2325.3207623999997,2325.3207623999997,None,,2338.5600949,2325.3207623999997,2325.3207623999997,,,3,001,2024-07-10_14h00.52.801,robot_cogshifting_sign,2022.2.5,59.924303619692495,
"['L_Head_Y_For', 'R_Head_Y_Back', 'R_Head_X_For', 'R_Arm_Y_For']","{'laterality': 'L_Head_Y_For', 'localisation': 'R_Arm_Y_For', 'movement': 'R_Head_X_For'}",laterality,"['laterality', 'localisation']",L_Head_Y_For,0,2,robot,3,False,False,"['robot_stimuli\\L_Head_Y_For.mp4', 'robot_stimuli\\R_Head_Y_Back.mp4', 'robot_stimuli\\R_Head_X_For.mp4', 'robot_stimuli\\R_Arm_Y_For.mp4']",robot_stimuli\L_Head_Y_For.mp4,3,,,,,,,,,,,,,0,78,78,78,,,,,,,,,,,,,,,,,,,2349.5208327,2351.5959758,,,2366.2646864999997,2366.2646864999997,2366.2646864999997,1,16.723428699999943,2383.0206648,2383.0206648,2383.0206648,2383.0206648,2383.0206648,2383.0206648,2383.0206648,2383.0206648,None,None,None,,,,,,,,,,2349.5208327,2349.5208327,None,,2362.7598313,2349.5208327,2349.5208327,,,3,001,2024-07-10_14h00.52.801,robot_cogshifting_sign,2022.2.5,59.924303619692495,
"['L_Head_Z_For', 'L_Base_Z_Back', 'R_Head_Z_Back', 'L_Head_Y_Back']","{'laterality': 'R_Head_Z_Back', 'localisation': 'L_Base_Z_Back', 'movement': 'L_Head_Y_Back'}",movement,"['localisation', 'movement']",L_Head_Y_Back,3,2,robot,3,False,False,"['robot_stimuli\\L_Head_Z_For.mp4', 'robot_stimuli\\L_Base_Z_Back.mp4', 'robot_stimuli\\R_Head_Z_Back.mp4', 'robot_stimuli\\L_Head_Y_Back.mp4']",robot_stimuli\L_Head_Y_Back.mp4,3,,,,,,,,,,,,,0,79,79,79,,,,,,,,,,,,,,,,,,,2383.0206648,2385.10075,,,2399.9442541,2399.9442541,2399.9442541,4,2.619121500000176,2402.5875383,2402.5875383,2402.5875383,2402.5875383,2402.5875383,2402.5875383,2402.5875383,2402.5875383,None,None,None,,,,,,,,,,2383.0206648,2383.0206648,None,,2396.299649,2383.0206648,2383.0206648,,,3,001,2024-07-10_14h00.52.801,robot_cogshifting_sign,2022.2.5,59.924303619692495,
"['R_Head_Y_Back', 'L_Head_Y_Back', 'L_Head_Z_For', 'L_Torso_Y_Back']","{'laterality': 'R_Head_Y_Back', 'localisation': 'L_Torso_Y_Back', 'movement': 'L_Head_Z_For'}",localisation,"['localisation', 'movement']",L_Torso_Y_Back,3,2,robot,3,False,True,"['robot_stimuli\\R_Head_Y_Back.mp4', 'robot_stimuli\\L_Head_Y_Back.mp4', 'robot_stimuli\\L_Head_Z_For.mp4', 'robot_stimuli\\L_Torso_Y_Back.mp4']",robot_stimuli\L_Torso_Y_Back.mp4,3,,,,,,,,,,,,,0,80,80,80,,,,,,,,,,,,,,,,,,,2402.5875383,2404.6653039,,,2419.3487508999997,2419.3487508999997,2419.3487508999997,4,8.16716609999986,2427.56339,2432.4181492,2427.56339,2432.4181492,2427.56339,2432.4181492,2427.56339,2432.4181492,34.629629629629626,4.274422699999832,space,,,4.791900300000009,,,,,,,2402.5875383,2402.5875383,None,,2415.8439377,2402.5875383,2402.5875383,,,3,001,2024-07-10_14h00.52.801,robot_cogshifting_sign,2022.2.5,59.924303619692495,
"['red_bottom_F_45', 'red_bottom_J_0', 'red_top_J_45', 'blue_bottom_B_45']","{'color': 'blue_bottom_B_45', 'position': 'red_top_J_45', 'orientation': 'red_bottom_J_0'}",orientation,['orientation'],red_bottom_J_0,1,1,letter,4,True,False,"['robot_stimuli\\\\filler.mp4', 'robot_stimuli\\\\filler.mp4', 'robot_stimuli\\\\filler.mp4', 'robot_stimuli\\\\filler.mp4']",robot_stimuli\\filler.mp4,3,,,,,,,,,,,,,0,81,81,81,,,,,,,,,,,,,,,,,,,2434.887514,2436.9421248999997,,,2445.4258668999996,2445.4258668999996,2445.4258668999996,2,1.1703556000000503,2446.6207191999997,2446.6207191999997,2446.6207191999997,2446.6207191999997,2446.6207191999997,2446.6207191999997,2446.6207191999997,2446.6207191999997,None,None,None,,,,,,,,,,2432.4181492,2432.4181492,space,2.4418597000001796,,,,2443.4035231,2445.4258668999996,3,001,2024-07-10_14h00.52.801,robot_cogshifting_sign,2022.2.5,59.924303619692495,
"['blue_top_R_0', 'red_top_D_45', 'red_top_T_0', 'red_left_J_0']","{'color': 'blue_top_R_0', 'position': 'red_left_J_0', 'orientation': 'red_top_D_45'}",position,['position'],red_left_J_0,3,1,letter,4,False,False,"['robot_stimuli\\\\filler.mp4', 'robot_stimuli\\\\filler.mp4', 'robot_stimuli\\\\filler.mp4', 'robot_stimuli\\\\filler.mp4']",robot_stimuli\\filler.mp4,3,,,,,,,,,,,,,0,82,82,82,,,,,,,,,,,,,,,,,,,2446.6207191999997,2448.6747962,,,2457.1550727,2457.1550727,2457.1550727,4,0.7284464000002231,2457.9041242,2457.9041242,2457.9041242,2457.9041242,2457.9041242,2457.9041242,2457.9041242,2457.9041242,None,None,None,,,,,,,,,,2446.6207191999997,2446.6207191999997,None,,,2446.6207191999997,2446.6207191999997,2455.1290980999997,2457.1550727,3,001,2024-07-10_14h00.52.801,robot_cogshifting_sign,2022.2.5,59.924303619692495,
"['blue_left_P_45', 'red_top_Z_45', 'blue_top_V_0', 'blue_top_Z_45']","{'color': 'red_top_Z_45', 'position': 'blue_left_P_45', 'orientation': 'blue_top_V_0'}",color,['color'],red_top_Z_45,1,1,letter,4,False,False,"['robot_stimuli\\\\filler.mp4', 'robot_stimuli\\\\filler.mp4', 'robot_stimuli\\\\filler.mp4', 'robot_stimuli\\\\filler.mp4']",robot_stimuli\\filler.mp4,3,,,,,,,,,,,,,0,83,83,83,,,,,,,,,,,,,,,,,,,2457.9041242,2459.9620342999997,,,2468.4430786,2468.4430786,2468.4430786,2,0.25625329999985524,2468.7208293999997,2468.7208293999997,2468.7208293999997,2468.7208293999997,2468.7208293999997,2468.7208293999997,2468.7208293999997,2468.7208293999997,None,None,None,,,,,,,,,,2457.9041242,2457.9041242,None,,,2457.9041242,2457.9041242,2466.4191968,2468.4430786,3,001,2024-07-10_14h00.52.801,robot_cogshifting_sign,2022.2.5,59.924303619692495,
"['blue_bottom_N_0', 'red_bottom_G_0', 'blue_bottom_J_45', 'blue_right_L_0']","{'color': 'red_bottom_G_0', 'position': 'blue_right_L_0', 'orientation': 'blue_bottom_J_45'}",position,['position'],blue_right_L_0,3,1,letter,4,False,False,"['robot_stimuli\\\\filler.mp4', 'robot_stimuli\\\\filler.mp4', 'robot_stimuli\\\\filler.mp4', 'robot_stimuli\\\\filler.mp4']",robot_stimuli\\filler.mp4,3,,,,,,,,,,,,,0,84,84,84,,,,,,,,,,,,,,,,,,,2468.7208293999997,2470.7743766999997,,,2479.2524524,2479.2524524,2479.2524524,4,0.47133060000015803,2479.7542143,2479.7542143,2479.7542143,2479.7542143,2479.7542143,2479.7542143,2479.7542143,2479.7542143,None,None,None,,,,,,,,,,2468.7208293999997,2468.7208293999997,None,,,2468.7208293999997,2468.7208293999997,2477.235365,2479.2524524,3,001,2024-07-10_14h00.52.801,robot_cogshifting_sign,2022.2.5,59.924303619692495,
"['blue_left_L_45', 'red_left_C_45', 'blue_top_S_45', 'blue_left_F_0']","{'color': 'red_left_C_45', 'position': 'blue_top_S_45', 'orientation': 'blue_left_F_0'}",color,['color'],red_left_C_45,1,1,letter,4,False,False,"['robot_stimuli\\\\filler.mp4', 'robot_stimuli\\\\filler.mp4', 'robot_stimuli\\\\filler.mp4', 'robot_stimuli\\\\filler.mp4']",robot_stimuli\\filler.mp4,3,,,,,,,,,,,,,0,85,85,85,,,,,,,,,,,,,,,,,,,2479.7542143,2481.8061927,,,2490.4900896,2490.4900896,2490.4900896,2,0.506037999999819,2491.0207831,2491.0207831,2491.0207831,2491.0207831,2491.0207831,2491.0207831,2491.0207831,2491.0207831,None,None,None,,,,,,,,,,2479.7542143,2479.7542143,None,,,2479.7542143,2479.7542143,2488.2733752,2490.4900896,3,001,2024-07-10_14h00.52.801,robot_cogshifting_sign,2022.2.5,59.924303619692495,
"['blue_bottom_C_0', 'blue_top_C_45', 'red_top_L_0', 'blue_top_B_0']","{'color': 'red_top_L_0', 'position': 'blue_bottom_C_0', 'orientation': 'blue_top_C_45'}",orientation,['orientation'],blue_top_C_45,1,1,letter,4,False,False,"['robot_stimuli\\\\filler.mp4', 'robot_stimuli\\\\filler.mp4', 'robot_stimuli\\\\filler.mp4', 'robot_stimuli\\\\filler.mp4']",robot_stimuli\\filler.mp4,3,,,,,,,,,,,,,0,86,86,86,,,,,,,,,,,,,,,,,,,2491.0207831,2493.0763515,,,2501.3508214999997,2501.3508214999997,2501.3508214999997,2,0.22930660000002945,2501.6041692999997,2501.6041692999997,2501.6041692999997,2501.6041692999997,2501.6041692999997,2501.6041692999997,2501.6041692999997,2501.6041692999997,None,None,None,,,,,,,,,,2491.0207831,2491.0207831,None,,,2491.0207831,2491.0207831,2499.332735,2501.3508214999997,3,001,2024-07-10_14h00.52.801,robot_cogshifting_sign,2022.2.5,59.924303619692495,
"['blue_bottom_Q_45', 'red_top_M_45', 'red_bottom_T_45', 'red_bottom_Z_0']","{'color': 'blue_bottom_Q_45', 'position': 'red_top_M_45', 'orientation': 'red_bottom_Z_0'}",position,['position'],red_top_M_45,1,1,letter,4,False,False,"['robot_stimuli\\\\filler.mp4', 'robot_stimuli\\\\filler.mp4', 'robot_stimuli\\\\filler.mp4', 'robot_stimuli\\\\filler.mp4']",robot_stimuli\\filler.mp4,3,,,,,,,,,,,,,0,87,87,87,,,,,,,,,,,,,,,,,,,2501.6041692999997,2503.6594892999997,,,2511.9311764999998,2511.9311764999998,2511.9311764999998,2,0.46460390000021334,2512.4209985999996,2512.4209985999996,2512.4209985999996,2512.4209985999996,2512.4209985999996,2512.4209985999996,2512.4209985999996,2512.4209985999996,None,None,None,,,,,,,,,,2501.6041692999997,2501.6041692999997,None,,,2501.6041692999997,2501.6041692999997,2509.9131276,2511.9311764999998,3,001,2024-07-10_14h00.52.801,robot_cogshifting_sign,2022.2.5,59.924303619692495,
"['red_bottom_Q_0', 'blue_bottom_D_45', 'blue_bottom_T_0', 'blue_left_V_0']","{'color': 'red_bottom_Q_0', 'position': 'blue_left_V_0', 'orientation': 'blue_bottom_D_45'}",orientation,['orientation'],blue_bottom_D_45,1,1,letter,4,False,False,"['robot_stimuli\\\\filler.mp4', 'robot_stimuli\\\\filler.mp4', 'robot_stimuli\\\\filler.mp4', 'robot_stimuli\\\\filler.mp4']",robot_stimuli\\filler.mp4,3,,,,,,,,,,,,,0,88,88,88,,,,,,,,,,,,,,,,,,,2512.4209985999996,2514.4784369999998,,,2523.1756596,2523.1756596,2523.1756596,2,0.9399220000003083,2524.1376167,2524.1376167,2524.1376167,2524.1376167,2524.1376167,2524.1376167,2524.1376167,2524.1376167,None,None,None,,,,,,,,,,2512.4209985999996,2512.4209985999996,None,,,2512.4209985999996,2512.4209985999996,2520.9560506999997,2523.1756596,3,001,2024-07-10_14h00.52.801,robot_cogshifting_sign,2022.2.5,59.924303619692495,
"['red_right_H_45', 'blue_right_V_45', 'blue_bottom_X_45', 'blue_right_C_0']","{'color': 'red_right_H_45', 'position': 'blue_bottom_X_45', 'orientation': 'blue_right_C_0'}",color,['color'],red_right_H_45,0,1,letter,4,False,True,"['robot_stimuli\\\\filler.mp4', 'robot_stimuli\\\\filler.mp4', 'robot_stimuli\\\\filler.mp4', 'robot_stimuli\\\\filler.mp4']",robot_stimuli\\filler.mp4,3,,,,,,,,,,,,,0,89,89,89,,,,,,,,,,,,,,,,,,,2524.1376167,2526.1903568999996,,,2534.8765200999997,2534.8765200999997,2534.8765200999997,1,0.4956709999999589,2535.4296526,2541.1710107,2535.4296526,2541.1710107,2535.4296526,2541.1710107,2535.4296526,2541.1710107,3.9197530864197527,5.049784400000135,space,,,5.685981899999945,,,,,,,2524.1376167,2524.1376167,None,,,2524.1376167,2524.1376167,2532.8514757999997,2534.8765200999997,3,001,2024-07-10_14h00.52.801,robot_cogshifting_sign,2022.2.5,59.924303619692495,
"['blue_top_W_0', 'blue_left_S_0', 'red_top_Q_0', 'blue_top_P_45']","{'color': 'red_top_Q_0', 'position': 'blue_left_S_0', 'orientation': 'blue_top_P_45'}",position,"['color', 'position']",blue_left_S_0,1,2,letter,4,True,False,"['robot_stimuli\\\\filler.mp4', 'robot_stimuli\\\\filler.mp4', 'robot_stimuli\\\\filler.mp4', 'robot_stimuli\\\\filler.mp4']",robot_stimuli\\filler.mp4,3,,,,,,,,,,,,,0,90,90,90,,,,,,,,,,,,,,,,,,,2564.9045056,2566.9592866,,,2575.2576725999998,2575.2576725999998,2575.2576725999998,2,2.5853898999997114,2577.8706562999996,2577.8706562999996,2577.8706562999996,2577.8706562999996,2577.8706562999996,2577.8706562999996,2577.8706562999996,2577.8706562999996,None,None,None,,,,,,,,,,2541.1710107,2541.1710107,space,23.705494999999985,,,,2573.233307,2575.2576725999998,3,001,2024-07-10_14h00.52.801,robot_cogshifting_sign,2022.2.5,59.924303619692495,
"['blue_bottom_C_45', 'blue_left_D_0', 'red_left_D_45', 'blue_left_X_45']","{'color': 'red_left_D_45', 'position': 'blue_bottom_C_45', 'orientation': 'blue_left_D_0'}",color,"['color', 'position']",red_left_D_45,2,2,letter,4,False,False,"['robot_stimuli\\\\filler.mp4', 'robot_stimuli\\\\filler.mp4', 'robot_stimuli\\\\filler.mp4', 'robot_stimuli\\\\filler.mp4']",robot_stimuli\\filler.mp4,3,,,,,,,,,,,,,0,91,91,91,,,,,,,,,,,,,,,,,,,2577.8706562999996,2579.9336027,,,2588.2185411,2588.2185411,2588.2185411,3,2.1052219000001173,2590.3546922,2590.3546922,2590.3546922,2590.3546922,2590.3546922,2590.3546922,2590.3546922,2590.3546922,None,None,None,,,,,,,,,,2577.8706562999996,2577.8706562999996,None,,,2577.8706562999996,2577.8706562999996,2586.198629,2588.2185411,3,001,2024-07-10_14h00.52.801,robot_cogshifting_sign,2022.2.5,59.924303619692495,
"['red_top_K_0', 'red_right_T_45', 'blue_right_V_0', 'red_right_J_0']","{'color': 'blue_right_V_0', 'position': 'red_top_K_0', 'orientation': 'red_right_T_45'}",orientation,"['orientation', 'position']",red_right_T_45,1,2,letter,4,False,False,"['robot_stimuli\\\\filler.mp4', 'robot_stimuli\\\\filler.mp4', 'robot_stimuli\\\\filler.mp4', 'robot_stimuli\\\\filler.mp4']",robot_stimuli\\filler.mp4,3,,,,,,,,,,,,,0,92,92,92,,,,,,,,,,,,,,,,,,,2590.3546922,2592.4104746,,,2600.8943234999997,2600.8943234999997,2600.8943234999997,1,6.078400499999873,2607.0041971,2607.0041971,2607.0041971,2607.0041971,2607.0041971,2607.0041971,2607.0041971,2607.0041971,None,None,None,,,,,,,,,,2590.3546922,2590.3546922,None,,,2590.3546922,2590.3546922,2598.8681908,2600.8943234999997,3,001,2024-07-10_14h00.52.801,robot_cogshifting_sign,2022.2.5,59.924303619692495,
