sequence,is_true,target,condition,stimuli,block,is_block_beginning,is_block_ending,sequence_fnames,target_fname,subject,retraining.thisRepN,retraining.thisTrialN,retraining.thisN,retraining.thisIndex,training.thisRepN,training.thisTrialN,training.thisN,training.thisIndex,training_sequence_loop.thisRepN,training_sequence_loop.thisTrialN,training_sequence_loop.thisN,training_sequence_loop.thisIndex,trials.thisRepN,trials.thisTrialN,trials.thisN,trials.thisIndex,sequence_loop.thisRepN,sequence_loop.thisTrialN,sequence_loop.thisN,sequence_loop.thisIndex,langage_text.started,langage_key.started,langage_key.keys,langage_key.rt,intro_text.started,intro_key.started,intro_key.keys,intro_key.rt,training_intro_text.started,training_intro_key.started,training_intro_key.keys,training_intro_key.rt,polygon.started,polygon.stopped,training_presentation_letter.started,training_presentation_letter.stopped,training_recall_letter.started,training_recall_key.started,training_recall_question.started,training_recall_answer.started,training_recall_key.keys,training_recall_key.rt,RSME_labels.started,RSME_labels.stopped,RSME_ticks.started,RSME_ticks.stopped,RSME_text.started,RSME_text.stopped,RSME_key.started,RSME_key.stopped,RSME_ticks.response,RSME_ticks.rt,RSME_key.keys,training_intro_text.stopped,training_intro_key.stopped,RSME_key.rt,training_presentation_movie.started,training_recall_movie.started,experiment_beginning_text.started,experiment_beginning_keys.started,experiment_beginning_key.started,experiment_beginning_key.keys,experiment_beginning_key.rt,block_intro_text.started,block_intro_key.started,block_intro_key.keys,block_intro_key.rt,presentation_letter.started,presentation_letter.stopped,recall_letter.started,recall_key.started,recall_question.started,recall_answer.started,recall_key.keys,recall_key.rt,block_intro_text.stopped,block_intro_key.stopped,presentation_movie.started,recall_movie.started,participant,session,date,expName,psychopyVersion,frameRate,
,,,,,,,,,,,,,,,,,,,,,,,,,,,,,,,23.361823499999986,23.361823499999986,f,808.2756085000001,,,,,,,,,,,,,,,,,,,,,,,,,,,,,,,,,,,,,,,,,,,,,,,,,,,,,,,,2,001,2024-06-13_13h25.53.719,robot_sternberg_sign,2022.2.5,59.96537599189902,
,,,,,,,,,,,,,,,,,,,,,,,,,,,,,,,,,,,831.6942899000001,831.6942899000001,space,148.03069399999995,,,,,,,,,,,,,,,,,,,,,,,,,,,,,,,,,,,,,,,,,,,,,,,,,,,,2,001,2024-06-13_13h25.53.719,robot_sternberg_sign,2022.2.5,59.96537599189902,
"['C', 'J']",True,J,2,letter,1,True,False,"['robot_stimuli\\\\filler.mp4', 'robot_stimuli\\\\filler.mp4']",robot_stimuli\\filler.mp4,2,0,0,0,0,0,0,0,0,,,,,,,,,,,,,,,,,,,,,979.7689832000001,979.7689832000001,space,1.1329140999999083,986.5272399,987.6130552,984.5081660999999,986.5272399,987.6130552,987.6130552,987.6130552,987.6130552,c,1.1998883999999919,989.1429948,989.1429948,989.1429948,989.1429948,989.1429948,989.1429948,989.1429948,989.1429948,None,None,None,,,,,,,,,,,,,,,,,,,,,,,,,,,2,001,2024-06-13_13h25.53.719,robot_sternberg_sign,2022.2.5,59.96537599189902,
"['N', 'T']",True,T,2,letter,1,False,False,"['robot_stimuli\\\\filler.mp4', 'robot_stimuli\\\\filler.mp4']",robot_stimuli\\filler.mp4,2,0,0,0,0,0,1,1,1,,,,,,,,,,,,,,,,,,,,,989.1429948,989.1429948,None,,994.543584,995.6099701,992.5218026,994.543584,995.6099701,995.6099701,995.6099701,995.6099701,c,0.9142276000000322,996.6431319000001,996.6431319000001,996.6431319000001,996.6431319000001,996.6431319000001,996.6431319000001,996.6431319000001,996.6431319000001,None,None,None,989.1429948,989.1429948,,,,,,,,,,,,,,,,,,,,,,,,,2,001,2024-06-13_13h25.53.719,robot_sternberg_sign,2022.2.5,59.96537599189902,
"['Q', 'M']",False,G,2,letter,1,False,True,"['robot_stimuli\\\\filler.mp4', 'robot_stimuli\\\\filler.mp4']",robot_stimuli\\filler.mp4,2,0,0,0,0,0,2,2,2,,,,,,,,,,,,,,,,,,,,,996.6431319000001,996.6431319000001,None,,1002.0352107000001,1003.1136895,999.8167843000001,1002.0352107000001,1003.1136895,1003.1136895,1003.1136895,1003.1136895,n,0.9636657999999727,1004.1984319000001,1007.4306036,1004.1984319000001,1007.4306036,1004.1984319000001,1007.4306036,1004.1984319000001,1007.4306036,9.475308641975309,2.521224600000096,space,996.6431319000001,996.6431319000001,3.182751399999944,,,,,,,,,,,,,,,,,,,,,,,,2,001,2024-06-13_13h25.53.719,robot_sternberg_sign,2022.2.5,59.96537599189902,
"['C', 'K', 'Q', 'J']",False,H,4,letter,1,True,False,"['robot_stimuli\\\\filler.mp4', 'robot_stimuli\\\\filler.mp4', 'robot_stimuli\\\\filler.mp4', 'robot_stimuli\\\\filler.mp4']",robot_stimuli\\filler.mp4,2,0,0,0,0,0,3,3,3,,,,,,,,,,,,,,,,,,,,,1007.4306036,1007.4306036,space,1.0553486999999961,1018.3251874,1019.3946040999999,1016.3096221000001,1018.3251874,1019.3946040999999,1019.3946040999999,1019.3946040999999,1019.3946040999999,n,0.9539979000001324,1020.4199988,1020.4199988,1020.4199988,1020.4199988,1020.4199988,1020.4199988,1020.4199988,1020.4199988,None,None,None,,,,,,,,,,,,,,,,,,,,,,,,,,,2,001,2024-06-13_13h25.53.719,robot_sternberg_sign,2022.2.5,59.96537599189902,
"['F', 'H', 'P', 'X']",True,F,4,letter,1,False,False,"['robot_stimuli\\\\filler.mp4', 'robot_stimuli\\\\filler.mp4', 'robot_stimuli\\\\filler.mp4', 'robot_stimuli\\\\filler.mp4']",robot_stimuli\\filler.mp4,2,0,0,0,0,0,4,4,4,,,,,,,,,,,,,,,,,,,,,1020.4199988,1020.4199988,None,,1030.0322774,1031.107739,1028.008709,1030.0322774,1031.107739,1031.107739,1031.107739,1031.107739,c,1.3939009999999428,1032.7388965,1032.7388965,1032.7388965,1032.7388965,1032.7388965,1032.7388965,1032.7388965,1032.7388965,None,None,None,1020.4199988,1020.4199988,,,,,,,,,,,,,,,,,,,,,,,,,2,001,2024-06-13_13h25.53.719,robot_sternberg_sign,2022.2.5,59.96537599189902,
"['D', 'C', 'B', 'P']",True,B,4,letter,1,False,True,"['robot_stimuli\\\\filler.mp4', 'robot_stimuli\\\\filler.mp4', 'robot_stimuli\\\\filler.mp4', 'robot_stimuli\\\\filler.mp4']",robot_stimuli\\filler.mp4,2,0,0,0,0,0,5,5,5,,,,,,,,,,,,,,,,,,,,,1032.7388965,1032.7388965,None,,1042.5220488,1043.5962661,1040.5064082000001,1042.5220488,1043.5962661,1043.5962661,1043.5962661,1043.5962661,c,1.1213156000001447,1044.854493,1047.9115296,1044.854493,1047.9115296,1044.854493,1047.9115296,1044.854493,1047.9115296,20.123456790123452,2.09224990000007,space,1032.7388965,1032.7388965,2.9901344000000165,,,,,,,,,,,,,,,,,,,,,,,,2,001,2024-06-13_13h25.53.719,robot_sternberg_sign,2022.2.5,59.96537599189902,
"['L', 'J', 'X', 'F', 'N', 'B']",False,T,6,letter,1,True,False,"['robot_stimuli\\\\filler.mp4', 'robot_stimuli\\\\filler.mp4', 'robot_stimuli\\\\filler.mp4', 'robot_stimuli\\\\filler.mp4', 'robot_stimuli\\\\filler.mp4', 'robot_stimuli\\\\filler.mp4']",robot_stimuli\\filler.mp4,2,0,0,0,0,0,6,6,6,,,,,,,,,,,,,,,,,,,,,1047.9115296,1047.9115296,space,72.31694670000005,1134.2325552,1135.3137023,1132.219067,1134.2325552,1135.3137023,1135.3137023,1135.3137023,1135.3137023,n,0.5308487000000071,1135.9404426,1135.9404426,1135.9404426,1135.9404426,1135.9404426,1135.9404426,1135.9404426,1135.9404426,None,None,None,,,,,,,,,,,,,,,,,,,,,,,,,,,2,001,2024-06-13_13h25.53.719,robot_sternberg_sign,2022.2.5,59.96537599189902,
"['W', 'K', 'Q', 'M', 'P', 'C']",True,C,6,letter,1,False,False,"['robot_stimuli\\\\filler.mp4', 'robot_stimuli\\\\filler.mp4', 'robot_stimuli\\\\filler.mp4', 'robot_stimuli\\\\filler.mp4', 'robot_stimuli\\\\filler.mp4', 'robot_stimuli\\\\filler.mp4']",robot_stimuli\\filler.mp4,2,0,0,0,0,0,7,7,7,,,,,,,,,,,,,,,,,,,,,1135.9404426,1135.9404426,None,,1150.4924614,1151.5485531,1148.2815893,1150.4924614,1151.5485531,1151.5485531,1151.5485531,1151.5485531,c,0.6645716000000732,1152.3806964,1152.3806964,1152.3806964,1152.3806964,1152.3806964,1152.3806964,1152.3806964,1152.3806964,None,None,None,1135.9404426,1135.9404426,,,,,,,,,,,,,,,,,,,,,,,,,2,001,2024-06-13_13h25.53.719,robot_sternberg_sign,2022.2.5,59.96537599189902,
"['N', 'D', 'L', 'G', 'F', 'M']",True,F,6,letter,1,False,True,"['robot_stimuli\\\\filler.mp4', 'robot_stimuli\\\\filler.mp4', 'robot_stimuli\\\\filler.mp4', 'robot_stimuli\\\\filler.mp4', 'robot_stimuli\\\\filler.mp4', 'robot_stimuli\\\\filler.mp4']",robot_stimuli\\filler.mp4,2,0,0,0,0,0,8,8,8,,,,,,,,,,,,,,,,,,,,,1152.3806964,1152.3806964,None,,1166.5271482,1167.5863819,1164.5102011,1166.5271482,1167.5863819,1167.5863819,1167.5863819,1167.5863819,c,1.1065817000001346,1168.841064,1171.4659795,1168.841064,1171.4659795,1168.841064,1171.4659795,1168.841064,1171.4659795,20.89506172839506,1.9755554999999276,space,1152.3806964,1152.3806964,2.5487608000001103,,,,,,,,,,,,,,,,,,,,,,,,2,001,2024-06-13_13h25.53.719,robot_sternberg_sign,2022.2.5,59.96537599189902,
"['L_Torso_Y_Back', 'L_Arm_Z_For']",False,L_Arm_Y_For,2,robot,2,True,False,"['robot_stimuli\\L_Torso_Y_Back.mp4', 'robot_stimuli\\L_Arm_Z_For.mp4']",robot_stimuli\L_Arm_Y_For.mp4,2,0,0,0,0,0,9,9,9,,,,,,,,,,,,,,,,,,,,,1171.4659795,1171.4659795,space,1.6428106999999557,1181.4513821,1182.5431816,,,,1182.5431816,1182.5431816,1182.5431816,n,2.214576600000129,1186.1872951,1186.1872951,1186.1872951,1186.1872951,1186.1872951,1186.1872951,1186.1872951,1186.1872951,None,None,None,,,,1177.8111993,1182.5431816,,,,,,,,,,,,,,,,,,,,,,2,001,2024-06-13_13h25.53.719,robot_sternberg_sign,2022.2.5,59.96537599189902,
"['R_Torso_Z_Back', 'L_Torso_Z_Back']",True,R_Torso_Z_Back,2,robot,2,False,False,"['robot_stimuli\\R_Torso_Z_Back.mp4', 'robot_stimuli\\L_Torso_Z_Back.mp4']",robot_stimuli\R_Torso_Z_Back.mp4,2,0,0,0,0,0,10,10,10,,,,,,,,,,,,,,,,,,,,,1186.1872951,1186.1872951,None,,1194.5352594,1195.6357575,,,,1195.6357575,1195.6357575,1195.6357575,c,2.250578600000182,1199.2801436,1199.2801436,1199.2801436,1199.2801436,1199.2801436,1199.2801436,1199.2801436,1199.2801436,None,None,None,1186.1872951,1186.1872951,,1191.027491,1195.6357575,,,,,,,,,,,,,,,,,,,,,,2,001,2024-06-13_13h25.53.719,robot_sternberg_sign,2022.2.5,59.96537599189902,
"['R_Torso_X_For', 'R_Arm_X_Back']",True,R_Arm_X_Back,2,robot,2,False,True,"['robot_stimuli\\R_Torso_X_For.mp4', 'robot_stimuli\\R_Arm_X_Back.mp4']",robot_stimuli\R_Arm_X_Back.mp4,2,0,0,0,0,0,11,11,11,,,,,,,,,,,,,,,,,,,,,1199.2801436,1199.2801436,None,,1207.7430668,1208.8294282,,,,1208.8294282,1208.8294282,1208.8294282,c,2.5034703000001457,1212.4993465,1215.1057263,1212.4993465,1215.1057263,1212.4993465,1215.1057263,1212.4993465,1215.1057263,9.475308641975309,1.849969099999953,space,1199.2801436,1199.2801436,2.537207699999982,1204.1138988,1208.8294282,,,,,,,,,,,,,,,,,,,,,,2,001,2024-06-13_13h25.53.719,robot_sternberg_sign,2022.2.5,59.96537599189902,
"['L_Head_Z_For', 'R_Head_Y_Back', 'R_Base_X_For', 'L_Torso_Z_For']",False,R_Torso_X_For,4,robot,2,True,False,"['robot_stimuli\\L_Head_Z_For.mp4', 'robot_stimuli\\R_Head_Y_Back.mp4', 'robot_stimuli\\R_Base_X_For.mp4', 'robot_stimuli\\L_Torso_Z_For.mp4']",robot_stimuli\R_Torso_X_For.mp4,2,0,0,0,0,0,12,12,12,,,,,,,,,,,,,,,,,,,,,1215.1057263,1215.1057263,space,1.0993148000000303,1232.050241,1233.1438486,,,,1233.1438486,1233.1438486,1233.1438486,n,2.7980743999999333,1236.7952993000001,1236.7952993000001,1236.7952993000001,1236.7952993000001,1236.7952993000001,1236.7952993000001,1236.7952993000001,1236.7952993000001,None,None,None,,,,1228.4091018,1233.1438486,,,,,,,,,,,,,,,,,,,,,,2,001,2024-06-13_13h25.53.719,robot_sternberg_sign,2022.2.5,59.96537599189902,
"['L_Head_Z_Back', 'R_Torso_X_For', 'L_Torso_X_For', 'L_Arm_Z_For']",True,L_Head_Z_Back,4,robot,2,False,False,"['robot_stimuli\\L_Head_Z_Back.mp4', 'robot_stimuli\\R_Torso_X_For.mp4', 'robot_stimuli\\L_Torso_X_For.mp4', 'robot_stimuli\\L_Arm_Z_For.mp4']",robot_stimuli\L_Head_Z_Back.mp4,2,0,0,0,0,0,13,13,13,,,,,,,,,,,,,,,,,,,,,1236.7952993000001,1236.7952993000001,None,,1252.7348588,1253.8242765,,,,1253.8242765,1253.8242765,1253.8242765,c,2.812108800000061,1257.4753997,1257.4753997,1257.4753997,1257.4753997,1257.4753997,1257.4753997,1257.4753997,1257.4753997,None,None,None,1236.7952993000001,1236.7952993000001,,1249.0907806,1253.8242765,,,,,,,,,,,,,,,,,,,,,,2,001,2024-06-13_13h25.53.719,robot_sternberg_sign,2022.2.5,59.96537599189902,
"['R_Arm_X_For', 'L_Torso_X_For', 'R_Base_Y_Back', 'R_Base_Y_For']",True,L_Torso_X_For,4,robot,2,False,True,"['robot_stimuli\\R_Arm_X_For.mp4', 'robot_stimuli\\L_Torso_X_For.mp4', 'robot_stimuli\\R_Base_Y_Back.mp4', 'robot_stimuli\\R_Base_Y_For.mp4']",robot_stimuli\L_Torso_X_For.mp4,2,0,0,0,0,0,14,14,14,,,,,,,,,,,,,,,,,,,,,1257.4753997,1257.4753997,None,,1273.4206771,1274.5216811,,,,1274.5216811,1274.5216811,1274.5216811,n,2.956383999999872,1278.183512,1281.5841337,1278.183512,1281.5841337,1278.183512,1281.5841337,1278.183512,1281.5841337,38.02469135802469,2.5419505999998364,space,1257.4753997,1257.4753997,3.341721900000067,1269.7758268,1274.5216811,,,,,,,,,,,,,,,,,,,,,,2,001,2024-06-13_13h25.53.719,robot_sternberg_sign,2022.2.5,59.96537599189902,
"['L_Base_X_Back', 'R_Head_X_For', 'L_Head_Y_Back', 'R_Arm_X_Back', 'R_Arm_X_For', 'L_Base_Y_For']",False,L_Torso_X_Back,6,robot,2,True,False,"['robot_stimuli\\L_Base_X_Back.mp4', 'robot_stimuli\\R_Head_X_For.mp4', 'robot_stimuli\\L_Head_Y_Back.mp4', 'robot_stimuli\\R_Arm_X_Back.mp4', 'robot_stimuli\\R_Arm_X_For.mp4', 'robot_stimuli\\L_Base_Y_For.mp4']",robot_stimuli\L_Torso_X_Back.mp4,2,0,0,0,0,0,15,15,15,,,,,,,,,,,,,,,,,,,,,1281.5841337,1281.5841337,space,1.0607389000001888,1305.8627676,1283.7565451,,,,1306.9564659,1306.9564659,1306.9564659,n,3.289652400000051,1310.6048428,1310.6048428,1310.6048428,1310.6048428,1310.6048428,1310.6048428,1310.6048428,1310.6048428,None,None,None,,,,1302.3300986,1306.9564659,,,,,,,,,,,,,,,,,,,,,,2,001,2024-06-13_13h25.53.719,robot_sternberg_sign,2022.2.5,59.96537599189902,
"['L_Torso_Y_For', 'L_Torso_X_For', 'L_Head_X_Back', 'L_Arm_Y_For', 'R_Arm_Z_Back', 'L_Arm_X_For']",True,L_Arm_Y_For,6,robot,2,False,False,"['robot_stimuli\\L_Torso_Y_For.mp4', 'robot_stimuli\\L_Torso_X_For.mp4', 'robot_stimuli\\L_Head_X_Back.mp4', 'robot_stimuli\\L_Arm_Y_For.mp4', 'robot_stimuli\\R_Arm_Z_Back.mp4', 'robot_stimuli\\L_Arm_X_For.mp4']",robot_stimuli\L_Arm_Y_For.mp4,2,0,0,0,0,0,16,16,16,,,,,,,,,,,,,,,,,,,,,1310.6048428,1310.6048428,None,,1333.9106742,1334.9926255,,,,1334.9926255,1334.9926255,1334.9926255,c,2.1492762000000596,1338.6418597,1338.6418597,1338.6418597,1338.6418597,1338.6418597,1338.6418597,1338.6418597,1338.6418597,None,None,None,1310.6048428,1310.6048428,,1330.2783574,1334.9926255,,,,,,,,,,,,,,,,,,,,,,2,001,2024-06-13_13h25.53.719,robot_sternberg_sign,2022.2.5,59.96537599189902,
"['R_Arm_Z_For', 'L_Torso_X_Back', 'L_Torso_Y_Back', 'L_Head_Y_For', 'L_Base_Y_Back', 'R_Head_Z_Back']",True,L_Base_Y_Back,6,robot,2,False,True,"['robot_stimuli\\R_Arm_Z_For.mp4', 'robot_stimuli\\L_Torso_X_Back.mp4', 'robot_stimuli\\L_Torso_Y_Back.mp4', 'robot_stimuli\\L_Head_Y_For.mp4', 'robot_stimuli\\L_Base_Y_Back.mp4', 'robot_stimuli\\R_Head_Z_Back.mp4']",robot_stimuli\L_Base_Y_Back.mp4,2,0,0,0,0,0,17,17,17,,,,,,,,,,,,,,,,,,,,,1338.6418597,1338.6418597,None,,1361.7817157,1362.8727163,,,,1362.8727163,1362.8727163,1362.8727163,n,2.9077191000001505,1366.4645239,1368.8098896,1366.4645239,1368.8098896,1366.4645239,1368.8098896,1366.4645239,1368.8098896,36.327160493827165,1.20269559999997,space,1338.6418597,1338.6418597,2.3004589000002227,1358.1398177,1362.8727163,,,,,,,,,,,,,,,,,,,,,,2,001,2024-06-13_13h25.53.719,robot_sternberg_sign,2022.2.5,59.96537599189902,
,,,,,,,,,,,0,0,0,0,,,,,,,,,,,,,,,,,,,,,,,,,,,,,,,,,,,,,,,,,,,,,,,,,,,,,,,1368.8098896,1368.8098896,1368.8098896,c,1.5143631999999627,,,,,,,,,,,,,,,,,2,001,2024-06-13_13h25.53.719,robot_sternberg_sign,2022.2.5,59.96537599189902,
"['Z', 'L', 'T', 'Q']",False,B,4,letter,1,True,False,"['robot_stimuli\\\\filler.mp4', 'robot_stimuli\\\\filler.mp4', 'robot_stimuli\\\\filler.mp4', 'robot_stimuli\\\\filler.mp4']",robot_stimuli\\filler.mp4,2,,,,,,,,,,,,,0,0,0,0,,,,,,,,,,,,,,,,,1382.8028405,1383.8855821,,,,,,,,,1384.6943713,1384.6943713,1384.6943713,1384.6943713,1384.6943713,1384.6943713,1384.6943713,1384.6943713,None,None,None,,,,,,,,,,,1370.3595429,1370.3595429,space,2.462089100000213,1380.78952,1382.8028405,1383.8855821,1383.8855821,1383.8855821,1383.8855821,n,0.7115412999999364,,,,,2,001,2024-06-13_13h25.53.719,robot_sternberg_sign,2022.2.5,59.96537599189902,
"['Z', 'W', 'J', 'L']",True,L,4,letter,1,False,False,"['robot_stimuli\\\\filler.mp4', 'robot_stimuli\\\\filler.mp4', 'robot_stimuli\\\\filler.mp4', 'robot_stimuli\\\\filler.mp4']",robot_stimuli\\filler.mp4,2,,,,,,,,,,,,,0,1,1,1,,,,,,,,,,,,,,,,,1394.447077,1385.7503654,,,,,,,,,1396.3402978,1396.3402978,1396.3402978,1396.3402978,1396.3402978,1396.3402978,1396.3402978,1396.3402978,None,None,None,,,,,,,,,,,1384.6943713,1384.6943713,None,,1392.4431,1394.447077,1395.514185,1395.514185,1395.514185,1395.514185,c,0.6912348000001032,1384.6943713,1384.6943713,,,2,001,2024-06-13_13h25.53.719,robot_sternberg_sign,2022.2.5,59.96537599189902,
"['J', 'F', 'Z', 'P']",False,K,4,letter,1,False,False,"['robot_stimuli\\\\filler.mp4', 'robot_stimuli\\\\filler.mp4', 'robot_stimuli\\\\filler.mp4', 'robot_stimuli\\\\filler.mp4']",robot_stimuli\\filler.mp4,2,,,,,,,,,,,,,0,2,2,2,,,,,,,,,,,,,,,,,1406.4924749,1407.5474297,,,,,,,,,1408.1736161000001,1408.1736161000001,1408.1736161000001,1408.1736161000001,1408.1736161000001,1408.1736161000001,1408.1736161000001,1408.1736161000001,None,None,None,,,,,,,,,,,1396.3402978,1396.3402978,None,,1404.2791436,1406.4924749,1407.5474297,1407.5474297,1407.5474297,1407.5474297,n,0.45857330000015395,1396.3402978,1396.3402978,,,2,001,2024-06-13_13h25.53.719,robot_sternberg_sign,2022.2.5,59.96537599189902,
"['R', 'D', 'P', 'Z']",True,D,4,letter,1,False,False,"['robot_stimuli\\\\filler.mp4', 'robot_stimuli\\\\filler.mp4', 'robot_stimuli\\\\filler.mp4', 'robot_stimuli\\\\filler.mp4']",robot_stimuli\\filler.mp4,2,,,,,,,,,,,,,0,3,3,3,,,,,,,,,,,,,,,,,1417.7258312,1418.7845242,,,,,,,,,1419.8173106,1419.8173106,1419.8173106,1419.8173106,1419.8173106,1419.8173106,1419.8173106,1419.8173106,None,None,None,,,,,,,,,,,1408.1736161000001,1408.1736161000001,None,,1415.709785,1417.7258312,1418.7845242,1418.7845242,1418.7845242,1418.7845242,c,0.853323999999958,1408.1736161000001,1408.1736161000001,,,2,001,2024-06-13_13h25.53.719,robot_sternberg_sign,2022.2.5,59.96537599189902,
"['P', 'W', 'R', 'K']",False,J,4,letter,1,False,False,"['robot_stimuli\\\\filler.mp4', 'robot_stimuli\\\\filler.mp4', 'robot_stimuli\\\\filler.mp4', 'robot_stimuli\\\\filler.mp4']",robot_stimuli\\filler.mp4,2,,,,,,,,,,,,,0,4,4,4,,,,,,,,,,,,,,,,,1429.5815514,1430.6669249,,,,,,,,,1431.2883464,1431.2883464,1431.2883464,1431.2883464,1431.2883464,1431.2883464,1431.2883464,1431.2883464,None,None,None,,,,,,,,,,,1419.8173106,1419.8173106,None,,1427.3665355,1429.5815514,1430.6669249,1430.6669249,1430.6669249,1430.6669249,n,0.5062605000000815,1419.8173106,1419.8173106,,,2,001,2024-06-13_13h25.53.719,robot_sternberg_sign,2022.2.5,59.96537599189902,
"['N', 'M', 'W', 'Z']",False,C,4,letter,1,False,False,"['robot_stimuli\\\\filler.mp4', 'robot_stimuli\\\\filler.mp4', 'robot_stimuli\\\\filler.mp4', 'robot_stimuli\\\\filler.mp4']",robot_stimuli\\filler.mp4,2,,,,,,,,,,,,,0,5,5,5,,,,,,,,,,,,,,,,,1441.0521478,1442.1143952,,,,,,,,,1442.7407522,1442.7407522,1442.7407522,1442.7407522,1442.7407522,1442.7407522,1442.7407522,1442.7407522,None,None,None,,,,,,,,,,,1431.2883464,1431.2883464,None,,1438.8289318,1441.0521478,1442.1143952,1442.1143952,1442.1143952,1442.1143952,n,0.5232982000000277,1431.2883464,1431.2883464,,,2,001,2024-06-13_13h25.53.719,robot_sternberg_sign,2022.2.5,59.96537599189902,
"['Q', 'X', 'K', 'J']",False,B,4,letter,1,False,False,"['robot_stimuli\\\\filler.mp4', 'robot_stimuli\\\\filler.mp4', 'robot_stimuli\\\\filler.mp4', 'robot_stimuli\\\\filler.mp4']",robot_stimuli\\filler.mp4,2,,,,,,,,,,,,,0,6,6,6,,,,,,,,,,,,,,,,,1452.4870549,1453.5502261,,,,,,,,,1454.1698579000001,1454.1698579000001,1454.1698579000001,1454.1698579000001,1454.1698579000001,1454.1698579000001,1454.1698579000001,1454.1698579000001,None,None,None,,,,,,,,,,,1442.7407522,1442.7407522,None,,1450.4718167,1452.4870549,1453.5502261,1453.5502261,1453.5502261,1453.5502261,n,0.5115464999999233,1442.7407522,1442.7407522,,,2,001,2024-06-13_13h25.53.719,robot_sternberg_sign,2022.2.5,59.96537599189902,
"['C', 'J', 'S', 'P']",True,P,4,letter,1,False,False,"['robot_stimuli\\\\filler.mp4', 'robot_stimuli\\\\filler.mp4', 'robot_stimuli\\\\filler.mp4', 'robot_stimuli\\\\filler.mp4']",robot_stimuli\\filler.mp4,2,,,,,,,,,,,,,0,7,7,7,,,,,,,,,,,,,,,,,1463.9186183,1464.9845432,,,,,,,,,1465.8040271,1465.8040271,1465.8040271,1465.8040271,1465.8040271,1465.8040271,1465.8040271,1465.8040271,None,None,None,,,,,,,,,,,1454.1698579000001,1454.1698579000001,None,,1461.7027023,1463.9186183,1464.9845432,1464.9845432,1464.9845432,1464.9845432,c,0.7485431000000347,1454.1698579000001,1454.1698579000001,,,2,001,2024-06-13_13h25.53.719,robot_sternberg_sign,2022.2.5,59.96537599189902,
"['L', 'H', 'F', 'Q']",True,L,4,letter,1,False,False,"['robot_stimuli\\\\filler.mp4', 'robot_stimuli\\\\filler.mp4', 'robot_stimuli\\\\filler.mp4', 'robot_stimuli\\\\filler.mp4']",robot_stimuli\\filler.mp4,2,,,,,,,,,,,,,0,8,8,8,,,,,,,,,,,,,,,,,1475.5526797,1476.6149795000001,,,,,,,,,1477.2426363,1477.2426363,1477.2426363,1477.2426363,1477.2426363,1477.2426363,1477.2426363,1477.2426363,None,None,None,,,,,,,,,,,1465.8040271,1465.8040271,None,,1473.3310809,1475.5526797,1476.6149795000001,1476.6149795000001,1476.6149795000001,1476.6149795000001,c,0.43870160000008696,1465.8040271,1465.8040271,,,2,001,2024-06-13_13h25.53.719,robot_sternberg_sign,2022.2.5,59.96537599189902,
"['V', 'T', 'D', 'S']",True,S,4,letter,1,False,True,"['robot_stimuli\\\\filler.mp4', 'robot_stimuli\\\\filler.mp4', 'robot_stimuli\\\\filler.mp4', 'robot_stimuli\\\\filler.mp4']",robot_stimuli\\filler.mp4,2,,,,,,,,,,,,,0,9,9,9,,,,,,,,,,,,,,,,,1487.1859024,1488.2484408,,,,,,,,,1489.1069771,1492.0300289,1489.1069771,1492.0300289,1489.1069771,1492.0300289,1489.1069771,1492.0300289,19.50617283950617,1.9778204000001551,space,,,2.8820991000000333,,,,,,,,1477.2426363,1477.2426363,None,,1485.1678694,1487.1859024,1488.2484408,1488.2484408,1488.2484408,1488.2484408,c,0.6377439000000606,1477.2426363,1477.2426363,,,2,001,2024-06-13_13h25.53.719,robot_sternberg_sign,2022.2.5,59.96537599189902,
"['D', 'M']",False,T,2,letter,1,True,False,"['robot_stimuli\\\\filler.mp4', 'robot_stimuli\\\\filler.mp4']",robot_stimuli\\filler.mp4,2,,,,,,,,,,,,,0,10,10,10,,,,,,,,,,,,,,,,,1498.5038885,1499.5665887,,,,,,,,,1500.5926618,1500.5926618,1500.5926618,1500.5926618,1500.5926618,1500.5926618,1500.5926618,1500.5926618,None,None,None,,,,,,,,,,,1492.0300289,1492.0300289,space,0.8864178000001459,1496.2966455,1498.5038885,1499.5665887,1499.5665887,1499.5665887,1499.5665887,n,0.885823800000054,,,,,2,001,2024-06-13_13h25.53.719,robot_sternberg_sign,2022.2.5,59.96537599189902,
"['X', 'M']",True,X,2,letter,1,False,False,"['robot_stimuli\\\\filler.mp4', 'robot_stimuli\\\\filler.mp4']",robot_stimuli\\filler.mp4,2,,,,,,,,,,,,,0,11,11,11,,,,,,,,,,,,,,,,,1505.9585814,1507.0138928000001,,,,,,,,,1507.8428155,1507.8428155,1507.8428155,1507.8428155,1507.8428155,1507.8428155,1507.8428155,1507.8428155,None,None,None,,,,,,,,,,,1500.5926618,1500.5926618,None,,1503.9438413,1505.9585814,1507.0138928000001,1507.0138928000001,1507.0138928000001,1507.0138928000001,c,0.6710157000000265,1500.5926618,1500.5926618,,,2,001,2024-06-13_13h25.53.719,robot_sternberg_sign,2022.2.5,59.96537599189902,
"['K', 'H']",True,K,2,letter,1,False,False,"['robot_stimuli\\\\filler.mp4', 'robot_stimuli\\\\filler.mp4']",robot_stimuli\\filler.mp4,2,,,,,,,,,,,,,0,12,12,12,,,,,,,,,,,,,,,,,1513.2013255,1514.2633906,,,,,,,,,1515.0873601,1515.0873601,1515.0873601,1515.0873601,1515.0873601,1515.0873601,1515.0873601,1515.0873601,None,None,None,,,,,,,,,,,1507.8428155,1507.8428155,None,,1511.1904428,1513.2013255,1514.2633906,1514.2633906,1514.2633906,1514.2633906,c,0.6781347999999809,1507.8428155,1507.8428155,,,2,001,2024-06-13_13h25.53.719,robot_sternberg_sign,2022.2.5,59.96537599189902,
"['C', 'W']",True,W,2,letter,1,False,False,"['robot_stimuli\\\\filler.mp4', 'robot_stimuli\\\\filler.mp4']",robot_stimuli\\filler.mp4,2,,,,,,,,,,,,,0,13,13,13,,,,,,,,,,,,,,,,,1520.4529597,1521.5136326,,,,,,,,,1522.5354971,1522.5354971,1522.5354971,1522.5354971,1522.5354971,1522.5354971,1522.5354971,1522.5354971,None,None,None,,,,,,,,,,,1515.0873601,1515.0873601,None,,1518.4422764,1520.4529597,1521.5136326,1521.5136326,1521.5136326,1521.5136326,c,0.8278537999999855,1515.0873601,1515.0873601,,,2,001,2024-06-13_13h25.53.719,robot_sternberg_sign,2022.2.5,59.96537599189902,
"['N', 'C']",False,M,2,letter,1,False,False,"['robot_stimuli\\\\filler.mp4', 'robot_stimuli\\\\filler.mp4']",robot_stimuli\\filler.mp4,2,,,,,,,,,,,,,0,14,14,14,,,,,,,,,,,,,,,,,1528.1104869,1529.1635884,,,,,,,,,1529.7919606,1529.7919606,1529.7919606,1529.7919606,1529.7919606,1529.7919606,1529.7919606,1529.7919606,None,None,None,,,,,,,,,,,1522.5354971,1522.5354971,None,,1525.895463,1528.1104869,1529.1635884,1529.1635884,1529.1635884,1529.1635884,n,0.490282100000087,1522.5354971,1522.5354971,,,2,001,2024-06-13_13h25.53.719,robot_sternberg_sign,2022.2.5,59.96537599189902,
"['G', 'H']",False,J,2,letter,1,False,False,"['robot_stimuli\\\\filler.mp4', 'robot_stimuli\\\\filler.mp4']",robot_stimuli\\filler.mp4,2,,,,,,,,,,,,,0,15,15,15,,,,,,,,,,,,,,,,,1535.1632376,1530.8455952,,,,,,,,,1537.065661,1537.065661,1537.065661,1537.065661,1537.065661,1537.065661,1537.065661,1537.065661,None,None,None,,,,,,,,,,,1529.7919606,1529.7919606,None,,1533.1426638,1535.1632376,1536.2437084,1536.2437084,1536.2437084,1536.2437084,n,0.6823061000000337,1529.7919606,1529.7919606,,,2,001,2024-06-13_13h25.53.719,robot_sternberg_sign,2022.2.5,59.96537599189902,
"['K', 'B']",False,G,2,letter,1,False,False,"['robot_stimuli\\\\filler.mp4', 'robot_stimuli\\\\filler.mp4']",robot_stimuli\\filler.mp4,2,,,,,,,,,,,,,0,16,16,16,,,,,,,,,,,,,,,,,1542.6501578,1543.7141378000001,,,,,,,,,1544.5426144,1544.5426144,1544.5426144,1544.5426144,1544.5426144,1544.5426144,1544.5426144,1544.5426144,None,None,None,,,,,,,,,,,1537.065661,1537.065661,None,,1540.4342692,1542.6501578,1543.7141378000001,1543.7141378000001,1543.7141378000001,1543.7141378000001,n,0.5950316000001123,1537.065661,1537.065661,,,2,001,2024-06-13_13h25.53.719,robot_sternberg_sign,2022.2.5,59.96537599189902,
"['G', 'S']",True,G,2,letter,1,False,False,"['robot_stimuli\\\\filler.mp4', 'robot_stimuli\\\\filler.mp4']",robot_stimuli\\filler.mp4,2,,,,,,,,,,,,,0,17,17,17,,,,,,,,,,,,,,,,,1549.9101461,1550.9622162,,,,,,,,,1551.7840719,1551.7840719,1551.7840719,1551.7840719,1551.7840719,1551.7840719,1551.7840719,1551.7840719,None,None,None,,,,,,,,,,,1544.5426144,1544.5426144,None,,1547.8940208,1549.9101461,1550.9622162,1550.9622162,1550.9622162,1550.9622162,c,0.6662411000000077,1544.5426144,1544.5426144,,,2,001,2024-06-13_13h25.53.719,robot_sternberg_sign,2022.2.5,59.96537599189902,
"['Z', 'M']",False,F,2,letter,1,False,False,"['robot_stimuli\\\\filler.mp4', 'robot_stimuli\\\\filler.mp4']",robot_stimuli\\filler.mp4,2,,,,,,,,,,,,,0,18,18,18,,,,,,,,,,,,,,,,,1557.1517014,1558.2143052000001,,,,,,,,,1559.0432059,1559.0432059,1559.0432059,1559.0432059,1559.0432059,1559.0432059,1559.0432059,1559.0432059,None,None,None,,,,,,,,,,,1551.7840719,1551.7840719,None,,1555.1395592000001,1557.1517014,1558.2143052000001,1558.2143052000001,1558.2143052000001,1558.2143052000001,n,0.7196163999999783,1551.7840719,1551.7840719,,,2,001,2024-06-13_13h25.53.719,robot_sternberg_sign,2022.2.5,59.96537599189902,
"['J', 'S']",True,J,2,letter,1,False,True,"['robot_stimuli\\\\filler.mp4', 'robot_stimuli\\\\filler.mp4']",robot_stimuli\\filler.mp4,2,,,,,,,,,,,,,0,19,19,19,,,,,,,,,,,,,,,,,1564.4062734,1565.4682336,,,,,,,,,1566.3205902,1569.3295985,1566.3205902,1569.3295985,1566.3205902,1569.3295985,1566.3205902,1569.3295985,6.388888888888886,2.0812286000000313,space,,,2.963830100000024,,,,,,,,1559.0432059,1559.0432059,None,,1562.3896918,1564.4062734,1565.4682336,1565.4682336,1565.4682336,1565.4682336,c,0.5765214000000753,1559.0432059,1559.0432059,,,2,001,2024-06-13_13h25.53.719,robot_sternberg_sign,2022.2.5,59.96537599189902,
"['F', 'R', 'L', 'G', 'X', 'J']",True,X,6,letter,1,True,False,"['robot_stimuli\\\\filler.mp4', 'robot_stimuli\\\\filler.mp4', 'robot_stimuli\\\\filler.mp4', 'robot_stimuli\\\\filler.mp4', 'robot_stimuli\\\\filler.mp4', 'robot_stimuli\\\\filler.mp4']",robot_stimuli\\filler.mp4,2,,,,,,,,,,,,,0,20,20,20,,,,,,,,,,,,,,,,,1584.4613161,1585.5149009,,,,,,,,,1586.5446469,1586.5446469,1586.5446469,1586.5446469,1586.5446469,1586.5446469,1586.5446469,1586.5446469,None,None,None,,,,,,,,,,,1569.3295985,1569.3295985,space,0.9953740999999638,1582.2483167,1584.4613161,1585.5149009,1585.5149009,1585.5149009,1585.5149009,c,0.8108628999998757,,,,,2,001,2024-06-13_13h25.53.719,robot_sternberg_sign,2022.2.5,59.96537599189902,
"['Z', 'K', 'B', 'L', 'R', 'W']",False,F,6,letter,1,False,False,"['robot_stimuli\\\\filler.mp4', 'robot_stimuli\\\\filler.mp4', 'robot_stimuli\\\\filler.mp4', 'robot_stimuli\\\\filler.mp4', 'robot_stimuli\\\\filler.mp4', 'robot_stimuli\\\\filler.mp4']",robot_stimuli\\filler.mp4,2,,,,,,,,,,,,,0,21,21,21,,,,,,,,,,,,,,,,,1600.6702076,1601.7296496,,,,,,,,,1602.3602335,1602.3602335,1602.3602335,1602.3602335,1602.3602335,1602.3602335,1602.3602335,1602.3602335,None,None,None,,,,,,,,,,,1586.5446469,1586.5446469,None,,1598.4638041,1600.6702076,1601.7296496,1601.7296496,1601.7296496,1601.7296496,n,0.48351059999984614,1586.5446469,1586.5446469,,,2,001,2024-06-13_13h25.53.719,robot_sternberg_sign,2022.2.5,59.96537599189902,
"['V', 'B', 'R', 'M', 'J', 'K']",True,K,6,letter,1,False,False,"['robot_stimuli\\\\filler.mp4', 'robot_stimuli\\\\filler.mp4', 'robot_stimuli\\\\filler.mp4', 'robot_stimuli\\\\filler.mp4', 'robot_stimuli\\\\filler.mp4', 'robot_stimuli\\\\filler.mp4']",robot_stimuli\\filler.mp4,2,,,,,,,,,,,,,0,22,22,22,,,,,,,,,,,,,,,,,1616.4801792,1603.4165387,,,,,,,,,1618.3820161,1618.3820161,1618.3820161,1618.3820161,1618.3820161,1618.3820161,1618.3820161,1618.3820161,None,None,None,,,,,,,,,,,1602.3602335,1602.3602335,None,,1614.4678178,1616.4801792,1617.5591594,1617.5591594,1617.5591594,1617.5591594,c,0.7746815000000709,1602.3602335,1602.3602335,,,2,001,2024-06-13_13h25.53.719,robot_sternberg_sign,2022.2.5,59.96537599189902,
"['H', 'D', 'C', 'M', 'X', 'Q']",False,T,6,letter,1,False,False,"['robot_stimuli\\\\filler.mp4', 'robot_stimuli\\\\filler.mp4', 'robot_stimuli\\\\filler.mp4', 'robot_stimuli\\\\filler.mp4', 'robot_stimuli\\\\filler.mp4', 'robot_stimuli\\\\filler.mp4']",robot_stimuli\\filler.mp4,2,,,,,,,,,,,,,0,23,23,23,,,,,,,,,,,,,,,,,1632.5060732,1633.5645892,,,,,,,,,1634.5920897,1634.5920897,1634.5920897,1634.5920897,1634.5920897,1634.5920897,1634.5920897,1634.5920897,None,None,None,,,,,,,,,,,1618.3820161,1618.3820161,None,,1630.4883757,1632.5060732,1633.5645892,1633.5645892,1633.5645892,1633.5645892,n,0.8250757999999507,1618.3820161,1618.3820161,,,2,001,2024-06-13_13h25.53.719,robot_sternberg_sign,2022.2.5,59.96537599189902,
"['B', 'W', 'P', 'R', 'F', 'T']",True,P,6,letter,1,False,False,"['robot_stimuli\\\\filler.mp4', 'robot_stimuli\\\\filler.mp4', 'robot_stimuli\\\\filler.mp4', 'robot_stimuli\\\\filler.mp4', 'robot_stimuli\\\\filler.mp4', 'robot_stimuli\\\\filler.mp4']",robot_stimuli\\filler.mp4,2,,,,,,,,,,,,,0,24,24,24,,,,,,,,,,,,,,,,,1648.5232086,1649.5819975,,,,,,,,,1650.2053589,1650.2053589,1650.2053589,1650.2053589,1650.2053589,1650.2053589,1650.2053589,1650.2053589,None,None,None,,,,,,,,,,,1634.5920897,1634.5920897,None,,1646.5004091,1648.5232086,1649.5819975,1649.5819975,1649.5819975,1649.5819975,c,0.5355850999999632,1634.5920897,1634.5920897,,,2,001,2024-06-13_13h25.53.719,robot_sternberg_sign,2022.2.5,59.96537599189902,
"['G', 'L', 'S', 'W', 'B', 'P']",True,P,6,letter,1,False,False,"['robot_stimuli\\\\filler.mp4', 'robot_stimuli\\\\filler.mp4', 'robot_stimuli\\\\filler.mp4', 'robot_stimuli\\\\filler.mp4', 'robot_stimuli\\\\filler.mp4', 'robot_stimuli\\\\filler.mp4']",robot_stimuli\\filler.mp4,2,,,,,,,,,,,,,0,25,25,25,,,,,,,,,,,,,,,,,1664.3533236,1665.412654,,,,,,,,,1666.6439858,1666.6439858,1666.6439858,1666.6439858,1666.6439858,1666.6439858,1666.6439858,1666.6439858,None,None,None,,,,,,,,,,,1650.2053589,1650.2053589,None,,1662.3323232,1664.3533236,1665.412654,1665.412654,1665.412654,1665.412654,c,1.119882600000011,1650.2053589,1650.2053589,,,2,001,2024-06-13_13h25.53.719,robot_sternberg_sign,2022.2.5,59.96537599189902,
"['B', 'D', 'P', 'X', 'H', 'Q']",True,D,6,letter,1,False,False,"['robot_stimuli\\\\filler.mp4', 'robot_stimuli\\\\filler.mp4', 'robot_stimuli\\\\filler.mp4', 'robot_stimuli\\\\filler.mp4', 'robot_stimuli\\\\filler.mp4', 'robot_stimuli\\\\filler.mp4']",robot_stimuli\\filler.mp4,2,,,,,,,,,,,,,0,26,26,26,,,,,,,,,,,,,,,,,1680.5604732,1681.616087,,,,,,,,,1682.8410450000001,1682.8410450000001,1682.8410450000001,1682.8410450000001,1682.8410450000001,1682.8410450000001,1682.8410450000001,1682.8410450000001,None,None,None,,,,,,,,,,,1666.6439858,1666.6439858,None,,1678.3481504000001,1680.5604732,1681.616087,1681.616087,1681.616087,1681.616087,c,1.0921677999999986,1666.6439858,1666.6439858,,,2,001,2024-06-13_13h25.53.719,robot_sternberg_sign,2022.2.5,59.96537599189902,
"['F', 'H', 'G', 'R', 'Z', 'J']",False,C,6,letter,1,False,False,"['robot_stimuli\\\\filler.mp4', 'robot_stimuli\\\\filler.mp4', 'robot_stimuli\\\\filler.mp4', 'robot_stimuli\\\\filler.mp4', 'robot_stimuli\\\\filler.mp4', 'robot_stimuli\\\\filler.mp4']",robot_stimuli\\filler.mp4,2,,,,,,,,,,,,,0,27,27,27,,,,,,,,,,,,,,,,,1697.1701547,1698.2346252,,,,,,,,,1699.2650461,1699.2650461,1699.2650461,1699.2650461,1699.2650461,1699.2650461,1699.2650461,1699.2650461,None,None,None,,,,,,,,,,,1682.8410450000001,1682.8410450000001,None,,1695.1509562,1697.1701547,1698.2346252,1698.2346252,1698.2346252,1698.2346252,n,0.8746122000000298,1682.8410450000001,1682.8410450000001,,,2,001,2024-06-13_13h25.53.719,robot_sternberg_sign,2022.2.5,59.96537599189902,
"['G', 'R', 'T', 'X', 'Z', 'P']",False,K,6,letter,1,False,False,"['robot_stimuli\\\\filler.mp4', 'robot_stimuli\\\\filler.mp4', 'robot_stimuli\\\\filler.mp4', 'robot_stimuli\\\\filler.mp4', 'robot_stimuli\\\\filler.mp4', 'robot_stimuli\\\\filler.mp4']",robot_stimuli\\filler.mp4,2,,,,,,,,,,,,,0,28,28,28,,,,,,,,,,,,,,,,,1713.3953684,1700.3299959,,,,,,,,,1715.2937015,1715.2937015,1715.2937015,1715.2937015,1715.2937015,1715.2937015,1715.2937015,1715.2937015,None,None,None,,,,,,,,,,,1699.2650461,1699.2650461,None,,1711.1833033,1713.3953684,1714.4641666,1714.4641666,1714.4641666,1714.4641666,n,0.7325982000000124,1699.2650461,1699.2650461,,,2,001,2024-06-13_13h25.53.719,robot_sternberg_sign,2022.2.5,59.96537599189902,
"['V', 'B', 'N', 'J', 'F', 'P']",False,L,6,letter,1,False,True,"['robot_stimuli\\\\filler.mp4', 'robot_stimuli\\\\filler.mp4', 'robot_stimuli\\\\filler.mp4', 'robot_stimuli\\\\filler.mp4', 'robot_stimuli\\\\filler.mp4', 'robot_stimuli\\\\filler.mp4']",robot_stimuli\\filler.mp4,2,,,,,,,,,,,,,0,29,29,29,,,,,,,,,,,,,,,,,1729.4198373,1730.4865864,,,,,,,,,1731.3436617,1734.4297098,1731.3436617,1734.4297098,1731.3436617,1734.4297098,1731.3436617,1734.4297098,35.55555555555556,2.5133740000001126,space,,,3.037741200000056,,,,,,,,1715.2937015,1715.2937015,None,,1727.1981374,1729.4198373,1730.4865864,1730.4865864,1730.4865864,1730.4865864,n,0.7591126999998608,1715.2937015,1715.2937015,,,2,001,2024-06-13_13h25.53.719,robot_sternberg_sign,2022.2.5,59.96537599189902,
"['L_Head_Z_Back', 'L_Arm_Z_Back', 'L_Torso_X_For', 'R_Head_X_Back']",True,L_Arm_Z_Back,4,robot,2,True,False,"['robot_stimuli\\L_Head_Z_Back.mp4', 'robot_stimuli\\L_Arm_Z_Back.mp4', 'robot_stimuli\\L_Torso_X_For.mp4', 'robot_stimuli\\R_Head_X_Back.mp4']",robot_stimuli\L_Arm_Z_Back.mp4,2,,,,,,,,,,,,,0,30,30,30,,,,,,,,,,,,,,,,,1751.5335698000001,1752.6235106,,,,,,,,,1756.2787385,1756.2787385,1756.2787385,1756.2787385,1756.2787385,1756.2787385,1756.2787385,1756.2787385,None,None,None,,,,,,,,,,,1734.4297098,1734.4297098,space,1.2072888000000432,,,,1752.6235106,1752.6235106,1752.6235106,n,1.6615397999999288,,,1747.9023045000001,1752.6235106,2,001,2024-06-13_13h25.53.719,robot_sternberg_sign,2022.2.5,59.96537599189902,
"['L_Head_Y_For', 'L_Arm_Z_For', 'R_Base_Z_Back', 'R_Arm_Z_For']",True,L_Head_Y_For,4,robot,2,False,False,"['robot_stimuli\\L_Head_Y_For.mp4', 'robot_stimuli\\L_Arm_Z_For.mp4', 'robot_stimuli\\R_Base_Z_Back.mp4', 'robot_stimuli\\R_Arm_Z_For.mp4']",robot_stimuli\L_Head_Y_For.mp4,2,,,,,,,,,,,,,0,31,31,31,,,,,,,,,,,,,,,,,1772.101695,1773.1885231,,,,,,,,,1776.8278946,1776.8278946,1776.8278946,1776.8278946,1776.8278946,1776.8278946,1776.8278946,1776.8278946,None,None,None,,,,,,,,,,,1756.2787385,1756.2787385,None,,,,,1773.1885231,1773.1885231,1773.1885231,c,2.0639687999999126,1756.2787385,1756.2787385,1768.4708133,1773.1885231,2,001,2024-06-13_13h25.53.719,robot_sternberg_sign,2022.2.5,59.96537599189902,
"['R_Torso_Y_For', 'L_Head_X_For', 'L_Base_Y_Back', 'L_Head_Y_For']",True,L_Head_X_For,4,robot,2,False,False,"['robot_stimuli\\R_Torso_Y_For.mp4', 'robot_stimuli\\L_Head_X_For.mp4', 'robot_stimuli\\L_Base_Y_Back.mp4', 'robot_stimuli\\L_Head_Y_For.mp4']",robot_stimuli\L_Head_X_For.mp4,2,,,,,,,,,,,,,0,32,32,32,,,,,,,,,,,,,,,,,1792.5695558,1793.6586064,,,,,,,,,1797.239678,1797.239678,1797.239678,1797.239678,1797.239678,1797.239678,1797.239678,1797.239678,None,None,None,,,,,,,,,,,1776.8278946,1776.8278946,None,,,,,1793.6586064,1793.6586064,1793.6586064,c,2.194295799999992,1776.8278946,1776.8278946,1788.9379831,1793.6586064,2,001,2024-06-13_13h25.53.719,robot_sternberg_sign,2022.2.5,59.96537599189902,
"['R_Head_Z_Back', 'L_Torso_X_For', 'R_Head_X_For', 'R_Torso_X_For']",False,L_Arm_X_For,4,robot,2,False,False,"['robot_stimuli\\R_Head_Z_Back.mp4', 'robot_stimuli\\L_Torso_X_For.mp4', 'robot_stimuli\\R_Head_X_For.mp4', 'robot_stimuli\\R_Torso_X_For.mp4']",robot_stimuli\L_Arm_X_For.mp4,2,,,,,,,,,,,,,0,33,33,33,,,,,,,,,,,,,,,,,1813.1482933,1814.2383898,,,,,,,,,1817.8689366,1817.8689366,1817.8689366,1817.8689366,1817.8689366,1817.8689366,1817.8689366,1817.8689366,None,None,None,,,,,,,,,,,1797.239678,1797.239678,None,,,,,1814.2383898,1814.2383898,1814.2383898,n,1.9509945000000073,1797.239678,1797.239678,1809.5056445,1814.2383898,2,001,2024-06-13_13h25.53.719,robot_sternberg_sign,2022.2.5,59.96537599189902,
"['L_Arm_Z_Back', 'R_Torso_Z_For', 'R_Torso_X_Back', 'R_Head_X_Back']",False,L_Base_Z_Back,4,robot,2,False,False,"['robot_stimuli\\L_Arm_Z_Back.mp4', 'robot_stimuli\\R_Torso_Z_For.mp4', 'robot_stimuli\\R_Torso_X_Back.mp4', 'robot_stimuli\\R_Head_X_Back.mp4']",robot_stimuli\L_Base_Z_Back.mp4,2,,,,,,,,,,,,,0,34,34,34,,,,,,,,,,,,,,,,,1833.7826142000001,1834.8745939,,,,,,,,,1838.5229244,1838.5229244,1838.5229244,1838.5229244,1838.5229244,1838.5229244,1838.5229244,1838.5229244,None,None,None,,,,,,,,,,,1817.8689366,1817.8689366,None,,,,,1834.8745939,1834.8745939,1834.8745939,c,2.4898124999999993,1817.8689366,1817.8689366,1830.1414235,1834.8745939,2,001,2024-06-13_13h25.53.719,robot_sternberg_sign,2022.2.5,59.96537599189902,
"['L_Base_X_Back', 'R_Head_X_Back', 'R_Torso_Y_Back', 'R_Head_Z_For']",True,R_Head_Z_For,4,robot,2,False,False,"['robot_stimuli\\L_Base_X_Back.mp4', 'robot_stimuli\\R_Head_X_Back.mp4', 'robot_stimuli\\R_Torso_Y_Back.mp4', 'robot_stimuli\\R_Head_Z_For.mp4']",robot_stimuli\R_Head_Z_For.mp4,2,,,,,,,,,,,,,0,35,35,35,,,,,,,,,,,,,,,,,1854.3694043,1855.4553628,,,,,,,,,1859.0944064,1859.0944064,1859.0944064,1859.0944064,1859.0944064,1859.0944064,1859.0944064,1859.0944064,None,None,None,,,,,,,,,,,1838.5229244,1838.5229244,None,,,,,1855.4553628,1855.4553628,1855.4553628,c,1.7908829000000708,1838.5229244,1838.5229244,1850.7278886,1855.4553628,2,001,2024-06-13_13h25.53.719,robot_sternberg_sign,2022.2.5,59.96537599189902,
"['R_Arm_Y_Back', 'R_Arm_X_For', 'L_Arm_Z_For', 'L_Torso_Y_For']",False,L_Torso_Z_Back,4,robot,2,False,False,"['robot_stimuli\\R_Arm_Y_Back.mp4', 'robot_stimuli\\R_Arm_X_For.mp4', 'robot_stimuli\\L_Arm_Z_For.mp4', 'robot_stimuli\\L_Torso_Y_For.mp4']",robot_stimuli\L_Torso_Z_Back.mp4,2,,,,,,,,,,,,,0,36,36,36,,,,,,,,,,,,,,,,,1874.9637382,1860.1694935,,,,,,,,,1879.5604089,1879.5604089,1879.5604089,1879.5604089,1879.5604089,1879.5604089,1879.5604089,1879.5604089,None,None,None,,,,,,,,,,,1859.0944064,1859.0944064,None,,,,,1876.0547366,1876.0547366,1876.0547366,n,2.1503745000000265,1859.0944064,1859.0944064,1871.3332799,1876.0547366,2,001,2024-06-13_13h25.53.719,robot_sternberg_sign,2022.2.5,59.96537599189902,
"['L_Head_Y_Back', 'R_Arm_Y_For', 'R_Base_Z_Back', 'R_Torso_Z_Back']",False,L_Arm_Z_For,4,robot,2,False,False,"['robot_stimuli\\L_Head_Y_Back.mp4', 'robot_stimuli\\R_Arm_Y_For.mp4', 'robot_stimuli\\R_Base_Z_Back.mp4', 'robot_stimuli\\R_Torso_Z_Back.mp4']",robot_stimuli\L_Arm_Z_For.mp4,2,,,,,,,,,,,,,0,37,37,37,,,,,,,,,,,,,,,,,1895.2027056,1896.2934613999998,,,,,,,,,1899.9439501999998,1899.9439501999998,1899.9439501999998,1899.9439501999998,1899.9439501999998,1899.9439501999998,1899.9439501999998,1899.9439501999998,None,None,None,,,,,,,,,,,1879.5604089,1879.5604089,None,,,,,1896.2934613999998,1896.2934613999998,1896.2934613999998,n,1.7280335000000662,1879.5604089,1879.5604089,1891.5712397,1896.2934613999998,2,001,2024-06-13_13h25.53.719,robot_sternberg_sign,2022.2.5,59.96537599189902,
"['L_Head_X_Back', 'L_Base_X_Back', 'R_Base_Z_For', 'L_Head_X_For']",False,L_Head_Z_Back,4,robot,2,False,False,"['robot_stimuli\\L_Head_X_Back.mp4', 'robot_stimuli\\L_Base_X_Back.mp4', 'robot_stimuli\\R_Base_Z_For.mp4', 'robot_stimuli\\L_Head_X_For.mp4']",robot_stimuli\L_Head_Z_Back.mp4,2,,,,,,,,,,,,,0,38,38,38,,,,,,,,,,,,,,,,,1915.7483492,1916.8379477,,,,,,,,,1920.4764450999999,1920.4764450999999,1920.4764450999999,1920.4764450999999,1920.4764450999999,1920.4764450999999,1920.4764450999999,1920.4764450999999,None,None,None,,,,,,,,,,,1899.9439501999998,1899.9439501999998,None,,,,,1916.8379477,1916.8379477,1916.8379477,n,1.9759785999999906,1899.9439501999998,1899.9439501999998,1912.1733646999999,1916.8379477,2,001,2024-06-13_13h25.53.719,robot_sternberg_sign,2022.2.5,59.96537599189902,
"['L_Arm_X_For', 'R_Head_Y_Back', 'L_Head_X_Back', 'L_Base_Y_Back']",True,L_Head_X_Back,4,robot,2,False,True,"['robot_stimuli\\L_Arm_X_For.mp4', 'robot_stimuli\\R_Head_Y_Back.mp4', 'robot_stimuli\\L_Head_X_Back.mp4', 'robot_stimuli\\L_Base_Y_Back.mp4']",robot_stimuli\L_Head_X_Back.mp4,2,,,,,,,,,,,,,0,39,39,39,,,,,,,,,,,,,,,,,1936.2851366000002,1937.3795576999999,,,,,,,,,1941.0522380999998,1945.5506094999998,1941.0522380999998,1945.5506094999998,1941.0522380999998,1945.5506094999998,1941.0522380999998,1945.5506094999998,37.40740740740741,2.817078600000059,space,,,4.456483499999678,,,,,,,,1920.4764450999999,1920.4764450999999,None,,,,,1937.3795576999999,1937.3795576999999,1937.3795576999999,c,1.9622875999998826,1920.4764450999999,1920.4764450999999,1932.7205729999998,1937.3795576999999,2,001,2024-06-13_13h25.53.719,robot_sternberg_sign,2022.2.5,59.96537599189902,
"['L_Head_Y_For', 'L_Torso_X_For']",True,L_Head_Y_For,2,robot,2,True,False,"['robot_stimuli\\L_Head_Y_For.mp4', 'robot_stimuli\\L_Torso_X_For.mp4']",robot_stimuli\L_Head_Y_For.mp4,2,,,,,,,,,,,,,0,40,40,40,,,,,,,,,,,,,,,,,1957.6771870999999,1958.7550150999998,,,,,,,,,1962.3943355,1962.3943355,1962.3943355,1962.3943355,1962.3943355,1962.3943355,1962.3943355,1962.3943355,None,None,None,,,,,,,,,,,1945.5506094999998,1945.5506094999998,space,3.6618618000002527,,,,1958.7550150999998,1958.7550150999998,1958.7550150999998,c,2.0824395999998444,,,1954.048599,1958.7550150999998,2,001,2024-06-13_13h25.53.719,robot_sternberg_sign,2022.2.5,59.96537599189902,
"['R_Base_Y_For', 'L_Head_Z_For']",True,L_Head_Z_For,2,robot,2,False,False,"['robot_stimuli\\R_Base_Y_For.mp4', 'robot_stimuli\\L_Head_Z_For.mp4']",robot_stimuli\L_Head_Z_For.mp4,2,,,,,,,,,,,,,0,41,41,41,,,,,,,,,,,,,,,,,1970.8323386999998,1971.9261487,,,,,,,,,1975.5731592,1975.5731592,1975.5731592,1975.5731592,1975.5731592,1975.5731592,1975.5731592,1975.5731592,None,None,None,,,,,,,,,,,1962.3943355,1962.3943355,None,,,,,1971.9261487,1971.9261487,1971.9261487,c,1.9433668000001774,1962.3943355,1962.3943355,1967.1928567000002,1971.9261487,2,001,2024-06-13_13h25.53.719,robot_sternberg_sign,2022.2.5,59.96537599189902,
"['L_Head_Z_For', 'R_Base_X_For']",False,L_Head_Y_For,2,robot,2,False,False,"['robot_stimuli\\L_Head_Z_For.mp4', 'robot_stimuli\\R_Base_X_For.mp4']",robot_stimuli\L_Head_Y_For.mp4,2,,,,,,,,,,,,,0,42,42,42,,,,,,,,,,,,,,,,,1983.9178685,1985.0123173,,,,,,,,,1988.6604152000002,1988.6604152000002,1988.6604152000002,1988.6604152000002,1988.6604152000002,1988.6604152000002,1988.6604152000002,1988.6604152000002,None,None,None,,,,,,,,,,,1975.5731592,1975.5731592,None,,,,,1985.0123173,1985.0123173,1985.0123173,n,1.8721811000000628,1975.5731592,1975.5731592,1980.3765804000002,1985.0123173,2,001,2024-06-13_13h25.53.719,robot_sternberg_sign,2022.2.5,59.96537599189902,
"['R_Torso_X_Back', 'R_Arm_Z_For']",True,R_Arm_Z_For,2,robot,2,False,False,"['robot_stimuli\\R_Torso_X_Back.mp4', 'robot_stimuli\\R_Arm_Z_For.mp4']",robot_stimuli\R_Arm_Z_For.mp4,2,,,,,,,,,,,,,0,43,43,43,,,,,,,,,,,,,,,,,1997.0996293,1998.1917817,,,,,,,,,2001.8408797999998,2001.8408797999998,2001.8408797999998,2001.8408797999998,2001.8408797999998,2001.8408797999998,2001.8408797999998,2001.8408797999998,None,None,None,,,,,,,,,,,1988.6604152000002,1988.6604152000002,None,,,,,1998.1917817,1998.1917817,1998.1917817,c,1.6780829999998161,1988.6604152000002,1988.6604152000002,1993.4590887000002,1998.1917817,2,001,2024-06-13_13h25.53.719,robot_sternberg_sign,2022.2.5,59.96537599189902,
"['L_Torso_X_Back', 'R_Arm_Z_For']",False,R_Torso_Y_For,2,robot,2,False,False,"['robot_stimuli\\L_Torso_X_Back.mp4', 'robot_stimuli\\R_Arm_Z_For.mp4']",robot_stimuli\R_Torso_Y_For.mp4,2,,,,,,,,,,,,,0,44,44,44,,,,,,,,,,,,,,,,,2010.2829466,2011.3725183,,,,,,,,,2015.0013382,2015.0013382,2015.0013382,2015.0013382,2015.0013382,2015.0013382,2015.0013382,2015.0013382,None,None,None,,,,,,,,,,,2001.8408797999998,2001.8408797999998,None,,,,,2011.3725183,2011.3725183,2011.3725183,n,2.465429599999908,2001.8408797999998,2001.8408797999998,2006.6445463000002,2011.3725183,2,001,2024-06-13_13h25.53.719,robot_sternberg_sign,2022.2.5,59.96537599189902,
"['L_Torso_Z_For', 'L_Base_X_Back']",True,L_Torso_Z_For,2,robot,2,False,False,"['robot_stimuli\\L_Torso_Z_For.mp4', 'robot_stimuli\\L_Base_X_Back.mp4']",robot_stimuli\L_Torso_Z_For.mp4,2,,,,,,,,,,,,,0,45,45,45,,,,,,,,,,,,,,,,,2023.4201774,2024.5223537,,,,,,,,,2028.1521942000002,2028.1521942000002,2028.1521942000002,2028.1521942000002,2028.1521942000002,2028.1521942000002,2028.1521942000002,2028.1521942000002,None,None,None,,,,,,,,,,,2015.0013382,2015.0013382,None,,,,,2024.5223537,2024.5223537,2024.5223537,c,2.1872807000000023,2015.0013382,2015.0013382,2019.8112779,2024.5223537,2,001,2024-06-13_13h25.53.719,robot_sternberg_sign,2022.2.5,59.96537599189902,
"['L_Head_Z_Back', 'L_Head_X_For']",True,L_Head_X_For,2,robot,2,False,False,"['robot_stimuli\\L_Head_Z_Back.mp4', 'robot_stimuli\\L_Head_X_For.mp4']",robot_stimuli\L_Head_X_For.mp4,2,,,,,,,,,,,,,0,46,46,46,,,,,,,,,,,,,,,,,2036.510791,2037.6088644,,,,,,,,,2102.326599,2102.326599,2102.326599,2102.326599,2102.326599,2102.326599,2102.326599,2102.326599,None,None,None,,,,,,,,,,,2028.1521942000002,2028.1521942000002,None,,,,,2037.6088644,2037.6088644,2037.6088644,n,64.68364279999994,2028.1521942000002,2028.1521942000002,2032.9491924000001,2037.6088644,2,001,2024-06-13_13h25.53.719,robot_sternberg_sign,2022.2.5,59.96537599189902,
"['R_Arm_Z_For', 'R_Arm_Y_Back']",False,R_Torso_X_For,2,robot,2,False,False,"['robot_stimuli\\R_Arm_Z_For.mp4', 'robot_stimuli\\R_Arm_Y_Back.mp4']",robot_stimuli\R_Torso_X_For.mp4,2,,,,,,,,,,,,,0,47,47,47,,,,,,,,,,,,,,,,,2110.7861507999996,2111.8724678999997,,,,,,,,,2115.5212128999997,2115.5212128999997,2115.5212128999997,2115.5212128999997,2115.5212128999997,2115.5212128999997,2115.5212128999997,2115.5212128999997,None,None,None,,,,,,,,,,,2102.326599,2102.326599,None,,,,,2111.8724678999997,2111.8724678999997,2111.8724678999997,n,1.076273499999644,2102.326599,2102.326599,2107.1570425,2111.8724678999997,2,001,2024-06-13_13h25.53.719,robot_sternberg_sign,2022.2.5,59.96537599189902,
"['L_Head_Z_For', 'R_Head_Y_For']",False,R_Arm_X_Back,2,robot,2,False,False,"['robot_stimuli\\L_Head_Z_For.mp4', 'robot_stimuli\\R_Head_Y_For.mp4']",robot_stimuli\R_Arm_X_Back.mp4,2,,,,,,,,,,,,,0,48,48,48,,,,,,,,,,,,,,,,,2123.961343,2125.0412690999997,,,,,,,,,2128.6911541,2128.6911541,2128.6911541,2128.6911541,2128.6911541,2128.6911541,2128.6911541,2128.6911541,None,None,None,,,,,,,,,,,2115.5212128999997,2115.5212128999997,None,,,,,2125.0412690999997,2125.0412690999997,2125.0412690999997,n,1.7564731000000222,2115.5212128999997,2115.5212128999997,2120.3247041,2125.0412690999997,2,001,2024-06-13_13h25.53.719,robot_sternberg_sign,2022.2.5,59.96537599189902,
"['L_Arm_Y_For', 'R_Torso_Y_For']",False,R_Arm_Z_Back,2,robot,2,False,True,"['robot_stimuli\\L_Arm_Y_For.mp4', 'robot_stimuli\\R_Torso_Y_For.mp4']",robot_stimuli\R_Arm_Z_Back.mp4,2,,,,,,,,,,,,,0,49,49,49,,,,,,,,,,,,,,,,,2137.1512533,2138.2387673,,,,,,,,,2141.9114462,2144.3963061,2141.9114462,2144.3963061,2141.9114462,2144.3963061,2141.9114462,2144.3963061,24.135802469135797,2.0334061999997175,space,,,2.4373705999994684,,,,,,,,2128.6911541,2128.6911541,None,,,,,2138.2387673,2138.2387673,2138.2387673,n,1.9262037000001158,2128.6911541,2128.6911541,2133.5106125999996,2138.2387673,2,001,2024-06-13_13h25.53.719,robot_sternberg_sign,2022.2.5,59.96537599189902,
"['L_Base_Z_Back', 'L_Head_Y_For', 'R_Base_Z_For', 'R_Base_X_For', 'L_Base_Y_For', 'L_Arm_X_Back']",False,L_Torso_Z_Back,6,robot,2,True,False,"['robot_stimuli\\L_Base_Z_Back.mp4', 'robot_stimuli\\L_Head_Y_For.mp4', 'robot_stimuli\\R_Base_Z_For.mp4', 'robot_stimuli\\R_Base_X_For.mp4', 'robot_stimuli\\L_Base_Y_For.mp4', 'robot_stimuli\\L_Arm_X_Back.mp4']",robot_stimuli\L_Torso_Z_Back.mp4,2,,,,,,,,,,,,,0,50,50,50,,,,,,,,,,,,,,,,,2168.477747,2169.5576573999997,,,,,,,,,2173.073841,2173.073841,2173.073841,2173.073841,2173.073841,2173.073841,2173.073841,2173.073841,None,None,None,,,,,,,,,,,2144.3963061,2144.3963061,space,0.9051072999998553,,,,2169.5576573999997,2169.5576573999997,2169.5576573999997,n,2.463761599999799,,,2164.8457027,2169.5576573999997,2,001,2024-06-13_13h25.53.719,robot_sternberg_sign,2022.2.5,59.96537599189902,
"['R_Torso_Z_For', 'L_Arm_Y_Back', 'R_Torso_Y_Back', 'L_Base_Y_Back', 'R_Arm_Z_For', 'L_Head_X_For']",False,R_Torso_Z_Back,6,robot,2,False,False,"['robot_stimuli\\R_Torso_Z_For.mp4', 'robot_stimuli\\L_Arm_Y_Back.mp4', 'robot_stimuli\\R_Torso_Y_Back.mp4', 'robot_stimuli\\L_Base_Y_Back.mp4', 'robot_stimuli\\R_Arm_Z_For.mp4', 'robot_stimuli\\L_Head_X_For.mp4']",robot_stimuli\R_Torso_Z_Back.mp4,2,,,,,,,,,,,,,0,51,51,51,,,,,,,,,,,,,,,,,2196.2608465,2197.3495805999996,,,,,,,,,2203.6254204999996,2203.6254204999996,2203.6254204999996,2203.6254204999996,2203.6254204999996,2203.6254204999996,2203.6254204999996,2203.6254204999996,None,None,None,,,,,,,,,,,2173.073841,2173.073841,None,,,,,2197.3495805999996,2197.3495805999996,2197.3495805999996,n,6.231010199999929,2173.073841,2173.073841,2192.7048996,2197.3495805999996,2,001,2024-06-13_13h25.53.719,robot_sternberg_sign,2022.2.5,59.96537599189902,
"['L_Torso_Y_For', 'R_Torso_Y_For', 'R_Torso_Z_For', 'L_Arm_Y_Back', 'L_Torso_Y_Back', 'R_Head_Z_Back']",False,L_Torso_X_Back,6,robot,2,False,False,"['robot_stimuli\\L_Torso_Y_For.mp4', 'robot_stimuli\\R_Torso_Y_For.mp4', 'robot_stimuli\\R_Torso_Z_For.mp4', 'robot_stimuli\\L_Arm_Y_Back.mp4', 'robot_stimuli\\L_Torso_Y_Back.mp4', 'robot_stimuli\\R_Head_Z_Back.mp4']",robot_stimuli\L_Torso_X_Back.mp4,2,,,,,,,,,,,,,0,52,52,52,,,,,,,,,,,,,,,,,2226.7854986999996,2227.8735736999997,,,,,,,,,2231.5867830999996,2231.5867830999996,2231.5867830999996,2231.5867830999996,2231.5867830999996,2231.5867830999996,2231.5867830999996,2231.5867830999996,None,None,None,,,,,,,,,,,2203.6254204999996,2203.6254204999996,None,,,,,2227.8735736999997,2227.8735736999997,2227.8735736999997,n,3.6764236999995603,2203.6254204999996,2203.6254204999996,2223.1521092,2227.8735736999997,2,001,2024-06-13_13h25.53.719,robot_sternberg_sign,2022.2.5,59.96537599189902,
"['L_Arm_Z_Back', 'R_Base_X_Back', 'R_Torso_Z_For', 'L_Head_Y_Back', 'L_Head_Y_For', 'R_Torso_Z_Back']",True,L_Head_Y_For,6,robot,2,False,False,"['robot_stimuli\\L_Arm_Z_Back.mp4', 'robot_stimuli\\R_Base_X_Back.mp4', 'robot_stimuli\\R_Torso_Z_For.mp4', 'robot_stimuli\\L_Head_Y_Back.mp4', 'robot_stimuli\\L_Head_Y_For.mp4', 'robot_stimuli\\R_Torso_Z_Back.mp4']",robot_stimuli\L_Head_Y_For.mp4,2,,,,,,,,,,,,,0,53,53,53,,,,,,,,,,,,,,,,,2254.8996362,2255.988966,,,,,,,,,2259.6283347999997,2259.6283347999997,2259.6283347999997,2259.6283347999997,2259.6283347999997,2259.6283347999997,2259.6283347999997,2259.6283347999997,None,None,None,,,,,,,,,,,2231.5867830999996,2231.5867830999996,None,,,,,2255.988966,2255.988966,2255.988966,c,2.615948799999643,2231.5867830999996,2231.5867830999996,2251.2697756999996,2255.988966,2,001,2024-06-13_13h25.53.719,robot_sternberg_sign,2022.2.5,59.96537599189902,
"['L_Torso_Z_Back', 'R_Head_Z_For', 'R_Head_Z_Back', 'R_Torso_Y_Back', 'L_Base_X_For', 'L_Base_X_Back']",False,L_Head_X_Back,6,robot,2,False,False,"['robot_stimuli\\L_Torso_Z_Back.mp4', 'robot_stimuli\\R_Head_Z_For.mp4', 'robot_stimuli\\R_Head_Z_Back.mp4', 'robot_stimuli\\R_Torso_Y_Back.mp4', 'robot_stimuli\\L_Base_X_For.mp4', 'robot_stimuli\\L_Base_X_Back.mp4']",robot_stimuli\L_Head_X_Back.mp4,2,,,,,,,,,,,,,0,54,54,54,,,,,,,,,,,,,,,,,2282.7180403999996,2283.8076036999996,,,,,,,,,2287.4572006999997,2287.4572006999997,2287.4572006999997,2287.4572006999997,2287.4572006999997,2287.4572006999997,2287.4572006999997,2287.4572006999997,None,None,None,,,,,,,,,,,2259.6283347999997,2259.6283347999997,None,,,,,2283.8076036999996,2283.8076036999996,2283.8076036999996,n,2.0862832999999057,2259.6283347999997,2259.6283347999997,2279.1197634,2283.8076036999996,2,001,2024-06-13_13h25.53.719,robot_sternberg_sign,2022.2.5,59.96537599189902,
"['R_Arm_Z_For', 'L_Base_Y_For', 'L_Head_Y_Back', 'L_Torso_X_For', 'R_Head_Y_Back', 'R_Torso_Y_Back']",True,R_Arm_Z_For,6,robot,2,False,False,"['robot_stimuli\\R_Arm_Z_For.mp4', 'robot_stimuli\\L_Base_Y_For.mp4', 'robot_stimuli\\L_Head_Y_Back.mp4', 'robot_stimuli\\L_Torso_X_For.mp4', 'robot_stimuli\\R_Head_Y_Back.mp4', 'robot_stimuli\\R_Torso_Y_Back.mp4']",robot_stimuli\R_Arm_Z_For.mp4,2,,,,,,,,,,,,,0,55,55,55,,,,,,,,,,,,,,,,,2310.689708,2311.7889486,,,,,,,,,2315.4318615999996,2315.4318615999996,2315.4318615999996,2315.4318615999996,2315.4318615999996,2315.4318615999996,2315.4318615999996,2315.4318615999996,None,None,None,,,,,,,,,,,2287.4572006999997,2287.4572006999997,None,,,,,2311.7889486,2311.7889486,2311.7889486,n,1.9034900999998001,2287.4572006999997,2287.4572006999997,2307.0430964999996,2311.7889486,2,001,2024-06-13_13h25.53.719,robot_sternberg_sign,2022.2.5,59.96537599189902,
"['L_Base_Y_Back', 'R_Base_Z_For', 'R_Torso_Z_Back', 'L_Torso_Z_For', 'R_Torso_Y_Back', 'R_Arm_Z_Back']",True,R_Torso_Y_Back,6,robot,2,False,False,"['robot_stimuli\\L_Base_Y_Back.mp4', 'robot_stimuli\\R_Base_Z_For.mp4', 'robot_stimuli\\R_Torso_Z_Back.mp4', 'robot_stimuli\\L_Torso_Z_For.mp4', 'robot_stimuli\\R_Torso_Y_Back.mp4', 'robot_stimuli\\R_Arm_Z_Back.mp4']",robot_stimuli\R_Torso_Y_Back.mp4,2,,,,,,,,,,,,,0,56,56,56,,,,,,,,,,,,,,,,,2338.7110782,2339.7886010999996,,,,,,,,,2343.5126044999997,2343.5126044999997,2343.5126044999997,2343.5126044999997,2343.5126044999997,2343.5126044999997,2343.5126044999997,2343.5126044999997,None,None,None,,,,,,,,,,,2315.4318615999996,2315.4318615999996,None,,,,,2339.7886010999996,2339.7886010999996,2339.7886010999996,n,3.680453299999755,2315.4318615999996,2315.4318615999996,2335.0791593,2339.7886010999996,2,001,2024-06-13_13h25.53.719,robot_sternberg_sign,2022.2.5,59.96537599189902,
"['L_Base_X_Back', 'L_Arm_X_For', 'R_Head_Z_For', 'L_Arm_Y_Back', 'R_Head_X_Back', 'R_Arm_Z_For']",False,L_Torso_Y_For,6,robot,2,False,False,"['robot_stimuli\\L_Base_X_Back.mp4', 'robot_stimuli\\L_Arm_X_For.mp4', 'robot_stimuli\\R_Head_Z_For.mp4', 'robot_stimuli\\L_Arm_Y_Back.mp4', 'robot_stimuli\\R_Head_X_Back.mp4', 'robot_stimuli\\R_Arm_Z_For.mp4']",robot_stimuli\L_Torso_Y_For.mp4,2,,,,,,,,,,,,,0,57,57,57,,,,,,,,,,,,,,,,,2366.8005359999997,2367.8881029,,,,,,,,,2371.5255843,2371.5255843,2371.5255843,2371.5255843,2371.5255843,2371.5255843,2371.5255843,2371.5255843,None,None,None,,,,,,,,,,,2343.5126044999997,2343.5126044999997,None,,,,,2367.8881029,2367.8881029,2367.8881029,n,2.501665099999883,2343.5126044999997,2343.5126044999997,2363.1694089999996,2367.8881029,2,001,2024-06-13_13h25.53.719,robot_sternberg_sign,2022.2.5,59.96537599189902,
"['L_Arm_X_Back', 'L_Arm_X_For', 'R_Arm_X_Back', 'R_Torso_Y_Back', 'R_Head_Z_For', 'L_Torso_X_For']",True,L_Torso_X_For,6,robot,2,False,False,"['robot_stimuli\\L_Arm_X_Back.mp4', 'robot_stimuli\\L_Arm_X_For.mp4', 'robot_stimuli\\R_Arm_X_Back.mp4', 'robot_stimuli\\R_Torso_Y_Back.mp4', 'robot_stimuli\\R_Head_Z_For.mp4', 'robot_stimuli\\L_Torso_X_For.mp4']",robot_stimuli\L_Torso_X_For.mp4,2,,,,,,,,,,,,,0,58,58,58,,,,,,,,,,,,,,,,,2394.8277844,2395.9065057,,,,,,,,,2407.3603203,2407.3603203,2407.3603203,2407.3603203,2407.3603203,2407.3603203,2407.3603203,2407.3603203,None,None,None,,,,,,,,,,,2371.5255843,2371.5255843,None,,,,,2395.9065057,2395.9065057,2395.9065057,n,11.418058999999886,2371.5255843,2371.5255843,2391.2054881999998,2395.9065057,2,001,2024-06-13_13h25.53.719,robot_sternberg_sign,2022.2.5,59.96537599189902,
"['R_Torso_Z_For', 'L_Base_X_Back', 'L_Arm_Y_Back', 'R_Torso_Z_Back', 'R_Arm_Y_Back', 'R_Base_Z_For']",True,L_Base_X_Back,6,robot,2,False,True,"['robot_stimuli\\R_Torso_Z_For.mp4', 'robot_stimuli\\L_Base_X_Back.mp4', 'robot_stimuli\\L_Arm_Y_Back.mp4', 'robot_stimuli\\R_Torso_Z_Back.mp4', 'robot_stimuli\\R_Arm_Y_Back.mp4', 'robot_stimuli\\R_Base_Z_For.mp4']",robot_stimuli\L_Base_X_Back.mp4,2,,,,,,,,,,,,,0,59,59,59,,,,,,,,,,,,,,,,,2430.6499286999997,2431.741282,,,,,,,,,2435.3912853999996,2437.9489374,2435.3912853999996,2437.9489374,2435.3912853999996,2437.9489374,2435.3912853999996,2437.9489374,70.58641975308642,2.074412000000393,space,,,2.493583799999925,,,,,,,,2407.3603203,2407.3603203,None,,,,,2431.741282,2431.741282,2431.741282,c,3.335735399999777,2407.3603203,2407.3603203,2427.0261732999998,2431.741282,2,001,2024-06-13_13h25.53.719,robot_sternberg_sign,2022.2.5,59.96537599189902,
"['L', 'R', 'C', 'D', 'S', 'W']",True,W,6,letter,3,True,False,"['robot_stimuli\\\\filler.mp4', 'robot_stimuli\\\\filler.mp4', 'robot_stimuli\\\\filler.mp4', 'robot_stimuli\\\\filler.mp4', 'robot_stimuli\\\\filler.mp4', 'robot_stimuli\\\\filler.mp4']",robot_stimuli\\filler.mp4,2,,,,,,,,,,,,,0,60,60,60,,,,,,,,,,,,,,,,,2453.2393592,2454.2991970999997,,,,,,,,,2455.9327838,2455.9327838,2455.9327838,2455.9327838,2455.9327838,2455.9327838,2455.9327838,2455.9327838,None,None,None,,,,,,,,,,,2437.9489374,2437.9489374,space,1.1769522999996127,2451.2224279999996,2453.2393592,2454.2991970999997,2454.2991970999997,2454.2991970999997,2454.2991970999997,c,1.4020602999997038,,,,,2,001,2024-06-13_13h25.53.719,robot_sternberg_sign,2022.2.5,59.96537599189902,
"['M', 'N', 'D', 'B', 'C', 'T']",True,M,6,letter,3,False,False,"['robot_stimuli\\\\filler.mp4', 'robot_stimuli\\\\filler.mp4', 'robot_stimuli\\\\filler.mp4', 'robot_stimuli\\\\filler.mp4', 'robot_stimuli\\\\filler.mp4', 'robot_stimuli\\\\filler.mp4']",robot_stimuli\\filler.mp4,2,,,,,,,,,,,,,0,61,61,61,,,,,,,,,,,,,,,,,2470.0423898,2471.101304,,,,,,,,,2472.7277986,2472.7277986,2472.7277986,2472.7277986,2472.7277986,2472.7277986,2472.7277986,2472.7277986,None,None,None,,,,,,,,,,,2455.9327838,2455.9327838,None,,2468.0199616,2470.0423898,2471.101304,2471.101304,2471.101304,2471.101304,c,1.5046123999998429,2455.9327838,2455.9327838,,,2,001,2024-06-13_13h25.53.719,robot_sternberg_sign,2022.2.5,59.96537599189902,
"['N', 'B', 'Q', 'V', 'S', 'K']",True,B,6,letter,3,False,False,"['robot_stimuli\\\\filler.mp4', 'robot_stimuli\\\\filler.mp4', 'robot_stimuli\\\\filler.mp4', 'robot_stimuli\\\\filler.mp4', 'robot_stimuli\\\\filler.mp4', 'robot_stimuli\\\\filler.mp4']",robot_stimuli\\filler.mp4,2,,,,,,,,,,,,,0,62,62,62,,,,,,,,,,,,,,,,,2486.8336544,2487.8995911999996,,,,,,,,,2489.9507335,2489.9507335,2489.9507335,2489.9507335,2489.9507335,2489.9507335,2489.9507335,2489.9507335,None,None,None,,,,,,,,,,,2472.7277986,2472.7277986,None,,2484.8188637999997,2486.8336544,2487.8995911999996,2487.8995911999996,2487.8995911999996,2487.8995911999996,c,1.8266484999997203,2472.7277986,2472.7277986,,,2,001,2024-06-13_13h25.53.719,robot_sternberg_sign,2022.2.5,59.96537599189902,
"['P', 'G', 'X', 'H', 'L', 'W']",True,P,6,letter,3,False,False,"['robot_stimuli\\\\filler.mp4', 'robot_stimuli\\\\filler.mp4', 'robot_stimuli\\\\filler.mp4', 'robot_stimuli\\\\filler.mp4', 'robot_stimuli\\\\filler.mp4', 'robot_stimuli\\\\filler.mp4']",robot_stimuli\\filler.mp4,2,,,,,,,,,,,,,0,63,63,63,,,,,,,,,,,,,,,,,2503.6660715,2504.7319931999996,,,,,,,,,2506.1620292,2506.1620292,2506.1620292,2506.1620292,2506.1620292,2506.1620292,2506.1620292,2506.1620292,None,None,None,,,,,,,,,,,2489.9507335,2489.9507335,None,,2501.6562719999997,2503.6660715,2504.7319931999996,2504.7319931999996,2504.7319931999996,2504.7319931999996,c,1.3132990000001712,2489.9507335,2489.9507335,,,2,001,2024-06-13_13h25.53.719,robot_sternberg_sign,2022.2.5,59.96537599189902,
"['M', 'T', 'P', 'N', 'K', 'Q']",False,D,6,letter,3,False,False,"['robot_stimuli\\\\filler.mp4', 'robot_stimuli\\\\filler.mp4', 'robot_stimuli\\\\filler.mp4', 'robot_stimuli\\\\filler.mp4', 'robot_stimuli\\\\filler.mp4', 'robot_stimuli\\\\filler.mp4']",robot_stimuli\\filler.mp4,2,,,,,,,,,,,,,0,64,64,64,,,,,,,,,,,,,,,,,2520.6636374,2507.2164132999997,,,,,,,,,2523.1550233999997,2523.1550233999997,2523.1550233999997,2523.1550233999997,2523.1550233999997,2523.1550233999997,2523.1550233999997,2523.1550233999997,None,None,None,,,,,,,,,,,2506.1620292,2506.1620292,None,,2518.4527777999997,2520.6636374,2521.7325717,2521.7325717,2521.7325717,2521.7325717,n,1.2318364999994458,2506.1620292,2506.1620292,,,2,001,2024-06-13_13h25.53.719,robot_sternberg_sign,2022.2.5,59.96537599189902,
"['T', 'Q', 'S', 'R', 'B', 'G']",False,L,6,letter,3,False,False,"['robot_stimuli\\\\filler.mp4', 'robot_stimuli\\\\filler.mp4', 'robot_stimuli\\\\filler.mp4', 'robot_stimuli\\\\filler.mp4', 'robot_stimuli\\\\filler.mp4', 'robot_stimuli\\\\filler.mp4']",robot_stimuli\\filler.mp4,2,,,,,,,,,,,,,0,65,65,65,,,,,,,,,,,,,,,,,2537.2865239999996,2538.3606544,,,,,,,,,2539.7788796,2539.7788796,2539.7788796,2539.7788796,2539.7788796,2539.7788796,2539.7788796,2539.7788796,None,None,None,,,,,,,,,,,2523.1550233999997,2523.1550233999997,None,,2535.2723825,2537.2865239999996,2538.3606544,2538.3606544,2538.3606544,2538.3606544,n,1.2597865999998987,2523.1550233999997,2523.1550233999997,,,2,001,2024-06-13_13h25.53.719,robot_sternberg_sign,2022.2.5,59.96537599189902,
"['S', 'B', 'M', 'D', 'R', 'W']",False,N,6,letter,3,False,False,"['robot_stimuli\\\\filler.mp4', 'robot_stimuli\\\\filler.mp4', 'robot_stimuli\\\\filler.mp4', 'robot_stimuli\\\\filler.mp4', 'robot_stimuli\\\\filler.mp4', 'robot_stimuli\\\\filler.mp4']",robot_stimuli\\filler.mp4,2,,,,,,,,,,,,,0,66,66,66,,,,,,,,,,,,,,,,,2553.6733975999996,2554.7328844,,,,,,,,,2556.1612063999996,2556.1612063999996,2556.1612063999996,2556.1612063999996,2556.1612063999996,2556.1612063999996,2556.1612063999996,2556.1612063999996,None,None,None,,,,,,,,,,,2539.7788796,2539.7788796,None,,2551.6588465,2553.6733975999996,2554.7328844,2554.7328844,2554.7328844,2554.7328844,n,1.2162176999998167,2539.7788796,2539.7788796,,,2,001,2024-06-13_13h25.53.719,robot_sternberg_sign,2022.2.5,59.96537599189902,
"['Q', 'X', 'Z', 'K', 'G', 'N']",True,Q,6,letter,3,False,False,"['robot_stimuli\\\\filler.mp4', 'robot_stimuli\\\\filler.mp4', 'robot_stimuli\\\\filler.mp4', 'robot_stimuli\\\\filler.mp4', 'robot_stimuli\\\\filler.mp4', 'robot_stimuli\\\\filler.mp4']",robot_stimuli\\filler.mp4,2,,,,,,,,,,,,,0,67,67,67,,,,,,,,,,,,,,,,,2570.0638314,2557.2161048999997,,,,,,,,,2573.3656263,2573.3656263,2573.3656263,2573.3656263,2573.3656263,2573.3656263,2573.3656263,2573.3656263,None,None,None,,,,,,,,,,,2556.1612063999996,2556.1612063999996,None,,2567.8507022,2570.0638314,2571.1326755,2571.1326755,2571.1326755,2571.1326755,c,2.104716499999796,2556.1612063999996,2556.1612063999996,,,2,001,2024-06-13_13h25.53.719,robot_sternberg_sign,2022.2.5,59.96537599189902,
"['S', 'F', 'R', 'H', 'P', 'J']",False,D,6,letter,3,False,False,"['robot_stimuli\\\\filler.mp4', 'robot_stimuli\\\\filler.mp4', 'robot_stimuli\\\\filler.mp4', 'robot_stimuli\\\\filler.mp4', 'robot_stimuli\\\\filler.mp4', 'robot_stimuli\\\\filler.mp4']",robot_stimuli\\filler.mp4,2,,,,,,,,,,,,,0,68,68,68,,,,,,,,,,,,,,,,,2587.8690361999998,2588.9317862,,,,,,,,,2589.9555584,2589.9555584,2589.9555584,2589.9555584,2589.9555584,2589.9555584,2589.9555584,2589.9555584,None,None,None,,,,,,,,,,,2573.3656263,2573.3656263,None,,2585.8571319,2587.8690361999998,2588.9317862,2588.9317862,2588.9317862,2588.9317862,n,0.8745237999994799,2573.3656263,2573.3656263,,,2,001,2024-06-13_13h25.53.719,robot_sternberg_sign,2022.2.5,59.96537599189902,
"['F', 'V', 'T', 'N', 'K', 'R']",False,H,6,letter,3,False,True,"['robot_stimuli\\\\filler.mp4', 'robot_stimuli\\\\filler.mp4', 'robot_stimuli\\\\filler.mp4', 'robot_stimuli\\\\filler.mp4', 'robot_stimuli\\\\filler.mp4', 'robot_stimuli\\\\filler.mp4']",robot_stimuli\\filler.mp4,2,,,,,,,,,,,,,0,69,69,69,,,,,,,,,,,,,,,,,2604.0738659,2605.1327426,,,,,,,,,2606.5934921,2609.6935621,2606.5934921,2609.6935621,2606.5934921,2609.6935621,2606.5934921,2609.6935621,35.864197530864196,2.4356000000002496,space,,,3.0514116999995906,,,,,,,,2589.9555584,2589.9555584,None,,2601.8648285,2604.0738659,2605.1327426,2605.1327426,2605.1327426,2605.1327426,n,1.2247982000001514,2589.9555584,2589.9555584,,,2,001,2024-06-13_13h25.53.719,robot_sternberg_sign,2022.2.5,59.96537599189902,
"['W', 'Z']",False,M,2,letter,3,True,False,"['robot_stimuli\\\\filler.mp4', 'robot_stimuli\\\\filler.mp4']",robot_stimuli\\filler.mp4,2,,,,,,,,,,,,,0,70,70,70,,,,,,,,,,,,,,,,,2616.3167049999997,2617.3835669,,,,,,,,,2618.6142954999996,2618.6142954999996,2618.6142954999996,2618.6142954999996,2618.6142954999996,2618.6142954999996,2618.6142954999996,2618.6142954999996,None,None,None,,,,,,,,,,,2609.6935621,2609.6935621,space,1.2323021999998502,2614.1066837999997,2616.3167049999997,2617.3835669,2617.3835669,2617.3835669,2617.3835669,n,1.086369299999916,,,,,2,001,2024-06-13_13h25.53.719,robot_sternberg_sign,2022.2.5,59.96537599189902,
"['K', 'N']",True,N,2,letter,3,False,False,"['robot_stimuli\\\\filler.mp4', 'robot_stimuli\\\\filler.mp4']",robot_stimuli\\filler.mp4,2,,,,,,,,,,,,,0,71,71,71,,,,,,,,,,,,,,,,,2623.9899638999996,2625.0500129999996,,,,,,,,,2625.8719499,2625.8719499,2625.8719499,2625.8719499,2625.8719499,2625.8719499,2625.8719499,2625.8719499,None,None,None,,,,,,,,,,,2618.6142954999996,2618.6142954999996,None,,2621.9732992,2623.9899638999996,2625.0500129999996,2625.0500129999996,2625.0500129999996,2625.0500129999996,c,0.6028568999998072,2618.6142954999996,2618.6142954999996,,,2,001,2024-06-13_13h25.53.719,robot_sternberg_sign,2022.2.5,59.96537599189902,
"['R', 'P']",False,X,2,letter,3,False,False,"['robot_stimuli\\\\filler.mp4', 'robot_stimuli\\\\filler.mp4']",robot_stimuli\\filler.mp4,2,,,,,,,,,,,,,0,72,72,72,,,,,,,,,,,,,,,,,2631.436996,2632.5006642999997,,,,,,,,,2633.1280223999997,2633.1280223999997,2633.1280223999997,2633.1280223999997,2633.1280223999997,2633.1280223999997,2633.1280223999997,2633.1280223999997,None,None,None,,,,,,,,,,,2625.8719499,2625.8719499,None,,2629.2196569,2631.436996,2632.5006642999997,2632.5006642999997,2632.5006642999997,2632.5006642999997,n,0.4403033999995216,2625.8719499,2625.8719499,,,2,001,2024-06-13_13h25.53.719,robot_sternberg_sign,2022.2.5,59.96537599189902,
"['H', 'V']",True,V,2,letter,3,False,False,"['robot_stimuli\\\\filler.mp4', 'robot_stimuli\\\\filler.mp4']",robot_stimuli\\filler.mp4,2,,,,,,,,,,,,,0,73,73,73,,,,,,,,,,,,,,,,,2638.6775626999997,2639.7319912,,,,,,,,,2640.3553052999996,2640.3553052999996,2640.3553052999996,2640.3553052999996,2640.3553052999996,2640.3553052999996,2640.3553052999996,2640.3553052999996,None,None,None,,,,,,,,,,,2633.1280223999997,2633.1280223999997,None,,2636.4668442999996,2638.6775626999997,2639.7319912,2639.7319912,2639.7319912,2639.7319912,c,0.5702274999996746,2633.1280223999997,2633.1280223999997,,,2,001,2024-06-13_13h25.53.719,robot_sternberg_sign,2022.2.5,59.96537599189902,
"['F', 'G']",True,F,2,letter,3,False,False,"['robot_stimuli\\\\filler.mp4', 'robot_stimuli\\\\filler.mp4']",robot_stimuli\\filler.mp4,2,,,,,,,,,,,,,0,74,74,74,,,,,,,,,,,,,,,,,2645.7204924,2646.7830943,,,,,,,,,2647.4088798999996,2647.4088798999996,2647.4088798999996,2647.4088798999996,2647.4088798999996,2647.4088798999996,2647.4088798999996,2647.4088798999996,None,None,None,,,,,,,,,,,2640.3553052999996,2640.3553052999996,None,,2643.7047291999997,2645.7204924,2646.7830943,2646.7830943,2646.7830943,2646.7830943,c,0.526565599999941,2640.3553052999996,2640.3553052999996,,,2,001,2024-06-13_13h25.53.719,robot_sternberg_sign,2022.2.5,59.96537599189902,
"['Z', 'X']",False,V,2,letter,3,False,False,"['robot_stimuli\\\\filler.mp4', 'robot_stimuli\\\\filler.mp4']",robot_stimuli\\filler.mp4,2,,,,,,,,,,,,,0,75,75,75,,,,,,,,,,,,,,,,,2652.9660844,2654.0338644,,,,,,,,,2654.6626205999996,2654.6626205999996,2654.6626205999996,2654.6626205999996,2654.6626205999996,2654.6626205999996,2654.6626205999996,2654.6626205999996,None,None,None,,,,,,,,,,,2647.4088798999996,2647.4088798999996,None,,2650.7509862999996,2652.9660844,2654.0338644,2654.0338644,2654.0338644,2654.0338644,n,0.42659399999982384,2647.4088798999996,2647.4088798999996,,,2,001,2024-06-13_13h25.53.719,robot_sternberg_sign,2022.2.5,59.96537599189902,
"['K', 'N']",True,N,2,letter,3,False,False,"['robot_stimuli\\\\filler.mp4', 'robot_stimuli\\\\filler.mp4']",robot_stimuli\\filler.mp4,2,,,,,,,,,,,,,0,76,76,76,,,,,,,,,,,,,,,,,2660.2456995999996,2661.3003332999997,,,,,,,,,2662.1271085999997,2662.1271085999997,2662.1271085999997,2662.1271085999997,2662.1271085999997,2662.1271085999997,2662.1271085999997,2662.1271085999997,None,None,None,,,,,,,,,,,2654.6626205999996,2654.6626205999996,None,,2658.0328133999997,2660.2456995999996,2661.3003332999997,2661.3003332999997,2661.3003332999997,2661.3003332999997,c,0.657782799999751,2654.6626205999996,2654.6626205999996,,,2,001,2024-06-13_13h25.53.719,robot_sternberg_sign,2022.2.5,59.96537599189902,
"['N', 'P']",False,B,2,letter,3,False,False,"['robot_stimuli\\\\filler.mp4', 'robot_stimuli\\\\filler.mp4']",robot_stimuli\\filler.mp4,2,,,,,,,,,,,,,0,77,77,77,,,,,,,,,,,,,,,,,2667.4903725,2668.5482626,,,,,,,,,2669.1799948,2669.1799948,2669.1799948,2669.1799948,2669.1799948,2669.1799948,2669.1799948,2669.1799948,None,None,None,,,,,,,,,,,2662.1271085999997,2662.1271085999997,None,,2665.2804024999996,2667.4903725,2668.5482626,2668.5482626,2668.5482626,2668.5482626,n,0.48182909999994195,2662.1271085999997,2662.1271085999997,,,2,001,2024-06-13_13h25.53.719,robot_sternberg_sign,2022.2.5,59.96537599189902,
"['S', 'P']",True,S,2,letter,3,False,False,"['robot_stimuli\\\\filler.mp4', 'robot_stimuli\\\\filler.mp4']",robot_stimuli\\filler.mp4,2,,,,,,,,,,,,,0,78,78,78,,,,,,,,,,,,,,,,,2674.5543718999998,2675.6162292999998,,,,,,,,,2676.2431659,2676.2431659,2676.2431659,2676.2431659,2676.2431659,2676.2431659,2676.2431659,2676.2431659,None,None,None,,,,,,,,,,,2669.1799948,2669.1799948,None,,2672.5406251,2674.5543718999998,2675.6162292999998,2675.6162292999998,2675.6162292999998,2675.6162292999998,c,0.5097570999994616,2669.1799948,2669.1799948,,,2,001,2024-06-13_13h25.53.719,robot_sternberg_sign,2022.2.5,59.96537599189902,
"['H', 'F']",False,Q,2,letter,3,False,True,"['robot_stimuli\\\\filler.mp4', 'robot_stimuli\\\\filler.mp4']",robot_stimuli\\filler.mp4,2,,,,,,,,,,,,,0,79,79,79,,,,,,,,,,,,,,,,,2681.6246122999996,2682.6827824999996,,,,,,,,,2683.3373705999998,2685.5558081,2683.3373705999998,2685.5558081,2683.3373705999998,2685.5558081,2683.3373705999998,2685.5558081,11.018518518518519,1.8909670000002734,space,,,2.1559699999995985,,,,,,,,2676.2431659,2676.2431659,None,,2679.6017186999998,2681.6246122999996,2682.6827824999996,2682.6827824999996,2682.6827824999996,2682.6827824999996,n,0.5534851999998693,2676.2431659,2676.2431659,,,2,001,2024-06-13_13h25.53.719,robot_sternberg_sign,2022.2.5,59.96537599189902,
"['V', 'Q', 'Z', 'S']",False,R,4,letter,3,True,False,"['robot_stimuli\\\\filler.mp4', 'robot_stimuli\\\\filler.mp4', 'robot_stimuli\\\\filler.mp4', 'robot_stimuli\\\\filler.mp4']",robot_stimuli\\filler.mp4,2,,,,,,,,,,,,,0,80,80,80,,,,,,,,,,,,,,,,,2695.996541,2687.1154794999998,,,,,,,,,2698.0942953999997,2698.0942953999997,2698.0942953999997,2698.0942953999997,2698.0942953999997,2698.0942953999997,2698.0942953999997,2698.0942953999997,None,None,None,,,,,,,,,,,2685.5558081,2685.5558081,space,0.4888983999997265,2693.7810872,2695.996541,2697.0652883999996,2697.0652883999996,2697.0652883999996,2697.0652883999996,n,0.8997012999996343,,,,,2,001,2024-06-13_13h25.53.719,robot_sternberg_sign,2022.2.5,59.96537599189902,
"['P', 'B', 'R', 'N']",True,B,4,letter,3,False,False,"['robot_stimuli\\\\filler.mp4', 'robot_stimuli\\\\filler.mp4', 'robot_stimuli\\\\filler.mp4', 'robot_stimuli\\\\filler.mp4']",robot_stimuli\\filler.mp4,2,,,,,,,,,,,,,0,81,81,81,,,,,,,,,,,,,,,,,2707.6327647999997,2708.6994059,,,,,,,,,2709.7327332,2709.7327332,2709.7327332,2709.7327332,2709.7327332,2709.7327332,2709.7327332,2709.7327332,None,None,None,,,,,,,,,,,2698.0942953999997,2698.0942953999997,None,,2705.4139252,2707.6327647999997,2708.6994059,2708.6994059,2708.6994059,2708.6994059,c,0.8343841999997323,2698.0942953999997,2698.0942953999997,,,2,001,2024-06-13_13h25.53.719,robot_sternberg_sign,2022.2.5,59.96537599189902,
"['B', 'D', 'W', 'L']",True,L,4,letter,3,False,False,"['robot_stimuli\\\\filler.mp4', 'robot_stimuli\\\\filler.mp4', 'robot_stimuli\\\\filler.mp4', 'robot_stimuli\\\\filler.mp4']",robot_stimuli\\filler.mp4,2,,,,,,,,,,,,,0,82,82,82,,,,,,,,,,,,,,,,,2719.6875566999997,2720.7513403,,,,,,,,,2722.1729729999997,2722.1729729999997,2722.1729729999997,2722.1729729999997,2722.1729729999997,2722.1729729999997,2722.1729729999997,2722.1729729999997,None,None,None,,,,,,,,,,,2709.7327332,2709.7327332,None,,2717.6765978999997,2719.6875566999997,2720.7513403,2720.7513403,2720.7513403,2720.7513403,c,1.2062653999999213,2709.7327332,2709.7327332,,,2,001,2024-06-13_13h25.53.719,robot_sternberg_sign,2022.2.5,59.96537599189902,
"['S', 'W', 'M', 'X']",True,S,4,letter,3,False,False,"['robot_stimuli\\\\filler.mp4', 'robot_stimuli\\\\filler.mp4', 'robot_stimuli\\\\filler.mp4', 'robot_stimuli\\\\filler.mp4']",robot_stimuli\\filler.mp4,2,,,,,,,,,,,,,0,83,83,83,,,,,,,,,,,,,,,,,2732.1137747,2723.2337837,,,,,,,,,2733.8143532,2733.8143532,2733.8143532,2733.8143532,2733.8143532,2733.8143532,2733.8143532,2733.8143532,None,None,None,,,,,,,,,,,2722.1729729999997,2722.1729729999997,None,,2729.8975154,2732.1137747,2733.1828398999996,2733.1828398999996,2733.1828398999996,2733.1828398999996,c,0.5347629999999128,2722.1729729999997,2722.1729729999997,,,2,001,2024-06-13_13h25.53.719,robot_sternberg_sign,2022.2.5,59.96537599189902,
"['C', 'G', 'V', 'P']",False,J,4,letter,3,False,False,"['robot_stimuli\\\\filler.mp4', 'robot_stimuli\\\\filler.mp4', 'robot_stimuli\\\\filler.mp4', 'robot_stimuli\\\\filler.mp4']",robot_stimuli\\filler.mp4,2,,,,,,,,,,,,,0,84,84,84,,,,,,,,,,,,,,,,,2743.5782547,2744.6334014,,,,,,,,,2745.4603734999996,2745.4603734999996,2745.4603734999996,2745.4603734999996,2745.4603734999996,2745.4603734999996,2745.4603734999996,2745.4603734999996,None,None,None,,,,,,,,,,,2733.8143532,2733.8143532,None,,2741.3680694,2743.5782547,2744.6334014,2744.6334014,2744.6334014,2744.6334014,n,0.7008537999998055,2733.8143532,2733.8143532,,,2,001,2024-06-13_13h25.53.719,robot_sternberg_sign,2022.2.5,59.96537599189902,
"['Z', 'D', 'T', 'G']",True,T,4,letter,3,False,False,"['robot_stimuli\\\\filler.mp4', 'robot_stimuli\\\\filler.mp4', 'robot_stimuli\\\\filler.mp4', 'robot_stimuli\\\\filler.mp4']",robot_stimuli\\filler.mp4,2,,,,,,,,,,,,,0,85,85,85,,,,,,,,,,,,,,,,,2754.8027625,2755.8702878,,,,,,,,,2756.6889358,2756.6889358,2756.6889358,2756.6889358,2756.6889358,2756.6889358,2756.6889358,2756.6889358,None,None,None,,,,,,,,,,,2745.4603734999996,2745.4603734999996,None,,2752.7925548999997,2754.8027625,2755.8702878,2755.8702878,2755.8702878,2755.8702878,c,0.7506129999995039,2745.4603734999996,2745.4603734999996,,,2,001,2024-06-13_13h25.53.719,robot_sternberg_sign,2022.2.5,59.96537599189902,
"['L', 'S', 'J', 'G']",True,J,4,letter,3,False,False,"['robot_stimuli\\\\filler.mp4', 'robot_stimuli\\\\filler.mp4', 'robot_stimuli\\\\filler.mp4', 'robot_stimuli\\\\filler.mp4']",robot_stimuli\\filler.mp4,2,,,,,,,,,,,,,0,86,86,86,,,,,,,,,,,,,,,,,2766.0593879999997,2767.1162345,,,,,,,,,2767.9469623,2767.9469623,2767.9469623,2767.9469623,2767.9469623,2767.9469623,2767.9469623,2767.9469623,None,None,None,,,,,,,,,,,2756.6889358,2756.6889358,None,,2764.0397903,2766.0593879999997,2767.1162345,2767.1162345,2767.1162345,2767.1162345,c,0.5842650999996124,2756.6889358,2756.6889358,,,2,001,2024-06-13_13h25.53.719,robot_sternberg_sign,2022.2.5,59.96537599189902,
"['L', 'D', 'F', 'N']",False,Z,4,letter,3,False,False,"['robot_stimuli\\\\filler.mp4', 'robot_stimuli\\\\filler.mp4', 'robot_stimuli\\\\filler.mp4', 'robot_stimuli\\\\filler.mp4']",robot_stimuli\\filler.mp4,2,,,,,,,,,,,,,0,87,87,87,,,,,,,,,,,,,,,,,2777.4911801999997,2778.5489289999996,,,,,,,,,2779.174411,2779.174411,2779.174411,2779.174411,2779.174411,2779.174411,2779.174411,2779.174411,None,None,None,,,,,,,,,,,2767.9469623,2767.9469623,None,,2775.4788808,2777.4911801999997,2778.5489289999996,2778.5489289999996,2778.5489289999996,2778.5489289999996,n,0.5286566999996296,2767.9469623,2767.9469623,,,2,001,2024-06-13_13h25.53.719,robot_sternberg_sign,2022.2.5,59.96537599189902,
"['J', 'L', 'N', 'W']",False,M,4,letter,3,False,False,"['robot_stimuli\\\\filler.mp4', 'robot_stimuli\\\\filler.mp4', 'robot_stimuli\\\\filler.mp4', 'robot_stimuli\\\\filler.mp4']",robot_stimuli\\filler.mp4,2,,,,,,,,,,,,,0,88,88,88,,,,,,,,,,,,,,,,,2789.1282023999997,2790.1850130999997,,,,,,,,,2791.4094557,2791.4094557,2791.4094557,2791.4094557,2791.4094557,2791.4094557,2791.4094557,2791.4094557,None,None,None,,,,,,,,,,,2779.174411,2779.174411,None,,2787.1087484,2789.1282023999997,2790.1850130999997,2790.1850130999997,2790.1850130999997,2790.1850130999997,n,0.988005499999673,2779.174411,2779.174411,,,2,001,2024-06-13_13h25.53.719,robot_sternberg_sign,2022.2.5,59.96537599189902,
"['Q', 'V', 'M', 'D']",False,C,4,letter,3,False,True,"['robot_stimuli\\\\filler.mp4', 'robot_stimuli\\\\filler.mp4', 'robot_stimuli\\\\filler.mp4', 'robot_stimuli\\\\filler.mp4']",robot_stimuli\\filler.mp4,2,,,,,,,,,,,,,0,89,89,89,,,,,,,,,,,,,,,,,2801.1529093,2802.2163861999998,,,,,,,,,2803.0740170999998,2806.1566593,2803.0740170999998,2806.1566593,2803.0740170999998,2806.1566593,2803.0740170999998,2806.1566593,16.882716049382715,2.1337357000002157,space,,,3.018804999999503,,,,,,,,2791.4094557,2791.4094557,None,,2798.9554546,2801.1529093,2802.2163861999998,2802.2163861999998,2802.2163861999998,2802.2163861999998,n,0.5969269999998517,2791.4094557,2791.4094557,,,2,001,2024-06-13_13h25.53.719,robot_sternberg_sign,2022.2.5,59.96537599189902,
"['R_Head_Z_For', 'L_Head_Z_Back', 'R_Torso_X_For', 'R_Head_Y_For']",True,R_Head_Y_For,4,robot,4,True,False,"['robot_stimuli\\R_Head_Z_For.mp4', 'robot_stimuli\\L_Head_Z_Back.mp4', 'robot_stimuli\\R_Torso_X_For.mp4', 'robot_stimuli\\R_Head_Y_For.mp4']",robot_stimuli\R_Head_Y_For.mp4,2,,,,,,,,,,,,,0,90,90,90,,,,,,,,,,,,,,,,,2822.936581,2824.0384636999997,,,,,,,,,2827.6781984,2827.6781984,2827.6781984,2827.6781984,2827.6781984,2827.6781984,2827.6781984,2827.6781984,None,None,None,,,,,,,,,,,2806.1566593,2806.1566593,space,0.7999806999994519,,,,2824.0384636999997,2824.0384636999997,2824.0384636999997,c,1.9037575999998637,,,2819.2911941999996,2824.0384636999997,2,001,2024-06-13_13h25.53.719,robot_sternberg_sign,2022.2.5,59.96537599189902,
"['L_Torso_X_Back', 'R_Base_Z_For', 'R_Torso_Z_Back', 'L_Base_Z_Back']",False,L_Torso_Y_For,4,robot,4,False,False,"['robot_stimuli\\L_Torso_X_Back.mp4', 'robot_stimuli\\R_Base_Z_For.mp4', 'robot_stimuli\\R_Torso_Z_Back.mp4', 'robot_stimuli\\L_Base_Z_Back.mp4']",robot_stimuli\L_Torso_Y_For.mp4,2,,,,,,,,,,,,,0,91,91,91,,,,,,,,,,,,,,,,,2843.5679717,2844.6578166,,,,,,,,,2848.295795,2848.295795,2848.295795,2848.295795,2848.295795,2848.295795,2848.295795,2848.295795,None,None,None,,,,,,,,,,,2827.6781984,2827.6781984,None,,,,,2844.6578166,2844.6578166,2844.6578166,n,1.715364299999493,2827.6781984,2827.6781984,2839.9387220999997,2844.6578166,2,001,2024-06-13_13h25.53.719,robot_sternberg_sign,2022.2.5,59.96537599189902,
"['L_Head_Z_For', 'R_Base_X_For', 'L_Arm_X_For', 'L_Base_Z_Back']",True,R_Base_X_For,4,robot,4,False,False,"['robot_stimuli\\L_Head_Z_For.mp4', 'robot_stimuli\\R_Base_X_For.mp4', 'robot_stimuli\\L_Arm_X_For.mp4', 'robot_stimuli\\L_Base_Z_Back.mp4']",robot_stimuli\R_Base_X_For.mp4,2,,,,,,,,,,,,,0,92,92,92,,,,,,,,,,,,,,,,,2864.0832982999996,2865.1730407,,,,,,,,,2868.7114849,2868.7114849,2868.7114849,2868.7114849,2868.7114849,2868.7114849,2868.7114849,2868.7114849,None,None,None,,,,,,,,,,,2848.295795,2848.295795,None,,,,,2865.1730407,2865.1730407,2865.1730407,c,2.471505899999812,2848.295795,2848.295795,2860.4419854999996,2865.1730407,2,001,2024-06-13_13h25.53.719,robot_sternberg_sign,2022.2.5,59.96537599189902,
"['L_Torso_X_For', 'L_Torso_Y_Back', 'L_Base_X_For', 'L_Base_Z_For']",True,L_Base_X_For,4,robot,4,False,False,"['robot_stimuli\\L_Torso_X_For.mp4', 'robot_stimuli\\L_Torso_Y_Back.mp4', 'robot_stimuli\\L_Base_X_For.mp4', 'robot_stimuli\\L_Base_Z_For.mp4']",robot_stimuli\L_Base_X_For.mp4,2,,,,,,,,,,,,,0,93,93,93,,,,,,,,,,,,,,,,,2884.3856250999997,2885.4748984,,,,,,,,,2889.0576978999998,2889.0576978999998,2889.0576978999998,2889.0576978999998,2889.0576978999998,2889.0576978999998,2889.0576978999998,2889.0576978999998,None,None,None,,,,,,,,,,,2868.7114849,2868.7114849,None,,,,,2885.4748984,2885.4748984,2885.4748984,c,3.3473087000000135,2868.7114849,2868.7114849,2880.7550567,2885.4748984,2,001,2024-06-13_13h25.53.719,robot_sternberg_sign,2022.2.5,59.96537599189902,
"['L_Arm_Y_Back', 'L_Head_Y_Back', 'L_Arm_Y_For', 'R_Torso_Z_For']",False,L_Base_Y_For,4,robot,4,False,False,"['robot_stimuli\\L_Arm_Y_Back.mp4', 'robot_stimuli\\L_Head_Y_Back.mp4', 'robot_stimuli\\L_Arm_Y_For.mp4', 'robot_stimuli\\R_Torso_Z_For.mp4']",robot_stimuli\L_Base_Y_For.mp4,2,,,,,,,,,,,,,0,94,94,94,,,,,,,,,,,,,,,,,2904.9518236999997,2906.0404958,,,,,,,,,2909.5825812999997,2909.5825812999997,2909.5825812999997,2909.5825812999997,2909.5825812999997,2909.5825812999997,2909.5825812999997,2909.5825812999997,None,None,None,,,,,,,,,,,2889.0576978999998,2889.0576978999998,None,,,,,2906.0404958,2906.0404958,2906.0404958,n,2.6362480999999036,2889.0576978999998,2889.0576978999998,2901.3216008,2906.0404958,2,001,2024-06-13_13h25.53.719,robot_sternberg_sign,2022.2.5,59.96537599189902,
"['L_Arm_X_Back', 'L_Torso_Y_For', 'R_Base_Y_Back', 'R_Torso_Y_For']",False,R_Base_X_Back,4,robot,4,False,False,"['robot_stimuli\\L_Arm_X_Back.mp4', 'robot_stimuli\\L_Torso_Y_For.mp4', 'robot_stimuli\\R_Base_Y_Back.mp4', 'robot_stimuli\\R_Torso_Y_For.mp4']",robot_stimuli\R_Base_X_Back.mp4,2,,,,,,,,,,,,,0,95,95,95,,,,,,,,,,,,,,,,,2925.4672637999997,2926.5577031,,,,,,,,,2930.1947705999996,2930.1947705999996,2930.1947705999996,2930.1947705999996,2930.1947705999996,2930.1947705999996,2930.1947705999996,2930.1947705999996,None,None,None,,,,,,,,,,,2909.5825812999997,2909.5825812999997,None,,,,,2926.5577031,2926.5577031,2926.5577031,n,2.126505200000139,2909.5825812999997,2909.5825812999997,2921.8358657,2926.5577031,2,001,2024-06-13_13h25.53.719,robot_sternberg_sign,2022.2.5,59.96537599189902,
"['L_Arm_Z_For', 'R_Torso_X_For', 'R_Torso_Y_Back', 'R_Torso_X_Back']",True,R_Torso_Y_Back,4,robot,4,False,False,"['robot_stimuli\\L_Arm_Z_For.mp4', 'robot_stimuli\\R_Torso_X_For.mp4', 'robot_stimuli\\R_Torso_Y_Back.mp4', 'robot_stimuli\\R_Torso_X_Back.mp4']",robot_stimuli\R_Torso_Y_Back.mp4,2,,,,,,,,,,,,,0,96,96,96,,,,,,,,,,,,,,,,,2946.0695634999997,2947.1579865999997,,,,,,,,,2950.8050986999997,2950.8050986999997,2950.8050986999997,2950.8050986999997,2950.8050986999997,2950.8050986999997,2950.8050986999997,2950.8050986999997,None,None,None,,,,,,,,,,,2930.1947705999996,2930.1947705999996,None,,,,,2947.1579865999997,2947.1579865999997,2947.1579865999997,n,2.526331199999987,2930.1947705999996,2930.1947705999996,2942.4386225999997,2947.1579865999997,2,001,2024-06-13_13h25.53.719,robot_sternberg_sign,2022.2.5,59.96537599189902,
"['L_Torso_Z_For', 'L_Arm_Y_Back', 'R_Torso_Z_Back', 'L_Head_Y_For']",False,L_Head_Z_For,4,robot,4,False,False,"['robot_stimuli\\L_Torso_Z_For.mp4', 'robot_stimuli\\L_Arm_Y_Back.mp4', 'robot_stimuli\\R_Torso_Z_Back.mp4', 'robot_stimuli\\L_Head_Y_For.mp4']",robot_stimuli\L_Head_Z_For.mp4,2,,,,,,,,,,,,,0,97,97,97,,,,,,,,,,,,,,,,,2966.6692642999997,2967.7597091,,,,,,,,,2971.4092232999997,2971.4092232999997,2971.4092232999997,2971.4092232999997,2971.4092232999997,2971.4092232999997,2971.4092232999997,2971.4092232999997,None,None,None,,,,,,,,,,,2950.8050986999997,2950.8050986999997,None,,,,,2967.7597091,2967.7597091,2967.7597091,n,1.9975248999997177,2950.8050986999997,2950.8050986999997,2963.0388716999996,2967.7597091,2,001,2024-06-13_13h25.53.719,robot_sternberg_sign,2022.2.5,59.96537599189902,
"['L_Head_Y_For', 'L_Arm_X_For', 'R_Base_X_For', 'L_Torso_Y_Back']",True,L_Arm_X_For,4,robot,4,False,False,"['robot_stimuli\\L_Head_Y_For.mp4', 'robot_stimuli\\L_Arm_X_For.mp4', 'robot_stimuli\\R_Base_X_For.mp4', 'robot_stimuli\\L_Torso_Y_Back.mp4']",robot_stimuli\L_Arm_X_For.mp4,2,,,,,,,,,,,,,0,98,98,98,,,,,,,,,,,,,,,,,2987.0502422,2988.1400276,,,,,,,,,2991.7792602,2991.7792602,2991.7792602,2991.7792602,2991.7792602,2991.7792602,2991.7792602,2991.7792602,None,None,None,,,,,,,,,,,2971.4092232999997,2971.4092232999997,None,,,,,2988.1400276,2988.1400276,2988.1400276,c,2.2410318999998537,2971.4092232999997,2971.4092232999997,2983.5525003999996,2988.1400276,2,001,2024-06-13_13h25.53.719,robot_sternberg_sign,2022.2.5,59.96537599189902,
"['R_Arm_Z_Back', 'L_Head_X_Back', 'R_Base_Y_For', 'L_Torso_Z_For']",False,L_Arm_Y_Back,4,robot,4,False,True,"['robot_stimuli\\R_Arm_Z_Back.mp4', 'robot_stimuli\\L_Head_X_Back.mp4', 'robot_stimuli\\R_Base_Y_For.mp4', 'robot_stimuli\\L_Torso_Z_For.mp4']",robot_stimuli\L_Arm_Y_Back.mp4,2,,,,,,,,,,,,,0,99,99,99,,,,,,,,,,,,,,,,,3007.6534653,3008.7441061,,,,,,,,,3012.4303182999997,3016.2311406,3012.4303182999997,3016.2311406,3012.4303182999997,3016.2311406,3012.4303182999997,3016.2311406,48.82716049382716,3.4437324999998964,space,,,3.7587687999996717,,,,,,,,2991.7792602,2991.7792602,None,,,,,3008.7441061,3008.7441061,3008.7441061,c,2.221505399999643,2991.7792602,2991.7792602,3004.0230333,3008.7441061,2,001,2024-06-13_13h25.53.719,robot_sternberg_sign,2022.2.5,59.96537599189902,
"['L_Base_Y_For', 'L_Torso_Z_Back', 'R_Base_X_Back', 'R_Base_Y_Back', 'R_Base_Y_For', 'R_Arm_X_Back']",True,R_Arm_X_Back,6,robot,4,True,False,"['robot_stimuli\\L_Base_Y_For.mp4', 'robot_stimuli\\L_Torso_Z_Back.mp4', 'robot_stimuli\\R_Base_X_Back.mp4', 'robot_stimuli\\R_Base_Y_Back.mp4', 'robot_stimuli\\R_Base_Y_For.mp4', 'robot_stimuli\\R_Arm_X_Back.mp4']",robot_stimuli\R_Arm_X_Back.mp4,2,,,,,,,,,,,,,0,100,100,100,,,,,,,,,,,,,,,,,3040.4337971,3041.5256246,,,,,,,,,3045.1744891,3045.1744891,3045.1744891,3045.1744891,3045.1744891,3045.1744891,3045.1744891,3045.1744891,None,None,None,,,,,,,,,,,3016.2311406,3016.2311406,space,1.0940006999997252,,,,3041.5256246,3041.5256246,3041.5256246,c,2.3187995999999487,,,3036.8040296,3041.5256246,2,001,2024-06-13_13h25.53.719,robot_sternberg_sign,2022.2.5,59.96537599189902,
"['R_Torso_X_Back', 'L_Arm_Z_For', 'L_Torso_Y_Back', 'L_Torso_X_For', 'L_Arm_X_Back', 'R_Head_Y_For']",True,L_Arm_Z_For,6,robot,4,False,False,"['robot_stimuli\\R_Torso_X_Back.mp4', 'robot_stimuli\\L_Arm_Z_For.mp4', 'robot_stimuli\\L_Torso_Y_Back.mp4', 'robot_stimuli\\L_Torso_X_For.mp4', 'robot_stimuli\\L_Arm_X_Back.mp4', 'robot_stimuli\\R_Head_Y_For.mp4']",robot_stimuli\L_Arm_Z_For.mp4,2,,,,,,,,,,,,,0,101,101,101,,,,,,,,,,,,,,,,,3068.3832408,3069.4735395999996,,,,,,,,,3076.9223721999997,3076.9223721999997,3076.9223721999997,3076.9223721999997,3076.9223721999997,3076.9223721999997,3076.9223721999997,3076.9223721999997,None,None,None,,,,,,,,,,,3045.1744891,3045.1744891,None,,,,,3069.4735395999996,3069.4735395999996,3069.4735395999996,c,7.412016799999748,3045.1744891,3045.1744891,3064.7564378999996,3069.4735395999996,2,001,2024-06-13_13h25.53.719,robot_sternberg_sign,2022.2.5,59.96537599189902,
"['L_Base_Z_For', 'R_Torso_Z_Back', 'R_Arm_Z_For', 'R_Base_Y_For', 'L_Base_Y_Back', 'L_Torso_Y_For']",False,R_Arm_X_Back,6,robot,4,False,False,"['robot_stimuli\\L_Base_Z_For.mp4', 'robot_stimuli\\R_Torso_Z_Back.mp4', 'robot_stimuli\\R_Arm_Z_For.mp4', 'robot_stimuli\\R_Base_Y_For.mp4', 'robot_stimuli\\L_Base_Y_Back.mp4', 'robot_stimuli\\L_Torso_Y_For.mp4']",robot_stimuli\R_Arm_X_Back.mp4,2,,,,,,,,,,,,,0,102,102,102,,,,,,,,,,,,,,,,,3100.1506726,3101.2415732,,,,,,,,,3104.8901653999997,3104.8901653999997,3104.8901653999997,3104.8901653999997,3104.8901653999997,3104.8901653999997,3104.8901653999997,3104.8901653999997,None,None,None,,,,,,,,,,,3076.9223721999997,3076.9223721999997,None,,,,,3101.2415732,3101.2415732,3101.2415732,n,2.6195747999998105,3076.9223721999997,3076.9223721999997,3096.5209471999997,3101.2415732,2,001,2024-06-13_13h25.53.719,robot_sternberg_sign,2022.2.5,59.96537599189902,
"['R_Head_X_Back', 'L_Arm_Y_Back', 'L_Torso_Z_For', 'R_Arm_X_Back', 'L_Base_Y_For', 'R_Torso_Z_For']",True,R_Arm_X_Back,6,robot,4,False,False,"['robot_stimuli\\R_Head_X_Back.mp4', 'robot_stimuli\\L_Arm_Y_Back.mp4', 'robot_stimuli\\L_Torso_Z_For.mp4', 'robot_stimuli\\R_Arm_X_Back.mp4', 'robot_stimuli\\L_Base_Y_For.mp4', 'robot_stimuli\\R_Torso_Z_For.mp4']",robot_stimuli\R_Arm_X_Back.mp4,2,,,,,,,,,,,,,0,103,103,103,,,,,,,,,,,,,,,,,3128.1342410999996,3129.2222718999997,,,,,,,,,3132.8599838,3132.8599838,3132.8599838,3132.8599838,3132.8599838,3132.8599838,3132.8599838,3132.8599838,None,None,None,,,,,,,,,,,3104.8901653999997,3104.8901653999997,None,,,,,3129.2222718999997,3129.2222718999997,3129.2222718999997,c,2.087131500000197,3104.8901653999997,3104.8901653999997,3124.503773,3129.2222718999997,2,001,2024-06-13_13h25.53.719,robot_sternberg_sign,2022.2.5,59.96537599189902,
"['L_Torso_Z_Back', 'R_Torso_Y_For', 'R_Torso_X_For', 'L_Base_Z_Back', 'R_Head_Z_For', 'L_Head_Y_Back']",False,R_Base_Y_For,6,robot,4,False,False,"['robot_stimuli\\L_Torso_Z_Back.mp4', 'robot_stimuli\\R_Torso_Y_For.mp4', 'robot_stimuli\\R_Torso_X_For.mp4', 'robot_stimuli\\L_Base_Z_Back.mp4', 'robot_stimuli\\R_Head_Z_For.mp4', 'robot_stimuli\\L_Head_Y_Back.mp4']",robot_stimuli\R_Base_Y_For.mp4,2,,,,,,,,,,,,,0,104,104,104,,,,,,,,,,,,,,,,,3156.0490843999996,3157.1411059999996,,,,,,,,,3160.7777041,3160.7777041,3160.7777041,3160.7777041,3160.7777041,3160.7777041,3160.7777041,3160.7777041,None,None,None,,,,,,,,,,,3132.8599838,3132.8599838,None,,,,,3157.1411059999996,3157.1411059999996,3157.1411059999996,c,2.3761461999995674,3132.8599838,3132.8599838,3152.4082786999998,3157.1411059999996,2,001,2024-06-13_13h25.53.719,robot_sternberg_sign,2022.2.5,59.96537599189902,
"['L_Arm_Z_For', 'L_Head_Y_Back', 'R_Base_Y_For', 'R_Base_X_Back', 'R_Torso_Z_Back', 'L_Torso_Y_For']",False,R_Head_Y_Back,6,robot,4,False,False,"['robot_stimuli\\L_Arm_Z_For.mp4', 'robot_stimuli\\L_Head_Y_Back.mp4', 'robot_stimuli\\R_Base_Y_For.mp4', 'robot_stimuli\\R_Base_X_Back.mp4', 'robot_stimuli\\R_Torso_Z_Back.mp4', 'robot_stimuli\\L_Torso_Y_For.mp4']",robot_stimuli\R_Head_Y_Back.mp4,2,,,,,,,,,,,,,0,105,105,105,,,,,,,,,,,,,,,,,3184.1013368999998,3185.1895667999997,,,,,,,,,3188.8285484999997,3188.8285484999997,3188.8285484999997,3188.8285484999997,3188.8285484999997,3188.8285484999997,3188.8285484999997,3188.8285484999997,None,None,None,,,,,,,,,,,3160.7777041,3160.7777041,None,,,,,3185.1895667999997,3185.1895667999997,3185.1895667999997,n,2.0637839999997425,3160.7777041,3160.7777041,3180.4706097,3185.1895667999997,2,001,2024-06-13_13h25.53.719,robot_sternberg_sign,2022.2.5,59.96537599189902,
"['L_Base_Y_For', 'R_Torso_Z_For', 'R_Base_X_For', 'L_Torso_Y_For', 'R_Head_Y_Back', 'R_Torso_Y_For']",True,R_Head_Y_Back,6,robot,4,False,False,"['robot_stimuli\\L_Base_Y_For.mp4', 'robot_stimuli\\R_Torso_Z_For.mp4', 'robot_stimuli\\R_Base_X_For.mp4', 'robot_stimuli\\L_Torso_Y_For.mp4', 'robot_stimuli\\R_Head_Y_Back.mp4', 'robot_stimuli\\R_Torso_Y_For.mp4']",robot_stimuli\R_Head_Y_Back.mp4,2,,,,,,,,,,,,,0,106,106,106,,,,,,,,,,,,,,,,,3211.9684485999996,3213.054566,,,,,,,,,3216.6921911,3216.6921911,3216.6921911,3216.6921911,3216.6921911,3216.6921911,3216.6921911,3216.6921911,None,None,None,,,,,,,,,,,3188.8285484999997,3188.8285484999997,None,,,,,3213.054566,3213.054566,3213.054566,c,2.094463299999717,3188.8285484999997,3188.8285484999997,3208.3393410999997,3213.054566,2,001,2024-06-13_13h25.53.719,robot_sternberg_sign,2022.2.5,59.96537599189902,
"['R_Arm_Z_For', 'L_Base_Z_For', 'R_Head_Y_For', 'R_Base_X_Back', 'R_Torso_Z_Back', 'L_Head_Y_For']",False,R_Torso_X_Back,6,robot,4,False,False,"['robot_stimuli\\R_Arm_Z_For.mp4', 'robot_stimuli\\L_Base_Z_For.mp4', 'robot_stimuli\\R_Head_Y_For.mp4', 'robot_stimuli\\R_Base_X_Back.mp4', 'robot_stimuli\\R_Torso_Z_Back.mp4', 'robot_stimuli\\L_Head_Y_For.mp4']",robot_stimuli\R_Torso_X_Back.mp4,2,,,,,,,,,,,,,0,107,107,107,,,,,,,,,,,,,,,,,3240.0191714,3241.1116392999998,,,,,,,,,3244.7602672999997,3244.7602672999997,3244.7602672999997,3244.7602672999997,3244.7602672999997,3244.7602672999997,3244.7602672999997,3244.7602672999997,None,None,None,,,,,,,,,,,3216.6921911,3216.6921911,None,,,,,3241.1116392999998,3241.1116392999998,3241.1116392999998,n,2.3092239999998867,3216.6921911,3216.6921911,3236.3893249,3241.1116392999998,2,001,2024-06-13_13h25.53.719,robot_sternberg_sign,2022.2.5,59.96537599189902,
"['R_Head_Y_For', 'R_Arm_X_For', 'R_Base_Y_For', 'L_Torso_X_For', 'L_Arm_Y_For', 'R_Torso_X_Back']",False,R_Head_X_Back,6,robot,4,False,False,"['robot_stimuli\\R_Head_Y_For.mp4', 'robot_stimuli\\R_Arm_X_For.mp4', 'robot_stimuli\\R_Base_Y_For.mp4', 'robot_stimuli\\L_Torso_X_For.mp4', 'robot_stimuli\\L_Arm_Y_For.mp4', 'robot_stimuli\\R_Torso_X_Back.mp4']",robot_stimuli\R_Head_X_Back.mp4,2,,,,,,,,,,,,,0,108,108,108,,,,,,,,,,,,,,,,,3268.1187103999996,3269.2077173,,,,,,,,,3272.8457009,3272.8457009,3272.8457009,3272.8457009,3272.8457009,3272.8457009,3272.8457009,3272.8457009,None,None,None,,,,,,,,,,,3244.7602672999997,3244.7602672999997,None,,,,,3269.2077173,3269.2077173,3269.2077173,n,1.4144211999999072,3244.7602672999997,3244.7602672999997,3264.4880015999997,3269.2077173,2,001,2024-06-13_13h25.53.719,robot_sternberg_sign,2022.2.5,59.96537599189902,
"['L_Torso_X_Back', 'L_Base_Y_For', 'R_Torso_Y_For', 'L_Base_Y_Back', 'L_Torso_Z_Back', 'L_Torso_Y_Back']",True,L_Torso_Z_Back,6,robot,4,False,True,"['robot_stimuli\\L_Torso_X_Back.mp4', 'robot_stimuli\\L_Base_Y_For.mp4', 'robot_stimuli\\R_Torso_Y_For.mp4', 'robot_stimuli\\L_Base_Y_Back.mp4', 'robot_stimuli\\L_Torso_Z_Back.mp4', 'robot_stimuli\\L_Torso_Y_Back.mp4']",robot_stimuli\L_Torso_Z_Back.mp4,2,,,,,,,,,,,,,0,109,109,109,,,,,,,,,,,,,,,,,3295.7145879,3273.9214377999997,,,,,,,,,3300.3648113,3302.8573918999996,3300.3648113,3302.8573918999996,3300.3648113,3302.8573918999996,3300.3648113,3302.8573918999996,69.35185185185185,2.056203600000117,space,,,2.447310499999986,,,,,,,,3272.8457009,3272.8457009,None,,,,,3296.8119512999997,3296.8119512999997,3296.8119512999997,n,1.9529778999997518,3272.8457009,3272.8457009,3292.2152026999997,3296.8119512999997,2,001,2024-06-13_13h25.53.719,robot_sternberg_sign,2022.2.5,59.96537599189902,
"['L_Torso_X_Back', 'L_Base_X_For']",False,R_Base_X_Back,2,robot,4,True,False,"['robot_stimuli\\L_Torso_X_Back.mp4', 'robot_stimuli\\L_Base_X_For.mp4']",robot_stimuli\R_Base_X_Back.mp4,2,,,,,,,,,,,,,0,110,110,110,,,,,,,,,,,,,,,,,3312.3510555999997,3313.4403472,,,,,,,,,3317.07896,3317.07896,3317.07896,3317.07896,3317.07896,3317.07896,3317.07896,3317.07896,None,None,None,,,,,,,,,,,3302.8573918999996,3302.8573918999996,space,1.1165513999997358,,,,3313.4403472,3313.4403472,3313.4403472,n,1.5333315999999115,,,3308.7848225999996,3313.4403472,2,001,2024-06-13_13h25.53.719,robot_sternberg_sign,2022.2.5,59.96537599189902,
"['L_Arm_Y_For', 'L_Base_X_Back']",True,L_Base_X_Back,2,robot,4,False,False,"['robot_stimuli\\L_Arm_Y_For.mp4', 'robot_stimuli\\L_Base_X_Back.mp4']",robot_stimuli\L_Base_X_Back.mp4,2,,,,,,,,,,,,,0,111,111,111,,,,,,,,,,,,,,,,,3325.4842368,3326.5747766,,,,,,,,,3330.1789489999996,3330.1789489999996,3330.1789489999996,3330.1789489999996,3330.1789489999996,3330.1789489999996,3330.1789489999996,3330.1789489999996,None,None,None,,,,,,,,,,,3317.07896,3317.07896,None,,,,,3326.5747766,3326.5747766,3326.5747766,c,1.9974688000000071,3317.07896,3317.07896,3321.8780611999996,3326.5747766,2,001,2024-06-13_13h25.53.719,robot_sternberg_sign,2022.2.5,59.96537599189902,
"['L_Base_X_For', 'R_Base_Y_For']",True,L_Base_X_For,2,robot,4,False,False,"['robot_stimuli\\L_Base_X_For.mp4', 'robot_stimuli\\R_Base_Y_For.mp4']",robot_stimuli\L_Base_X_For.mp4,2,,,,,,,,,,,,,0,112,112,112,,,,,,,,,,,,,,,,,3338.5468382,3331.2579229,,,,,,,,,3343.2276459,3343.2276459,3343.2276459,3343.2276459,3343.2276459,3343.2276459,3343.2276459,3343.2276459,None,None,None,,,,,,,,,,,3330.1789489999996,3330.1789489999996,None,,,,,3339.6556247999997,3339.6556247999997,3339.6556247999997,n,2.3260207999994975,3330.1789489999996,3330.1789489999996,3334.9243960999997,3339.6556247999997,2,001,2024-06-13_13h25.53.719,robot_sternberg_sign,2022.2.5,59.96537599189902,
"['R_Torso_Z_For', 'L_Arm_Z_For']",False,L_Base_Z_Back,2,robot,4,False,False,"['robot_stimuli\\R_Torso_Z_For.mp4', 'robot_stimuli\\L_Arm_Z_For.mp4']",robot_stimuli\L_Base_Z_Back.mp4,2,,,,,,,,,,,,,0,113,113,113,,,,,,,,,,,,,,,,,3351.6809089,3344.3035326,,,,,,,,,3356.4125201999996,3356.4125201999996,3356.4125201999996,3356.4125201999996,3356.4125201999996,3356.4125201999996,3356.4125201999996,3356.4125201999996,None,None,None,,,,,,,,,,,3343.2276459,3343.2276459,None,,,,,3352.7747843999996,3352.7747843999996,3352.7747843999996,n,1.9501825999994082,3343.2276459,3343.2276459,3348.0427373999996,3352.7747843999996,2,001,2024-06-13_13h25.53.719,robot_sternberg_sign,2022.2.5,59.96537599189902,
"['L_Torso_X_For', 'R_Base_X_For']",True,L_Torso_X_For,2,robot,4,False,False,"['robot_stimuli\\L_Torso_X_For.mp4', 'robot_stimuli\\R_Base_X_For.mp4']",robot_stimuli\L_Torso_X_For.mp4,2,,,,,,,,,,,,,0,114,114,114,,,,,,,,,,,,,,,,,3364.7342526999996,3365.8241353,,,,,,,,,3369.4621089999996,3369.4621089999996,3369.4621089999996,3369.4621089999996,3369.4621089999996,3369.4621089999996,3369.4621089999996,3369.4621089999996,None,None,None,,,,,,,,,,,3356.4125201999996,3356.4125201999996,None,,,,,3365.8241353,3365.8241353,3365.8241353,c,2.3244449999995425,3356.4125201999996,3356.4125201999996,3361.2062588,3365.8241353,2,001,2024-06-13_13h25.53.719,robot_sternberg_sign,2022.2.5,59.96537599189902,
"['R_Arm_Y_Back', 'L_Base_Z_For']",False,R_Torso_X_For,2,robot,4,False,False,"['robot_stimuli\\R_Arm_Y_Back.mp4', 'robot_stimuli\\L_Base_Z_For.mp4']",robot_stimuli\R_Torso_X_For.mp4,2,,,,,,,,,,,,,0,115,115,115,,,,,,,,,,,,,,,,,3377.8873768999997,3378.9739209,,,,,,,,,3382.6123592999998,3382.6123592999998,3382.6123592999998,3382.6123592999998,3382.6123592999998,3382.6123592999998,3382.6123592999998,3382.6123592999998,None,None,None,,,,,,,,,,,3369.4621089999996,3369.4621089999996,None,,,,,3378.9739209,3378.9739209,3378.9739209,n,1.7197140000000957,3369.4621089999996,3369.4621089999996,3374.2591040999996,3378.9739209,2,001,2024-06-13_13h25.53.719,robot_sternberg_sign,2022.2.5,59.96537599189902,
