sequence,odd_ones,parameter,choices,target,target_idx,condition,stimuli,block,is_block_beginning,is_block_ending,sequence_fnames,target_fname,subject,retraining.thisRepN,retraining.thisTrialN,retraining.thisN,retraining.thisIndex,training.thisRepN,training.thisTrialN,training.thisN,training.thisIndex,training_sequence_loop.thisRepN,training_sequence_loop.thisTrialN,training_sequence_loop.thisN,training_sequence_loop.thisIndex,trials.thisRepN,trials.thisTrialN,trials.thisN,trials.thisIndex,sequence_loop.thisRepN,sequence_loop.thisTrialN,sequence_loop.thisN,sequence_loop.thisIndex,langage_text.started,langage_key.started,langage_key.keys,langage_key.rt,intro_text.started,intro_key.started,intro_key.keys,intro_key.rt,training_intro_text.started,training_intro_key.started,training_intro_key.keys,training_intro_key.rt,polygon.started,polygon.stopped,cue_before_text.started,cue_before_text.stopped,training_presentation_letter.started,training_presentation_letter.stopped,recall_key.started,recall_question.started,recall_answer.started,recall_key.keys,recall_key.rt,RSME_labels.started,RSME_labels.stopped,RSME_ticks.started,RSME_ticks.stopped,RSME_text.started,RSME_text.stopped,RSME_key.started,RSME_key.stopped,RSME_ticks.response,RSME_ticks.rt,RSME_key.keys,training_intro_text.stopped,training_intro_key.stopped,RSME_key.rt,training_presentation_movie.started,experiment_beginning_text.started,experiment_beginning_keys.started,experiment_beginning_key.started,experiment_beginning_key.keys,experiment_beginning_key.rt,block_intro_text.started,block_intro_key.started,block_intro_key.keys,block_intro_key.rt,presentation_movie.started,block_intro_text.stopped,block_intro_key.stopped,presentation_letter.started,presentation_letter.stopped,participant,session,date,expName,psychopyVersion,frameRate,
,,,,,,,,,,,,,,,,,,,,,,,,,,,,,,,,,,12.086239599999999,12.086239599999999,f,0.2938517000000047,,,,,,,,,,,,,,,,,,,,,,,,,,,,,,,,,,,,,,,,,,,,,,,,,11,001,2024-07-30_10h10.48.733,robot_cogshifting_sign,2022.2.5,60.08911215331698,
,,,,,,,,,,,,,,,,,,,,,,,,,,,,,,,,,,,,,,12.440261600000042,12.440261600000042,space,98.3953588,,,,,,,,,,,,,,,,,,,,,,,,,,,,,,,,,,,,,,,,,,,,,11,001,2024-07-30_10h10.48.733,robot_cogshifting_sign,2022.2.5,60.08911215331698,
"['red_top_X_45', 'red_bottom_M_0', 'red_top_V_0', 'blue_top_J_0']","{'color': 'blue_top_J_0', 'position': 'red_bottom_M_0', 'orientation': 'red_top_X_45'}",color,['color'],blue_top_J_0,3,1,letter,2,True,False,"['robot_stimuli\\\\filler.mp4', 'robot_stimuli\\\\filler.mp4', 'robot_stimuli\\\\filler.mp4', 'robot_stimuli\\\\filler.mp4']",robot_stimuli\\filler.mp4,11,0,0,0,0,0,0,0,0,,,,,,,,,,,,,,,,,,,,,110.88292419999999,110.88292419999999,space,5.048710900000003,115.95318680000003,116.953033,116.953033,119.24142790000002,126.1431652,128.3794755,128.3794755,128.3794755,128.3794755,4,14.495754599999998,143.01469990000004,143.01469990000004,143.01469990000004,143.01469990000004,143.01469990000004,143.01469990000004,143.01469990000004,143.01469990000004,None,None,None,,,,,,,,,,,,,,,,,,,11,001,2024-07-30_10h10.48.733,robot_cogshifting_sign,2022.2.5,60.08911215331698,
"['blue_top_P_0', 'red_top_G_45', 'blue_bottom_Q_45', 'blue_top_V_45']","{'color': 'red_top_G_45', 'position': 'blue_bottom_Q_45', 'orientation': 'blue_top_P_0'}",orientation,['orientation'],blue_top_P_0,0,1,letter,2,False,False,"['robot_stimuli\\\\filler.mp4', 'robot_stimuli\\\\filler.mp4', 'robot_stimuli\\\\filler.mp4', 'robot_stimuli\\\\filler.mp4']",robot_stimuli\\filler.mp4,11,0,0,0,0,0,1,1,1,,,,,,,,,,,,,,,,,,,,,143.01469990000004,143.01469990000004,None,,143.01469990000004,,144.0196957,,152.80306430000002,154.82868790000003,154.82868790000003,154.82868790000003,154.82868790000003,1,2.1100726999999893,156.96980860000002,156.96980860000002,156.96980860000002,156.96980860000002,156.96980860000002,156.96980860000002,156.96980860000002,156.96980860000002,None,None,None,143.01469990000004,143.01469990000004,,,,,,,,,,,,,,,,,11,001,2024-07-30_10h10.48.733,robot_cogshifting_sign,2022.2.5,60.08911215331698,
"['blue_right_N_0', 'blue_left_B_45', 'red_left_T_0', 'blue_left_T_0']","{'color': 'red_left_T_0', 'position': 'blue_right_N_0', 'orientation': 'blue_left_B_45'}",position,['position'],blue_right_N_0,0,1,letter,2,False,True,"['robot_stimuli\\\\filler.mp4', 'robot_stimuli\\\\filler.mp4', 'robot_stimuli\\\\filler.mp4', 'robot_stimuli\\\\filler.mp4']",robot_stimuli\\filler.mp4,11,0,0,0,0,0,2,2,2,,,,,,,,,,,,,,,,,,,,,156.96980860000002,156.96980860000002,None,,156.96980860000002,157.96985190000004,157.96985190000004,160.0499324,166.7539008,168.783204,168.783204,168.783204,168.783204,1,0.6752142999999933,169.55431880000003,173.46127710000002,169.55431880000003,173.46127710000002,169.55431880000003,173.46127710000002,169.55431880000003,173.46127710000002,8.086419753086412,3.395168100000035,space,156.96980860000002,156.96980860000002,3.8318658000000028,,,,,,,,,,,,,,,,11,001,2024-07-30_10h10.48.733,robot_cogshifting_sign,2022.2.5,60.08911215331698,
"['blue_bottom_N_45', 'blue_bottom_F_0', 'red_bottom_D_45', 'blue_left_F_45']","{'color': 'red_bottom_D_45', 'position': 'blue_left_F_45', 'orientation': 'blue_bottom_F_0'}",orientation,"['orientation', 'position']",blue_bottom_F_0,1,2,letter,2,True,False,"['robot_stimuli\\\\filler.mp4', 'robot_stimuli\\\\filler.mp4', 'robot_stimuli\\\\filler.mp4', 'robot_stimuli\\\\filler.mp4']",robot_stimuli\\filler.mp4,11,0,0,0,0,0,3,3,3,,,,,,,,,,,,,,,,,,,,,173.46127710000002,173.46127710000002,space,3.181767700000023,176.6696645,177.669763,177.669763,179.7373306,186.2528249,188.28042120000003,188.28042120000003,188.28042120000003,188.28042120000003,2,18.06555309999999,206.36974500000002,206.36974500000002,206.36974500000002,206.36974500000002,206.36974500000002,206.36974500000002,206.36974500000002,206.36974500000002,None,None,None,,,,,,,,,,,,,,,,,,,11,001,2024-07-30_10h10.48.733,robot_cogshifting_sign,2022.2.5,60.08911215331698,
"['red_right_F_0', 'red_right_M_45', 'blue_right_K_45', 'red_top_B_45']","{'color': 'blue_right_K_45', 'position': 'red_top_B_45', 'orientation': 'red_right_F_0'}",position,"['orientation', 'position']",red_top_B_45,3,2,letter,2,False,False,"['robot_stimuli\\\\filler.mp4', 'robot_stimuli\\\\filler.mp4', 'robot_stimuli\\\\filler.mp4', 'robot_stimuli\\\\filler.mp4']",robot_stimuli\\filler.mp4,11,0,0,0,0,0,4,4,4,,,,,,,,,,,,,,,,,,,,,206.36974500000002,206.36974500000002,None,,206.36974500000002,207.36981430000003,207.36981430000003,209.4347891,215.9338745,217.95611050000002,217.95611050000002,217.95611050000002,217.95611050000002,4,0.966499199999987,218.9531621,218.9531621,218.9531621,218.9531621,218.9531621,218.9531621,218.9531621,218.9531621,None,None,None,206.36974500000002,206.36974500000002,,,,,,,,,,,,,,,,,11,001,2024-07-30_10h10.48.733,robot_cogshifting_sign,2022.2.5,60.08911215331698,
"['red_left_P_45', 'blue_left_P_45', 'blue_top_F_45', 'blue_left_D_0']","{'color': 'red_left_P_45', 'position': 'blue_top_F_45', 'orientation': 'blue_left_D_0'}",color,"['color', 'orientation']",red_left_P_45,0,2,letter,2,False,True,"['robot_stimuli\\\\filler.mp4', 'robot_stimuli\\\\filler.mp4', 'robot_stimuli\\\\filler.mp4', 'robot_stimuli\\\\filler.mp4']",robot_stimuli\\filler.mp4,11,0,0,0,0,0,5,5,5,,,,,,,,,,,,,,,,,,,,,218.9531621,218.9531621,None,,218.9531621,219.9530893,219.9530893,222.0201262,228.339467,230.56195910000002,230.56195910000002,230.56195910000002,230.56195910000002,1,1.2978688000000034,231.9104828,234.89736249999999,231.9104828,234.89736249999999,231.9104828,234.89736249999999,231.9104828,234.89736249999999,12.561728395061722,2.5657059999999774,space,218.9531621,218.9531621,2.931845599999974,,,,,,,,,,,,,,,,11,001,2024-07-30_10h10.48.733,robot_cogshifting_sign,2022.2.5,60.08911215331698,
"['blue_left_G_0', 'red_left_H_0', 'red_top_F_0', 'red_left_L_45']","{'color': 'blue_left_G_0', 'position': 'red_top_F_0', 'orientation': 'red_left_L_45'}",orientation,"['color', 'orientation', 'position']",red_left_L_45,3,3,letter,2,True,False,"['robot_stimuli\\\\filler.mp4', 'robot_stimuli\\\\filler.mp4', 'robot_stimuli\\\\filler.mp4', 'robot_stimuli\\\\filler.mp4']",robot_stimuli\\filler.mp4,11,0,0,0,0,0,6,6,6,,,,,,,,,,,,,,,,,,,,,234.89736249999999,234.89736249999999,space,1.7380943999999658,236.65327360000003,237.65348370000004,237.65348370000004,239.72356110000004,246.43256200000002,248.44944800000002,248.44944800000002,248.44944800000002,248.44944800000002,4,1.378479499999969,249.85332290000002,249.85332290000002,249.85332290000002,249.85332290000002,249.85332290000002,249.85332290000002,249.85332290000002,249.85332290000002,None,None,None,,,,,,,,,,,,,,,,,,,11,001,2024-07-30_10h10.48.733,robot_cogshifting_sign,2022.2.5,60.08911215331698,
"['blue_bottom_K_0', 'red_bottom_F_0', 'red_top_N_0', 'red_bottom_B_45']","{'color': 'blue_bottom_K_0', 'position': 'red_top_N_0', 'orientation': 'red_bottom_B_45'}",position,"['color', 'orientation', 'position']",red_top_N_0,2,3,letter,2,False,False,"['robot_stimuli\\\\filler.mp4', 'robot_stimuli\\\\filler.mp4', 'robot_stimuli\\\\filler.mp4', 'robot_stimuli\\\\filler.mp4']",robot_stimuli\\filler.mp4,11,0,0,0,0,0,7,7,7,,,,,,,,,,,,,,,,,,,,,249.85332290000002,249.85332290000002,None,,249.85332290000002,250.85326960000003,250.85326960000003,252.91455200000001,259.41560380000004,261.43032980000004,261.43032980000004,261.43032980000004,261.43032980000004,3,1.388684899999987,262.8364809,262.8364809,262.8364809,262.8364809,262.8364809,262.8364809,262.8364809,262.8364809,None,None,None,249.85332290000002,249.85332290000002,,,,,,,,,,,,,,,,,11,001,2024-07-30_10h10.48.733,robot_cogshifting_sign,2022.2.5,60.08911215331698,
"['blue_right_G_0', 'red_bottom_Z_0', 'blue_bottom_J_45', 'blue_bottom_W_0']","{'color': 'red_bottom_Z_0', 'position': 'blue_right_G_0', 'orientation': 'blue_bottom_J_45'}",color,"['color', 'orientation', 'position']",red_bottom_Z_0,1,3,letter,2,False,True,"['robot_stimuli\\\\filler.mp4', 'robot_stimuli\\\\filler.mp4', 'robot_stimuli\\\\filler.mp4', 'robot_stimuli\\\\filler.mp4']",robot_stimuli\\filler.mp4,11,0,0,0,0,0,8,8,8,,,,,,,,,,,,,,,,,,,,,262.8364809,262.8364809,None,,262.8364809,263.8363807,263.8363807,265.90175289999996,272.37974149999997,274.58962760000003,274.58962760000003,274.58962760000003,274.58962760000003,2,0.701685800000007,275.3439716,277.79648860000003,275.3439716,277.79648860000003,275.3439716,277.79648860000003,275.3439716,277.79648860000003,17.191358024691354,1.9750156999999717,space,262.8364809,262.8364809,2.4024771999999643,,,,,,,,,,,,,,,,11,001,2024-07-30_10h10.48.733,robot_cogshifting_sign,2022.2.5,60.08911215331698,
"['R_Arm_Z_For', 'R_Arm_Y_For', 'R_Base_Z_For', 'L_Arm_Z_For']","{'laterality': 'L_Arm_Z_For', 'localisation': 'R_Base_Z_For', 'movement': 'R_Arm_Y_For'}",localisation,['localisation'],R_Base_Z_For,2,1,robot,1,True,False,"['robot_stimuli\\R_Arm_Z_For.mp4', 'robot_stimuli\\R_Arm_Y_For.mp4', 'robot_stimuli\\R_Base_Z_For.mp4', 'robot_stimuli\\L_Arm_Z_For.mp4']",robot_stimuli\R_Base_Z_For.mp4,11,0,0,0,0,0,9,9,9,,,,,,,,,,,,,,,,,,,,,277.79648860000003,277.79648860000003,space,1.7424599999999941,279.56973239999996,280.569818,280.569818,282.6677246,,,297.3967201,297.3967201,297.3967201,3,8.84629179999996,306.26984699999997,306.26984699999997,306.26984699999997,306.26984699999997,306.26984699999997,306.26984699999997,306.26984699999997,306.26984699999997,None,None,None,,,,293.75868540000005,,,,,,,,,,,,,,,11,001,2024-07-30_10h10.48.733,robot_cogshifting_sign,2022.2.5,60.08911215331698,
"['R_Base_Y_Back', 'R_Torso_Y_For', 'L_Base_Y_For', 'R_Base_Z_Back']","{'laterality': 'L_Base_Y_For', 'localisation': 'R_Torso_Y_For', 'movement': 'R_Base_Z_Back'}",movement,['movement'],R_Base_Z_Back,3,1,robot,1,False,False,"['robot_stimuli\\R_Base_Y_Back.mp4', 'robot_stimuli\\R_Torso_Y_For.mp4', 'robot_stimuli\\L_Base_Y_For.mp4', 'robot_stimuli\\R_Base_Z_Back.mp4']",robot_stimuli\R_Base_Z_Back.mp4,11,0,0,0,0,0,10,10,10,,,,,,,,,,,,,,,,,,,,,306.26984699999997,306.26984699999997,None,,306.26984699999997,307.2699038,307.2699038,309.35360710000003,,,323.9969441,323.9969441,323.9969441,4,0.8208486999999991,324.83644050000004,324.83644050000004,324.83644050000004,324.83644050000004,324.83644050000004,324.83644050000004,324.83644050000004,324.83644050000004,None,None,None,306.26984699999997,306.26984699999997,,320.45075920000005,,,,,,,,,,,,,,,11,001,2024-07-30_10h10.48.733,robot_cogshifting_sign,2022.2.5,60.08911215331698,
"['R_Arm_Z_Back', 'R_Head_X_For', 'R_Head_Z_For', 'L_Head_Z_Back']","{'laterality': 'L_Head_Z_Back', 'localisation': 'R_Arm_Z_Back', 'movement': 'R_Head_X_For'}",laterality,['laterality'],L_Head_Z_Back,3,1,robot,1,False,True,"['robot_stimuli\\R_Arm_Z_Back.mp4', 'robot_stimuli\\R_Head_X_For.mp4', 'robot_stimuli\\R_Head_Z_For.mp4', 'robot_stimuli\\L_Head_Z_Back.mp4']",robot_stimuli\L_Head_Z_Back.mp4,11,0,0,0,0,0,11,11,11,,,,,,,,,,,,,,,,,,,,,324.83644050000004,324.83644050000004,None,,324.83644050000004,325.83665890000003,325.83665890000003,327.91735940000007,,,342.7796751,342.7796751,342.7796751,4,0.911316099999965,343.7453288,346.09104840000003,343.7453288,346.09104840000003,343.7453288,346.09104840000003,343.7453288,346.09104840000003,14.567901234567898,1.9307092999999895,space,324.83644050000004,324.83644050000004,2.281595399999958,339.13532790000005,,,,,,,,,,,,,,,11,001,2024-07-30_10h10.48.733,robot_cogshifting_sign,2022.2.5,60.08911215331698,
"['L_Head_X_Back', 'L_Torso_Y_Back', 'L_Head_Y_Back', 'R_Head_Y_For']","{'laterality': 'R_Head_Y_For', 'localisation': 'L_Torso_Y_Back', 'movement': 'L_Head_X_Back'}",laterality,"['laterality', 'movement']",R_Head_Y_For,3,2,robot,1,True,False,"['robot_stimuli\\L_Head_X_Back.mp4', 'robot_stimuli\\L_Torso_Y_Back.mp4', 'robot_stimuli\\L_Head_Y_Back.mp4', 'robot_stimuli\\R_Head_Y_For.mp4']",robot_stimuli\R_Head_Y_For.mp4,11,0,0,0,0,0,12,12,12,,,,,,,,,,,,,,,,,,,,,346.09104840000003,346.09104840000003,space,1.0399802999999679,347.15339150000005,348.1532126,348.1532126,350.23320140000004,,,364.9377529,364.9377529,364.9377529,1,1.5457190000000196,366.5034632,366.5034632,366.5034632,366.5034632,366.5034632,366.5034632,366.5034632,366.5034632,None,None,None,,,,361.3045874,,,,,,,,,,,,,,,11,001,2024-07-30_10h10.48.733,robot_cogshifting_sign,2022.2.5,60.08911215331698,
"['L_Torso_X_For', 'R_Torso_X_For', 'R_Head_X_For', 'R_Torso_Z_For']","{'laterality': 'L_Torso_X_For', 'localisation': 'R_Head_X_For', 'movement': 'R_Torso_Z_For'}",movement,"['localisation', 'movement']",R_Torso_Z_For,3,2,robot,1,False,False,"['robot_stimuli\\L_Torso_X_For.mp4', 'robot_stimuli\\R_Torso_X_For.mp4', 'robot_stimuli\\R_Head_X_For.mp4', 'robot_stimuli\\R_Torso_Z_For.mp4']",robot_stimuli\R_Torso_Z_For.mp4,11,0,0,0,0,0,13,13,13,,,,,,,,,,,,,,,,,,,,,366.5034632,366.5034632,None,,366.5034632,367.50360040000004,367.50360040000004,369.5814796,,,384.4287761,384.4287761,384.4287761,4,1.6226538999999889,386.06982940000006,386.06982940000006,386.06982940000006,386.06982940000006,386.06982940000006,386.06982940000006,386.06982940000006,386.06982940000006,None,None,None,366.5034632,366.5034632,,380.77882030000006,,,,,,,,,,,,,,,11,001,2024-07-30_10h10.48.733,robot_cogshifting_sign,2022.2.5,60.08911215331698,
"['L_Arm_X_For', 'R_Arm_Z_Back', 'L_Torso_Z_For', 'L_Arm_Z_For']","{'laterality': 'R_Arm_Z_Back', 'localisation': 'L_Torso_Z_For', 'movement': 'L_Arm_X_For'}",localisation,"['localisation', 'movement']",L_Torso_Z_For,2,2,robot,1,False,True,"['robot_stimuli\\L_Arm_X_For.mp4', 'robot_stimuli\\R_Arm_Z_Back.mp4', 'robot_stimuli\\L_Torso_Z_For.mp4', 'robot_stimuli\\L_Arm_Z_For.mp4']",robot_stimuli\L_Torso_Z_For.mp4,11,0,0,0,0,0,14,14,14,,,,,,,,,,,,,,,,,,,,,386.06982940000006,386.06982940000006,None,,386.06982940000006,387.07007600000003,387.07007600000003,389.1450177,,,403.942062,403.942062,403.942062,3,1.0695371999999566,405.0611147,407.7484827,405.0611147,407.7484827,405.0611147,407.7484827,405.0611147,407.7484827,19.96913580246913,2.3370359000000462,space,386.06982940000006,386.06982940000006,2.6459762999999725,400.3061813,,,,,,,,,,,,,,,11,001,2024-07-30_10h10.48.733,robot_cogshifting_sign,2022.2.5,60.08911215331698,
"['R_Head_Z_Back', 'L_Head_Z_For', 'L_Head_Y_For', 'L_Arm_Z_For']","{'laterality': 'R_Head_Z_Back', 'localisation': 'L_Arm_Z_For', 'movement': 'L_Head_Y_For'}",movement,"['laterality', 'localisation', 'movement']",L_Head_Y_For,2,3,robot,1,True,False,"['robot_stimuli\\R_Head_Z_Back.mp4', 'robot_stimuli\\L_Head_Z_For.mp4', 'robot_stimuli\\L_Head_Y_For.mp4', 'robot_stimuli\\L_Arm_Z_For.mp4']",robot_stimuli\L_Head_Y_For.mp4,11,0,0,0,0,0,15,15,15,,,,,,,,,,,,,,,,,,,,,407.7484827,407.7484827,space,0.9673371999999176,408.73650760000004,409.73672289999996,409.73672289999996,411.817555,,,426.6086088,426.6086088,426.6086088,4,6.458068500000024,433.08661750000005,433.08661750000005,433.08661750000005,433.08661750000005,433.08661750000005,433.08661750000005,433.08661750000005,433.08661750000005,None,None,None,,,,422.98039150000005,,,,,,,,,,,,,,,11,001,2024-07-30_10h10.48.733,robot_cogshifting_sign,2022.2.5,60.08911215331698,
"['R_Arm_Z_For', 'R_Base_Z_Back', 'R_Arm_Y_Back', 'L_Arm_Z_For']","{'laterality': 'L_Arm_Z_For', 'localisation': 'R_Base_Z_Back', 'movement': 'R_Arm_Y_Back'}",localisation,"['laterality', 'localisation', 'movement']",R_Base_Z_Back,1,3,robot,1,False,False,"['robot_stimuli\\R_Arm_Z_For.mp4', 'robot_stimuli\\R_Base_Z_Back.mp4', 'robot_stimuli\\R_Arm_Y_Back.mp4', 'robot_stimuli\\L_Arm_Z_For.mp4']",robot_stimuli\R_Base_Z_Back.mp4,11,0,0,0,0,0,16,16,16,,,,,,,,,,,,,,,,,,,,,433.08661750000005,433.08661750000005,None,,433.08661750000005,434.08665920000004,434.08665920000004,436.17731280000004,,,450.929637,450.929637,450.929637,3,1.9059166999999775,452.85343600000004,452.85343600000004,452.85343600000004,452.85343600000004,452.85343600000004,452.85343600000004,452.85343600000004,452.85343600000004,None,None,None,433.08661750000005,433.08661750000005,,447.2844114,,,,,,,,,,,,,,,11,001,2024-07-30_10h10.48.733,robot_cogshifting_sign,2022.2.5,60.08911215331698,
"['L_Arm_X_Back', 'R_Torso_X_For', 'R_Arm_Y_For', 'R_Arm_X_For']","{'laterality': 'L_Arm_X_Back', 'localisation': 'R_Torso_X_For', 'movement': 'R_Arm_Y_For'}",laterality,"['laterality', 'localisation', 'movement']",L_Arm_X_Back,0,3,robot,1,False,True,"['robot_stimuli\\L_Arm_X_Back.mp4', 'robot_stimuli\\R_Torso_X_For.mp4', 'robot_stimuli\\R_Arm_Y_For.mp4', 'robot_stimuli\\R_Arm_X_For.mp4']",robot_stimuli\L_Arm_X_Back.mp4,11,0,0,0,0,0,17,17,17,,,,,,,,,,,,,,,,,,,,,452.85343600000004,452.85343600000004,None,,452.85343600000004,453.8537084,453.8537084,455.9283892,,,470.6120223,470.6120223,470.6120223,2,3.3193282000000295,473.9773287,477.05092110000004,473.9773287,477.05092110000004,473.9773287,477.05092110000004,473.9773287,477.05092110000004,24.598765432098762,2.063176300000009,space,452.85343600000004,452.85343600000004,3.008704000000023,466.9658804,,,,,,,,,,,,,,,11,001,2024-07-30_10h10.48.733,robot_cogshifting_sign,2022.2.5,60.08911215331698,
,,,,,,,,,,,,,,0,0,0,0,,,,,,,,,,,,,,,,,,,,,,,,,,,,,,,,,,,,,,,,,,,,,,,,,,,,,,,477.05092110000004,477.05092110000004,477.05092110000004,c,1.464151299999969,,,,,,,,,,11,001,2024-07-30_10h10.48.733,robot_cogshifting_sign,2022.2.5,60.08911215331698,
"['L_Head_Y_Back', 'L_Torso_X_Back', 'L_Head_X_Back', 'R_Head_X_Back']","{'laterality': 'R_Head_X_Back', 'localisation': 'L_Torso_X_Back', 'movement': 'L_Head_Y_Back'}",laterality,['laterality'],R_Head_X_Back,3,1,robot,1,True,False,"['robot_stimuli\\L_Head_Y_Back.mp4', 'robot_stimuli\\L_Torso_X_Back.mp4', 'robot_stimuli\\L_Head_X_Back.mp4', 'robot_stimuli\\R_Head_X_Back.mp4']",robot_stimuli\R_Head_X_Back.mp4,11,,,,,,,,,,,,,0,0,0,0,,,,,,,,,,,,,,,,,,,480.4368768,482.51211000000006,,,497.3425252,497.3425252,497.3425252,4,0.4685819000000606,497.836668,497.836668,497.836668,497.836668,497.836668,497.836668,497.836668,497.836668,None,None,None,,,,,,,,,,478.5524323,478.5524323,space,1.8664607000000046,493.69492859999997,,,,,11,001,2024-07-30_10h10.48.733,robot_cogshifting_sign,2022.2.5,60.08911215331698,
"['L_Base_Y_For', 'L_Head_X_Back', 'L_Base_X_Back', 'R_Base_X_For']","{'laterality': 'R_Base_X_For', 'localisation': 'L_Head_X_Back', 'movement': 'L_Base_Y_For'}",movement,['movement'],L_Base_Y_For,0,1,robot,1,False,False,"['robot_stimuli\\L_Base_Y_For.mp4', 'robot_stimuli\\L_Head_X_Back.mp4', 'robot_stimuli\\L_Base_X_Back.mp4', 'robot_stimuli\\R_Base_X_For.mp4']",robot_stimuli\L_Base_Y_For.mp4,11,,,,,,,,,,,,,0,1,1,1,,,,,,,,,,,,,,,,,,,497.836668,499.9077603,,,514.5298387,514.5298387,514.5298387,1,0.8975114000000417,515.4537346,515.4537346,515.4537346,515.4537346,515.4537346,515.4537346,515.4537346,515.4537346,None,None,None,,,,,,,,,,497.836668,497.836668,None,,510.98433489999996,497.836668,497.836668,,,11,001,2024-07-30_10h10.48.733,robot_cogshifting_sign,2022.2.5,60.08911215331698,
"['R_Torso_Z_Back', 'R_Head_X_For', 'R_Torso_X_For', 'L_Torso_X_For']","{'laterality': 'L_Torso_X_For', 'localisation': 'R_Head_X_For', 'movement': 'R_Torso_Z_Back'}",localisation,['localisation'],R_Head_X_For,1,1,robot,1,False,False,"['robot_stimuli\\R_Torso_Z_Back.mp4', 'robot_stimuli\\R_Head_X_For.mp4', 'robot_stimuli\\R_Torso_X_For.mp4', 'robot_stimuli\\L_Torso_X_For.mp4']",robot_stimuli\R_Head_X_For.mp4,11,,,,,,,,,,,,,0,2,2,2,,,,,,,,,,,,,,,,,,,515.4537346,517.5265933000001,,,532.347489,532.347489,532.347489,2,0.744033100000081,533.1200305,533.1200305,533.1200305,533.1200305,533.1200305,533.1200305,533.1200305,533.1200305,None,None,None,,,,,,,,,,515.4537346,515.4537346,None,,528.712442,515.4537346,515.4537346,,,11,001,2024-07-30_10h10.48.733,robot_cogshifting_sign,2022.2.5,60.08911215331698,
"['L_Torso_Z_Back', 'R_Torso_Z_For', 'R_Arm_Z_For', 'R_Torso_X_For']","{'laterality': 'L_Torso_Z_Back', 'localisation': 'R_Arm_Z_For', 'movement': 'R_Torso_X_For'}",localisation,['localisation'],R_Arm_Z_For,2,1,robot,1,False,False,"['robot_stimuli\\L_Torso_Z_Back.mp4', 'robot_stimuli\\R_Torso_Z_For.mp4', 'robot_stimuli\\R_Arm_Z_For.mp4', 'robot_stimuli\\R_Torso_X_For.mp4']",robot_stimuli\R_Arm_Z_For.mp4,11,,,,,,,,,,,,,0,3,3,3,,,,,,,,,,,,,,,,,,,533.1200305,535.2014884,,,549.9055825,549.9055825,549.9055825,3,0.48987009999990505,550.4201512,550.4201512,550.4201512,550.4201512,550.4201512,550.4201512,550.4201512,550.4201512,None,None,None,,,,,,,,,,533.1200305,533.1200305,None,,546.2719857,533.1200305,533.1200305,,,11,001,2024-07-30_10h10.48.733,robot_cogshifting_sign,2022.2.5,60.08911215331698,
"['L_Base_Z_For', 'R_Base_Z_Back', 'L_Base_Y_Back', 'L_Arm_Z_Back']","{'laterality': 'R_Base_Z_Back', 'localisation': 'L_Arm_Z_Back', 'movement': 'L_Base_Y_Back'}",movement,['movement'],L_Base_Y_Back,2,1,robot,1,False,False,"['robot_stimuli\\L_Base_Z_For.mp4', 'robot_stimuli\\R_Base_Z_Back.mp4', 'robot_stimuli\\L_Base_Y_Back.mp4', 'robot_stimuli\\L_Arm_Z_Back.mp4']",robot_stimuli\L_Base_Y_Back.mp4,11,,,,,,,,,,,,,0,4,4,4,,,,,,,,,,,,,,,,,,,550.4201512,552.4906575,,,567.1635514,567.1635514,567.1635514,3,1.719789399999911,568.9036578,568.9036578,568.9036578,568.9036578,568.9036578,568.9036578,568.9036578,568.9036578,None,None,None,,,,,,,,,,550.4201512,550.4201512,None,,563.5293376,550.4201512,550.4201512,,,11,001,2024-07-30_10h10.48.733,robot_cogshifting_sign,2022.2.5,60.08911215331698,
"['L_Head_Y_For', 'R_Head_Z_For', 'L_Base_Z_For', 'L_Head_Z_Back']","{'laterality': 'R_Head_Z_For', 'localisation': 'L_Base_Z_For', 'movement': 'L_Head_Y_For'}",movement,['movement'],L_Head_Y_For,0,1,robot,1,False,False,"['robot_stimuli\\L_Head_Y_For.mp4', 'robot_stimuli\\R_Head_Z_For.mp4', 'robot_stimuli\\L_Base_Z_For.mp4', 'robot_stimuli\\L_Head_Z_Back.mp4']",robot_stimuli\L_Head_Y_For.mp4,11,,,,,,,,,,,,,0,5,5,5,,,,,,,,,,,,,,,,,,,568.9036578,570.9741485,,,585.7755123,585.7755123,585.7755123,1,0.5564231999999834,586.3538496000001,586.3538496000001,586.3538496000001,586.3538496000001,586.3538496000001,586.3538496000001,586.3538496000001,586.3538496000001,None,None,None,,,,,,,,,,568.9036578,568.9036578,None,,582.1452228999999,568.9036578,568.9036578,,,11,001,2024-07-30_10h10.48.733,robot_cogshifting_sign,2022.2.5,60.08911215331698,
"['L_Torso_Y_Back', 'L_Arm_X_For', 'L_Arm_Y_For', 'R_Arm_Y_Back']","{'laterality': 'R_Arm_Y_Back', 'localisation': 'L_Torso_Y_Back', 'movement': 'L_Arm_X_For'}",localisation,['localisation'],L_Torso_Y_Back,0,1,robot,1,False,False,"['robot_stimuli\\L_Torso_Y_Back.mp4', 'robot_stimuli\\L_Arm_X_For.mp4', 'robot_stimuli\\L_Arm_Y_For.mp4', 'robot_stimuli\\R_Arm_Y_Back.mp4']",robot_stimuli\L_Torso_Y_Back.mp4,11,,,,,,,,,,,,,0,6,6,6,,,,,,,,,,,,,,,,,,,586.3538496000001,588.4279105,,,603.1097526000001,603.1097526000001,603.1097526000001,1,1.844286400000044,604.9701907000001,604.9701907000001,604.9701907000001,604.9701907000001,604.9701907000001,604.9701907000001,604.9701907000001,604.9701907000001,None,None,None,,,,,,,,,,586.3538496000001,586.3538496000001,None,,599.4739787000001,586.3538496000001,586.3538496000001,,,11,001,2024-07-30_10h10.48.733,robot_cogshifting_sign,2022.2.5,60.08911215331698,
"['L_Head_Y_For', 'R_Head_X_For', 'L_Arm_X_Back', 'L_Head_X_For']","{'laterality': 'R_Head_X_For', 'localisation': 'L_Arm_X_Back', 'movement': 'L_Head_Y_For'}",laterality,['laterality'],R_Head_X_For,1,1,robot,1,False,False,"['robot_stimuli\\L_Head_Y_For.mp4', 'robot_stimuli\\R_Head_X_For.mp4', 'robot_stimuli\\L_Arm_X_Back.mp4', 'robot_stimuli\\L_Head_X_For.mp4']",robot_stimuli\R_Head_X_For.mp4,11,,,,,,,,,,,,,0,7,7,7,,,,,,,,,,,,,,,,,,,604.9701907000001,607.0408586000001,,,621.7608663000001,621.7608663000001,621.7608663000001,2,0.40168699999998125,622.18698,622.18698,622.18698,622.18698,622.18698,622.18698,622.18698,622.18698,None,None,None,,,,,,,,,,604.9701907000001,604.9701907000001,None,,618.1916105,604.9701907000001,604.9701907000001,,,11,001,2024-07-30_10h10.48.733,robot_cogshifting_sign,2022.2.5,60.08911215331698,
"['L_Head_X_For', 'R_Head_X_For', 'R_Arm_X_Back', 'R_Head_Y_For']","{'laterality': 'L_Head_X_For', 'localisation': 'R_Arm_X_Back', 'movement': 'R_Head_Y_For'}",laterality,['laterality'],L_Head_X_For,0,1,robot,1,False,True,"['robot_stimuli\\L_Head_X_For.mp4', 'robot_stimuli\\R_Head_X_For.mp4', 'robot_stimuli\\R_Arm_X_Back.mp4', 'robot_stimuli\\R_Head_Y_For.mp4']",robot_stimuli\L_Head_X_For.mp4,11,,,,,,,,,,,,,0,8,8,8,,,,,,,,,,,,,,,,,,,622.18698,624.2620595999999,,,639.0084061,639.0084061,639.0084061,1,0.6735812999999666,639.7273738000001,641.5724445000001,639.7273738000001,641.5724445000001,639.7273738000001,641.5724445000001,639.7273738000001,641.5724445000001,15.030864197530864,1.7021709000000556,space,,,1.7945364999999924,,,,,,,622.18698,622.18698,None,,635.3762128000001,622.18698,622.18698,,,11,001,2024-07-30_10h10.48.733,robot_cogshifting_sign,2022.2.5,60.08911215331698,
"['L_Torso_Y_Back', 'R_Base_Y_For', 'L_Base_Y_For', 'L_Base_X_For']","{'laterality': 'R_Base_Y_For', 'localisation': 'L_Torso_Y_Back', 'movement': 'L_Base_X_For'}",localisation,"['laterality', 'localisation', 'movement']",L_Torso_Y_Back,0,3,robot,1,True,False,"['robot_stimuli\\L_Torso_Y_Back.mp4', 'robot_stimuli\\R_Base_Y_For.mp4', 'robot_stimuli\\L_Base_Y_For.mp4', 'robot_stimuli\\L_Base_X_For.mp4']",robot_stimuli\L_Torso_Y_Back.mp4,11,,,,,,,,,,,,,0,9,9,9,,,,,,,,,,,,,,,,,,,652.5369468000001,654.615325,,,669.113627,669.113627,669.113627,2,5.729837699999905,674.8704454000001,674.8704454000001,674.8704454000001,674.8704454000001,674.8704454000001,674.8704454000001,674.8704454000001,674.8704454000001,None,None,None,,,,,,,,,,641.5724445000001,641.5724445000001,space,10.933634199999972,665.5289634000001,,,,,11,001,2024-07-30_10h10.48.733,robot_cogshifting_sign,2022.2.5,60.08911215331698,
"['L_Arm_Y_For', 'R_Arm_Y_Back', 'L_Arm_X_Back', 'L_Base_Y_For']","{'laterality': 'R_Arm_Y_Back', 'localisation': 'L_Base_Y_For', 'movement': 'L_Arm_X_Back'}",localisation,"['laterality', 'localisation', 'movement']",L_Base_Y_For,3,3,robot,1,False,False,"['robot_stimuli\\L_Arm_Y_For.mp4', 'robot_stimuli\\R_Arm_Y_Back.mp4', 'robot_stimuli\\L_Arm_X_Back.mp4', 'robot_stimuli\\L_Base_Y_For.mp4']",robot_stimuli\L_Base_Y_For.mp4,11,,,,,,,,,,,,,0,10,10,10,,,,,,,,,,,,,,,,,,,674.8704454000001,676.9449205999999,,,691.6408634,691.6408634,691.6408634,4,1.6172691999999529,693.2868794999999,693.2868794999999,693.2868794999999,693.2868794999999,693.2868794999999,693.2868794999999,693.2868794999999,693.2868794999999,None,None,None,,,,,,,,,,674.8704454000001,674.8704454000001,None,,688.1088359,674.8704454000001,674.8704454000001,,,11,001,2024-07-30_10h10.48.733,robot_cogshifting_sign,2022.2.5,60.08911215331698,
"['L_Head_Y_Back', 'L_Head_X_Back', 'R_Head_X_Back', 'L_Base_X_Back']","{'laterality': 'R_Head_X_Back', 'localisation': 'L_Base_X_Back', 'movement': 'L_Head_Y_Back'}",movement,"['laterality', 'localisation', 'movement']",L_Head_Y_Back,0,3,robot,1,False,False,"['robot_stimuli\\L_Head_Y_Back.mp4', 'robot_stimuli\\L_Head_X_Back.mp4', 'robot_stimuli\\R_Head_X_Back.mp4', 'robot_stimuli\\L_Base_X_Back.mp4']",robot_stimuli\L_Head_Y_Back.mp4,11,,,,,,,,,,,,,0,11,11,11,,,,,,,,,,,,,,,,,,,693.2868794999999,695.3628667,,,710.128588,710.128588,710.128588,1,2.210078499999952,712.3703341,712.3703341,712.3703341,712.3703341,712.3703341,712.3703341,712.3703341,712.3703341,None,None,None,,,,,,,,,,693.2868794999999,693.2868794999999,None,,706.5159596000001,693.2868794999999,693.2868794999999,,,11,001,2024-07-30_10h10.48.733,robot_cogshifting_sign,2022.2.5,60.08911215331698,
"['L_Head_Z_For', 'R_Head_Z_Back', 'L_Head_X_For', 'L_Arm_Z_For']","{'laterality': 'R_Head_Z_Back', 'localisation': 'L_Arm_Z_For', 'movement': 'L_Head_X_For'}",movement,"['laterality', 'localisation', 'movement']",L_Head_X_For,2,3,robot,1,False,False,"['robot_stimuli\\L_Head_Z_For.mp4', 'robot_stimuli\\R_Head_Z_Back.mp4', 'robot_stimuli\\L_Head_X_For.mp4', 'robot_stimuli\\L_Arm_Z_For.mp4']",robot_stimuli\L_Head_X_For.mp4,11,,,,,,,,,,,,,0,12,12,12,,,,,,,,,,,,,,,,,,,712.3703341,714.4463207000001,,,729.1733563,729.1733563,729.1733563,3,37.669685100000095,766.8704892000001,766.8704892000001,766.8704892000001,766.8704892000001,766.8704892000001,766.8704892000001,766.8704892000001,766.8704892000001,None,None,None,,,,,,,,,,712.3703341,712.3703341,None,,725.5417219000001,712.3703341,712.3703341,,,11,001,2024-07-30_10h10.48.733,robot_cogshifting_sign,2022.2.5,60.08911215331698,
"['L_Base_X_Back', 'R_Head_X_Back', 'L_Head_X_For', 'L_Head_Z_Back']","{'laterality': 'R_Head_X_Back', 'localisation': 'L_Base_X_Back', 'movement': 'L_Head_Z_Back'}",laterality,"['laterality', 'localisation', 'movement']",R_Head_X_Back,1,3,robot,1,False,False,"['robot_stimuli\\L_Base_X_Back.mp4', 'robot_stimuli\\R_Head_X_Back.mp4', 'robot_stimuli\\L_Head_X_For.mp4', 'robot_stimuli\\L_Head_Z_Back.mp4']",robot_stimuli\R_Head_X_Back.mp4,11,,,,,,,,,,,,,0,13,13,13,,,,,,,,,,,,,,,,,,,766.8704892000001,768.9477615999999,,,783.6598382,783.6598382,783.6598382,2,28.43821609999992,812.1205109,812.1205109,812.1205109,812.1205109,812.1205109,812.1205109,812.1205109,812.1205109,None,None,None,,,,,,,,,,766.8704892000001,766.8704892000001,None,,780.0155075,766.8704892000001,766.8704892000001,,,11,001,2024-07-30_10h10.48.733,robot_cogshifting_sign,2022.2.5,60.08911215331698,
"['R_Head_Z_For', 'L_Head_Z_Back', 'R_Torso_Z_Back', 'R_Head_X_Back']","{'laterality': 'L_Head_Z_Back', 'localisation': 'R_Torso_Z_Back', 'movement': 'R_Head_X_Back'}",laterality,"['laterality', 'localisation', 'movement']",L_Head_Z_Back,1,3,robot,1,False,False,"['robot_stimuli\\R_Head_Z_For.mp4', 'robot_stimuli\\L_Head_Z_Back.mp4', 'robot_stimuli\\R_Torso_Z_Back.mp4', 'robot_stimuli\\R_Head_X_Back.mp4']",robot_stimuli\L_Head_Z_Back.mp4,11,,,,,,,,,,,,,0,14,14,14,,,,,,,,,,,,,,,,,,,812.1205109,814.1980770999999,,,829.0103924,829.0103924,829.0103924,2,2.6165751999999998,831.6538717999999,831.6538717999999,831.6538717999999,831.6538717999999,831.6538717999999,831.6538717999999,831.6538717999999,831.6538717999999,None,None,None,,,,,,,,,,812.1205109,812.1205109,None,,825.3666860999999,812.1205109,812.1205109,,,11,001,2024-07-30_10h10.48.733,robot_cogshifting_sign,2022.2.5,60.08911215331698,
"['R_Head_X_Back', 'R_Base_Z_For', 'L_Head_Z_Back', 'R_Head_Z_For']","{'laterality': 'L_Head_Z_Back', 'localisation': 'R_Base_Z_For', 'movement': 'R_Head_X_Back'}",movement,"['laterality', 'localisation', 'movement']",R_Head_X_Back,0,3,robot,1,False,False,"['robot_stimuli\\R_Head_X_Back.mp4', 'robot_stimuli\\R_Base_Z_For.mp4', 'robot_stimuli\\L_Head_Z_Back.mp4', 'robot_stimuli\\R_Head_Z_For.mp4']",robot_stimuli\R_Head_X_Back.mp4,11,,,,,,,,,,,,,0,15,15,15,,,,,,,,,,,,,,,,,,,831.6538717999999,833.7246491999999,,,848.5441284999999,848.5441284999999,848.5441284999999,1,4.434985700000027,853.0038405,853.0038405,853.0038405,853.0038405,853.0038405,853.0038405,853.0038405,853.0038405,None,None,None,,,,,,,,,,831.6538717999999,831.6538717999999,None,,844.8952575000001,831.6538717999999,831.6538717999999,,,11,001,2024-07-30_10h10.48.733,robot_cogshifting_sign,2022.2.5,60.08911215331698,
"['L_Head_Z_For', 'L_Head_X_Back', 'R_Head_Z_Back', 'L_Torso_Z_For']","{'laterality': 'R_Head_Z_Back', 'localisation': 'L_Torso_Z_For', 'movement': 'L_Head_X_Back'}",localisation,"['laterality', 'localisation', 'movement']",L_Torso_Z_For,3,3,robot,1,False,False,"['robot_stimuli\\L_Head_Z_For.mp4', 'robot_stimuli\\L_Head_X_Back.mp4', 'robot_stimuli\\R_Head_Z_Back.mp4', 'robot_stimuli\\L_Torso_Z_For.mp4']",robot_stimuli\L_Torso_Z_For.mp4,11,,,,,,,,,,,,,0,16,16,16,,,,,,,,,,,,,,,,,,,853.0038405,855.0784672,,,869.9101664,869.9101664,869.9101664,4,52.909302500000024,922.8371775,922.8371775,922.8371775,922.8371775,922.8371775,922.8371775,922.8371775,922.8371775,None,None,None,,,,,,,,,,853.0038405,853.0038405,None,,866.2796624999999,853.0038405,853.0038405,,,11,001,2024-07-30_10h10.48.733,robot_cogshifting_sign,2022.2.5,60.08911215331698,
"['L_Torso_Z_For', 'R_Torso_Y_Back', 'R_Torso_Z_Back', 'R_Arm_Z_For']","{'laterality': 'L_Torso_Z_For', 'localisation': 'R_Arm_Z_For', 'movement': 'R_Torso_Y_Back'}",laterality,"['laterality', 'localisation', 'movement']",L_Torso_Z_For,0,3,robot,1,False,True,"['robot_stimuli\\L_Torso_Z_For.mp4', 'robot_stimuli\\R_Torso_Y_Back.mp4', 'robot_stimuli\\R_Torso_Z_Back.mp4', 'robot_stimuli\\R_Arm_Z_For.mp4']",robot_stimuli\L_Torso_Z_For.mp4,11,,,,,,,,,,,,,0,17,17,17,,,,,,,,,,,,,,,,,,,922.8371775,924.9270343999999,,,939.7627239999999,939.7627239999999,939.7627239999999,1,48.93694050000005,988.7454929999999,992.4370583,988.7454929999999,992.4370583,988.7454929999999,992.4370583,988.7454929999999,992.4370583,25.370370370370367,2.6975655999999617,space,,,3.640660000000082,,,,,,,922.8371775,922.8371775,None,,936.1174059,922.8371775,922.8371775,,,11,001,2024-07-30_10h10.48.733,robot_cogshifting_sign,2022.2.5,60.08911215331698,
"['R_Head_Z_For', 'R_Arm_X_Back', 'L_Head_X_Back', 'R_Head_X_Back']","{'laterality': 'L_Head_X_Back', 'localisation': 'R_Arm_X_Back', 'movement': 'R_Head_Z_For'}",laterality,"['laterality', 'localisation']",L_Head_X_Back,2,2,robot,1,True,False,"['robot_stimuli\\R_Head_Z_For.mp4', 'robot_stimuli\\R_Arm_X_Back.mp4', 'robot_stimuli\\L_Head_X_Back.mp4', 'robot_stimuli\\R_Head_X_Back.mp4']",robot_stimuli\L_Head_X_Back.mp4,11,,,,,,,,,,,,,0,18,18,18,,,,,,,,,,,,,,,,,,,993.5871364,995.6634262,,,1010.4595119999999,1010.4595119999999,1010.4595119999999,3,2.3921989000000963,1012.8705416,1012.8705416,1012.8705416,1012.8705416,1012.8705416,1012.8705416,1012.8705416,1012.8705416,None,None,None,,,,,,,,,,992.4370583,992.4370583,space,1.117940099999771,1006.8243852,,,,,11,001,2024-07-30_10h10.48.733,robot_cogshifting_sign,2022.2.5,60.08911215331698,
"['R_Base_X_Back', 'L_Head_X_Back', 'L_Base_X_For', 'L_Base_Y_For']","{'laterality': 'R_Base_X_Back', 'localisation': 'L_Head_X_Back', 'movement': 'L_Base_Y_For'}",localisation,"['localisation', 'movement']",L_Head_X_Back,1,2,robot,1,False,False,"['robot_stimuli\\R_Base_X_Back.mp4', 'robot_stimuli\\L_Head_X_Back.mp4', 'robot_stimuli\\L_Base_X_For.mp4', 'robot_stimuli\\L_Base_Y_For.mp4']",robot_stimuli\L_Head_X_Back.mp4,11,,,,,,,,,,,,,0,19,19,19,,,,,,,,,,,,,,,,,,,1012.8705416,1014.9463060999999,,,1029.5814450999999,1029.5814450999999,1029.5814450999999,1,0.724809300000004,1030.3372196,1030.3372196,1030.3372196,1030.3372196,1030.3372196,1030.3372196,1030.3372196,1030.3372196,None,None,None,,,,,,,,,,1012.8705416,1012.8705416,None,,1026.0359783,1012.8705416,1012.8705416,,,11,001,2024-07-30_10h10.48.733,robot_cogshifting_sign,2022.2.5,60.08911215331698,
"['L_Head_X_For', 'L_Head_Y_Back', 'R_Head_Y_Back', 'L_Base_Y_For']","{'laterality': 'R_Head_Y_Back', 'localisation': 'L_Base_Y_For', 'movement': 'L_Head_X_For'}",localisation,"['localisation', 'movement']",L_Base_Y_For,3,2,robot,1,False,False,"['robot_stimuli\\L_Head_X_For.mp4', 'robot_stimuli\\L_Head_Y_Back.mp4', 'robot_stimuli\\R_Head_Y_Back.mp4', 'robot_stimuli\\L_Base_Y_For.mp4']",robot_stimuli\L_Base_Y_For.mp4,11,,,,,,,,,,,,,0,20,20,20,,,,,,,,,,,,,,,,,,,1030.3372196,1032.4132736,,,1047.0433966,1047.0433966,1047.0433966,4,50.96828099999988,1098.0373055,1098.0373055,1098.0373055,1098.0373055,1098.0373055,1098.0373055,1098.0373055,1098.0373055,None,None,None,,,,,,,,,,1030.3372196,1030.3372196,None,,1043.5124556,1030.3372196,1030.3372196,,,11,001,2024-07-30_10h10.48.733,robot_cogshifting_sign,2022.2.5,60.08911215331698,
"['R_Head_Y_Back', 'R_Head_Z_For', 'L_Head_Y_Back', 'R_Arm_Y_Back']","{'laterality': 'L_Head_Y_Back', 'localisation': 'R_Arm_Y_Back', 'movement': 'R_Head_Z_For'}",movement,"['laterality', 'movement']",R_Head_Z_For,1,2,robot,1,False,False,"['robot_stimuli\\R_Head_Y_Back.mp4', 'robot_stimuli\\R_Head_Z_For.mp4', 'robot_stimuli\\L_Head_Y_Back.mp4', 'robot_stimuli\\R_Arm_Y_Back.mp4']",robot_stimuli\R_Head_Z_For.mp4,11,,,,,,,,,,,,,0,21,21,21,,,,,,,,,,,,,,,,,,,1098.0373055,1100.1158417,,,1114.8976354,1114.8976354,1114.8976354,2,44.145596799999964,1159.0734192,1159.0734192,1159.0734192,1159.0734192,1159.0734192,1159.0734192,1159.0734192,1159.0734192,None,None,None,,,,,,,,,,1098.0373055,1098.0373055,None,,1111.262102,1098.0373055,1098.0373055,,,11,001,2024-07-30_10h10.48.733,robot_cogshifting_sign,2022.2.5,60.08911215331698,
"['R_Head_X_For', 'R_Torso_Z_Back', 'R_Torso_X_For', 'L_Torso_X_For']","{'laterality': 'L_Torso_X_For', 'localisation': 'R_Head_X_For', 'movement': 'R_Torso_Z_Back'}",localisation,"['laterality', 'localisation']",R_Head_X_For,0,2,robot,1,False,False,"['robot_stimuli\\R_Head_X_For.mp4', 'robot_stimuli\\R_Torso_Z_Back.mp4', 'robot_stimuli\\R_Torso_X_For.mp4', 'robot_stimuli\\L_Torso_X_For.mp4']",robot_stimuli\R_Head_X_For.mp4,11,,,,,,,,,,,,,0,22,22,22,,,,,,,,,,,,,,,,,,,1159.0734192,,,,1175.9807501999999,1175.9807501999999,1175.9807501999999,1,1.6706324000001018,1177.6708242,1177.6708242,1177.6708242,1177.6708242,1177.6708242,1177.6708242,1177.6708242,1177.6708242,None,None,None,,,,,,,,,,1159.0734192,1159.0734192,None,,1172.3333553,1159.0734192,1159.0734192,,,11,001,2024-07-30_10h10.48.733,robot_cogshifting_sign,2022.2.5,60.08911215331698,
"['L_Torso_Z_For', 'R_Torso_Z_Back', 'L_Base_Z_Back', 'L_Torso_X_Back']","{'laterality': 'R_Torso_Z_Back', 'localisation': 'L_Base_Z_Back', 'movement': 'L_Torso_X_Back'}",movement,"['laterality', 'movement']",L_Torso_X_Back,3,2,robot,1,False,False,"['robot_stimuli\\L_Torso_Z_For.mp4', 'robot_stimuli\\R_Torso_Z_Back.mp4', 'robot_stimuli\\L_Base_Z_Back.mp4', 'robot_stimuli\\L_Torso_X_Back.mp4']",robot_stimuli\L_Torso_X_Back.mp4,11,,,,,,,,,,,,,0,23,23,23,,,,,,,,,,,,,,,,,,,1177.6708242,1179.7450391,,,1194.5625742,1194.5625742,1194.5625742,4,0.6403672000000711,1195.2207554,1195.2207554,1195.2207554,1195.2207554,1195.2207554,1195.2207554,1195.2207554,1195.2207554,None,None,None,,,,,,,,,,1177.6708242,1177.6708242,None,,1190.9160642,1177.6708242,1177.6708242,,,11,001,2024-07-30_10h10.48.733,robot_cogshifting_sign,2022.2.5,60.08911215331698,
"['R_Base_X_Back', 'L_Head_X_For', 'L_Base_Y_For', 'L_Base_X_Back']","{'laterality': 'R_Base_X_Back', 'localisation': 'L_Head_X_For', 'movement': 'L_Base_Y_For'}",laterality,"['laterality', 'localisation']",R_Base_X_Back,0,2,robot,1,False,False,"['robot_stimuli\\R_Base_X_Back.mp4', 'robot_stimuli\\L_Head_X_For.mp4', 'robot_stimuli\\L_Base_Y_For.mp4', 'robot_stimuli\\L_Base_X_Back.mp4']",robot_stimuli\R_Base_X_Back.mp4,11,,,,,,,,,,,,,0,24,24,24,,,,,,,,,,,,,,,,,,,1195.2207554,1197.2945743,,,1211.8767589,1211.8767589,1211.8767589,1,0.8786951000001295,1212.7875169,1212.7875169,1212.7875169,1212.7875169,1212.7875169,1212.7875169,1212.7875169,1212.7875169,None,None,None,,,,,,,,,,1195.2207554,1195.2207554,None,,1208.276326,1195.2207554,1195.2207554,,,11,001,2024-07-30_10h10.48.733,robot_cogshifting_sign,2022.2.5,60.08911215331698,
"['R_Arm_X_Back', 'R_Head_Z_For', 'L_Head_X_For', 'R_Head_X_For']","{'laterality': 'L_Head_X_For', 'localisation': 'R_Arm_X_Back', 'movement': 'R_Head_Z_For'}",movement,"['localisation', 'movement']",R_Head_Z_For,1,2,robot,1,False,False,"['robot_stimuli\\R_Arm_X_Back.mp4', 'robot_stimuli\\R_Head_Z_For.mp4', 'robot_stimuli\\L_Head_X_For.mp4', 'robot_stimuli\\R_Head_X_For.mp4']",robot_stimuli\R_Head_Z_For.mp4,11,,,,,,,,,,,,,0,25,25,25,,,,,,,,,,,,,,,,,,,1212.7875169,1214.8615283,,,1229.6107437,1229.6107437,1229.6107437,2,3.224478099999885,1232.8541567,1232.8541567,1232.8541567,1232.8541567,1232.8541567,1232.8541567,1232.8541567,1232.8541567,None,None,None,,,,,,,,,,1212.7875169,1212.7875169,None,,1225.9626469,1212.7875169,1212.7875169,,,11,001,2024-07-30_10h10.48.733,robot_cogshifting_sign,2022.2.5,60.08911215331698,
"['R_Head_Y_Back', 'R_Head_X_For', 'L_Head_Y_For', 'R_Base_Y_For']","{'laterality': 'L_Head_Y_For', 'localisation': 'R_Base_Y_For', 'movement': 'R_Head_X_For'}",laterality,"['laterality', 'localisation']",L_Head_Y_For,2,2,robot,1,False,True,"['robot_stimuli\\R_Head_Y_Back.mp4', 'robot_stimuli\\R_Head_X_For.mp4', 'robot_stimuli\\L_Head_Y_For.mp4', 'robot_stimuli\\R_Base_Y_For.mp4']",robot_stimuli\L_Head_Y_For.mp4,11,,,,,,,,,,,,,0,26,26,26,,,,,,,,,,,,,,,,,,,1232.8541567,1234.9304662,,,1249.7442607,1249.7442607,1249.7442607,3,0.8502045999998131,1250.645053,1252.9597354999999,1250.645053,1252.9597354999999,1250.645053,1252.9597354999999,1250.645053,1252.9597354999999,19.814814814814813,1.9590383999998267,space,,,2.2530043000001,,,,,,,1232.8541567,1232.8541567,None,,1246.0985263,1232.8541567,1232.8541567,,,11,001,2024-07-30_10h10.48.733,robot_cogshifting_sign,2022.2.5,60.08911215331698,
"['blue_top_P_0', 'blue_bottom_Q_0', 'blue_top_Z_45', 'red_top_G_0']","{'color': 'red_top_G_0', 'position': 'blue_bottom_Q_0', 'orientation': 'blue_top_Z_45'}",color,['color'],red_top_G_0,3,1,letter,2,True,False,"['robot_stimuli\\\\filler.mp4', 'robot_stimuli\\\\filler.mp4', 'robot_stimuli\\\\filler.mp4', 'robot_stimuli\\\\filler.mp4']",robot_stimuli\\filler.mp4,11,,,,,,,,,,,,,0,27,27,27,,,,,,,,,,,,,,,,,,,1257.9542495,1260.010756,,,1268.7104606,1268.7104606,1268.7104606,4,0.8688108999999145,1269.6041604,1269.6041604,1269.6041604,1269.6041604,1269.6041604,1269.6041604,1269.6041604,1269.6041604,None,None,None,,,,,,,,,,1252.9597354999999,1252.9597354999999,space,4.971180299999958,,,,1266.6866771999998,1268.7104606,11,001,2024-07-30_10h10.48.733,robot_cogshifting_sign,2022.2.5,60.08911215331698,
"['red_bottom_W_0', 'blue_top_B_0', 'red_top_Q_45', 'red_top_W_0']","{'color': 'blue_top_B_0', 'position': 'red_bottom_W_0', 'orientation': 'red_top_Q_45'}",orientation,['orientation'],red_top_Q_45,2,1,letter,2,False,False,"['robot_stimuli\\\\filler.mp4', 'robot_stimuli\\\\filler.mp4', 'robot_stimuli\\\\filler.mp4', 'robot_stimuli\\\\filler.mp4']",robot_stimuli\\filler.mp4,11,,,,,,,,,,,,,0,28,28,28,,,,,,,,,,,,,,,,,,,1269.6041604,1271.6586817,,,1280.5527359999999,1280.5527359999999,1280.5527359999999,3,22.842528299999856,1303.420786,1303.420786,1303.420786,1303.420786,1303.420786,1303.420786,1303.420786,1303.420786,None,None,None,,,,,,,,,,1269.6041604,1269.6041604,None,,,1269.6041604,1269.6041604,1278.5294339,1280.5527359999999,11,001,2024-07-30_10h10.48.733,robot_cogshifting_sign,2022.2.5,60.08911215331698,
"['red_left_T_45', 'blue_left_F_45', 'red_left_Z_0', 'red_right_R_45']","{'color': 'blue_left_F_45', 'position': 'red_right_R_45', 'orientation': 'red_left_Z_0'}",color,['color'],blue_left_F_45,1,1,letter,2,False,False,"['robot_stimuli\\\\filler.mp4', 'robot_stimuli\\\\filler.mp4', 'robot_stimuli\\\\filler.mp4', 'robot_stimuli\\\\filler.mp4']",robot_stimuli\\filler.mp4,11,,,,,,,,,,,,,0,29,29,29,,,,,,,,,,,,,,,,,,,1303.420786,1305.4810645999999,,,1314.1858161999999,1314.1858161999999,1314.1858161999999,2,33.512461900000005,1347.7207895,1347.7207895,1347.7207895,1347.7207895,1347.7207895,1347.7207895,1347.7207895,1347.7207895,None,None,None,,,,,,,,,,1303.420786,1303.420786,None,,,1303.420786,1303.420786,1311.9795583999999,1314.1858161999999,11,001,2024-07-30_10h10.48.733,robot_cogshifting_sign,2022.2.5,60.08911215331698,
"['blue_bottom_R_45', 'blue_top_Q_0', 'red_top_C_45', 'blue_top_V_45']","{'color': 'red_top_C_45', 'position': 'blue_bottom_R_45', 'orientation': 'blue_top_Q_0'}",orientation,['orientation'],blue_top_Q_0,1,1,letter,2,False,False,"['robot_stimuli\\\\filler.mp4', 'robot_stimuli\\\\filler.mp4', 'robot_stimuli\\\\filler.mp4', 'robot_stimuli\\\\filler.mp4']",robot_stimuli\\filler.mp4,11,,,,,,,,,,,,,0,30,30,30,,,,,,,,,,,,,,,,,,,1347.7207895,1349.7799295,,,1358.8635322,1358.8635322,1358.8635322,2,0.21960179999990714,1359.1041516999999,1359.1041516999999,1359.1041516999999,1359.1041516999999,1359.1041516999999,1359.1041516999999,1359.1041516999999,1359.1041516999999,None,None,None,,,,,,,,,,1347.7207895,1347.7207895,None,,,1347.7207895,1347.7207895,1356.6565646,1358.8635322,11,001,2024-07-30_10h10.48.733,robot_cogshifting_sign,2022.2.5,60.08911215331698,
"['blue_right_W_45', 'blue_top_F_0', 'blue_top_B_45', 'red_top_D_45']","{'color': 'red_top_D_45', 'position': 'blue_right_W_45', 'orientation': 'blue_top_F_0'}",position,['position'],blue_right_W_45,0,1,letter,2,False,False,"['robot_stimuli\\\\filler.mp4', 'robot_stimuli\\\\filler.mp4', 'robot_stimuli\\\\filler.mp4', 'robot_stimuli\\\\filler.mp4']",robot_stimuli\\filler.mp4,11,,,,,,,,,,,,,0,31,31,31,,,,,,,,,,,,,,,,,,,1359.1041516999999,1361.1593523,,,1369.8403033,1369.8403033,1369.8403033,1,0.2501191000000631,1370.1208282999999,1370.1208282999999,1370.1208282999999,1370.1208282999999,1370.1208282999999,1370.1208282999999,1370.1208282999999,1370.1208282999999,None,None,None,,,,,,,,,,1359.1041516999999,1359.1041516999999,None,,,1359.1041516999999,1359.1041516999999,1367.6288762,1369.8403033,11,001,2024-07-30_10h10.48.733,robot_cogshifting_sign,2022.2.5,60.08911215331698,
"['blue_bottom_G_45', 'blue_top_M_0', 'blue_top_V_45', 'red_top_J_45']","{'color': 'red_top_J_45', 'position': 'blue_bottom_G_45', 'orientation': 'blue_top_M_0'}",position,['position'],blue_bottom_G_45,0,1,letter,2,False,False,"['robot_stimuli\\\\filler.mp4', 'robot_stimuli\\\\filler.mp4', 'robot_stimuli\\\\filler.mp4', 'robot_stimuli\\\\filler.mp4']",robot_stimuli\\filler.mp4,11,,,,,,,,,,,,,0,32,32,32,,,,,,,,,,,,,,,,,,,1370.1208282999999,1372.1760742,,,1380.6629483,1380.6629483,1380.6629483,1,0.2599519999998279,1380.9541932,1380.9541932,1380.9541932,1380.9541932,1380.9541932,1380.9541932,1380.9541932,1380.9541932,None,None,None,,,,,,,,,,1370.1208282999999,1370.1208282999999,None,,,1370.1208282999999,1370.1208282999999,1378.6489119,1380.6629483,11,001,2024-07-30_10h10.48.733,robot_cogshifting_sign,2022.2.5,60.08911215331698,
"['blue_top_F_45', 'red_top_S_45', 'blue_top_V_0', 'blue_right_F_45']","{'color': 'red_top_S_45', 'position': 'blue_right_F_45', 'orientation': 'blue_top_V_0'}",color,['color'],red_top_S_45,1,1,letter,2,False,False,"['robot_stimuli\\\\filler.mp4', 'robot_stimuli\\\\filler.mp4', 'robot_stimuli\\\\filler.mp4', 'robot_stimuli\\\\filler.mp4']",robot_stimuli\\filler.mp4,11,,,,,,,,,,,,,0,33,33,33,,,,,,,,,,,,,,,,,,,1380.9541932,1383.007584,,,1392.0924129999999,1392.0924129999999,1392.0924129999999,2,0.38288679999976694,1392.5041838,1392.5041838,1392.5041838,1392.5041838,1392.5041838,1392.5041838,1392.5041838,1392.5041838,None,None,None,,,,,,,,,,1380.9541932,1380.9541932,None,,,1380.9541932,1380.9541932,1389.8735970999999,1392.0924129999999,11,001,2024-07-30_10h10.48.733,robot_cogshifting_sign,2022.2.5,60.08911215331698,
"['blue_right_H_0', 'red_right_T_0', 'red_right_B_45', 'red_left_K_0']","{'color': 'blue_right_H_0', 'position': 'red_left_K_0', 'orientation': 'red_right_B_45'}",orientation,['orientation'],red_right_B_45,2,1,letter,2,False,False,"['robot_stimuli\\\\filler.mp4', 'robot_stimuli\\\\filler.mp4', 'robot_stimuli\\\\filler.mp4', 'robot_stimuli\\\\filler.mp4']",robot_stimuli\\filler.mp4,11,,,,,,,,,,,,,0,34,34,34,,,,,,,,,,,,,,,,,,,1392.5041838,1394.5581582,,,1403.6445213,1403.6445213,1403.6445213,3,0.27731000000011363,1403.9543182,1403.9543182,1403.9543182,1403.9543182,1403.9543182,1403.9543182,1403.9543182,1403.9543182,None,None,None,,,,,,,,,,1392.5041838,1392.5041838,None,,,1392.5041838,1392.5041838,1401.4260375,1403.6445213,11,001,2024-07-30_10h10.48.733,robot_cogshifting_sign,2022.2.5,60.08911215331698,
"['red_right_Z_45', 'blue_right_N_45', 'red_top_T_45', 'red_right_C_0']","{'color': 'blue_right_N_45', 'position': 'red_top_T_45', 'orientation': 'red_right_C_0'}",position,['position'],red_top_T_45,2,1,letter,2,False,True,"['robot_stimuli\\\\filler.mp4', 'robot_stimuli\\\\filler.mp4', 'robot_stimuli\\\\filler.mp4', 'robot_stimuli\\\\filler.mp4']",robot_stimuli\\filler.mp4,11,,,,,,,,,,,,,0,35,35,35,,,,,,,,,,,,,,,,,,,1403.9543182,1406.0139287,,,1414.6888366,1414.6888366,1414.6888366,3,19.0737567999999,1433.8118795999999,1512.0530654,1433.8118795999999,1512.0530654,1433.8118795999999,1512.0530654,1433.8118795999999,1512.0530654,9.320987654320984,2.946282199999814,space,,,78.18313709999978,,,,,,,1403.9543182,1403.9543182,None,,,1403.9543182,1403.9543182,1412.6655369,1414.6888366,11,001,2024-07-30_10h10.48.733,robot_cogshifting_sign,2022.2.5,60.08911215331698,
"['blue_left_W_45', 'blue_bottom_V_0', 'red_left_V_0', 'blue_left_G_0']","{'color': 'red_left_V_0', 'position': 'blue_bottom_V_0', 'orientation': 'blue_left_W_45'}",color,"['color', 'orientation']",red_left_V_0,2,2,letter,2,True,False,"['robot_stimuli\\\\filler.mp4', 'robot_stimuli\\\\filler.mp4', 'robot_stimuli\\\\filler.mp4', 'robot_stimuli\\\\filler.mp4']",robot_stimuli\\filler.mp4,11,,,,,,,,,,,,,0,36,36,36,,,,,,,,,,,,,,,,,,,1513.2376875,1515.2930489999999,,,1523.7759216,1523.7759216,1523.7759216,3,1.5775381000000266,1525.3711071999999,1525.3711071999999,1525.3711071999999,1525.3711071999999,1525.3711071999999,1525.3711071999999,1525.3711071999999,1525.3711071999999,None,None,None,,,,,,,,,,1512.0530654,1512.0530654,space,1.165153000000089,,,,1521.7499343,1523.7759216,11,001,2024-07-30_10h10.48.733,robot_cogshifting_sign,2022.2.5,60.08911215331698,
"['blue_left_J_0', 'blue_right_B_45', 'blue_right_Z_0', 'red_right_G_0']","{'color': 'red_right_G_0', 'position': 'blue_left_J_0', 'orientation': 'blue_right_B_45'}",orientation,"['color', 'orientation']",blue_right_B_45,1,2,letter,2,False,False,"['robot_stimuli\\\\filler.mp4', 'robot_stimuli\\\\filler.mp4', 'robot_stimuli\\\\filler.mp4', 'robot_stimuli\\\\filler.mp4']",robot_stimuli\\filler.mp4,11,,,,,,,,,,,,,0,37,37,37,,,,,,,,,,,,,,,,,,,1525.3711071999999,1527.4323539,,,1535.8985337,1535.8985337,1535.8985337,2,0.6801630999997883,1536.6044739,1536.6044739,1536.6044739,1536.6044739,1536.6044739,1536.6044739,1536.6044739,1536.6044739,None,None,None,,,,,,,,,,1525.3711071999999,1525.3711071999999,None,,,1525.3711071999999,1525.3711071999999,1533.8827045,1535.8985337,11,001,2024-07-30_10h10.48.733,robot_cogshifting_sign,2022.2.5,60.08911215331698,
"['red_left_K_0', 'red_left_M_45', 'blue_left_M_0', 'red_bottom_N_0']","{'color': 'blue_left_M_0', 'position': 'red_bottom_N_0', 'orientation': 'red_left_M_45'}",position,"['color', 'position']",red_bottom_N_0,3,2,letter,2,False,False,"['robot_stimuli\\\\filler.mp4', 'robot_stimuli\\\\filler.mp4', 'robot_stimuli\\\\filler.mp4', 'robot_stimuli\\\\filler.mp4']",robot_stimuli\\filler.mp4,11,,,,,,,,,,,,,0,38,38,38,,,,,,,,,,,,,,,,,,,1536.6044739,1538.6602825999998,,,1547.3317471999999,1547.3317471999999,1547.3317471999999,4,0.8059737999998902,1548.1544824,1548.1544824,1548.1544824,1548.1544824,1548.1544824,1548.1544824,1548.1544824,1548.1544824,None,None,None,,,,,,,,,,1536.6044739,1536.6044739,None,,,1536.6044739,1536.6044739,1545.3192648,1547.3317471999999,11,001,2024-07-30_10h10.48.733,robot_cogshifting_sign,2022.2.5,60.08911215331698,
"['red_top_M_0', 'blue_top_F_0', 'blue_top_P_45', 'blue_right_F_0']","{'color': 'red_top_M_0', 'position': 'blue_right_F_0', 'orientation': 'blue_top_P_45'}",color,"['color', 'orientation']",red_top_M_0,0,2,letter,2,False,False,"['robot_stimuli\\\\filler.mp4', 'robot_stimuli\\\\filler.mp4', 'robot_stimuli\\\\filler.mp4', 'robot_stimuli\\\\filler.mp4']",robot_stimuli\\filler.mp4,11,,,,,,,,,,,,,0,39,39,39,,,,,,,,,,,,,,,,,,,1548.1544824,1550.2082971,,,1559.2755366,1559.2755366,1559.2755366,1,0.9661296000001016,1560.2713091,1560.2713091,1560.2713091,1560.2713091,1560.2713091,1560.2713091,1560.2713091,1560.2713091,None,None,None,,,,,,,,,,1548.1544824,1548.1544824,None,,,1548.1544824,1548.1544824,1557.0662952,1559.2755366,11,001,2024-07-30_10h10.48.733,robot_cogshifting_sign,2022.2.5,60.08911215331698,
"['blue_right_M_0', 'blue_right_L_45', 'blue_top_B_0', 'red_right_L_0']","{'color': 'red_right_L_0', 'position': 'blue_top_B_0', 'orientation': 'blue_right_L_45'}",color,"['color', 'orientation']",red_right_L_0,3,2,letter,2,False,False,"['robot_stimuli\\\\filler.mp4', 'robot_stimuli\\\\filler.mp4', 'robot_stimuli\\\\filler.mp4', 'robot_stimuli\\\\filler.mp4']",robot_stimuli\\filler.mp4,11,,,,,,,,,,,,,0,40,40,40,,,,,,,,,,,,,,,,,,,1560.2713091,1562.3250100999999,,,1571.2036019,1571.2036019,1571.2036019,4,1.2701487999999586,1572.5044311,1572.5044311,1572.5044311,1572.5044311,1572.5044311,1572.5044311,1572.5044311,1572.5044311,None,None,None,,,,,,,,,,1560.2713091,1560.2713091,None,,,1560.2713091,1560.2713091,1568.9916816,1571.2036019,11,001,2024-07-30_10h10.48.733,robot_cogshifting_sign,2022.2.5,60.08911215331698,
"['blue_right_D_0', 'red_right_H_45', 'red_right_C_0', 'red_top_X_0']","{'color': 'blue_right_D_0', 'position': 'red_top_X_0', 'orientation': 'red_right_H_45'}",orientation,"['orientation', 'position']",red_right_H_45,1,2,letter,2,False,False,"['robot_stimuli\\\\filler.mp4', 'robot_stimuli\\\\filler.mp4', 'robot_stimuli\\\\filler.mp4', 'robot_stimuli\\\\filler.mp4']",robot_stimuli\\filler.mp4,11,,,,,,,,,,,,,0,41,41,41,,,,,,,,,,,,,,,,,,,1572.5044311,1574.5590204999999,,,1583.2601408,1583.2601408,1583.2601408,2,0.9900705000001722,1584.2710682,1584.2710682,1584.2710682,1584.2710682,1584.2710682,1584.2710682,1584.2710682,1584.2710682,None,None,None,,,,,,,,,,1572.5044311,1572.5044311,None,,,1572.5044311,1572.5044311,1581.0525513999999,1583.2601408,11,001,2024-07-30_10h10.48.733,robot_cogshifting_sign,2022.2.5,60.08911215331698,
"['blue_right_J_0', 'blue_right_C_45', 'red_right_D_45', 'blue_left_T_45']","{'color': 'red_right_D_45', 'position': 'blue_left_T_45', 'orientation': 'blue_right_J_0'}",orientation,"['color', 'orientation']",blue_right_J_0,0,2,letter,2,False,False,"['robot_stimuli\\\\filler.mp4', 'robot_stimuli\\\\filler.mp4', 'robot_stimuli\\\\filler.mp4', 'robot_stimuli\\\\filler.mp4']",robot_stimuli\\filler.mp4,11,,,,,,,,,,,,,0,42,42,42,,,,,,,,,,,,,,,,,,,1584.2710682,1586.3275697,,,1594.8266348,1594.8266348,1594.8266348,1,0.8475218999998901,1595.7046682999999,1595.7046682999999,1595.7046682999999,1595.7046682999999,1595.7046682999999,1595.7046682999999,1595.7046682999999,1595.7046682999999,None,None,None,,,,,,,,,,1584.2710682,1584.2710682,None,,,1584.2710682,1584.2710682,1592.6107649,1594.8266348,11,001,2024-07-30_10h10.48.733,robot_cogshifting_sign,2022.2.5,60.08911215331698,
"['red_right_P_45', 'red_top_X_0', 'red_right_B_0', 'blue_right_C_0']","{'color': 'blue_right_C_0', 'position': 'red_top_X_0', 'orientation': 'red_right_P_45'}",position,"['orientation', 'position']",red_top_X_0,1,2,letter,2,False,False,"['robot_stimuli\\\\filler.mp4', 'robot_stimuli\\\\filler.mp4', 'robot_stimuli\\\\filler.mp4', 'robot_stimuli\\\\filler.mp4']",robot_stimuli\\filler.mp4,11,,,,,,,,,,,,,0,43,43,43,,,,,,,,,,,,,,,,,,,1595.7046682999999,1597.7572863999999,,,1606.446403,1606.446403,1606.446403,2,1.2687221999998997,1607.7377066,1607.7377066,1607.7377066,1607.7377066,1607.7377066,1607.7377066,1607.7377066,1607.7377066,None,None,None,,,,,,,,,,1595.7046682999999,1595.7046682999999,None,,,1595.7046682999999,1595.7046682999999,1604.4283675,1606.446403,11,001,2024-07-30_10h10.48.733,robot_cogshifting_sign,2022.2.5,60.08911215331698,
"['red_bottom_R_0', 'red_top_L_0', 'red_top_R_45', 'blue_top_N_0']","{'color': 'blue_top_N_0', 'position': 'red_bottom_R_0', 'orientation': 'red_top_R_45'}",position,"['color', 'position']",red_bottom_R_0,0,2,letter,2,False,True,"['robot_stimuli\\\\filler.mp4', 'robot_stimuli\\\\filler.mp4', 'robot_stimuli\\\\filler.mp4', 'robot_stimuli\\\\filler.mp4']",robot_stimuli\\filler.mp4,11,,,,,,,,,,,,,0,44,44,44,,,,,,,,,,,,,,,,,,,1607.7377066,1609.79281,,,1618.4702287,1618.4702287,1618.4702287,1,1.044763399999681,1619.5629591,1622.0576400999998,1619.5629591,1622.0576400999998,1619.5629591,1622.0576400999998,1619.5629591,1622.0576400999998,13.179012345679011,1.9545574000001125,space,,,2.4389280999998277,,,,,,,1607.7377066,1607.7377066,None,,,1607.7377066,1607.7377066,1616.2598905,1618.4702287,11,001,2024-07-30_10h10.48.733,robot_cogshifting_sign,2022.2.5,60.08911215331698,
"['red_bottom_T_0', 'red_bottom_T_45', 'red_left_Q_45', 'blue_bottom_B_45']","{'color': 'blue_bottom_B_45', 'position': 'red_left_Q_45', 'orientation': 'red_bottom_T_0'}",orientation,"['color', 'orientation', 'position']",red_bottom_T_0,0,3,letter,2,True,False,"['robot_stimuli\\\\filler.mp4', 'robot_stimuli\\\\filler.mp4', 'robot_stimuli\\\\filler.mp4', 'robot_stimuli\\\\filler.mp4']",robot_stimuli\\filler.mp4,11,,,,,,,,,,,,,0,45,45,45,,,,,,,,,,,,,,,,,,,1725.1882917,1727.2438543,,,1735.9325671,1735.9325671,1735.9325671,1,4.726618900000119,1740.6880635,1740.6880635,1740.6880635,1740.6880635,1740.6880635,1740.6880635,1740.6880635,1740.6880635,None,None,None,,,,,,,,,,1622.0576400999998,1622.0576400999998,space,103.10515800000024,,,,1733.7135996,1735.9325671,11,001,2024-07-30_10h10.48.733,robot_cogshifting_sign,2022.2.5,60.08911215331698,
"['red_right_S_45', 'red_right_X_0', 'red_top_W_45', 'blue_right_V_45']","{'color': 'blue_right_V_45', 'position': 'red_top_W_45', 'orientation': 'red_right_X_0'}",position,"['color', 'orientation', 'position']",red_top_W_45,2,3,letter,2,False,False,"['robot_stimuli\\\\filler.mp4', 'robot_stimuli\\\\filler.mp4', 'robot_stimuli\\\\filler.mp4', 'robot_stimuli\\\\filler.mp4']",robot_stimuli\\filler.mp4,11,,,,,,,,,,,,,0,46,46,46,,,,,,,,,,,,,,,,,,,1740.6880635,1742.7509800999999,,,1751.6104793,1751.6104793,1751.6104793,3,2.520580099999904,1754.1546455999999,1754.1546455999999,1754.1546455999999,1754.1546455999999,1754.1546455999999,1754.1546455999999,1754.1546455999999,1754.1546455999999,None,None,None,,,,,,,,,,1740.6880635,1740.6880635,None,,,1740.6880635,1740.6880635,1749.3985665999999,1751.6104793,11,001,2024-07-30_10h10.48.733,robot_cogshifting_sign,2022.2.5,60.08911215331698,
"['blue_bottom_W_0', 'blue_bottom_W_45', 'blue_left_V_45', 'red_bottom_B_45']","{'color': 'red_bottom_B_45', 'position': 'blue_left_V_45', 'orientation': 'blue_bottom_W_0'}",orientation,"['color', 'orientation', 'position']",blue_bottom_W_0,0,3,letter,2,False,False,"['robot_stimuli\\\\filler.mp4', 'robot_stimuli\\\\filler.mp4', 'robot_stimuli\\\\filler.mp4', 'robot_stimuli\\\\filler.mp4']",robot_stimuli\\filler.mp4,11,,,,,,,,,,,,,0,47,47,47,,,,,,,,,,,,,,,,,,,1754.1546455999999,1756.211824,,,1765.2833556,1765.2833556,1765.2833556,1,3.7039037999999778,1769.0046108,1769.0046108,1769.0046108,1769.0046108,1769.0046108,1769.0046108,1769.0046108,1769.0046108,None,None,None,,,,,,,,,,1754.1546455999999,1754.1546455999999,None,,,1754.1546455999999,1754.1546455999999,1763.0703994,1765.2833556,11,001,2024-07-30_10h10.48.733,robot_cogshifting_sign,2022.2.5,60.08911215331698,
"['blue_bottom_T_0', 'blue_left_X_0', 'blue_left_N_45', 'red_left_S_0']","{'color': 'red_left_S_0', 'position': 'blue_bottom_T_0', 'orientation': 'blue_left_N_45'}",position,"['color', 'orientation', 'position']",blue_bottom_T_0,0,3,letter,2,False,False,"['robot_stimuli\\\\filler.mp4', 'robot_stimuli\\\\filler.mp4', 'robot_stimuli\\\\filler.mp4', 'robot_stimuli\\\\filler.mp4']",robot_stimuli\\filler.mp4,11,,,,,,,,,,,,,0,48,48,48,,,,,,,,,,,,,,,,,,,1769.0046108,1771.0635169,,,1779.5321695999999,1779.5321695999999,1779.5321695999999,1,1.5654215000001273,1781.1212761999998,1781.1212761999998,1781.1212761999998,1781.1212761999998,1781.1212761999998,1781.1212761999998,1781.1212761999998,1781.1212761999998,None,None,None,,,,,,,,,,1769.0046108,1769.0046108,None,,,1769.0046108,1769.0046108,1777.5177225,1779.5321695999999,11,001,2024-07-30_10h10.48.733,robot_cogshifting_sign,2022.2.5,60.08911215331698,
"['red_left_X_45', 'red_bottom_W_45', 'blue_bottom_C_45', 'red_bottom_L_0']","{'color': 'blue_bottom_C_45', 'position': 'red_left_X_45', 'orientation': 'red_bottom_L_0'}",color,"['color', 'orientation', 'position']",blue_bottom_C_45,2,3,letter,2,False,False,"['robot_stimuli\\\\filler.mp4', 'robot_stimuli\\\\filler.mp4', 'robot_stimuli\\\\filler.mp4', 'robot_stimuli\\\\filler.mp4']",robot_stimuli\\filler.mp4,11,,,,,,,,,,,,,0,49,49,49,,,,,,,,,,,,,,,,,,,1781.1212761999998,1783.1786101999999,,,1791.6619047000002,1791.6619047000002,1791.6619047000002,4,2.8843334999998547,1794.5709672,1794.5709672,1794.5709672,1794.5709672,1794.5709672,1794.5709672,1794.5709672,1794.5709672,None,None,None,,,,,,,,,,1781.1212761999998,1781.1212761999998,None,,,1781.1212761999998,1781.1212761999998,1789.6373759,1791.6619047000002,11,001,2024-07-30_10h10.48.733,robot_cogshifting_sign,2022.2.5,60.08911215331698,
"['red_bottom_T_0', 'red_left_M_45', 'blue_bottom_K_45', 'red_bottom_K_45']","{'color': 'blue_bottom_K_45', 'position': 'red_left_M_45', 'orientation': 'red_bottom_T_0'}",position,"['color', 'orientation', 'position']",red_left_M_45,1,3,letter,2,False,False,"['robot_stimuli\\\\filler.mp4', 'robot_stimuli\\\\filler.mp4', 'robot_stimuli\\\\filler.mp4', 'robot_stimuli\\\\filler.mp4']",robot_stimuli\\filler.mp4,11,,,,,,,,,,,,,0,50,50,50,,,,,,,,,,,,,,,,,,,1794.5709672,1796.6329149,,,1805.5111166,1805.5111166,1805.5111166,2,2.434980400000029,1807.9713184999998,1807.9713184999998,1807.9713184999998,1807.9713184999998,1807.9713184999998,1807.9713184999998,1807.9713184999998,1807.9713184999998,None,None,None,,,,,,,,,,1794.5709672,1794.5709672,None,,,1794.5709672,1794.5709672,1803.2934022000002,1805.5111166,11,001,2024-07-30_10h10.48.733,robot_cogshifting_sign,2022.2.5,60.08911215331698,
"['red_right_F_45', 'red_right_Q_0', 'red_left_F_45', 'blue_right_H_45']","{'color': 'blue_right_H_45', 'position': 'red_left_F_45', 'orientation': 'red_right_Q_0'}",color,"['color', 'orientation', 'position']",blue_right_H_45,3,3,letter,2,False,False,"['robot_stimuli\\\\filler.mp4', 'robot_stimuli\\\\filler.mp4', 'robot_stimuli\\\\filler.mp4', 'robot_stimuli\\\\filler.mp4']",robot_stimuli\\filler.mp4,11,,,,,,,,,,,,,0,51,51,51,,,,,,,,,,,,,,,,,,,1807.9713184999998,1810.0282042000001,,,1818.7205188,1818.7205188,1818.7205188,4,2.482832500000029,1821.2212515999997,1821.2212515999997,1821.2212515999997,1821.2212515999997,1821.2212515999997,1821.2212515999997,1821.2212515999997,1821.2212515999997,None,None,None,,,,,,,,,,1807.9713184999998,1807.9713184999998,None,,,1807.9713184999998,1807.9713184999998,1816.7019343,1818.7205188,11,001,2024-07-30_10h10.48.733,robot_cogshifting_sign,2022.2.5,60.08911215331698,
"['red_bottom_H_0', 'red_right_X_45', 'blue_right_P_0', 'red_right_T_0']","{'color': 'blue_right_P_0', 'position': 'red_bottom_H_0', 'orientation': 'red_right_X_45'}",color,"['color', 'orientation', 'position']",blue_right_P_0,2,3,letter,2,False,False,"['robot_stimuli\\\\filler.mp4', 'robot_stimuli\\\\filler.mp4', 'robot_stimuli\\\\filler.mp4', 'robot_stimuli\\\\filler.mp4']",robot_stimuli\\filler.mp4,11,,,,,,,,,,,,,0,52,52,52,,,,,,,,,,,,,,,,,,,1821.2212515999997,1823.2809310999999,,,1831.9642796,1831.9642796,1831.9642796,3,1.6459050000000275,1833.6382677999998,1833.6382677999998,1833.6382677999998,1833.6382677999998,1833.6382677999998,1833.6382677999998,1833.6382677999998,1833.6382677999998,None,None,None,,,,,,,,,,1821.2212515999997,1821.2212515999997,None,,,1821.2212515999997,1821.2212515999997,1829.7466077000001,1831.9642796,11,001,2024-07-30_10h10.48.733,robot_cogshifting_sign,2022.2.5,60.08911215331698,
"['red_left_C_45', 'blue_top_W_45', 'blue_left_D_0', 'blue_left_Z_45']","{'color': 'red_left_C_45', 'position': 'blue_top_W_45', 'orientation': 'blue_left_D_0'}",orientation,"['color', 'orientation', 'position']",blue_left_D_0,2,3,letter,2,False,True,"['robot_stimuli\\\\filler.mp4', 'robot_stimuli\\\\filler.mp4', 'robot_stimuli\\\\filler.mp4', 'robot_stimuli\\\\filler.mp4']",robot_stimuli\\filler.mp4,11,,,,,,,,,,,,,0,53,53,53,,,,,,,,,,,,,,,,,,,1833.6382677999998,1835.6936374,,,1844.3940851999998,1844.3940851999998,1844.3940851999998,3,1.7360881999999833,1846.1796788999998,1849.1866398999998,1846.1796788999998,1849.1866398999998,1846.1796788999998,1849.1866398999998,1846.1796788999998,1849.1866398999998,24.907407407407405,2.4650910000000295,space,,,2.9500096999997254,,,,,,,1833.6382677999998,1833.6382677999998,None,,,1833.6382677999998,1833.6382677999998,1842.1779362,1844.3940851999998,11,001,2024-07-30_10h10.48.733,robot_cogshifting_sign,2022.2.5,60.08911215331698,
"['R_Arm_X_For', 'L_Torso_X_Back', 'R_Torso_Y_For', 'R_Torso_X_For']","{'laterality': 'L_Torso_X_Back', 'localisation': 'R_Arm_X_For', 'movement': 'R_Torso_Y_For'}",movement,['movement'],R_Torso_Y_For,2,1,robot,3,True,False,"['robot_stimuli\\R_Arm_X_For.mp4', 'robot_stimuli\\L_Torso_X_Back.mp4', 'robot_stimuli\\R_Torso_Y_For.mp4', 'robot_stimuli\\R_Torso_X_For.mp4']",robot_stimuli\R_Torso_Y_For.mp4,11,,,,,,,,,,,,,0,54,54,54,,,,,,,,,,,,,,,,,,,1936.8213017,1938.9022647,,,1953.7476045,1953.7476045,1953.7476045,3,0.3109997999997063,1954.0880605,1954.0880605,1954.0880605,1954.0880605,1954.0880605,1954.0880605,1954.0880605,1954.0880605,None,None,None,,,,,,,,,,1849.1866398999998,1849.1866398999998,space,87.60823670000008,1950.0991950999999,,,,,11,001,2024-07-30_10h10.48.733,robot_cogshifting_sign,2022.2.5,60.08911215331698,
"['L_Torso_X_Back', 'L_Base_Y_For', 'L_Torso_Y_For', 'R_Torso_Y_For']","{'laterality': 'R_Torso_Y_For', 'localisation': 'L_Base_Y_For', 'movement': 'L_Torso_X_Back'}",laterality,['laterality'],R_Torso_Y_For,3,1,robot,3,False,False,"['robot_stimuli\\L_Torso_X_Back.mp4', 'robot_stimuli\\L_Base_Y_For.mp4', 'robot_stimuli\\L_Torso_Y_For.mp4', 'robot_stimuli\\R_Torso_Y_For.mp4']",robot_stimuli\R_Torso_Y_For.mp4,11,,,,,,,,,,,,,0,55,55,55,,,,,,,,,,,,,,,,,,,1954.0880605,1956.1725003999998,,,1970.8952112,1970.8952112,1970.8952112,4,0.44415309999993724,1971.3714032999999,1971.3714032999999,1971.3714032999999,1971.3714032999999,1971.3714032999999,1971.3714032999999,1971.3714032999999,1971.3714032999999,None,None,None,,,,,,,,,,1954.0880605,1954.0880605,None,,1967.2455189999998,1954.0880605,1954.0880605,,,11,001,2024-07-30_10h10.48.733,robot_cogshifting_sign,2022.2.5,60.08911215331698,
"['L_Base_X_Back', 'R_Head_X_For', 'L_Head_X_For', 'L_Head_Y_Back']","{'laterality': 'R_Head_X_For', 'localisation': 'L_Base_X_Back', 'movement': 'L_Head_Y_Back'}",localisation,['localisation'],L_Base_X_Back,0,1,robot,3,False,False,"['robot_stimuli\\L_Base_X_Back.mp4', 'robot_stimuli\\R_Head_X_For.mp4', 'robot_stimuli\\L_Head_X_For.mp4', 'robot_stimuli\\L_Head_Y_Back.mp4']",robot_stimuli\L_Base_X_Back.mp4,11,,,,,,,,,,,,,0,56,56,56,,,,,,,,,,,,,,,,,,,1971.3714032999999,1973.444983,,,1988.1480169,1988.1480169,1988.1480169,1,1.2374639000001366,1989.4047739,1989.4047739,1989.4047739,1989.4047739,1989.4047739,1989.4047739,1989.4047739,1989.4047739,None,None,None,,,,,,,,,,1971.3714032999999,1971.3714032999999,None,,1984.5125861999998,1971.3714032999999,1971.3714032999999,,,11,001,2024-07-30_10h10.48.733,robot_cogshifting_sign,2022.2.5,60.08911215331698,
"['L_Arm_Y_Back', 'R_Arm_Y_Back', 'L_Arm_Z_Back', 'L_Base_Y_For']","{'laterality': 'R_Arm_Y_Back', 'localisation': 'L_Base_Y_For', 'movement': 'L_Arm_Z_Back'}",localisation,['localisation'],L_Base_Y_For,3,1,robot,3,False,False,"['robot_stimuli\\L_Arm_Y_Back.mp4', 'robot_stimuli\\R_Arm_Y_Back.mp4', 'robot_stimuli\\L_Arm_Z_Back.mp4', 'robot_stimuli\\L_Base_Y_For.mp4']",robot_stimuli\L_Base_Y_For.mp4,11,,,,,,,,,,,,,0,57,57,57,,,,,,,,,,,,,,,,,,,1989.4047739,1991.4788597,,,2006.1748873,2006.1748873,2006.1748873,4,0.6514309999999455,2006.8548241,2006.8548241,2006.8548241,2006.8548241,2006.8548241,2006.8548241,2006.8548241,2006.8548241,None,None,None,,,,,,,,,,1989.4047739,1989.4047739,None,,2002.6319741999998,1989.4047739,1989.4047739,,,11,001,2024-07-30_10h10.48.733,robot_cogshifting_sign,2022.2.5,60.08911215331698,
"['R_Base_Y_Back', 'L_Head_Y_Back', 'L_Base_Y_For', 'L_Base_X_Back']","{'laterality': 'R_Base_Y_Back', 'localisation': 'L_Head_Y_Back', 'movement': 'L_Base_X_Back'}",movement,['movement'],L_Base_X_Back,3,1,robot,3,False,False,"['robot_stimuli\\R_Base_Y_Back.mp4', 'robot_stimuli\\L_Head_Y_Back.mp4', 'robot_stimuli\\L_Base_Y_For.mp4', 'robot_stimuli\\L_Base_X_Back.mp4']",robot_stimuli\L_Base_X_Back.mp4,11,,,,,,,,,,,,,0,58,58,58,,,,,,,,,,,,,,,,,,,2006.8548241,2008.9280185,,,2023.5826418999998,2023.5826418999998,2023.5826418999998,4,0.38019759999968983,2023.9882175,2023.9882175,2023.9882175,2023.9882175,2023.9882175,2023.9882175,2023.9882175,2023.9882175,None,None,None,,,,,,,,,,2006.8548241,2006.8548241,None,,2019.9810734,2006.8548241,2006.8548241,,,11,001,2024-07-30_10h10.48.733,robot_cogshifting_sign,2022.2.5,60.08911215331698,
"['R_Arm_Z_Back', 'L_Arm_Z_For', 'R_Arm_X_For', 'R_Torso_Z_For']","{'laterality': 'L_Arm_Z_For', 'localisation': 'R_Torso_Z_For', 'movement': 'R_Arm_X_For'}",localisation,['localisation'],R_Torso_Z_For,3,1,robot,3,False,False,"['robot_stimuli\\R_Arm_Z_Back.mp4', 'robot_stimuli\\L_Arm_Z_For.mp4', 'robot_stimuli\\R_Arm_X_For.mp4', 'robot_stimuli\\R_Torso_Z_For.mp4']",robot_stimuli\R_Torso_Z_For.mp4,11,,,,,,,,,,,,,0,59,59,59,,,,,,,,,,,,,,,,,,,2023.9882175,2026.0630187,,,2040.8490163999998,2040.8490163999998,2040.8490163999998,4,71.82492459999975,2112.7049924000003,2112.7049924000003,2112.7049924000003,2112.7049924000003,2112.7049924000003,2112.7049924000003,2112.7049924000003,2112.7049924000003,None,None,None,,,,,,,,,,2023.9882175,2023.9882175,None,,2037.2077953,2023.9882175,2023.9882175,,,11,001,2024-07-30_10h10.48.733,robot_cogshifting_sign,2022.2.5,60.08911215331698,
"['L_Base_X_Back', 'L_Torso_X_Back', 'R_Base_X_Back', 'L_Base_Y_For']","{'laterality': 'R_Base_X_Back', 'localisation': 'L_Torso_X_Back', 'movement': 'L_Base_Y_For'}",movement,['movement'],L_Base_Y_For,3,1,robot,3,False,False,"['robot_stimuli\\L_Base_X_Back.mp4', 'robot_stimuli\\L_Torso_X_Back.mp4', 'robot_stimuli\\R_Base_X_Back.mp4', 'robot_stimuli\\L_Base_Y_For.mp4']",robot_stimuli\L_Base_Y_For.mp4,11,,,,,,,,,,,,,0,60,60,60,,,,,,,,,,,,,,,,,,,2112.7049924000003,2114.7949347000003,,,2129.4642072,2129.4642072,2129.4642072,4,19.745151599999815,2149.2382608000003,2149.2382608000003,2149.2382608000003,2149.2382608000003,2149.2382608000003,2149.2382608000003,2149.2382608000003,2149.2382608000003,None,None,None,,,,,,,,,,2112.7049924000003,2112.7049924000003,None,,2125.9257569,2112.7049924000003,2112.7049924000003,,,11,001,2024-07-30_10h10.48.733,robot_cogshifting_sign,2022.2.5,60.08911215331698,
"['L_Torso_Z_For', 'R_Torso_Z_For', 'L_Torso_X_For', 'L_Arm_Z_For']","{'laterality': 'R_Torso_Z_For', 'localisation': 'L_Arm_Z_For', 'movement': 'L_Torso_X_For'}",laterality,['laterality'],R_Torso_Z_For,1,1,robot,3,False,False,"['robot_stimuli\\L_Torso_Z_For.mp4', 'robot_stimuli\\R_Torso_Z_For.mp4', 'robot_stimuli\\L_Torso_X_For.mp4', 'robot_stimuli\\L_Arm_Z_For.mp4']",robot_stimuli\R_Torso_Z_For.mp4,11,,,,,,,,,,,,,0,61,61,61,,,,,,,,,,,,,,,,,,,2149.2382608000003,2151.3142997,,,2166.1120488,2166.1120488,2166.1120488,2,0.7471286999995641,2166.887967,2166.887967,2166.887967,2166.887967,2166.887967,2166.887967,2166.887967,2166.887967,None,None,None,,,,,,,,,,2149.2382608000003,2149.2382608000003,None,,2162.4646471,2149.2382608000003,2149.2382608000003,,,11,001,2024-07-30_10h10.48.733,robot_cogshifting_sign,2022.2.5,60.08911215331698,
"['L_Torso_Z_For', 'L_Arm_Y_Back', 'L_Arm_Z_Back', 'R_Arm_Z_Back']","{'laterality': 'R_Arm_Z_Back', 'localisation': 'L_Torso_Z_For', 'movement': 'L_Arm_Y_Back'}",laterality,['laterality'],R_Arm_Z_Back,3,1,robot,3,False,True,"['robot_stimuli\\L_Torso_Z_For.mp4', 'robot_stimuli\\L_Arm_Y_Back.mp4', 'robot_stimuli\\L_Arm_Z_Back.mp4', 'robot_stimuli\\R_Arm_Z_Back.mp4']",robot_stimuli\R_Arm_Z_Back.mp4,11,,,,,,,,,,,,,0,62,62,62,,,,,,,,,,,,,,,,,,,2166.887967,2168.9628892,,,2183.7610516,2183.7610516,2183.7610516,4,0.27304010000005974,2184.0796578000004,2191.3687726000003,2184.0796578000004,2191.3687726000003,2184.0796578000004,2191.3687726000003,2184.0796578000004,2191.3687726000003,11.481481481481476,3.8916059999996833,space,,,7.242402000000027,,,,,,,2166.887967,2166.887967,None,,2180.1294621,2166.887967,2166.887967,,,11,001,2024-07-30_10h10.48.733,robot_cogshifting_sign,2022.2.5,60.08911215331698,
"['L_Arm_X_For', 'L_Base_X_For', 'L_Base_Z_For', 'R_Base_X_Back']","{'laterality': 'R_Base_X_Back', 'localisation': 'L_Arm_X_For', 'movement': 'L_Base_Z_For'}",localisation,"['laterality', 'localisation', 'movement']",L_Arm_X_For,0,3,robot,3,True,False,"['robot_stimuli\\L_Arm_X_For.mp4', 'robot_stimuli\\L_Base_X_For.mp4', 'robot_stimuli\\L_Base_Z_For.mp4', 'robot_stimuli\\R_Base_X_Back.mp4']",robot_stimuli\L_Arm_X_For.mp4,11,,,,,,,,,,,,,0,63,63,63,,,,,,,,,,,,,,,,,,,2264.9385755000003,2267.0115838,,,2281.7611687000003,2281.7611687000003,2281.7611687000003,1,2.4653932999996755,2284.2550676,2284.2550676,2284.2550676,2284.2550676,2284.2550676,2284.2550676,2284.2550676,2284.2550676,None,None,None,,,,,,,,,,2191.3687726000003,2191.3687726000003,space,73.53700529999986,2278.125661,,,,,11,001,2024-07-30_10h10.48.733,robot_cogshifting_sign,2022.2.5,60.08911215331698,
"['R_Head_Z_For', 'R_Base_Y_Back', 'L_Base_Z_For', 'R_Base_Z_Back']","{'laterality': 'L_Base_Z_For', 'localisation': 'R_Head_Z_For', 'movement': 'R_Base_Y_Back'}",movement,"['laterality', 'localisation', 'movement']",R_Base_Y_Back,1,3,robot,3,False,False,"['robot_stimuli\\R_Head_Z_For.mp4', 'robot_stimuli\\R_Base_Y_Back.mp4', 'robot_stimuli\\L_Base_Z_For.mp4', 'robot_stimuli\\R_Base_Z_Back.mp4']",robot_stimuli\R_Base_Y_Back.mp4,11,,,,,,,,,,,,,0,64,64,64,,,,,,,,,,,,,,,,,,,2284.2550676,2286.3305327000003,,,2301.0331147,2301.0331147,2301.0331147,2,2.0498238000001834,2303.1050656,2303.1050656,2303.1050656,2303.1050656,2303.1050656,2303.1050656,2303.1050656,2303.1050656,None,None,None,,,,,,,,,,2284.2550676,2284.2550676,None,,2297.4980757000003,2284.2550676,2284.2550676,,,11,001,2024-07-30_10h10.48.733,robot_cogshifting_sign,2022.2.5,60.08911215331698,
"['R_Arm_Y_Back', 'L_Head_Y_For', 'L_Arm_Y_For', 'L_Arm_Z_For']","{'laterality': 'R_Arm_Y_Back', 'localisation': 'L_Head_Y_For', 'movement': 'L_Arm_Z_For'}",laterality,"['laterality', 'localisation', 'movement']",R_Arm_Y_Back,0,3,robot,3,False,False,"['robot_stimuli\\R_Arm_Y_Back.mp4', 'robot_stimuli\\L_Head_Y_For.mp4', 'robot_stimuli\\L_Arm_Y_For.mp4', 'robot_stimuli\\L_Arm_Z_For.mp4']",robot_stimuli\R_Arm_Y_Back.mp4,11,,,,,,,,,,,,,0,65,65,65,,,,,,,,,,,,,,,,,,,2303.1050656,2305.1759776000004,,,2319.9820934000004,2319.9820934000004,2319.9820934000004,1,72.98011960000002,2392.9885614,2392.9885614,2392.9885614,2392.9885614,2392.9885614,2392.9885614,2392.9885614,2392.9885614,None,None,None,,,,,,,,,,2303.1050656,2303.1050656,None,,2316.3470615,2303.1050656,2303.1050656,,,11,001,2024-07-30_10h10.48.733,robot_cogshifting_sign,2022.2.5,60.08911215331698,
"['R_Head_X_Back', 'R_Arm_X_For', 'L_Arm_X_For', 'R_Arm_Z_For']","{'laterality': 'L_Arm_X_For', 'localisation': 'R_Head_X_Back', 'movement': 'R_Arm_Z_For'}",movement,"['laterality', 'localisation', 'movement']",R_Arm_Z_For,3,3,robot,3,False,False,"['robot_stimuli\\R_Head_X_Back.mp4', 'robot_stimuli\\R_Arm_X_For.mp4', 'robot_stimuli\\L_Arm_X_For.mp4', 'robot_stimuli\\R_Arm_Z_For.mp4']",robot_stimuli\R_Arm_Z_For.mp4,11,,,,,,,,,,,,,0,66,66,66,,,,,,,,,,,,,,,,,,,2392.9885614,2395.0637687000003,,,2409.8741589,2409.8741589,2409.8741589,4,2.7770876000001294,2412.6720174,2412.6720174,2412.6720174,2412.6720174,2412.6720174,2412.6720174,2412.6720174,2412.6720174,None,None,None,,,,,,,,,,2392.9885614,2392.9885614,None,,2406.237246,2392.9885614,2392.9885614,,,11,001,2024-07-30_10h10.48.733,robot_cogshifting_sign,2022.2.5,60.08911215331698,
"['R_Base_Z_Back', 'R_Head_X_Back', 'L_Base_X_For', 'R_Base_X_For']","{'laterality': 'L_Base_X_For', 'localisation': 'R_Head_X_Back', 'movement': 'R_Base_Z_Back'}",localisation,"['laterality', 'localisation', 'movement']",R_Head_X_Back,1,3,robot,3,False,False,"['robot_stimuli\\R_Base_Z_Back.mp4', 'robot_stimuli\\R_Head_X_Back.mp4', 'robot_stimuli\\L_Base_X_For.mp4', 'robot_stimuli\\R_Base_X_For.mp4']",robot_stimuli\R_Head_X_Back.mp4,11,,,,,,,,,,,,,0,67,67,67,,,,,,,,,,,,,,,,,,,2412.6720174,2414.7475090000003,,,2429.2825462,2429.2825462,2429.2825462,2,2.4393684999997163,2431.7386236,2431.7386236,2431.7386236,2431.7386236,2431.7386236,2431.7386236,2431.7386236,2431.7386236,None,None,None,,,,,,,,,,2412.6720174,2412.6720174,None,,2425.7478255,2412.6720174,2412.6720174,,,11,001,2024-07-30_10h10.48.733,robot_cogshifting_sign,2022.2.5,60.08911215331698,
"['L_Head_X_Back', 'L_Arm_Z_For', 'R_Head_Z_For', 'L_Head_Z_For']","{'laterality': 'R_Head_Z_For', 'localisation': 'L_Arm_Z_For', 'movement': 'L_Head_X_Back'}",localisation,"['laterality', 'localisation', 'movement']",L_Arm_Z_For,1,3,robot,3,False,False,"['robot_stimuli\\L_Head_X_Back.mp4', 'robot_stimuli\\L_Arm_Z_For.mp4', 'robot_stimuli\\R_Head_Z_For.mp4', 'robot_stimuli\\L_Head_Z_For.mp4']",robot_stimuli\L_Arm_Z_For.mp4,11,,,,,,,,,,,,,0,68,68,68,,,,,,,,,,,,,,,,,,,2431.7386236,2433.8114135,,,2448.6416878,2448.6416878,2448.6416878,2,2.9371634999994853,2451.6053278000004,2451.6053278000004,2451.6053278000004,2451.6053278000004,2451.6053278000004,2451.6053278000004,2451.6053278000004,2451.6053278000004,None,None,None,,,,,,,,,,2431.7386236,2431.7386236,None,,2444.9993962000003,2431.7386236,2431.7386236,,,11,001,2024-07-30_10h10.48.733,robot_cogshifting_sign,2022.2.5,60.08911215331698,
"['L_Head_X_For', 'L_Head_Z_For', 'R_Head_Z_For', 'L_Arm_Z_Back']","{'laterality': 'R_Head_Z_For', 'localisation': 'L_Arm_Z_Back', 'movement': 'L_Head_X_For'}",laterality,"['laterality', 'localisation', 'movement']",R_Head_Z_For,2,3,robot,3,False,False,"['robot_stimuli\\L_Head_X_For.mp4', 'robot_stimuli\\L_Head_Z_For.mp4', 'robot_stimuli\\R_Head_Z_For.mp4', 'robot_stimuli\\L_Arm_Z_Back.mp4']",robot_stimuli\R_Head_Z_For.mp4,11,,,,,,,,,,,,,0,69,69,69,,,,,,,,,,,,,,,,,,,2451.6053278000004,2453.6810694,,,2468.4154795000004,2468.4154795000004,2468.4154795000004,3,2.2505038000001036,2470.6887987,2470.6887987,2470.6887987,2470.6887987,2470.6887987,2470.6887987,2470.6887987,2470.6887987,None,None,None,,,,,,,,,,2451.6053278000004,2451.6053278000004,None,,2464.7794564,2451.6053278000004,2451.6053278000004,,,11,001,2024-07-30_10h10.48.733,robot_cogshifting_sign,2022.2.5,60.08911215331698,
"['R_Head_Z_For', 'L_Base_Z_Back', 'R_Base_Y_For', 'R_Base_Z_Back']","{'laterality': 'L_Base_Z_Back', 'localisation': 'R_Head_Z_For', 'movement': 'R_Base_Y_For'}",movement,"['laterality', 'localisation', 'movement']",R_Base_Y_For,2,3,robot,3,False,False,"['robot_stimuli\\R_Head_Z_For.mp4', 'robot_stimuli\\L_Base_Z_Back.mp4', 'robot_stimuli\\R_Base_Y_For.mp4', 'robot_stimuli\\R_Base_Z_Back.mp4']",robot_stimuli\R_Base_Y_For.mp4,11,,,,,,,,,,,,,0,70,70,70,,,,,,,,,,,,,,,,,,,2470.6887987,2472.7617062000004,,,2487.4651827000002,2487.4651827000002,2487.4651827000002,3,13.76170780000001,2501.2556268000003,2501.2556268000003,2501.2556268000003,2501.2556268000003,2501.2556268000003,2501.2556268000003,2501.2556268000003,2501.2556268000003,None,None,None,,,,,,,,,,2470.6887987,2470.6887987,None,,2483.9295865000004,2470.6887987,2470.6887987,,,11,001,2024-07-30_10h10.48.733,robot_cogshifting_sign,2022.2.5,60.08911215331698,
"['L_Head_Z_For', 'R_Torso_Z_Back', 'L_Torso_Z_Back', 'L_Torso_X_Back']","{'laterality': 'R_Torso_Z_Back', 'localisation': 'L_Head_Z_For', 'movement': 'L_Torso_X_Back'}",laterality,"['laterality', 'localisation', 'movement']",R_Torso_Z_Back,1,3,robot,3,False,True,"['robot_stimuli\\L_Head_Z_For.mp4', 'robot_stimuli\\R_Torso_Z_Back.mp4', 'robot_stimuli\\L_Torso_Z_Back.mp4', 'robot_stimuli\\L_Torso_X_Back.mp4']",robot_stimuli\R_Torso_Z_Back.mp4,11,,,,,,,,,,,,,0,71,71,71,,,,,,,,,,,,,,,,,,,2501.2556268000003,2503.3312082,,,2517.9905750000003,2517.9905750000003,2517.9905750000003,2,14.108552699999734,2532.1461308000003,2537.2804641000002,2532.1461308000003,2537.2804641000002,2532.1461308000003,2537.2804641000002,2532.1461308000003,2537.2804641000002,30.15432098765432,4.394298700000036,space,,,5.088152900000011,,,,,,,2501.2556268000003,2501.2556268000003,None,,2514.3649003,2501.2556268000003,2501.2556268000003,,,11,001,2024-07-30_10h10.48.733,robot_cogshifting_sign,2022.2.5,60.08911215331698,
"['R_Head_Y_For', 'L_Base_Y_For', 'L_Head_X_Back', 'L_Head_Y_For']","{'laterality': 'R_Head_Y_For', 'localisation': 'L_Base_Y_For', 'movement': 'L_Head_X_Back'}",laterality,"['laterality', 'movement']",R_Head_Y_For,0,2,robot,3,True,False,"['robot_stimuli\\R_Head_Y_For.mp4', 'robot_stimuli\\L_Base_Y_For.mp4', 'robot_stimuli\\L_Head_X_Back.mp4', 'robot_stimuli\\L_Head_Y_For.mp4']",robot_stimuli\R_Head_Y_For.mp4,11,,,,,,,,,,,,,0,72,72,72,,,,,,,,,,,,,,,,,,,2650.0389439,2652.1179730000003,,,2666.8108502,2666.8108502,2666.8108502,1,0.4471401999996374,2667.2888506000004,2667.2888506000004,2667.2888506000004,2667.2888506000004,2667.2888506000004,2667.2888506000004,2667.2888506000004,2667.2888506000004,None,None,None,,,,,,,,,,2537.2804641000002,2537.2804641000002,space,112.7379987000001,2663.1759615,,,,,11,001,2024-07-30_10h10.48.733,robot_cogshifting_sign,2022.2.5,60.08911215331698,
"['R_Head_Y_Back', 'R_Base_Y_Back', 'L_Base_Y_For', 'R_Base_X_For']","{'laterality': 'L_Base_Y_For', 'localisation': 'R_Head_Y_Back', 'movement': 'R_Base_X_For'}",localisation,"['localisation', 'movement']",R_Head_Y_Back,0,2,robot,3,False,False,"['robot_stimuli\\R_Head_Y_Back.mp4', 'robot_stimuli\\R_Base_Y_Back.mp4', 'robot_stimuli\\L_Base_Y_For.mp4', 'robot_stimuli\\R_Base_X_For.mp4']",robot_stimuli\R_Head_Y_Back.mp4,11,,,,,,,,,,,,,0,73,73,73,,,,,,,,,,,,,,,,,,,2667.2888506000004,2669.3670113000003,,,2683.9985785000003,2683.9985785000003,2683.9985785000003,1,1.0679414999996766,2685.0888253000003,2685.0888253000003,2685.0888253000003,2685.0888253000003,2685.0888253000003,2685.0888253000003,2685.0888253000003,2685.0888253000003,None,None,None,,,,,,,,,,2667.2888506000004,2667.2888506000004,None,,2680.4533840000004,2667.2888506000004,2667.2888506000004,,,11,001,2024-07-30_10h10.48.733,robot_cogshifting_sign,2022.2.5,60.08911215331698,
"['L_Torso_X_Back', 'L_Head_X_For', 'L_Head_Y_For', 'R_Head_X_Back']","{'laterality': 'R_Head_X_Back', 'localisation': 'L_Torso_X_Back', 'movement': 'L_Head_Y_For'}",movement,"['laterality', 'movement']",L_Head_Y_For,2,2,robot,3,False,False,"['robot_stimuli\\L_Torso_X_Back.mp4', 'robot_stimuli\\L_Head_X_For.mp4', 'robot_stimuli\\L_Head_Y_For.mp4', 'robot_stimuli\\R_Head_X_Back.mp4']",robot_stimuli\L_Head_Y_For.mp4,11,,,,,,,,,,,,,0,74,74,74,,,,,,,,,,,,,,,,,,,2685.0888253000003,2687.1626315000003,,,2701.8990627000003,2701.8990627000003,2701.8990627000003,3,0.8798289999996882,2702.8054943,2702.8054943,2702.8054943,2702.8054943,2702.8054943,2702.8054943,2702.8054943,2702.8054943,None,None,None,,,,,,,,,,2685.0888253000003,2685.0888253000003,None,,2698.2652626000004,2685.0888253000003,2685.0888253000003,,,11,001,2024-07-30_10h10.48.733,robot_cogshifting_sign,2022.2.5,60.08911215331698,
"['R_Arm_Y_For', 'L_Head_Y_Back', 'R_Head_Z_Back', 'R_Head_Y_Back']","{'laterality': 'L_Head_Y_Back', 'localisation': 'R_Arm_Y_For', 'movement': 'R_Head_Z_Back'}",movement,"['localisation', 'movement']",R_Head_Z_Back,2,2,robot,3,False,False,"['robot_stimuli\\R_Arm_Y_For.mp4', 'robot_stimuli\\L_Head_Y_Back.mp4', 'robot_stimuli\\R_Head_Z_Back.mp4', 'robot_stimuli\\R_Head_Y_Back.mp4']",robot_stimuli\R_Head_Z_Back.mp4,11,,,,,,,,,,,,,0,75,75,75,,,,,,,,,,,,,,,,,,,2702.8054943,2704.8842533,,,2719.5600241,2719.5600241,2719.5600241,1,1.4747050999996532,2721.0553791,2721.0553791,2721.0553791,2721.0553791,2721.0553791,2721.0553791,2721.0553791,2721.0553791,None,None,None,,,,,,,,,,2702.8054943,2702.8054943,None,,2715.9132312,2702.8054943,2702.8054943,,,11,001,2024-07-30_10h10.48.733,robot_cogshifting_sign,2022.2.5,60.08911215331698,
"['R_Head_Y_For', 'L_Arm_Y_For', 'R_Arm_Y_Back', 'R_Arm_Z_For']","{'laterality': 'L_Arm_Y_For', 'localisation': 'R_Head_Y_For', 'movement': 'R_Arm_Z_For'}",laterality,"['laterality', 'movement']",L_Arm_Y_For,1,2,robot,3,False,False,"['robot_stimuli\\R_Head_Y_For.mp4', 'robot_stimuli\\L_Arm_Y_For.mp4', 'robot_stimuli\\R_Arm_Y_Back.mp4', 'robot_stimuli\\R_Arm_Z_For.mp4']",robot_stimuli\L_Arm_Y_For.mp4,11,,,,,,,,,,,,,0,76,76,76,,,,,,,,,,,,,,,,,,,2721.0553791,2723.1262517,,,2737.9170991,2737.9170991,2737.9170991,3,6.1179987999996115,2744.0555828,2744.0555828,2744.0555828,2744.0555828,2744.0555828,2744.0555828,2744.0555828,2744.0555828,None,None,None,,,,,,,,,,2721.0553791,2721.0553791,None,,2734.2822998,2721.0553791,2721.0553791,,,11,001,2024-07-30_10h10.48.733,robot_cogshifting_sign,2022.2.5,60.08911215331698,
"['L_Head_Z_For', 'L_Torso_Z_For', 'R_Torso_Z_Back', 'L_Torso_Y_For']","{'laterality': 'R_Torso_Z_Back', 'localisation': 'L_Head_Z_For', 'movement': 'L_Torso_Y_For'}",laterality,"['laterality', 'movement']",R_Torso_Z_Back,2,2,robot,3,False,False,"['robot_stimuli\\L_Head_Z_For.mp4', 'robot_stimuli\\L_Torso_Z_For.mp4', 'robot_stimuli\\R_Torso_Z_Back.mp4', 'robot_stimuli\\L_Torso_Y_For.mp4']",robot_stimuli\R_Torso_Z_Back.mp4,11,,,,,,,,,,,,,0,77,77,77,,,,,,,,,,,,,,,,,,,2744.0555828,2746.1299294,,,2760.9587392000003,2760.9587392000003,2760.9587392000003,3,27.618545099999835,2788.6056469,2788.6056469,2788.6056469,2788.6056469,2788.6056469,2788.6056469,2788.6056469,2788.6056469,None,None,None,,,,,,,,,,2744.0555828,2744.0555828,None,,2757.3157447000003,2744.0555828,2744.0555828,,,11,001,2024-07-30_10h10.48.733,robot_cogshifting_sign,2022.2.5,60.08911215331698,
"['L_Base_X_Back', 'R_Head_X_Back', 'R_Base_Y_For', 'R_Base_X_Back']","{'laterality': 'L_Base_X_Back', 'localisation': 'R_Head_X_Back', 'movement': 'R_Base_Y_For'}",localisation,"['laterality', 'localisation']",R_Head_X_Back,1,2,robot,3,False,False,"['robot_stimuli\\L_Base_X_Back.mp4', 'robot_stimuli\\R_Head_X_Back.mp4', 'robot_stimuli\\R_Base_Y_For.mp4', 'robot_stimuli\\R_Base_X_Back.mp4']",robot_stimuli\R_Head_X_Back.mp4,11,,,,,,,,,,,,,0,78,78,78,,,,,,,,,,,,,,,,,,,2788.6056469,2790.6837776,,,2805.4486524000004,2805.4486524000004,2805.4486524000004,2,0.8726577999997858,2806.3391371000002,2806.3391371000002,2806.3391371000002,2806.3391371000002,2806.3391371000002,2806.3391371000002,2806.3391371000002,2806.3391371000002,None,None,None,,,,,,,,,,2788.6056469,2788.6056469,None,,2801.8112106000003,2788.6056469,2788.6056469,,,11,001,2024-07-30_10h10.48.733,robot_cogshifting_sign,2022.2.5,60.08911215331698,
"['L_Torso_X_Back', 'L_Base_X_For', 'L_Torso_Y_Back', 'R_Torso_X_Back']","{'laterality': 'R_Torso_X_Back', 'localisation': 'L_Base_X_For', 'movement': 'L_Torso_Y_Back'}",movement,"['laterality', 'movement']",L_Torso_Y_Back,2,2,robot,3,False,False,"['robot_stimuli\\L_Torso_X_Back.mp4', 'robot_stimuli\\L_Base_X_For.mp4', 'robot_stimuli\\L_Torso_Y_Back.mp4', 'robot_stimuli\\R_Torso_X_Back.mp4']",robot_stimuli\L_Torso_Y_Back.mp4,11,,,,,,,,,,,,,0,79,79,79,,,,,,,,,,,,,,,,,,,2806.3391371000002,2808.4144624,,,2823.0134327,2823.0134327,2823.0134327,3,0.8442803999998318,2823.8890312000003,2823.8890312000003,2823.8890312000003,2823.8890312000003,2823.8890312000003,2823.8890312000003,2823.8890312000003,2823.8890312000003,None,None,None,,,,,,,,,,2806.3391371000002,2806.3391371000002,None,,2819.3802611,2806.3391371000002,2806.3391371000002,,,11,001,2024-07-30_10h10.48.733,robot_cogshifting_sign,2022.2.5,60.08911215331698,
"['R_Head_Z_Back', 'L_Torso_Z_Back', 'L_Head_Z_For', 'L_Head_X_For']","{'laterality': 'R_Head_Z_Back', 'localisation': 'L_Torso_Z_Back', 'movement': 'L_Head_X_For'}",localisation,"['localisation', 'movement']",L_Torso_Z_Back,1,2,robot,3,False,True,"['robot_stimuli\\R_Head_Z_Back.mp4', 'robot_stimuli\\L_Torso_Z_Back.mp4', 'robot_stimuli\\L_Head_Z_For.mp4', 'robot_stimuli\\L_Head_X_For.mp4']",robot_stimuli\L_Torso_Z_Back.mp4,11,,,,,,,,,,,,,0,80,80,80,,,,,,,,,,,,,,,,,,,2823.8890312000003,2825.9635659,,,2840.5961767000003,2840.5961767000003,2840.5961767000003,2,0.6461033000002203,2841.2965165,2844.1493839,2841.2965165,2844.1493839,2841.2965165,2844.1493839,2841.2965165,2844.1493839,16.728395061728392,2.619944900000064,space,,,2.8092677999999864,,,,,,,2823.8890312000003,2823.8890312000003,None,,2837.0264179,2823.8890312000003,2823.8890312000003,,,11,001,2024-07-30_10h10.48.733,robot_cogshifting_sign,2022.2.5,60.08911215331698,
"['red_left_Q_0', 'red_right_W_45', 'red_right_T_0', 'blue_right_H_0']","{'color': 'blue_right_H_0', 'position': 'red_left_Q_0', 'orientation': 'red_right_W_45'}",color,"['color', 'orientation']",blue_right_H_0,3,2,letter,4,True,False,"['robot_stimuli\\\\filler.mp4', 'robot_stimuli\\\\filler.mp4', 'robot_stimuli\\\\filler.mp4', 'robot_stimuli\\\\filler.mp4']",robot_stimuli\\filler.mp4,11,,,,,,,,,,,,,0,81,81,81,,,,,,,,,,,,,,,,,,,2846.1724796000003,2848.2302246000004,,,2856.5056076,2856.5056076,2856.5056076,4,0.6407252000000767,2857.1721916,2857.1721916,2857.1721916,2857.1721916,2857.1721916,2857.1721916,2857.1721916,2857.1721916,None,None,None,,,,,,,,,,2844.1493839,2844.1493839,space,2.0054305999994426,,,,2854.4895954000003,2856.5056076,11,001,2024-07-30_10h10.48.733,robot_cogshifting_sign,2022.2.5,60.08911215331698,
"['blue_top_B_45', 'blue_bottom_F_45', 'red_top_K_45', 'blue_top_D_0']","{'color': 'red_top_K_45', 'position': 'blue_bottom_F_45', 'orientation': 'blue_top_D_0'}",color,"['color', 'orientation']",red_top_K_45,2,2,letter,4,False,False,"['robot_stimuli\\\\filler.mp4', 'robot_stimuli\\\\filler.mp4', 'robot_stimuli\\\\filler.mp4', 'robot_stimuli\\\\filler.mp4']",robot_stimuli\\filler.mp4,11,,,,,,,,,,,,,0,82,82,82,,,,,,,,,,,,,,,,,,,2857.1721916,2859.2265389000004,,,2868.1031964000003,2868.1031964000003,2868.1031964000003,3,0.8431160000001796,2868.972287,2868.972287,2868.972287,2868.972287,2868.972287,2868.972287,2868.972287,2868.972287,None,None,None,,,,,,,,,,2857.1721916,2857.1721916,None,,,2857.1721916,2857.1721916,2865.8906694,2868.1031964000003,11,001,2024-07-30_10h10.48.733,robot_cogshifting_sign,2022.2.5,60.08911215331698,
"['red_left_T_45', 'red_left_H_0', 'red_bottom_X_0', 'blue_left_X_0']","{'color': 'blue_left_X_0', 'position': 'red_bottom_X_0', 'orientation': 'red_left_T_45'}",position,"['orientation', 'position']",red_bottom_X_0,2,2,letter,4,False,False,"['robot_stimuli\\\\filler.mp4', 'robot_stimuli\\\\filler.mp4', 'robot_stimuli\\\\filler.mp4', 'robot_stimuli\\\\filler.mp4']",robot_stimuli\\filler.mp4,11,,,,,,,,,,,,,0,83,83,83,,,,,,,,,,,,,,,,,,,2868.972287,2871.0273577000003,,,2879.5071064000003,2879.5071064000003,2879.5071064000003,3,0.4633587000000148,2879.9889688000003,2879.9889688000003,2879.9889688000003,2879.9889688000003,2879.9889688000003,2879.9889688000003,2879.9889688000003,2879.9889688000003,None,None,None,,,,,,,,,,2868.972287,2868.972287,None,,,2868.972287,2868.972287,2877.4828951000004,2879.5071064000003,11,001,2024-07-30_10h10.48.733,robot_cogshifting_sign,2022.2.5,60.08911215331698,
"['red_bottom_K_0', 'blue_left_N_0', 'red_left_Q_45', 'red_left_D_0']","{'color': 'blue_left_N_0', 'position': 'red_bottom_K_0', 'orientation': 'red_left_Q_45'}",color,"['color', 'orientation']",blue_left_N_0,1,2,letter,4,False,False,"['robot_stimuli\\\\filler.mp4', 'robot_stimuli\\\\filler.mp4', 'robot_stimuli\\\\filler.mp4', 'robot_stimuli\\\\filler.mp4']",robot_stimuli\\filler.mp4,11,,,,,,,,,,,,,0,84,84,84,,,,,,,,,,,,,,,,,,,2879.9889688000003,2882.043176,,,2891.1078362000003,2891.1078362000003,2891.1078362000003,2,0.5991123000000584,2891.7396834,2891.7396834,2891.7396834,2891.7396834,2891.7396834,2891.7396834,2891.7396834,2891.7396834,None,None,None,,,,,,,,,,2879.9889688000003,2879.9889688000003,None,,,2879.9889688000003,2879.9889688000003,2888.8963098000004,2891.1078362000003,11,001,2024-07-30_10h10.48.733,robot_cogshifting_sign,2022.2.5,60.08911215331698,
"['blue_right_P_45', 'blue_right_T_0', 'red_right_Q_45', 'blue_left_L_45']","{'color': 'red_right_Q_45', 'position': 'blue_left_L_45', 'orientation': 'blue_right_T_0'}",orientation,"['orientation', 'position']",blue_right_T_0,1,2,letter,4,False,False,"['robot_stimuli\\\\filler.mp4', 'robot_stimuli\\\\filler.mp4', 'robot_stimuli\\\\filler.mp4', 'robot_stimuli\\\\filler.mp4']",robot_stimuli\\filler.mp4,11,,,,,,,,,,,,,0,85,85,85,,,,,,,,,,,,,,,,,,,2891.7396834,2893.7931208,,,2902.8872908000003,2902.8872908000003,2902.8872908000003,2,0.7474275999995257,2903.6556651,2903.6556651,2903.6556651,2903.6556651,2903.6556651,2903.6556651,2903.6556651,2903.6556651,None,None,None,,,,,,,,,,2891.7396834,2891.7396834,None,,,2891.7396834,2891.7396834,2900.6664020000003,2902.8872908000003,11,001,2024-07-30_10h10.48.733,robot_cogshifting_sign,2022.2.5,60.08911215331698,
"['blue_bottom_L_0', 'blue_top_T_45', 'blue_bottom_H_45', 'red_bottom_Z_45']","{'color': 'red_bottom_Z_45', 'position': 'blue_top_T_45', 'orientation': 'blue_bottom_L_0'}",orientation,"['color', 'orientation']",blue_bottom_L_0,0,2,letter,4,False,False,"['robot_stimuli\\\\filler.mp4', 'robot_stimuli\\\\filler.mp4', 'robot_stimuli\\\\filler.mp4', 'robot_stimuli\\\\filler.mp4']",robot_stimuli\\filler.mp4,11,,,,,,,,,,,,,0,86,86,86,,,,,,,,,,,,,,,,,,,2903.6556651,2905.7079547000003,,,2914.3905237000004,2914.3905237000004,2914.3905237000004,1,0.6993985000000862,2915.1224667,2915.1224667,2915.1224667,2915.1224667,2915.1224667,2915.1224667,2915.1224667,2915.1224667,None,None,None,,,,,,,,,,2903.6556651,2903.6556651,None,,,2903.6556651,2903.6556651,2912.3731185,2914.3905237000004,11,001,2024-07-30_10h10.48.733,robot_cogshifting_sign,2022.2.5,60.08911215331698,
"['blue_left_B_0', 'red_bottom_M_0', 'blue_bottom_H_0', 'blue_bottom_H_45']","{'color': 'red_bottom_M_0', 'position': 'blue_left_B_0', 'orientation': 'blue_bottom_H_45'}",orientation,"['color', 'orientation']",blue_bottom_H_45,3,2,letter,4,False,False,"['robot_stimuli\\\\filler.mp4', 'robot_stimuli\\\\filler.mp4', 'robot_stimuli\\\\filler.mp4', 'robot_stimuli\\\\filler.mp4']",robot_stimuli\\filler.mp4,11,,,,,,,,,,,,,0,87,87,87,,,,,,,,,,,,,,,,,,,2915.1224667,2917.1750655,,,2926.2363597000003,2926.2363597000003,2926.2363597000003,4,0.5251260999995679,2926.7935046000002,2926.7935046000002,2926.7935046000002,2926.7935046000002,2926.7935046000002,2926.7935046000002,2926.7935046000002,2926.7935046000002,None,None,None,,,,,,,,,,2915.1224667,2915.1224667,None,,,2915.1224667,2915.1224667,2924.0248681000003,2926.2363597000003,11,001,2024-07-30_10h10.48.733,robot_cogshifting_sign,2022.2.5,60.08911215331698,
"['blue_right_D_0', 'blue_top_K_0', 'blue_right_R_45', 'red_right_Q_0']","{'color': 'red_right_Q_0', 'position': 'blue_top_K_0', 'orientation': 'blue_right_R_45'}",position,"['orientation', 'position']",blue_top_K_0,1,2,letter,4,False,False,"['robot_stimuli\\\\filler.mp4', 'robot_stimuli\\\\filler.mp4', 'robot_stimuli\\\\filler.mp4', 'robot_stimuli\\\\filler.mp4']",robot_stimuli\\filler.mp4,11,,,,,,,,,,,,,0,88,88,88,,,,,,,,,,,,,,,,,,,2926.7935046000002,,,,2937.5332058000004,2937.5332058000004,2937.5332058000004,2,0.8930212999995888,2938.4556431,2938.4556431,2938.4556431,2938.4556431,2938.4556431,2938.4556431,2938.4556431,2938.4556431,None,None,None,,,,,,,,,,2926.7935046000002,2926.7935046000002,None,,,2926.7935046000002,2926.7935046000002,2935.5218499000002,2937.5332058000004,11,001,2024-07-30_10h10.48.733,robot_cogshifting_sign,2022.2.5,60.08911215331698,
"['blue_top_C_0', 'blue_top_C_45', 'blue_bottom_L_0', 'red_top_Q_0']","{'color': 'red_top_Q_0', 'position': 'blue_bottom_L_0', 'orientation': 'blue_top_C_45'}",position,"['color', 'position']",blue_bottom_L_0,2,2,letter,4,False,True,"['robot_stimuli\\\\filler.mp4', 'robot_stimuli\\\\filler.mp4', 'robot_stimuli\\\\filler.mp4', 'robot_stimuli\\\\filler.mp4']",robot_stimuli\\filler.mp4,11,,,,,,,,,,,,,0,89,89,89,,,,,,,,,,,,,,,,,,,2938.4556431,2940.5143420000004,,,2949.392881,2949.392881,2949.392881,3,1.9537858999999003,2951.3976685000002,2954.5835411000003,2951.3976685000002,2954.5835411000003,2951.3976685000002,2954.5835411000003,2951.3976685000002,2954.5835411000003,11.944444444444441,2.7482041000002937,space,,,3.139809800000137,,,,,,,2938.4556431,2938.4556431,None,,,2938.4556431,2938.4556431,2947.1792429,2949.392881,11,001,2024-07-30_10h10.48.733,robot_cogshifting_sign,2022.2.5,60.08911215331698,
"['red_right_H_0', 'blue_right_H_0', 'red_right_L_45', 'red_bottom_H_0']","{'color': 'blue_right_H_0', 'position': 'red_bottom_H_0', 'orientation': 'red_right_L_45'}",orientation,['orientation'],red_right_L_45,2,1,letter,4,True,False,"['robot_stimuli\\\\filler.mp4', 'robot_stimuli\\\\filler.mp4', 'robot_stimuli\\\\filler.mp4', 'robot_stimuli\\\\filler.mp4']",robot_stimuli\\filler.mp4,11,,,,,,,,,,,,,0,90,90,90,,,,,,,,,,,,,,,,,,,2956.4555994,2958.5113268,,,2967.2109159,2967.2109159,2967.2109159,3,0.31115289999996776,2967.5392143000004,2967.5392143000004,2967.5392143000004,2967.5392143000004,2967.5392143000004,2967.5392143000004,2967.5392143000004,2967.5392143000004,None,None,None,,,,,,,,,,2954.5835411000003,2954.5835411000003,space,1.8504027000000747,,,,2964.9938023,2967.2109159,11,001,2024-07-30_10h10.48.733,robot_cogshifting_sign,2022.2.5,60.08911215331698,
"['red_bottom_G_0', 'red_bottom_S_45', 'blue_bottom_J_0', 'red_left_G_0']","{'color': 'blue_bottom_J_0', 'position': 'red_left_G_0', 'orientation': 'red_bottom_S_45'}",orientation,['orientation'],red_bottom_S_45,1,1,letter,4,False,False,"['robot_stimuli\\\\filler.mp4', 'robot_stimuli\\\\filler.mp4', 'robot_stimuli\\\\filler.mp4', 'robot_stimuli\\\\filler.mp4']",robot_stimuli\\filler.mp4,11,,,,,,,,,,,,,0,91,91,91,,,,,,,,,,,,,,,,,,,2967.5392143000004,2969.5929714000004,,,2978.4698766,2978.4698766,2978.4698766,2,1.7234298999998714,2980.2223865,2980.2223865,2980.2223865,2980.2223865,2980.2223865,2980.2223865,2980.2223865,2980.2223865,None,None,None,,,,,,,,,,2967.5392143000004,2967.5392143000004,None,,,2967.5392143000004,2967.5392143000004,2976.4544285,2978.4698766,11,001,2024-07-30_10h10.48.733,robot_cogshifting_sign,2022.2.5,60.08911215331698,
"['blue_top_N_0', 'blue_right_P_0', 'red_right_C_0', 'blue_right_M_45']","{'color': 'red_right_C_0', 'position': 'blue_top_N_0', 'orientation': 'blue_right_M_45'}",color,['color'],red_right_C_0,2,1,letter,4,False,False,"['robot_stimuli\\\\filler.mp4', 'robot_stimuli\\\\filler.mp4', 'robot_stimuli\\\\filler.mp4', 'robot_stimuli\\\\filler.mp4']",robot_stimuli\\filler.mp4,11,,,,,,,,,,,,,0,92,92,92,,,,,,,,,,,,,,,,,,,2980.2223865,2982.2786351,,,2991.1592862,2991.1592862,2991.1592862,3,0.44347109999961276,2991.6223631000003,2991.6223631000003,2991.6223631000003,2991.6223631000003,2991.6223631000003,2991.6223631000003,2991.6223631000003,2991.6223631000003,None,None,None,,,,,,,,,,2980.2223865,2980.2223865,None,,,2980.2223865,2980.2223865,2988.9413007000003,2991.1592862,11,001,2024-07-30_10h10.48.733,robot_cogshifting_sign,2022.2.5,60.08911215331698,
