sequence,is_true,target,condition,stimuli,block,is_block_beginning,is_block_ending,sequence_fnames,target_fname,subject,retraining.thisRepN,retraining.thisTrialN,retraining.thisN,retraining.thisIndex,training.thisRepN,training.thisTrialN,training.thisN,training.thisIndex,training_sequence_loop.thisRepN,training_sequence_loop.thisTrialN,training_sequence_loop.thisN,training_sequence_loop.thisIndex,trials.thisRepN,trials.thisTrialN,trials.thisN,trials.thisIndex,sequence_loop.thisRepN,sequence_loop.thisTrialN,sequence_loop.thisN,sequence_loop.thisIndex,langage_text.started,langage_key.started,langage_key.keys,langage_key.rt,intro_text.started,intro_key.started,intro_key.keys,intro_key.rt,training_intro_text.started,training_intro_key.started,training_intro_key.keys,training_intro_key.rt,polygon.started,polygon.stopped,training_presentation_letter.started,training_presentation_letter.stopped,training_recall_letter.started,training_recall_key.started,training_recall_question.started,training_recall_answer.started,training_recall_key.keys,training_recall_key.rt,RSME_labels.started,RSME_labels.stopped,RSME_ticks.started,RSME_ticks.stopped,RSME_text.started,RSME_text.stopped,RSME_key.started,RSME_key.stopped,RSME_ticks.response,RSME_ticks.rt,RSME_key.keys,training_intro_text.stopped,training_intro_key.stopped,RSME_key.rt,training_presentation_movie.started,training_recall_movie.started,experiment_beginning_text.started,experiment_beginning_keys.started,experiment_beginning_key.started,experiment_beginning_key.keys,experiment_beginning_key.rt,block_intro_text.started,block_intro_key.started,block_intro_key.keys,block_intro_key.rt,presentation_movie.started,recall_movie.started,recall_key.started,recall_question.started,recall_answer.started,recall_key.keys,recall_key.rt,block_intro_text.stopped,block_intro_key.stopped,presentation_letter.started,presentation_letter.stopped,recall_letter.started,participant,session,date,expName,psychopyVersion,frameRate,
,,,,,,,,,,,,,,,,,,,,,,,,,,,,,,,45.71949070000028,45.71949070000028,f,1.2598698000001605,,,,,,,,,,,,,,,,,,,,,,,,,,,,,,,,,,,,,,,,,,,,,,,,,,,,,,,,15,001,2024-07-10_16h03.32.439,robot_sternberg_sign,2022.2.5,59.989657783250706,
,,,,,,,,,,,,,,,,,,,,,,,,,,,,,,,,,,,47.036836799999946,47.036836799999946,space,189.51848390000123,,,,,,,,,,,,,,,,,,,,,,,,,,,,,,,,,,,,,,,,,,,,,,,,,,,,15,001,2024-07-10_16h03.32.439,robot_sternberg_sign,2022.2.5,59.989657783250706,
"['M', 'X']",True,X,2,letter,2,True,False,"['robot_stimuli\\\\filler.mp4', 'robot_stimuli\\\\filler.mp4']",robot_stimuli\\filler.mp4,15,0,0,0,0,0,0,0,0,,,,,,,,,,,,,,,,,,,,,236.59592939999948,236.59592939999948,space,2.8944483000004766,245.40888360000008,246.50483739999981,243.19424919999983,245.40888360000008,246.50483739999981,246.50483739999981,246.50483739999981,246.50483739999981,c,1.9061986000006073,248.6188919999995,248.6188919999995,248.6188919999995,248.6188919999995,248.6188919999995,248.6188919999995,248.6188919999995,248.6188919999995,None,None,None,,,,,,,,,,,,,,,,,,,,,,,,,,,15,001,2024-07-10_16h03.32.439,robot_sternberg_sign,2022.2.5,59.989657783250706,
"['M', 'N']",True,M,2,letter,2,False,False,"['robot_stimuli\\\\filler.mp4', 'robot_stimuli\\\\filler.mp4']",robot_stimuli\\filler.mp4,15,0,0,0,0,0,1,1,1,,,,,,,,,,,,,,,,,,,,,248.6188919999995,248.6188919999995,None,,254.02356239999972,255.0985338999999,251.80988929999967,254.02356239999972,255.0985338999999,255.0985338999999,255.0985338999999,255.0985338999999,c,1.1523005000008197,256.33054429999993,256.33054429999993,256.33054429999993,256.33054429999993,256.33054429999993,256.33054429999993,256.33054429999993,256.33054429999993,None,None,None,248.6188919999995,248.6188919999995,,,,,,,,,,,,,,,,,,,,,,,,,15,001,2024-07-10_16h03.32.439,robot_sternberg_sign,2022.2.5,59.989657783250706,
"['C', 'W']",False,N,2,letter,2,False,True,"['robot_stimuli\\\\filler.mp4', 'robot_stimuli\\\\filler.mp4']",robot_stimuli\\filler.mp4,15,0,0,0,0,0,2,2,2,,,,,,,,,,,,,,,,,,,,,256.33054429999993,256.33054429999993,None,,261.7359302999994,257.39990299999954,259.5238572999997,261.7359302999994,262.8156214999999,262.8156214999999,262.8156214999999,262.8156214999999,n,2.931137200000194,265.9013699999996,276.9478035000002,265.9013699999996,276.9478035000002,265.9013699999996,276.9478035000002,265.9013699999996,276.9478035000002,20.740740740740733,9.753170400000272,space,256.33054429999993,256.33054429999993,10.964836100000866,,,,,,,,,,,,,,,,,,,,,,,,15,001,2024-07-10_16h03.32.439,robot_sternberg_sign,2022.2.5,59.989657783250706,
"['F', 'M', 'P', 'H']",False,N,4,letter,2,True,False,"['robot_stimuli\\\\filler.mp4', 'robot_stimuli\\\\filler.mp4', 'robot_stimuli\\\\filler.mp4', 'robot_stimuli\\\\filler.mp4']",robot_stimuli\\filler.mp4,15,0,0,0,0,0,3,3,3,,,,,,,,,,,,,,,,,,,,,276.9478035000002,276.9478035000002,space,2.9667121000002226,289.725907,290.7963678999995,287.7096378999995,289.725907,290.7963678999995,290.7963678999995,290.7963678999995,290.7963678999995,n,1.285577400000875,292.2303370999998,292.2303370999998,292.2303370999998,292.2303370999998,292.2303370999998,292.2303370999998,292.2303370999998,292.2303370999998,None,None,None,,,,,,,,,,,,,,,,,,,,,,,,,,,15,001,2024-07-10_16h03.32.439,robot_sternberg_sign,2022.2.5,59.989657783250706,
"['M', 'X', 'B', 'J']",True,M,4,letter,2,False,False,"['robot_stimuli\\\\filler.mp4', 'robot_stimuli\\\\filler.mp4', 'robot_stimuli\\\\filler.mp4', 'robot_stimuli\\\\filler.mp4']",robot_stimuli\\filler.mp4,15,0,0,0,0,0,4,4,4,,,,,,,,,,,,,,,,,,,,,292.2303370999998,292.2303370999998,None,,301.82177630000024,302.89659740000025,299.7999583999999,301.82177630000024,302.89659740000025,302.89659740000025,302.89659740000025,302.89659740000025,c,1.010953700000755,304.1324562,304.1324562,304.1324562,304.1324562,304.1324562,304.1324562,304.1324562,304.1324562,None,None,None,292.2303370999998,292.2303370999998,,,,,,,,,,,,,,,,,,,,,,,,,15,001,2024-07-10_16h03.32.439,robot_sternberg_sign,2022.2.5,59.989657783250706,
"['J', 'C', 'X', 'K']",True,K,4,letter,2,False,True,"['robot_stimuli\\\\filler.mp4', 'robot_stimuli\\\\filler.mp4', 'robot_stimuli\\\\filler.mp4', 'robot_stimuli\\\\filler.mp4']",robot_stimuli\\filler.mp4,15,0,0,0,0,0,5,5,5,,,,,,,,,,,,,,,,,,,,,304.1324562,304.1324562,None,,313.9210985999998,314.9969788999997,311.70458599999984,313.9210985999998,314.9969788999997,314.9969788999997,314.9969788999997,314.9969788999997,c,1.173850200000743,316.2570012999995,322.64192319999984,316.2570012999995,322.64192319999984,316.2570012999995,322.64192319999984,316.2570012999995,322.64192319999984,19.814814814814813,4.853478799999721,space,304.1324562,304.1324562,6.313692400000036,,,,,,,,,,,,,,,,,,,,,,,,15,001,2024-07-10_16h03.32.439,robot_sternberg_sign,2022.2.5,59.989657783250706,
"['V', 'M', 'R', 'G', 'L', 'B']",True,M,6,letter,2,True,False,"['robot_stimuli\\\\filler.mp4', 'robot_stimuli\\\\filler.mp4', 'robot_stimuli\\\\filler.mp4', 'robot_stimuli\\\\filler.mp4', 'robot_stimuli\\\\filler.mp4', 'robot_stimuli\\\\filler.mp4']",robot_stimuli\\filler.mp4,15,0,0,0,0,0,6,6,6,,,,,,,,,,,,,,,,,,,,,322.64192319999984,322.64192319999984,space,3.368790600000466,340.03006689999984,341.09788169999956,338.0159746999998,340.03006689999984,341.09788169999956,341.09788169999956,341.09788169999956,341.09788169999956,c,1.1678567000008115,342.3224760000003,342.3224760000003,342.3224760000003,342.3224760000003,342.3224760000003,342.3224760000003,342.3224760000003,342.3224760000003,None,None,None,,,,,,,,,,,,,,,,,,,,,,,,,,,15,001,2024-07-10_16h03.32.439,robot_sternberg_sign,2022.2.5,59.989657783250706,
"['G', 'R', 'N', 'F', 'K', 'L']",False,S,6,letter,2,False,False,"['robot_stimuli\\\\filler.mp4', 'robot_stimuli\\\\filler.mp4', 'robot_stimuli\\\\filler.mp4', 'robot_stimuli\\\\filler.mp4', 'robot_stimuli\\\\filler.mp4', 'robot_stimuli\\\\filler.mp4']",robot_stimuli\\filler.mp4,15,0,0,0,0,0,7,7,7,,,,,,,,,,,,,,,,,,,,,342.3224760000003,342.3224760000003,None,,356.2928344000002,357.3623135000007,354.279306899999,356.2928344000002,357.3623135000007,357.3623135000007,357.3623135000007,357.3623135000007,n,0.8080057000006491,358.3897370000004,358.3897370000004,358.3897370000004,358.3897370000004,358.3897370000004,358.3897370000004,358.3897370000004,358.3897370000004,None,None,None,342.3224760000003,342.3224760000003,,,,,,,,,,,,,,,,,,,,,,,,,15,001,2024-07-10_16h03.32.439,robot_sternberg_sign,2022.2.5,59.989657783250706,
"['J', 'K', 'L', 'X', 'R', 'S']",True,L,6,letter,2,False,True,"['robot_stimuli\\\\filler.mp4', 'robot_stimuli\\\\filler.mp4', 'robot_stimuli\\\\filler.mp4', 'robot_stimuli\\\\filler.mp4', 'robot_stimuli\\\\filler.mp4', 'robot_stimuli\\\\filler.mp4']",robot_stimuli\\filler.mp4,15,0,0,0,0,0,8,8,8,,,,,,,,,,,,,,,,,,,,,358.3897370000004,358.3897370000004,None,,372.3488399000007,373.41006540000035,370.1351098999994,372.3488399000007,373.41006540000035,373.41006540000035,373.41006540000035,373.41006540000035,c,1.0723447000000306,374.6680045999992,379.4932732999996,374.6680045999992,379.4932732999996,374.6680045999992,379.4932732999996,374.6680045999992,379.4932732999996,20.740740740740733,3.580074699999386,space,358.3897370000004,358.3897370000004,4.781948400001056,,,,,,,,,,,,,,,,,,,,,,,,15,001,2024-07-10_16h03.32.439,robot_sternberg_sign,2022.2.5,59.989657783250706,
"['L_Base_Z_Back', 'L_Torso_Z_For']",True,L_Torso_Z_For,2,robot,1,True,False,"['robot_stimuli\\L_Base_Z_Back.mp4', 'robot_stimuli\\L_Torso_Z_For.mp4']",robot_stimuli\L_Torso_Z_For.mp4,15,0,0,0,0,0,9,9,9,,,,,,,,,,,,,,,,,,,,,379.4932732999996,379.4932732999996,space,2.348375400000805,390.32041519999893,391.41564709999966,,,,391.41564709999966,391.41564709999966,391.41564709999966,c,2.5300621000005776,395.06748179999977,395.06748179999977,395.06748179999977,395.06748179999977,395.06748179999977,395.06748179999977,395.06748179999977,395.06748179999977,None,None,None,,,,386.6893229999996,391.41564709999966,,,,,,,,,,,,,,,,,,,,,,15,001,2024-07-10_16h03.32.439,robot_sternberg_sign,2022.2.5,59.989657783250706,
"['L_Head_X_Back', 'L_Arm_Y_For']",False,L_Torso_X_For,2,robot,1,False,False,"['robot_stimuli\\L_Head_X_Back.mp4', 'robot_stimuli\\L_Arm_Y_For.mp4']",robot_stimuli\L_Torso_X_For.mp4,15,0,0,0,0,0,10,10,10,,,,,,,,,,,,,,,,,,,,,395.06748179999977,395.06748179999977,None,,403.5367918000002,404.6352735999999,,,,404.6352735999999,404.6352735999999,404.6352735999999,n,2.3273109999990993,408.27638709999974,408.27638709999974,408.27638709999974,408.27638709999974,408.27638709999974,408.27638709999974,408.27638709999974,408.27638709999974,None,None,None,395.06748179999977,395.06748179999977,,399.9082128,404.6352735999999,,,,,,,,,,,,,,,,,,,,,,15,001,2024-07-10_16h03.32.439,robot_sternberg_sign,2022.2.5,59.989657783250706,
"['R_Arm_Z_Back', 'L_Head_Z_Back']",True,R_Arm_Z_Back,2,robot,1,False,True,"['robot_stimuli\\R_Arm_Z_Back.mp4', 'robot_stimuli\\L_Head_Z_Back.mp4']",robot_stimuli\R_Arm_Z_Back.mp4,15,0,0,0,0,0,11,11,11,,,,,,,,,,,,,,,,,,,,,408.27638709999974,408.27638709999974,None,,416.7415147999991,417.8435393999998,,,,417.8435393999998,417.8435393999998,417.8435393999998,c,1.9359591000011278,421.51295819999996,427.6744200999992,421.51295819999996,427.6744200999992,421.51295819999996,427.6744200999992,421.51295819999996,427.6744200999992,23.209876543209877,4.855918600000223,space,408.27638709999974,408.27638709999974,6.120492300000478,413.1000264000004,417.8435393999998,,,,,,,,,,,,,,,,,,,,,,15,001,2024-07-10_16h03.32.439,robot_sternberg_sign,2022.2.5,59.989657783250706,
"['L_Base_X_For', 'R_Head_Y_Back', 'L_Arm_X_Back', 'L_Torso_Y_Back']",False,R_Head_X_For,4,robot,1,True,False,"['robot_stimuli\\L_Base_X_For.mp4', 'robot_stimuli\\R_Head_Y_Back.mp4', 'robot_stimuli\\L_Arm_X_Back.mp4', 'robot_stimuli\\L_Torso_Y_Back.mp4']",robot_stimuli\R_Head_X_For.mp4,15,0,0,0,0,0,12,12,12,,,,,,,,,,,,,,,,,,,,,427.6744200999992,427.6744200999992,space,1.5762069000011252,444.99982720000025,446.07975609999903,,,,446.07975609999903,446.07975609999903,446.07975609999903,n,1.9545856999993703,449.7301378000002,449.7301378000002,449.7301378000002,449.7301378000002,449.7301378000002,449.7301378000002,449.7301378000002,449.7301378000002,None,None,None,,,,441.50170419999904,446.07975609999903,,,,,,,,,,,,,,,,,,,,,,15,001,2024-07-10_16h03.32.439,robot_sternberg_sign,2022.2.5,59.989657783250706,
"['L_Head_Y_Back', 'R_Head_Z_For', 'L_Arm_Y_Back', 'R_Base_Y_For']",True,R_Base_Y_For,4,robot,1,False,False,"['robot_stimuli\\L_Head_Y_Back.mp4', 'robot_stimuli\\R_Head_Z_For.mp4', 'robot_stimuli\\L_Arm_Y_Back.mp4', 'robot_stimuli\\R_Base_Y_For.mp4']",robot_stimuli\R_Base_Y_For.mp4,15,0,0,0,0,0,13,13,13,,,,,,,,,,,,,,,,,,,,,449.7301378000002,449.7301378000002,None,,465.6331385000003,466.71638939999957,,,,466.71638939999957,466.71638939999957,466.71638939999957,c,2.237757099999726,470.36655209999935,470.36655209999935,470.36655209999935,470.36655209999935,470.36655209999935,470.36655209999935,470.36655209999935,470.36655209999935,None,None,None,449.7301378000002,449.7301378000002,,462.01022490000014,466.71638939999957,,,,,,,,,,,,,,,,,,,,,,15,001,2024-07-10_16h03.32.439,robot_sternberg_sign,2022.2.5,59.989657783250706,
"['L_Arm_X_Back', 'L_Arm_Y_For', 'L_Head_Y_For', 'L_Torso_Y_Back']",True,L_Head_Y_For,4,robot,1,False,True,"['robot_stimuli\\L_Arm_X_Back.mp4', 'robot_stimuli\\L_Arm_Y_For.mp4', 'robot_stimuli\\L_Head_Y_For.mp4', 'robot_stimuli\\L_Torso_Y_Back.mp4']",robot_stimuli\L_Head_Y_For.mp4,15,0,0,0,0,0,14,14,14,,,,,,,,,,,,,,,,,,,,,470.36655209999935,470.36655209999935,None,,486.0832443999998,487.16158389999964,,,,487.16158389999964,487.16158389999964,487.16158389999964,c,2.9365649000010308,490.82951409999896,496.77293539999937,490.82951409999896,496.77293539999937,490.82951409999896,496.77293539999937,490.82951409999896,496.77293539999937,34.78395061728394,4.731569400000808,space,470.36655209999935,470.36655209999935,5.900168900001518,482.5929224999991,487.16158389999964,,,,,,,,,,,,,,,,,,,,,,15,001,2024-07-10_16h03.32.439,robot_sternberg_sign,2022.2.5,59.989657783250706,
"['R_Torso_Y_For', 'L_Base_Y_Back', 'R_Torso_X_For', 'L_Base_Z_For', 'R_Arm_X_For', 'R_Base_Y_Back']",True,L_Base_Y_Back,6,robot,1,True,False,"['robot_stimuli\\R_Torso_Y_For.mp4', 'robot_stimuli\\L_Base_Y_Back.mp4', 'robot_stimuli\\R_Torso_X_For.mp4', 'robot_stimuli\\L_Base_Z_For.mp4', 'robot_stimuli\\R_Arm_X_For.mp4', 'robot_stimuli\\R_Base_Y_Back.mp4']",robot_stimuli\L_Base_Y_Back.mp4,15,0,0,0,0,0,15,15,15,,,,,,,,,,,,,,,,,,,,,496.77293539999937,496.77293539999937,space,3.678158799999437,523.7680262000003,501.5643449999998,,,,524.8620784000004,524.8620784000004,524.8620784000004,c,3.0365347000006295,528.4450470000002,528.4450470000002,528.4450470000002,528.4450470000002,528.4450470000002,528.4450470000002,528.4450470000002,528.4450470000002,None,None,None,,,,520.1368204,524.8620784000004,,,,,,,,,,,,,,,,,,,,,,15,001,2024-07-10_16h03.32.439,robot_sternberg_sign,2022.2.5,59.989657783250706,
"['L_Base_X_Back', 'L_Head_X_Back', 'R_Base_Y_For', 'L_Arm_Y_For', 'L_Head_Z_Back', 'L_Arm_Z_Back']",True,L_Arm_Z_Back,6,robot,1,False,False,"['robot_stimuli\\L_Base_X_Back.mp4', 'robot_stimuli\\L_Head_X_Back.mp4', 'robot_stimuli\\R_Base_Y_For.mp4', 'robot_stimuli\\L_Arm_Y_For.mp4', 'robot_stimuli\\L_Head_Z_Back.mp4', 'robot_stimuli\\L_Arm_Z_Back.mp4']",robot_stimuli\L_Arm_Z_Back.mp4,15,0,0,0,0,0,16,16,16,,,,,,,,,,,,,,,,,,,,,528.4450470000002,528.4450470000002,None,,551.7729740999994,552.8613737999995,,,,552.8613737999995,552.8613737999995,552.8613737999995,c,1.830012500000521,556.5100229999998,556.5100229999998,556.5100229999998,556.5100229999998,556.5100229999998,556.5100229999998,556.5100229999998,556.5100229999998,None,None,None,528.4450470000002,528.4450470000002,,548.1301393999993,552.8613737999995,,,,,,,,,,,,,,,,,,,,,,15,001,2024-07-10_16h03.32.439,robot_sternberg_sign,2022.2.5,59.989657783250706,
"['R_Head_X_For', 'L_Torso_Z_For', 'L_Head_X_For', 'R_Head_X_Back', 'R_Torso_Y_For', 'R_Arm_X_For']",False,L_Head_Z_Back,6,robot,1,False,True,"['robot_stimuli\\R_Head_X_For.mp4', 'robot_stimuli\\L_Torso_Z_For.mp4', 'robot_stimuli\\L_Head_X_For.mp4', 'robot_stimuli\\R_Head_X_Back.mp4', 'robot_stimuli\\R_Torso_Y_For.mp4', 'robot_stimuli\\R_Arm_X_For.mp4']",robot_stimuli\L_Head_Z_Back.mp4,15,0,0,0,0,0,17,17,17,,,,,,,,,,,,,,,,,,,,,556.5100229999998,556.5100229999998,None,,579.8040792000002,580.8969368999997,,,,580.8969368999997,580.8969368999997,580.8969368999997,c,3.329841700000543,584.5762848999993,589.4752806000006,584.5762848999993,589.4752806000006,584.5762848999993,589.4752806000006,584.5762848999993,589.4752806000006,41.882716049382715,3.8505667000008543,space,556.5100229999998,556.5100229999998,4.842275200000586,576.1616236,580.8969368999997,,,,,,,,,,,,,,,,,,,,,,15,001,2024-07-10_16h03.32.439,robot_sternberg_sign,2022.2.5,59.989657783250706,
,,,,,,,,,,,0,0,0,0,,,,,,,,,,,,,,,,,,,,,,,,,,,,,,,,,,,,,,,,,,,,,,,,,,,,,,,589.4752806000006,589.4752806000006,589.4752806000006,c,21.287375300002168,,,,,,,,,,,,,,,,,15,001,2024-07-10_16h03.32.439,robot_sternberg_sign,2022.2.5,59.989657783250706,
"['L_Head_Y_For', 'L_Base_Y_Back', 'R_Arm_Z_Back', 'L_Torso_Z_For']",True,L_Head_Y_For,4,robot,1,True,False,"['robot_stimuli\\L_Head_Y_For.mp4', 'robot_stimuli\\L_Base_Y_Back.mp4', 'robot_stimuli\\R_Arm_Z_Back.mp4', 'robot_stimuli\\L_Torso_Z_For.mp4']",robot_stimuli\L_Head_Y_For.mp4,15,,,,,,,,,,,,,0,0,0,0,,,,,,,,,,,,,,,,,629.5070521000007,630.6098775,,,,,,,,,634.2481794000005,634.2481794000005,634.2481794000005,634.2481794000005,634.2481794000005,634.2481794000005,634.2481794000005,634.2481794000005,None,None,None,,,,,,,,,,,610.7995686000004,610.7995686000004,space,2.8829937999998947,625.8709723999991,630.6098775,630.6098775,630.6098775,630.6098775,c,2.9199332000007416,,,,,,15,001,2024-07-10_16h03.32.439,robot_sternberg_sign,2022.2.5,59.989657783250706,
"['R_Head_X_Back', 'R_Torso_X_Back', 'L_Base_Z_For', 'R_Head_Y_For']",False,L_Arm_X_Back,4,robot,1,False,False,"['robot_stimuli\\R_Head_X_Back.mp4', 'robot_stimuli\\R_Torso_X_Back.mp4', 'robot_stimuli\\L_Base_Z_For.mp4', 'robot_stimuli\\R_Head_Y_For.mp4']",robot_stimuli\L_Arm_X_Back.mp4,15,,,,,,,,,,,,,0,1,1,1,,,,,,,,,,,,,,,,,650.1357488000003,635.3195939000007,,,,,,,,,655.8136105000003,655.8136105000003,655.8136105000003,655.8136105000003,655.8136105000003,655.8136105000003,655.8136105000003,655.8136105000003,None,None,None,,,,,,,,,,,634.2481794000005,634.2481794000005,None,,646.5003466999997,651.2430238999996,651.2430238999996,651.2430238999996,651.2430238999996,n,4.535616300001493,634.2481794000005,634.2481794000005,,,,15,001,2024-07-10_16h03.32.439,robot_sternberg_sign,2022.2.5,59.989657783250706,
"['R_Arm_X_Back', 'L_Head_Z_For', 'L_Arm_Y_Back', 'R_Base_Z_For']",True,R_Arm_X_Back,4,robot,1,False,False,"['robot_stimuli\\R_Arm_X_Back.mp4', 'robot_stimuli\\L_Head_Z_For.mp4', 'robot_stimuli\\L_Arm_Y_Back.mp4', 'robot_stimuli\\R_Base_Z_For.mp4']",robot_stimuli\R_Arm_X_Back.mp4,15,,,,,,,,,,,,,0,2,2,2,,,,,,,,,,,,,,,,,671.6999893999991,672.777690599999,,,,,,,,,676.4059489000001,676.4059489000001,676.4059489000001,676.4059489000001,676.4059489000001,676.4059489000001,676.4059489000001,676.4059489000001,None,None,None,,,,,,,,,,,655.8136105000003,655.8136105000003,None,,668.0662732999999,672.777690599999,672.777690599999,672.777690599999,672.777690599999,c,2.785227099999247,655.8136105000003,655.8136105000003,,,,15,001,2024-07-10_16h03.32.439,robot_sternberg_sign,2022.2.5,59.989657783250706,
"['L_Head_Y_For', 'L_Base_Y_Back', 'L_Head_Z_Back', 'R_Arm_X_For']",False,L_Head_Y_Back,4,robot,1,False,False,"['robot_stimuli\\L_Head_Y_For.mp4', 'robot_stimuli\\L_Base_Y_Back.mp4', 'robot_stimuli\\L_Head_Z_Back.mp4', 'robot_stimuli\\R_Arm_X_For.mp4']",robot_stimuli\L_Head_Y_Back.mp4,15,,,,,,,,,,,,,0,3,3,3,,,,,,,,,,,,,,,,,692.2378084999991,693.3300475000005,,,,,,,,,696.979032799999,696.979032799999,696.979032799999,696.979032799999,696.979032799999,696.979032799999,696.979032799999,696.979032799999,None,None,None,,,,,,,,,,,676.4059489000001,676.4059489000001,None,,688.6070988000001,693.3300475000005,693.3300475000005,693.3300475000005,693.3300475000005,c,2.7439243999997416,676.4059489000001,676.4059489000001,,,,15,001,2024-07-10_16h03.32.439,robot_sternberg_sign,2022.2.5,59.989657783250706,
"['L_Torso_Z_For', 'R_Base_Y_Back', 'L_Torso_Y_Back', 'L_Head_Y_For']",False,R_Head_Y_For,4,robot,1,False,False,"['robot_stimuli\\L_Torso_Z_For.mp4', 'robot_stimuli\\R_Base_Y_Back.mp4', 'robot_stimuli\\L_Torso_Y_Back.mp4', 'robot_stimuli\\L_Head_Y_For.mp4']",robot_stimuli\R_Head_Y_For.mp4,15,,,,,,,,,,,,,0,4,4,4,,,,,,,,,,,,,,,,,712.7370813000007,713.8282389000005,,,,,,,,,717.4778488999991,717.4778488999991,717.4778488999991,717.4778488999991,717.4778488999991,717.4778488999991,717.4778488999991,717.4778488999991,None,None,None,,,,,,,,,,,696.979032799999,696.979032799999,None,,709.0945108999995,713.8282389000005,713.8282389000005,713.8282389000005,713.8282389000005,n,1.6710136000001512,696.979032799999,696.979032799999,,,,15,001,2024-07-10_16h03.32.439,robot_sternberg_sign,2022.2.5,59.989657783250706,
"['L_Arm_Z_Back', 'L_Torso_X_For', 'R_Head_Y_Back', 'R_Torso_X_For']",True,L_Arm_Z_Back,4,robot,1,False,False,"['robot_stimuli\\L_Arm_Z_Back.mp4', 'robot_stimuli\\L_Torso_X_For.mp4', 'robot_stimuli\\R_Head_Y_Back.mp4', 'robot_stimuli\\R_Torso_X_For.mp4']",robot_stimuli\L_Arm_Z_Back.mp4,15,,,,,,,,,,,,,0,5,5,5,,,,,,,,,,,,,,,,,733.3734897999993,734.464004299999,,,,,,,,,738.1111572999989,738.1111572999989,738.1111572999989,738.1111572999989,738.1111572999989,738.1111572999989,738.1111572999989,738.1111572999989,None,None,None,,,,,,,,,,,717.4778488999991,717.4778488999991,None,,729.737989799999,734.464004299999,734.464004299999,734.464004299999,734.464004299999,n,1.9220829000005324,717.4778488999991,717.4778488999991,,,,15,001,2024-07-10_16h03.32.439,robot_sternberg_sign,2022.2.5,59.989657783250706,
"['L_Arm_X_For', 'L_Base_Y_For', 'R_Base_Y_For', 'R_Head_Y_Back']",True,L_Arm_X_For,4,robot,1,False,False,"['robot_stimuli\\L_Arm_X_For.mp4', 'robot_stimuli\\L_Base_Y_For.mp4', 'robot_stimuli\\R_Base_Y_For.mp4', 'robot_stimuli\\R_Head_Y_Back.mp4']",robot_stimuli\L_Arm_X_For.mp4,15,,,,,,,,,,,,,0,6,6,6,,,,,,,,,,,,,,,,,753.9071185000003,754.9932187999993,,,,,,,,,758.6455331000006,758.6455331000006,758.6455331000006,758.6455331000006,758.6455331000006,758.6455331000006,758.6455331000006,758.6455331000006,None,None,None,,,,,,,,,,,738.1111572999989,738.1111572999989,None,,750.2716979999996,754.9932187999993,754.9932187999993,754.9932187999993,754.9932187999993,c,2.9766378000022087,738.1111572999989,738.1111572999989,,,,15,001,2024-07-10_16h03.32.439,robot_sternberg_sign,2022.2.5,59.989657783250706,
"['L_Base_X_Back', 'R_Torso_X_Back', 'L_Arm_Z_For', 'L_Head_Z_For']",False,L_Arm_Y_Back,4,robot,1,False,False,"['robot_stimuli\\L_Base_X_Back.mp4', 'robot_stimuli\\R_Torso_X_Back.mp4', 'robot_stimuli\\L_Arm_Z_For.mp4', 'robot_stimuli\\L_Head_Z_For.mp4']",robot_stimuli\L_Arm_Y_Back.mp4,15,,,,,,,,,,,,,0,7,7,7,,,,,,,,,,,,,,,,,774.5060965999992,775.6031343000004,,,,,,,,,779.2418523000006,779.2418523000006,779.2418523000006,779.2418523000006,779.2418523000006,779.2418523000006,779.2418523000006,779.2418523000006,None,None,None,,,,,,,,,,,758.6455331000006,758.6455331000006,None,,770.8601012999998,775.6031343000004,775.6031343000004,775.6031343000004,775.6031343000004,n,2.5430280000000494,758.6455331000006,758.6455331000006,,,,15,001,2024-07-10_16h03.32.439,robot_sternberg_sign,2022.2.5,59.989657783250706,
"['R_Arm_Z_For', 'L_Head_Y_For', 'L_Base_Y_Back', 'R_Head_Y_Back']",True,L_Head_Y_For,4,robot,1,False,False,"['robot_stimuli\\R_Arm_Z_For.mp4', 'robot_stimuli\\L_Head_Y_For.mp4', 'robot_stimuli\\L_Base_Y_Back.mp4', 'robot_stimuli\\R_Head_Y_Back.mp4']",robot_stimuli\L_Head_Y_For.mp4,15,,,,,,,,,,,,,0,8,8,8,,,,,,,,,,,,,,,,,795.0694493000001,780.3212247999991,,,,,,,,,799.7996088999998,799.7996088999998,799.7996088999998,799.7996088999998,799.7996088999998,799.7996088999998,799.7996088999998,799.7996088999998,None,None,None,,,,,,,,,,,779.2418523000006,779.2418523000006,None,,791.4246943000007,796.1602426,796.1602426,796.1602426,796.1602426,c,2.097519300001295,779.2418523000006,779.2418523000006,,,,15,001,2024-07-10_16h03.32.439,robot_sternberg_sign,2022.2.5,59.989657783250706,
"['R_Torso_Y_Back', 'L_Head_X_For', 'L_Arm_Z_Back', 'R_Torso_X_For']",False,R_Arm_Y_Back,4,robot,1,False,True,"['robot_stimuli\\R_Torso_Y_Back.mp4', 'robot_stimuli\\L_Head_X_For.mp4', 'robot_stimuli\\L_Arm_Z_Back.mp4', 'robot_stimuli\\R_Torso_X_For.mp4']",robot_stimuli\R_Arm_Y_Back.mp4,15,,,,,,,,,,,,,0,9,9,9,,,,,,,,,,,,,,,,,815.6215485999992,816.7134407000003,,,,,,,,,820.398300599999,827.4810790999991,820.398300599999,827.4810790999991,820.398300599999,827.4810790999991,820.398300599999,827.4810790999991,31.234567901234563,5.039460199999667,space,,,7.027088100001492,,,,,,,,799.7996088999998,799.7996088999998,None,,811.9901089999994,816.7134407000003,816.7134407000003,816.7134407000003,816.7134407000003,n,2.9928171999999904,799.7996088999998,799.7996088999998,,,,15,001,2024-07-10_16h03.32.439,robot_sternberg_sign,2022.2.5,59.989657783250706,
"['L_Base_Z_For', 'R_Head_Z_Back', 'L_Torso_Z_Back', 'L_Head_Z_Back', 'R_Base_Z_For', 'R_Torso_X_Back']",True,R_Torso_X_Back,6,robot,1,True,False,"['robot_stimuli\\L_Base_Z_For.mp4', 'robot_stimuli\\R_Head_Z_Back.mp4', 'robot_stimuli\\L_Torso_Z_Back.mp4', 'robot_stimuli\\L_Head_Z_Back.mp4', 'robot_stimuli\\R_Base_Z_For.mp4', 'robot_stimuli\\R_Torso_X_Back.mp4']",robot_stimuli\R_Torso_X_Back.mp4,15,,,,,,,,,,,,,0,10,10,10,,,,,,,,,,,,,,,,,852.6227095000004,853.7125215000005,,,,,,,,,857.3630597000001,857.3630597000001,857.3630597000001,857.3630597000001,857.3630597000001,857.3630597000001,857.3630597000001,857.3630597000001,None,None,None,,,,,,,,,,,827.4810790999991,827.4810790999991,space,1.9138000000020838,848.9805291999992,853.7125215000005,853.7125215000005,853.7125215000005,853.7125215000005,c,2.0979707000005874,,,,,,15,001,2024-07-10_16h03.32.439,robot_sternberg_sign,2022.2.5,59.989657783250706,
"['R_Head_Z_Back', 'R_Torso_Y_For', 'R_Base_X_For', 'R_Head_Y_Back', 'L_Arm_Y_For', 'R_Arm_Z_For']",True,R_Torso_Y_For,6,robot,1,False,False,"['robot_stimuli\\R_Head_Z_Back.mp4', 'robot_stimuli\\R_Torso_Y_For.mp4', 'robot_stimuli\\R_Base_X_For.mp4', 'robot_stimuli\\R_Head_Y_Back.mp4', 'robot_stimuli\\L_Arm_Y_For.mp4', 'robot_stimuli\\R_Arm_Z_For.mp4']",robot_stimuli\R_Torso_Y_For.mp4,15,,,,,,,,,,,,,0,11,11,11,,,,,,,,,,,,,,,,,880.574654699999,881.669300999999,,,,,,,,,885.308202199999,885.308202199999,885.308202199999,885.308202199999,885.308202199999,885.308202199999,885.308202199999,885.308202199999,None,None,None,,,,,,,,,,,857.3630597000001,857.3630597000001,None,,876.9432865999997,881.669300999999,881.669300999999,881.669300999999,881.669300999999,n,3.421516900001734,857.3630597000001,857.3630597000001,,,,15,001,2024-07-10_16h03.32.439,robot_sternberg_sign,2022.2.5,59.989657783250706,
"['R_Arm_Z_Back', 'L_Arm_Y_For', 'R_Torso_Z_For', 'L_Torso_X_Back', 'R_Base_X_Back', 'R_Arm_Z_For']",False,L_Base_Y_For,6,robot,1,False,False,"['robot_stimuli\\R_Arm_Z_Back.mp4', 'robot_stimuli\\L_Arm_Y_For.mp4', 'robot_stimuli\\R_Torso_Z_For.mp4', 'robot_stimuli\\L_Torso_X_Back.mp4', 'robot_stimuli\\R_Base_X_Back.mp4', 'robot_stimuli\\R_Arm_Z_For.mp4']",robot_stimuli\L_Base_Y_For.mp4,15,,,,,,,,,,,,,0,12,12,12,,,,,,,,,,,,,,,,,908.6577471999999,909.7414488999993,,,,,,,,,916.8807745000004,916.8807745000004,916.8807745000004,916.8807745000004,916.8807745000004,916.8807745000004,916.8807745000004,916.8807745000004,None,None,None,,,,,,,,,,,885.308202199999,885.308202199999,None,,905.0271863999997,909.7414488999993,909.7414488999993,909.7414488999993,909.7414488999993,n,7.108597500000542,885.308202199999,885.308202199999,,,,15,001,2024-07-10_16h03.32.439,robot_sternberg_sign,2022.2.5,59.989657783250706,
"['L_Base_X_Back', 'R_Head_Y_Back', 'L_Arm_Z_Back', 'L_Torso_Z_For', 'L_Base_X_For', 'R_Arm_X_For']",False,L_Torso_Z_Back,6,robot,1,False,False,"['robot_stimuli\\L_Base_X_Back.mp4', 'robot_stimuli\\R_Head_Y_Back.mp4', 'robot_stimuli\\L_Arm_Z_Back.mp4', 'robot_stimuli\\L_Torso_Z_For.mp4', 'robot_stimuli\\L_Base_X_For.mp4', 'robot_stimuli\\R_Arm_X_For.mp4']",robot_stimuli\L_Torso_Z_Back.mp4,15,,,,,,,,,,,,,0,13,13,13,,,,,,,,,,,,,,,,,940.0897849999992,941.1766871999998,,,,,,,,,944.6950074999995,944.6950074999995,944.6950074999995,944.6950074999995,944.6950074999995,944.6950074999995,944.6950074999995,944.6950074999995,None,None,None,,,,,,,,,,,916.8807745000004,916.8807745000004,None,,936.4593457000001,941.1766871999998,941.1766871999998,941.1766871999998,941.1766871999998,c,2.6180149000010715,916.8807745000004,916.8807745000004,,,,15,001,2024-07-10_16h03.32.439,robot_sternberg_sign,2022.2.5,59.989657783250706,
"['L_Arm_Y_Back', 'R_Head_Y_Back', 'R_Base_Y_Back', 'L_Base_Y_Back', 'R_Head_Z_For', 'R_Base_Y_For']",True,R_Base_Y_For,6,robot,1,False,False,"['robot_stimuli\\L_Arm_Y_Back.mp4', 'robot_stimuli\\R_Head_Y_Back.mp4', 'robot_stimuli\\R_Base_Y_Back.mp4', 'robot_stimuli\\L_Base_Y_Back.mp4', 'robot_stimuli\\R_Head_Z_For.mp4', 'robot_stimuli\\R_Base_Y_For.mp4']",robot_stimuli\R_Base_Y_For.mp4,15,,,,,,,,,,,,,0,14,14,14,,,,,,,,,,,,,,,,,967.9834906999995,969.0610442000007,,,,,,,,,972.6999396000001,972.6999396000001,972.6999396000001,972.6999396000001,972.6999396000001,972.6999396000001,972.6999396000001,972.6999396000001,None,None,None,,,,,,,,,,,944.6950074999995,944.6950074999995,None,,964.3603627000002,969.0610442000007,969.0610442000007,969.0610442000007,969.0610442000007,c,2.260792200000651,944.6950074999995,944.6950074999995,,,,15,001,2024-07-10_16h03.32.439,robot_sternberg_sign,2022.2.5,59.989657783250706,
"['L_Torso_Y_Back', 'L_Torso_Z_Back', 'R_Base_Y_Back', 'R_Torso_Y_Back', 'L_Head_X_For', 'L_Arm_Z_Back']",False,R_Base_Z_Back,6,robot,1,False,False,"['robot_stimuli\\L_Torso_Y_Back.mp4', 'robot_stimuli\\L_Torso_Z_Back.mp4', 'robot_stimuli\\R_Base_Y_Back.mp4', 'robot_stimuli\\R_Torso_Y_Back.mp4', 'robot_stimuli\\L_Head_X_For.mp4', 'robot_stimuli\\L_Arm_Z_Back.mp4']",robot_stimuli\R_Base_Z_Back.mp4,15,,,,,,,,,,,,,0,15,15,15,,,,,,,,,,,,,,,,,995.685575999999,973.7754353999999,,,,,,,,,1000.6974013999998,1000.6974013999998,1000.6974013999998,1000.6974013999998,1000.6974013999998,1000.6974013999998,1000.6974013999998,1000.6974013999998,None,None,None,,,,,,,,,,,972.6999396000001,972.6999396000001,None,,992.0411654999998,996.7772405999995,996.7772405999995,996.7772405999995,996.7772405999995,c,3.8807778999998845,972.6999396000001,972.6999396000001,,,,15,001,2024-07-10_16h03.32.439,robot_sternberg_sign,2022.2.5,59.989657783250706,
"['L_Base_Y_For', 'R_Head_Y_For', 'L_Arm_X_For', 'L_Torso_Z_For', 'L_Head_Y_Back', 'L_Head_Z_For']",False,R_Base_Y_Back,6,robot,1,False,False,"['robot_stimuli\\L_Base_Y_For.mp4', 'robot_stimuli\\R_Head_Y_For.mp4', 'robot_stimuli\\L_Arm_X_For.mp4', 'robot_stimuli\\L_Torso_Z_For.mp4', 'robot_stimuli\\L_Head_Y_Back.mp4', 'robot_stimuli\\L_Head_Z_For.mp4']",robot_stimuli\R_Base_Y_Back.mp4,15,,,,,,,,,,,,,0,16,16,16,,,,,,,,,,,,,,,,,1023.9169052000007,1024.9976878999996,,,,,,,,,1029.5485940999997,1029.5485940999997,1029.5485940999997,1029.5485940999997,1029.5485940999997,1029.5485940999997,1029.5485940999997,1029.5485940999997,None,None,None,,,,,,,,,,,1000.6974013999998,1000.6974013999998,None,,1020.283848099999,1024.9976878999996,1024.9976878999996,1024.9976878999996,1024.9976878999996,n,4.507672100000491,1000.6974013999998,1000.6974013999998,,,,15,001,2024-07-10_16h03.32.439,robot_sternberg_sign,2022.2.5,59.989657783250706,
"['R_Base_Y_Back', 'R_Head_X_For', 'L_Head_Y_Back', 'R_Arm_Z_For', 'R_Head_Z_Back', 'R_Base_X_For']",False,L_Base_X_Back,6,robot,1,False,False,"['robot_stimuli\\R_Base_Y_Back.mp4', 'robot_stimuli\\R_Head_X_For.mp4', 'robot_stimuli\\L_Head_Y_Back.mp4', 'robot_stimuli\\R_Arm_Z_For.mp4', 'robot_stimuli\\R_Head_Z_Back.mp4', 'robot_stimuli\\R_Base_X_For.mp4']",robot_stimuli\L_Base_X_Back.mp4,15,,,,,,,,,,,,,0,17,17,17,,,,,,,,,,,,,,,,,1052.7907583000006,1053.8785307000007,,,,,,,,,1057.6615379000004,1057.6615379000004,1057.6615379000004,1057.6615379000004,1057.6615379000004,1057.6615379000004,1057.6615379000004,1057.6615379000004,None,None,None,,,,,,,,,,,1029.5485940999997,1029.5485940999997,None,,1049.2591569999995,1053.8785307000007,1053.8785307000007,1053.8785307000007,1053.8785307000007,n,3.755537800001548,1029.5485940999997,1029.5485940999997,,,,15,001,2024-07-10_16h03.32.439,robot_sternberg_sign,2022.2.5,59.989657783250706,
"['R_Torso_Z_For', 'R_Arm_X_Back', 'L_Base_X_For', 'L_Arm_Z_For', 'R_Head_X_Back', 'L_Base_Z_For']",True,R_Arm_X_Back,6,robot,1,False,False,"['robot_stimuli\\R_Torso_Z_For.mp4', 'robot_stimuli\\R_Arm_X_Back.mp4', 'robot_stimuli\\L_Base_X_For.mp4', 'robot_stimuli\\L_Arm_Z_For.mp4', 'robot_stimuli\\R_Head_X_Back.mp4', 'robot_stimuli\\L_Base_Z_For.mp4']",robot_stimuli\R_Arm_X_Back.mp4,15,,,,,,,,,,,,,0,18,18,18,,,,,,,,,,,,,,,,,1080.9567940999996,1082.0437530999998,,,,,,,,,1085.683651799999,1085.683651799999,1085.683651799999,1085.683651799999,1085.683651799999,1085.683651799999,1085.683651799999,1085.683651799999,None,None,None,,,,,,,,,,,1057.6615379000004,1057.6615379000004,None,,1077.3131189999995,1082.0437530999998,1082.0437530999998,1082.0437530999998,1082.0437530999998,n,3.3186686000008194,1057.6615379000004,1057.6615379000004,,,,15,001,2024-07-10_16h03.32.439,robot_sternberg_sign,2022.2.5,59.989657783250706,
"['R_Base_Z_For', 'R_Torso_Z_Back', 'L_Arm_Z_Back', 'R_Base_X_For', 'L_Arm_Y_For', 'R_Arm_Z_Back']",True,L_Arm_Z_Back,6,robot,1,False,True,"['robot_stimuli\\R_Base_Z_For.mp4', 'robot_stimuli\\R_Torso_Z_Back.mp4', 'robot_stimuli\\L_Arm_Z_Back.mp4', 'robot_stimuli\\R_Base_X_For.mp4', 'robot_stimuli\\L_Arm_Y_For.mp4', 'robot_stimuli\\R_Arm_Z_Back.mp4']",robot_stimuli\L_Arm_Z_Back.mp4,15,,,,,,,,,,,,,0,19,19,19,,,,,,,,,,,,,,,,,1108.9182621999998,1086.757636899999,,,,,,,,,1113.6753084000002,1118.603736,1113.6753084000002,1118.603736,1113.6753084000002,1118.603736,1113.6753084000002,1118.603736,45.586419753086425,3.921758200000113,space,,,4.878014599999005,,,,,,,,1085.683651799999,1085.683651799999,None,,1105.2888013000002,1110.0117543999995,1110.0117543999995,1110.0117543999995,1110.0117543999995,c,2.1741032000009,1085.683651799999,1085.683651799999,,,,15,001,2024-07-10_16h03.32.439,robot_sternberg_sign,2022.2.5,59.989657783250706,
"['L_Arm_Y_Back', 'R_Base_Y_For']",False,L_Base_X_Back,2,robot,1,True,False,"['robot_stimuli\\L_Arm_Y_Back.mp4', 'robot_stimuli\\R_Base_Y_For.mp4']",robot_stimuli\L_Base_X_Back.mp4,15,,,,,,,,,,,,,0,20,20,20,,,,,,,,,,,,,,,,,1129.0865626999994,1121.7263733999998,,,,,,,,,1133.7831300000007,1133.7831300000007,1133.7831300000007,1133.7831300000007,1133.7831300000007,1133.7831300000007,1133.7831300000007,1133.7831300000007,None,None,None,,,,,,,,,,,1118.603736,1118.603736,space,2.02265190000071,1125.4459197000006,1130.1782197000002,1130.1782197000002,1130.1782197000002,1130.1782197000002,n,1.752088699999149,,,,,,15,001,2024-07-10_16h03.32.439,robot_sternberg_sign,2022.2.5,59.989657783250706,
"['L_Head_X_For', 'L_Base_Y_For']",True,L_Head_X_For,2,robot,1,False,False,"['robot_stimuli\\L_Head_X_For.mp4', 'robot_stimuli\\L_Base_Y_For.mp4']",robot_stimuli\L_Head_X_For.mp4,15,,,,,,,,,,,,,0,21,21,21,,,,,,,,,,,,,,,,,1142.0335475000002,1143.1124296999997,,,,,,,,,1146.6942613,1146.6942613,1146.6942613,1146.6942613,1146.6942613,1146.6942613,1146.6942613,1146.6942613,None,None,None,,,,,,,,,,,1133.7831300000007,1133.7831300000007,None,,1138.5157551000002,1143.1124296999997,1143.1124296999997,1143.1124296999997,1143.1124296999997,c,1.7141844000016135,1133.7831300000007,1133.7831300000007,,,,15,001,2024-07-10_16h03.32.439,robot_sternberg_sign,2022.2.5,59.989657783250706,
"['R_Head_Y_Back', 'L_Base_X_Back']",False,R_Arm_Y_For,2,robot,1,False,False,"['robot_stimuli\\R_Head_Y_Back.mp4', 'robot_stimuli\\L_Base_X_Back.mp4']",robot_stimuli\R_Arm_Y_For.mp4,15,,,,,,,,,,,,,0,22,22,22,,,,,,,,,,,,,,,,,1155.1036792999994,1156.1989817000003,,,,,,,,,1159.7148834999998,1159.7148834999998,1159.7148834999998,1159.7148834999998,1159.7148834999998,1159.7148834999998,1159.7148834999998,1159.7148834999998,None,None,None,,,,,,,,,,,1146.6942613,1146.6942613,None,,1151.4980399000005,1156.1989817000003,1156.1989817000003,1156.1989817000003,1156.1989817000003,n,2.011578700001337,1146.6942613,1146.6942613,,,,15,001,2024-07-10_16h03.32.439,robot_sternberg_sign,2022.2.5,59.989657783250706,
"['L_Head_Z_For', 'R_Arm_Y_Back']",False,R_Base_X_Back,2,robot,1,False,False,"['robot_stimuli\\L_Head_Z_For.mp4', 'robot_stimuli\\R_Arm_Y_Back.mp4']",robot_stimuli\R_Base_X_Back.mp4,15,,,,,,,,,,,,,0,23,23,23,,,,,,,,,,,,,,,,,1168.1524051999995,1160.7910177000003,,,,,,,,,1172.8825559000006,1172.8825559000006,1172.8825559000006,1172.8825559000006,1172.8825559000006,1172.8825559000006,1172.8825559000006,1172.8825559000006,None,None,None,,,,,,,,,,,1159.7148834999998,1159.7148834999998,None,,1164.518145699999,1169.2454257,1169.2454257,1169.2454257,1169.2454257,n,1.8595867000003636,1159.7148834999998,1159.7148834999998,,,,15,001,2024-07-10_16h03.32.439,robot_sternberg_sign,2022.2.5,59.989657783250706,
"['R_Torso_Y_Back', 'L_Base_X_Back']",True,L_Base_X_Back,2,robot,1,False,False,"['robot_stimuli\\R_Torso_Y_Back.mp4', 'robot_stimuli\\L_Base_X_Back.mp4']",robot_stimuli\L_Base_X_Back.mp4,15,,,,,,,,,,,,,0,24,24,24,,,,,,,,,,,,,,,,,1181.2902746999998,1182.3890851999995,,,,,,,,,1186.0005639,1186.0005639,1186.0005639,1186.0005639,1186.0005639,1186.0005639,1186.0005639,1186.0005639,None,None,None,,,,,,,,,,,1172.8825559000006,1172.8825559000006,None,,1177.6798207000002,1182.3890851999995,1182.3890851999995,1182.3890851999995,1182.3890851999995,c,2.437350399999559,1172.8825559000006,1172.8825559000006,,,,15,001,2024-07-10_16h03.32.439,robot_sternberg_sign,2022.2.5,59.989657783250706,
"['R_Head_X_Back', 'L_Torso_Z_Back']",True,L_Torso_Z_Back,2,robot,1,False,False,"['robot_stimuli\\R_Head_X_Back.mp4', 'robot_stimuli\\L_Torso_Z_Back.mp4']",robot_stimuli\L_Torso_Z_Back.mp4,15,,,,,,,,,,,,,0,25,25,25,,,,,,,,,,,,,,,,,1194.3064251000005,1195.3945498999992,,,,,,,,,1198.8910864,1198.8910864,1198.8910864,1198.8910864,1198.8910864,1198.8910864,1198.8910864,1198.8910864,None,None,None,,,,,,,,,,,1186.0005639,1186.0005639,None,,1190.8075364999995,1195.3945498999992,1195.3945498999992,1195.3945498999992,1195.3945498999992,c,2.0483825000010256,1186.0005639,1186.0005639,,,,15,001,2024-07-10_16h03.32.439,robot_sternberg_sign,2022.2.5,59.989657783250706,
"['R_Base_Z_Back', 'L_Base_X_For']",True,R_Base_Z_Back,2,robot,1,False,False,"['robot_stimuli\\R_Base_Z_Back.mp4', 'robot_stimuli\\L_Base_X_For.mp4']",robot_stimuli\R_Base_Z_Back.mp4,15,,,,,,,,,,,,,0,26,26,26,,,,,,,,,,,,,,,,,1207.1732516000002,1208.2609118999999,,,,,,,,,1211.7916728999999,1211.7916728999999,1211.7916728999999,1211.7916728999999,1211.7916728999999,1211.7916728999999,1211.7916728999999,1211.7916728999999,None,None,None,,,,,,,,,,,1198.8910864,1198.8910864,None,,1203.5998731999998,1208.2609118999999,1208.2609118999999,1208.2609118999999,1208.2609118999999,c,2.437211500000558,1198.8910864,1198.8910864,,,,15,001,2024-07-10_16h03.32.439,robot_sternberg_sign,2022.2.5,59.989657783250706,
"['R_Arm_Z_For', 'R_Torso_Z_For']",True,R_Arm_Z_For,2,robot,1,False,False,"['robot_stimuli\\R_Arm_Z_For.mp4', 'robot_stimuli\\R_Torso_Z_For.mp4']",robot_stimuli\R_Arm_Z_For.mp4,15,,,,,,,,,,,,,0,27,27,27,,,,,,,,,,,,,,,,,1220.2336747,1221.3115487000005,,,,,,,,,1224.948072799999,1224.948072799999,1224.948072799999,1224.948072799999,1224.948072799999,1224.948072799999,1224.948072799999,1224.948072799999,None,None,None,,,,,,,,,,,1211.7916728999999,1211.7916728999999,None,,1216.6032031999994,1221.3115487000005,1221.3115487000005,1221.3115487000005,1221.3115487000005,c,3.107331700000941,1211.7916728999999,1211.7916728999999,,,,15,001,2024-07-10_16h03.32.439,robot_sternberg_sign,2022.2.5,59.989657783250706,
"['L_Torso_Z_Back', 'L_Arm_Y_For']",False,R_Torso_X_For,2,robot,1,False,False,"['robot_stimuli\\L_Torso_Z_Back.mp4', 'robot_stimuli\\L_Arm_Y_For.mp4']",robot_stimuli\R_Torso_X_For.mp4,15,,,,,,,,,,,,,0,28,28,28,,,,,,,,,,,,,,,,,1233.2527084000003,1226.0215159999998,,,,,,,,,1237.9732092000004,1237.9732092000004,1237.9732092000004,1237.9732092000004,1237.9732092000004,1237.9732092000004,1237.9732092000004,1237.9732092000004,None,None,None,,,,,,,,,,,1224.948072799999,1224.948072799999,None,,1229.622706699999,1234.3414748000005,1234.3414748000005,1234.3414748000005,1234.3414748000005,n,2.531750900001498,1224.948072799999,1224.948072799999,,,,15,001,2024-07-10_16h03.32.439,robot_sternberg_sign,2022.2.5,59.989657783250706,
"['R_Torso_Z_Back', 'L_Torso_X_For']",False,R_Arm_X_Back,2,robot,1,False,True,"['robot_stimuli\\R_Torso_Z_Back.mp4', 'robot_stimuli\\L_Torso_X_For.mp4']",robot_stimuli\R_Arm_X_Back.mp4,15,,,,,,,,,,,,,0,29,29,29,,,,,,,,,,,,,,,,,1246.4249434999992,1247.5105419000001,,,,,,,,,1251.1724000999993,1254.9665218,1251.1724000999993,1254.9665218,1251.1724000999993,1254.9665218,1251.1724000999993,1254.9665218,26.759259259259256,2.9155635999995866,space,,,3.725152100001651,,,,,,,,1237.9732092000004,1237.9732092000004,None,,1242.7947539000006,1247.5105419000001,1247.5105419000001,1247.5105419000001,1247.5105419000001,n,1.7956718000004912,1237.9732092000004,1237.9732092000004,,,,15,001,2024-07-10_16h03.32.439,robot_sternberg_sign,2022.2.5,59.989657783250706,
"['P', 'R', 'F', 'B', 'M', 'C']",False,Z,6,letter,2,True,False,"['robot_stimuli\\\\filler.mp4', 'robot_stimuli\\\\filler.mp4', 'robot_stimuli\\\\filler.mp4', 'robot_stimuli\\\\filler.mp4', 'robot_stimuli\\\\filler.mp4', 'robot_stimuli\\\\filler.mp4']",robot_stimuli\\filler.mp4,15,,,,,,,,,,,,,0,30,30,30,,,,,,,,,,,,,,,,,1270.8323532999993,1271.8911644999998,,,,,,,,,1273.3148947,1273.3148947,1273.3148947,1273.3148947,1273.3148947,1273.3148947,1273.3148947,1273.3148947,None,None,None,,,,,,,,,,,1254.9665218,1254.9665218,space,1.356158400001732,,,1271.8911644999998,1271.8911644999998,1271.8911644999998,n,1.2394667999997182,,,1268.6190443999994,1270.8323532999993,1271.8911644999998,15,001,2024-07-10_16h03.32.439,robot_sternberg_sign,2022.2.5,59.989657783250706,
"['L', 'V', 'M', 'F', 'S', 'H']",True,F,6,letter,2,False,False,"['robot_stimuli\\\\filler.mp4', 'robot_stimuli\\\\filler.mp4', 'robot_stimuli\\\\filler.mp4', 'robot_stimuli\\\\filler.mp4', 'robot_stimuli\\\\filler.mp4', 'robot_stimuli\\\\filler.mp4']",robot_stimuli\\filler.mp4,15,,,,,,,,,,,,,0,31,31,31,,,,,,,,,,,,,,,,,1286.831943099999,1287.8880825000006,,,,,,,,,1289.3120217999995,1289.3120217999995,1289.3120217999995,1289.3120217999995,1289.3120217999995,1289.3120217999995,1289.3120217999995,1289.3120217999995,None,None,None,,,,,,,,,,,1273.3148947,1273.3148947,None,,,,1287.8880825000006,1287.8880825000006,1287.8880825000006,c,1.3781069000015123,1273.3148947,1273.3148947,1284.8115066,1286.831943099999,1287.8880825000006,15,001,2024-07-10_16h03.32.439,robot_sternberg_sign,2022.2.5,59.989657783250706,
"['T', 'M', 'V', 'G', 'K', 'W']",False,D,6,letter,2,False,False,"['robot_stimuli\\\\filler.mp4', 'robot_stimuli\\\\filler.mp4', 'robot_stimuli\\\\filler.mp4', 'robot_stimuli\\\\filler.mp4', 'robot_stimuli\\\\filler.mp4', 'robot_stimuli\\\\filler.mp4']",robot_stimuli\\filler.mp4,15,,,,,,,,,,,,,0,32,32,32,,,,,,,,,,,,,,,,,1303.4169697999996,1304.4737386000006,,,,,,,,,1306.7050009999994,1306.7050009999994,1306.7050009999994,1306.7050009999994,1306.7050009999994,1306.7050009999994,1306.7050009999994,1306.7050009999994,None,None,None,,,,,,,,,,,1289.3120217999995,1289.3120217999995,None,,,,1304.4737386000006,1304.4737386000006,1304.4737386000006,n,2.0952386999997543,1289.3120217999995,1289.3120217999995,1301.2137348000006,1303.4169697999996,1304.4737386000006,15,001,2024-07-10_16h03.32.439,robot_sternberg_sign,2022.2.5,59.989657783250706,
"['D', 'C', 'F', 'L', 'V', 'Z']",True,C,6,letter,2,False,False,"['robot_stimuli\\\\filler.mp4', 'robot_stimuli\\\\filler.mp4', 'robot_stimuli\\\\filler.mp4', 'robot_stimuli\\\\filler.mp4', 'robot_stimuli\\\\filler.mp4', 'robot_stimuli\\\\filler.mp4']",robot_stimuli\\filler.mp4,15,,,,,,,,,,,,,0,33,33,33,,,,,,,,,,,,,,,,,1321.0168905,1322.0724265,,,,,,,,,1323.4940792000007,1323.4940792000007,1323.4940792000007,1323.4940792000007,1323.4940792000007,1323.4940792000007,1323.4940792000007,1323.4940792000007,None,None,None,,,,,,,,,,,1306.7050009999994,1306.7050009999994,None,,,,1322.0724265,1322.0724265,1322.0724265,c,1.3059387000012066,1306.7050009999994,1306.7050009999994,1318.8033511999993,1321.0168905,1322.0724265,15,001,2024-07-10_16h03.32.439,robot_sternberg_sign,2022.2.5,59.989657783250706,
"['S', 'C', 'J', 'Z', 'F', 'G']",True,Z,6,letter,2,False,False,"['robot_stimuli\\\\filler.mp4', 'robot_stimuli\\\\filler.mp4', 'robot_stimuli\\\\filler.mp4', 'robot_stimuli\\\\filler.mp4', 'robot_stimuli\\\\filler.mp4', 'robot_stimuli\\\\filler.mp4']",robot_stimuli\\filler.mp4,15,,,,,,,,,,,,,0,34,34,34,,,,,,,,,,,,,,,,,1337.2256420999993,1338.2873033000005,,,,,,,,,1339.5092914000006,1339.5092914000006,1339.5092914000006,1339.5092914000006,1339.5092914000006,1339.5092914000006,1339.5092914000006,1339.5092914000006,None,None,None,,,,,,,,,,,1323.4940792000007,1323.4940792000007,None,,,,1338.2873033000005,1338.2873033000005,1338.2873033000005,c,1.0356988000003184,1323.4940792000007,1323.4940792000007,1335.205361899999,1337.2256420999993,1338.2873033000005,15,001,2024-07-10_16h03.32.439,robot_sternberg_sign,2022.2.5,59.989657783250706,
"['Q', 'M', 'H', 'S', 'D', 'G']",False,T,6,letter,2,False,False,"['robot_stimuli\\\\filler.mp4', 'robot_stimuli\\\\filler.mp4', 'robot_stimuli\\\\filler.mp4', 'robot_stimuli\\\\filler.mp4', 'robot_stimuli\\\\filler.mp4', 'robot_stimuli\\\\filler.mp4']",robot_stimuli\\filler.mp4,15,,,,,,,,,,,,,0,35,35,35,,,,,,,,,,,,,,,,,1353.4141288,1354.4708652,,,,,,,,,1355.4972489000002,1355.4972489000002,1355.4972489000002,1355.4972489000002,1355.4972489000002,1355.4972489000002,1355.4972489000002,1355.4972489000002,None,None,None,,,,,,,,,,,1339.5092914000006,1339.5092914000006,None,,,,1354.4708652,1354.4708652,1354.4708652,n,0.8192658999996638,1339.5092914000006,1339.5092914000006,1351.3979200999993,1353.4141288,1354.4708652,15,001,2024-07-10_16h03.32.439,robot_sternberg_sign,2022.2.5,59.989657783250706,
"['G', 'T', 'P', 'B', 'C', 'H']",False,S,6,letter,2,False,False,"['robot_stimuli\\\\filler.mp4', 'robot_stimuli\\\\filler.mp4', 'robot_stimuli\\\\filler.mp4', 'robot_stimuli\\\\filler.mp4', 'robot_stimuli\\\\filler.mp4', 'robot_stimuli\\\\filler.mp4']",robot_stimuli\\filler.mp4,15,,,,,,,,,,,,,0,36,36,36,,,,,,,,,,,,,,,,,1370.1813534999992,1371.2426451000001,,,,,,,,,1373.6637201000003,1373.6637201000003,1373.6637201000003,1373.6637201000003,1373.6637201000003,1373.6637201000003,1373.6637201000003,1373.6637201000003,None,None,None,,,,,,,,,,,1355.4972489000002,1355.4972489000002,None,,,,1371.2426451000001,1371.2426451000001,1371.2426451000001,n,2.3524730000008276,1355.4972489000002,1355.4972489000002,1367.971190199999,1370.1813534999992,1371.2426451000001,15,001,2024-07-10_16h03.32.439,robot_sternberg_sign,2022.2.5,59.989657783250706,
"['S', 'R', 'W', 'F', 'M', 'V']",False,C,6,letter,2,False,False,"['robot_stimuli\\\\filler.mp4', 'robot_stimuli\\\\filler.mp4', 'robot_stimuli\\\\filler.mp4', 'robot_stimuli\\\\filler.mp4', 'robot_stimuli\\\\filler.mp4', 'robot_stimuli\\\\filler.mp4']",robot_stimuli\\filler.mp4,15,,,,,,,,,,,,,0,37,37,37,,,,,,,,,,,,,,,,,1387.7663473000002,1388.8212362000004,,,,,,,,,1390.2521602000006,1390.2521602000006,1390.2521602000006,1390.2521602000006,1390.2521602000006,1390.2521602000006,1390.2521602000006,1390.2521602000006,None,None,None,,,,,,,,,,,1373.6637201000003,1373.6637201000003,None,,,,1388.8212362000004,1388.8212362000004,1388.8212362000004,n,1.2771556999996392,1373.6637201000003,1373.6637201000003,1385.5548339999996,1387.7663473000002,1388.8212362000004,15,001,2024-07-10_16h03.32.439,robot_sternberg_sign,2022.2.5,59.989657783250706,
"['Q', 'G', 'N', 'D', 'X', 'K']",True,D,6,letter,2,False,False,"['robot_stimuli\\\\filler.mp4', 'robot_stimuli\\\\filler.mp4', 'robot_stimuli\\\\filler.mp4', 'robot_stimuli\\\\filler.mp4', 'robot_stimuli\\\\filler.mp4', 'robot_stimuli\\\\filler.mp4']",robot_stimuli\\filler.mp4,15,,,,,,,,,,,,,0,38,38,38,,,,,,,,,,,,,,,,,1404.1696867,,,,,,,,,,1406.4664820000007,1406.4664820000007,1406.4664820000007,1406.4664820000007,1406.4664820000007,1406.4664820000007,1406.4664820000007,1406.4664820000007,None,None,None,,,,,,,,,,,1390.2521602000006,1390.2521602000006,None,,,,1405.2417355999996,1405.2417355999996,1405.2417355999996,c,1.1607119000000239,1390.2521602000006,1390.2521602000006,1402.148463999999,1404.1696867,1405.2417355999996,15,001,2024-07-10_16h03.32.439,robot_sternberg_sign,2022.2.5,59.989657783250706,
"['Q', 'V', 'X', 'H', 'D', 'Z']",True,H,6,letter,2,False,True,"['robot_stimuli\\\\filler.mp4', 'robot_stimuli\\\\filler.mp4', 'robot_stimuli\\\\filler.mp4', 'robot_stimuli\\\\filler.mp4', 'robot_stimuli\\\\filler.mp4', 'robot_stimuli\\\\filler.mp4']",robot_stimuli\\filler.mp4,15,,,,,,,,,,,,,0,39,39,39,,,,,,,,,,,,,,,,,1420.5920971000005,1421.658669899999,,,,,,,,,1422.5211726999996,1431.499752499999,1422.5211726999996,1431.499752499999,1422.5211726999996,1431.499752499999,1422.5211726999996,1431.499752499999,56.080246913580254,5.011616899999353,space,,,8.912578400000712,,,,,,,,1406.4664820000007,1406.4664820000007,None,,,,1421.658669899999,1421.658669899999,1421.658669899999,c,0.7594112000006135,1406.4664820000007,1406.4664820000007,1418.5737591999996,1420.5920971000005,1421.658669899999,15,001,2024-07-10_16h03.32.439,robot_sternberg_sign,2022.2.5,59.989657783250706,
"['F', 'K', 'P', 'S']",True,F,4,letter,2,True,False,"['robot_stimuli\\\\filler.mp4', 'robot_stimuli\\\\filler.mp4', 'robot_stimuli\\\\filler.mp4', 'robot_stimuli\\\\filler.mp4']",robot_stimuli\\filler.mp4,15,,,,,,,,,,,,,0,40,40,40,,,,,,,,,,,,,,,,,1443.3423950000006,1444.404357299999,,,,,,,,,1445.630702899999,1445.630702899999,1445.630702899999,1445.630702899999,1445.630702899999,1445.630702899999,1445.630702899999,1445.630702899999,None,None,None,,,,,,,,,,,1431.499752499999,1431.499752499999,space,2.09522189999916,,,1444.404357299999,1444.404357299999,1444.404357299999,c,1.0941856000008556,,,1441.1208357999994,1443.3423950000006,1444.404357299999,15,001,2024-07-10_16h03.32.439,robot_sternberg_sign,2022.2.5,59.989657783250706,
"['R', 'H', 'S', 'L']",True,R,4,letter,2,False,False,"['robot_stimuli\\\\filler.mp4', 'robot_stimuli\\\\filler.mp4', 'robot_stimuli\\\\filler.mp4', 'robot_stimuli\\\\filler.mp4']",robot_stimuli\\filler.mp4,15,,,,,,,,,,,,,0,41,41,41,,,,,,,,,,,,,,,,,1455.5628834999998,1456.6224264000002,,,,,,,,,1458.0510359999998,1458.0510359999998,1458.0510359999998,1458.0510359999998,1458.0510359999998,1458.0510359999998,1458.0510359999998,1458.0510359999998,None,None,None,,,,,,,,,,,1445.630702899999,1445.630702899999,None,,,,1456.6224264000002,1456.6224264000002,1456.6224264000002,c,1.3467799999998533,1445.630702899999,1445.630702899999,1453.5405736999992,1455.5628834999998,1456.6224264000002,15,001,2024-07-10_16h03.32.439,robot_sternberg_sign,2022.2.5,59.989657783250706,
"['W', 'L', 'J', 'K']",False,P,4,letter,2,False,False,"['robot_stimuli\\\\filler.mp4', 'robot_stimuli\\\\filler.mp4', 'robot_stimuli\\\\filler.mp4', 'robot_stimuli\\\\filler.mp4']",robot_stimuli\\filler.mp4,15,,,,,,,,,,,,,0,42,42,42,,,,,,,,,,,,,,,,,1467.7937952999991,1468.854186399999,,,,,,,,,1470.282025899999,1470.282025899999,1470.282025899999,1470.282025899999,1470.282025899999,1470.282025899999,1470.282025899999,1470.282025899999,None,None,None,,,,,,,,,,,1458.0510359999998,1458.0510359999998,None,,,,1468.854186399999,1468.854186399999,1468.854186399999,n,1.268289100000402,1458.0510359999998,1458.0510359999998,1465.7777166000005,1467.7937952999991,1468.854186399999,15,001,2024-07-10_16h03.32.439,robot_sternberg_sign,2022.2.5,59.989657783250706,
"['N', 'D', 'G', 'S']",True,S,4,letter,2,False,False,"['robot_stimuli\\\\filler.mp4', 'robot_stimuli\\\\filler.mp4', 'robot_stimuli\\\\filler.mp4', 'robot_stimuli\\\\filler.mp4']",robot_stimuli\\filler.mp4,15,,,,,,,,,,,,,0,43,43,43,,,,,,,,,,,,,,,,,1479.821625399999,1480.8871387999998,,,,,,,,,1482.3159991000002,1482.3159991000002,1482.3159991000002,1482.3159991000002,1482.3159991000002,1482.3159991000002,1482.3159991000002,1482.3159991000002,None,None,None,,,,,,,,,,,1470.282025899999,1470.282025899999,None,,,,1480.8871387999998,1480.8871387999998,1480.8871387999998,c,1.3618287999997847,1470.282025899999,1470.282025899999,1477.7991520000005,1479.821625399999,1480.8871387999998,15,001,2024-07-10_16h03.32.439,robot_sternberg_sign,2022.2.5,59.989657783250706,
"['Q', 'R', 'T', 'K']",False,C,4,letter,2,False,False,"['robot_stimuli\\\\filler.mp4', 'robot_stimuli\\\\filler.mp4', 'robot_stimuli\\\\filler.mp4', 'robot_stimuli\\\\filler.mp4']",robot_stimuli\\filler.mp4,15,,,,,,,,,,,,,0,44,44,44,,,,,,,,,,,,,,,,,1491.854859,1492.9229509999996,,,,,,,,,1494.5472220000001,1494.5472220000001,1494.5472220000001,1494.5472220000001,1494.5472220000001,1494.5472220000001,1494.5472220000001,1494.5472220000001,None,None,None,,,,,,,,,,,1482.3159991000002,1482.3159991000002,None,,,,1492.9229509999996,1492.9229509999996,1492.9229509999996,n,1.5360622000007425,1482.3159991000002,1482.3159991000002,1489.8325022,1491.854859,1492.9229509999996,15,001,2024-07-10_16h03.32.439,robot_sternberg_sign,2022.2.5,59.989657783250706,
"['B', 'Z', 'C', 'V']",True,B,4,letter,2,False,False,"['robot_stimuli\\\\filler.mp4', 'robot_stimuli\\\\filler.mp4', 'robot_stimuli\\\\filler.mp4', 'robot_stimuli\\\\filler.mp4']",robot_stimuli\\filler.mp4,15,,,,,,,,,,,,,0,45,45,45,,,,,,,,,,,,,,,,,1504.0913797999992,1505.1537378999992,,,,,,,,,1506.5766066000006,1506.5766066000006,1506.5766066000006,1506.5766066000006,1506.5766066000006,1506.5766066000006,1506.5766066000006,1506.5766066000006,None,None,None,,,,,,,,,,,1494.5472220000001,1494.5472220000001,None,,,,1505.1537378999992,1505.1537378999992,1505.1537378999992,c,1.3051661000008608,1494.5472220000001,1494.5472220000001,1502.0743685999996,1504.0913797999992,1505.1537378999992,15,001,2024-07-10_16h03.32.439,robot_sternberg_sign,2022.2.5,59.989657783250706,
"['T', 'C', 'D', 'H']",True,C,4,letter,2,False,False,"['robot_stimuli\\\\filler.mp4', 'robot_stimuli\\\\filler.mp4', 'robot_stimuli\\\\filler.mp4', 'robot_stimuli\\\\filler.mp4']",robot_stimuli\\filler.mp4,15,,,,,,,,,,,,,0,46,46,46,,,,,,,,,,,,,,,,,1516.7080457999991,1517.7721042999992,,,,,,,,,1518.9940118999994,1518.9940118999994,1518.9940118999994,1518.9940118999994,1518.9940118999994,1518.9940118999994,1518.9940118999994,1518.9940118999994,None,None,None,,,,,,,,,,,1506.5766066000006,1506.5766066000006,None,,,,1517.7721042999992,1517.7721042999992,1517.7721042999992,c,1.1341561999997793,1506.5766066000006,1506.5766066000006,1514.4913387000006,1516.7080457999991,1517.7721042999992,15,001,2024-07-10_16h03.32.439,robot_sternberg_sign,2022.2.5,59.989657783250706,
"['V', 'N', 'Z', 'H']",False,G,4,letter,2,False,False,"['robot_stimuli\\\\filler.mp4', 'robot_stimuli\\\\filler.mp4', 'robot_stimuli\\\\filler.mp4', 'robot_stimuli\\\\filler.mp4']",robot_stimuli\\filler.mp4,15,,,,,,,,,,,,,0,47,47,47,,,,,,,,,,,,,,,,,1528.9322177000004,1529.9892164999992,,,,,,,,,1531.4195377000005,1531.4195377000005,1531.4195377000005,1531.4195377000005,1531.4195377000005,1531.4195377000005,1531.4195377000005,1531.4195377000005,None,None,None,,,,,,,,,,,1518.9940118999994,1518.9940118999994,None,,,,1529.9892164999992,1529.9892164999992,1529.9892164999992,n,1.2999841000000742,1518.9940118999994,1518.9940118999994,1526.9125107999998,1528.9322177000004,1529.9892164999992,15,001,2024-07-10_16h03.32.439,robot_sternberg_sign,2022.2.5,59.989657783250706,
"['H', 'V', 'T', 'J']",False,W,4,letter,2,False,False,"['robot_stimuli\\\\filler.mp4', 'robot_stimuli\\\\filler.mp4', 'robot_stimuli\\\\filler.mp4', 'robot_stimuli\\\\filler.mp4']",robot_stimuli\\filler.mp4,15,,,,,,,,,,,,,0,48,48,48,,,,,,,,,,,,,,,,,1540.7670071999992,1541.8205515,,,,,,,,,1543.444902799999,1543.444902799999,1543.444902799999,1543.444902799999,1543.444902799999,1543.444902799999,1543.444902799999,1543.444902799999,None,None,None,,,,,,,,,,,1531.4195377000005,1531.4195377000005,None,,,,1541.8205515,1541.8205515,1541.8205515,n,1.4204086000008829,1531.4195377000005,1531.4195377000005,1538.7435453999997,1540.7670071999992,1541.8205515,15,001,2024-07-10_16h03.32.439,robot_sternberg_sign,2022.2.5,59.989657783250706,
"['S', 'G', 'W', 'Q']",False,D,4,letter,2,False,True,"['robot_stimuli\\\\filler.mp4', 'robot_stimuli\\\\filler.mp4', 'robot_stimuli\\\\filler.mp4', 'robot_stimuli\\\\filler.mp4']",robot_stimuli\\filler.mp4,15,,,,,,,,,,,,,0,49,49,49,,,,,,,,,,,,,,,,,1553.3847503000006,1554.4387877,,,,,,,,,1555.8919453999997,1562.7620992999991,1555.8919453999997,1562.7620992999991,1555.8919453999997,1562.7620992999991,1555.8919453999997,1562.7620992999991,30.308641975308642,5.308128399999987,space,,,6.821964500000831,,,,,,,,1543.444902799999,1543.444902799999,None,,,,1554.4387877,1554.4387877,1554.4387877,n,1.3235004000016488,1543.444902799999,1543.444902799999,1551.3767357999996,1553.3847503000006,1554.4387877,15,001,2024-07-10_16h03.32.439,robot_sternberg_sign,2022.2.5,59.989657783250706,
"['R', 'C']",True,R,2,letter,2,True,False,"['robot_stimuli\\\\filler.mp4', 'robot_stimuli\\\\filler.mp4']",robot_stimuli\\filler.mp4,15,,,,,,,,,,,,,0,50,50,50,,,,,,,,,,,,,,,,,1570.0926668000002,1571.1540698,,,,,,,,,1572.3838217000002,1572.3838217000002,1572.3838217000002,1572.3838217000002,1572.3838217000002,1572.3838217000002,1572.3838217000002,1572.3838217000002,None,None,None,,,,,,,,,,,1562.7620992999991,1562.7620992999991,space,1.9515843000008317,,,1571.1540698,1571.1540698,1571.1540698,c,1.1514425999994273,,,1568.0759888000002,1570.0926668000002,1571.1540698,15,001,2024-07-10_16h03.32.439,robot_sternberg_sign,2022.2.5,59.989657783250706,
"['F', 'G']",True,F,2,letter,2,False,False,"['robot_stimuli\\\\filler.mp4', 'robot_stimuli\\\\filler.mp4']",robot_stimuli\\filler.mp4,15,,,,,,,,,,,,,0,51,51,51,,,,,,,,,,,,,,,,,1577.5471028000002,1578.6038665000005,,,,,,,,,1579.8266644000005,1579.8266644000005,1579.8266644000005,1579.8266644000005,1579.8266644000005,1579.8266644000005,1579.8266644000005,1579.8266644000005,None,None,None,,,,,,,,,,,1572.3838217000002,1572.3838217000002,None,,,,1578.6038665000005,1578.6038665000005,1578.6038665000005,c,1.101689000000988,1572.3838217000002,1572.3838217000002,1575.5228211999993,1577.5471028000002,1578.6038665000005,15,001,2024-07-10_16h03.32.439,robot_sternberg_sign,2022.2.5,59.989657783250706,
"['Q', 'N']",False,S,2,letter,2,False,False,"['robot_stimuli\\\\filler.mp4', 'robot_stimuli\\\\filler.mp4']",robot_stimuli\\filler.mp4,15,,,,,,,,,,,,,0,52,52,52,,,,,,,,,,,,,,,,,1584.9876536000002,1586.0533977999994,,,,,,,,,1587.2778296999995,1587.2778296999995,1587.2778296999995,1587.2778296999995,1587.2778296999995,1587.2778296999995,1587.2778296999995,1587.2778296999995,None,None,None,,,,,,,,,,,1579.8266644000005,1579.8266644000005,None,,,,1586.0533977999994,1586.0533977999994,1586.0533977999994,n,1.0286228000004485,1579.8266644000005,1579.8266644000005,1582.9760266999992,1584.9876536000002,1586.0533977999994,15,001,2024-07-10_16h03.32.439,robot_sternberg_sign,2022.2.5,59.989657783250706,
"['L', 'H']",True,H,2,letter,2,False,False,"['robot_stimuli\\\\filler.mp4', 'robot_stimuli\\\\filler.mp4']",robot_stimuli\\filler.mp4,15,,,,,,,,,,,,,0,53,53,53,,,,,,,,,,,,,,,,,1592.6472036000005,1593.7044402000001,,,,,,,,,1594.732485399999,1594.732485399999,1594.732485399999,1594.732485399999,1594.732485399999,1594.732485399999,1594.732485399999,1594.732485399999,None,None,None,,,,,,,,,,,1587.2778296999995,1587.2778296999995,None,,,,1593.7044402000001,1593.7044402000001,1593.7044402000001,c,0.8807307999995828,1587.2778296999995,1587.2778296999995,1590.6295696000007,1592.6472036000005,1593.7044402000001,15,001,2024-07-10_16h03.32.439,robot_sternberg_sign,2022.2.5,59.989657783250706,
"['R', 'L']",False,H,2,letter,2,False,False,"['robot_stimuli\\\\filler.mp4', 'robot_stimuli\\\\filler.mp4']",robot_stimuli\\filler.mp4,15,,,,,,,,,,,,,0,54,54,54,,,,,,,,,,,,,,,,,1600.098265399999,1601.1527154999994,,,,,,,,,1602.3839383000004,1602.3839383000004,1602.3839383000004,1602.3839383000004,1602.3839383000004,1602.3839383000004,1602.3839383000004,1602.3839383000004,None,None,None,,,,,,,,,,,1594.732485399999,1594.732485399999,None,,,,1601.1527154999994,1601.1527154999994,1601.1527154999994,n,1.0810067000002164,1594.732485399999,1594.732485399999,1597.8888966000004,1600.098265399999,1601.1527154999994,15,001,2024-07-10_16h03.32.439,robot_sternberg_sign,2022.2.5,59.989657783250706,
"['B', 'Z']",False,H,2,letter,2,False,False,"['robot_stimuli\\\\filler.mp4', 'robot_stimuli\\\\filler.mp4']",robot_stimuli\\filler.mp4,15,,,,,,,,,,,,,0,55,55,55,,,,,,,,,,,,,,,,,1607.7372581999998,1603.4393393,,,,,,,,,1610.0229119999995,1610.0229119999995,1610.0229119999995,1610.0229119999995,1610.0229119999995,1610.0229119999995,1610.0229119999995,1610.0229119999995,None,None,None,,,,,,,,,,,1602.3839383000004,1602.3839383000004,None,,,,1608.8024211000002,1608.8024211000002,1608.8024211000002,n,1.0636849000002258,1602.3839383000004,1602.3839383000004,1605.7231980000006,1607.7372581999998,1608.8024211000002,15,001,2024-07-10_16h03.32.439,robot_sternberg_sign,2022.2.5,59.989657783250706,
"['Q', 'K']",False,R,2,letter,2,False,False,"['robot_stimuli\\\\filler.mp4', 'robot_stimuli\\\\filler.mp4']",robot_stimuli\\filler.mp4,15,,,,,,,,,,,,,0,56,56,56,,,,,,,,,,,,,,,,,1615.1972059999998,1616.2554186000007,,,,,,,,,1617.4819512000004,1617.4819512000004,1617.4819512000004,1617.4819512000004,1617.4819512000004,1617.4819512000004,1617.4819512000004,1617.4819512000004,None,None,None,,,,,,,,,,,1610.0229119999995,1610.0229119999995,None,,,,1616.2554186000007,1616.2554186000007,1616.2554186000007,n,1.018736699999863,1610.0229119999995,1610.0229119999995,1613.1736637999993,1615.1972059999998,1616.2554186000007,15,001,2024-07-10_16h03.32.439,robot_sternberg_sign,2022.2.5,59.989657783250706,
"['N', 'P']",False,L,2,letter,2,False,False,"['robot_stimuli\\\\filler.mp4', 'robot_stimuli\\\\filler.mp4']",robot_stimuli\\filler.mp4,15,,,,,,,,,,,,,0,57,57,57,,,,,,,,,,,,,,,,,1622.8460408,1623.9040364999992,,,,,,,,,1625.1267861999995,1625.1267861999995,1625.1267861999995,1625.1267861999995,1625.1267861999995,1625.1267861999995,1625.1267861999995,1625.1267861999995,None,None,None,,,,,,,,,,,1617.4819512000004,1617.4819512000004,None,,,,1623.9040364999992,1623.9040364999992,1623.9040364999992,n,1.1387035999996442,1617.4819512000004,1617.4819512000004,1620.8284608999993,1622.8460408,1623.9040364999992,15,001,2024-07-10_16h03.32.439,robot_sternberg_sign,2022.2.5,59.989657783250706,
"['B', 'M']",True,B,2,letter,2,False,False,"['robot_stimuli\\\\filler.mp4', 'robot_stimuli\\\\filler.mp4']",robot_stimuli\\filler.mp4,15,,,,,,,,,,,,,0,58,58,58,,,,,,,,,,,,,,,,,1630.487060299999,1626.187202099999,,,,,,,,,1632.7773193999992,1632.7773193999992,1632.7773193999992,1632.7773193999992,1632.7773193999992,1632.7773193999992,1632.7773193999992,1632.7773193999992,None,None,None,,,,,,,,,,,1625.1267861999995,1625.1267861999995,None,,,,1631.5542211000002,1631.5542211000002,1631.5542211000002,c,1.1203751000011835,1625.1267861999995,1625.1267861999995,1628.4777991,1630.487060299999,1631.5542211000002,15,001,2024-07-10_16h03.32.439,robot_sternberg_sign,2022.2.5,59.989657783250706,
"['X', 'T']",True,X,2,letter,2,False,True,"['robot_stimuli\\\\filler.mp4', 'robot_stimuli\\\\filler.mp4']",robot_stimuli\\filler.mp4,15,,,,,,,,,,,,,0,59,59,59,,,,,,,,,,,,,,,,,1638.1360816999995,1633.8398953999995,,,,,,,,,1640.4573644999991,1646.6393694999997,1640.4573644999991,1646.6393694999997,1640.4573644999991,1646.6393694999997,1640.4573644999991,1646.6393694999997,13.333333333333327,4.3891648999997415,space,,,6.127721400000155,,,,,,,,1632.7773193999992,1632.7773193999992,None,,,,1639.2045241999995,1639.2045241999995,1639.2045241999995,c,1.1326200000003155,1632.7773193999992,1632.7773193999992,1635.9249678999995,1638.1360816999995,1639.2045241999995,15,001,2024-07-10_16h03.32.439,robot_sternberg_sign,2022.2.5,59.989657783250706,
"['L_Base_X_Back', 'L_Torso_X_For', 'L_Base_Z_For', 'L_Torso_X_Back']",False,R_Arm_Y_For,4,robot,3,True,False,"['robot_stimuli\\L_Base_X_Back.mp4', 'robot_stimuli\\L_Torso_X_For.mp4', 'robot_stimuli\\L_Base_Z_For.mp4', 'robot_stimuli\\L_Torso_X_Back.mp4']",robot_stimuli\R_Arm_Y_For.mp4,15,,,,,,,,,,,,,0,60,60,60,,,,,,,,,,,,,,,,,1665.1541664000006,1666.2477362,,,,,,,,,1669.7621712999999,1669.7621712999999,1669.7621712999999,1669.7621712999999,1669.7621712999999,1669.7621712999999,1669.7621712999999,1669.7621712999999,None,None,None,,,,,,,,,,,1646.6393694999997,1646.6393694999997,space,2.642382699999871,1661.520583999999,1666.2477362,1666.2477362,1666.2477362,1666.2477362,n,1.6415643000018463,,,,,,15,001,2024-07-10_16h03.32.439,robot_sternberg_sign,2022.2.5,59.989657783250706,
"['L_Torso_X_For', 'L_Head_Y_Back', 'R_Torso_Z_Back', 'R_Head_Y_Back']",True,L_Torso_X_For,4,robot,3,False,False,"['robot_stimuli\\L_Torso_X_For.mp4', 'robot_stimuli\\L_Head_Y_Back.mp4', 'robot_stimuli\\R_Torso_Z_Back.mp4', 'robot_stimuli\\R_Head_Y_Back.mp4']",robot_stimuli\L_Torso_X_For.mp4,15,,,,,,,,,,,,,0,61,61,61,,,,,,,,,,,,,,,,,1685.6424792000007,1686.7287012000006,,,,,,,,,1690.3806250999996,1690.3806250999996,1690.3806250999996,1690.3806250999996,1690.3806250999996,1690.3806250999996,1690.3806250999996,1690.3806250999996,None,None,None,,,,,,,,,,,1669.7621712999999,1669.7621712999999,None,,1682.0068373000004,1686.7287012000006,1686.7287012000006,1686.7287012000006,1686.7287012000006,c,2.896897999999055,1669.7621712999999,1669.7621712999999,,,,15,001,2024-07-10_16h03.32.439,robot_sternberg_sign,2022.2.5,59.989657783250706,
"['L_Arm_Y_Back', 'R_Torso_Y_Back', 'L_Base_X_For', 'L_Head_Z_For']",True,L_Head_Z_For,4,robot,3,False,False,"['robot_stimuli\\L_Arm_Y_Back.mp4', 'robot_stimuli\\R_Torso_Y_Back.mp4', 'robot_stimuli\\L_Base_X_For.mp4', 'robot_stimuli\\L_Head_Z_For.mp4']",robot_stimuli\L_Head_Z_For.mp4,15,,,,,,,,,,,,,0,62,62,62,,,,,,,,,,,,,,,,,1706.1863872000004,1691.4733217000003,,,,,,,,,1710.9300742999994,1710.9300742999994,1710.9300742999994,1710.9300742999994,1710.9300742999994,1710.9300742999994,1710.9300742999994,1710.9300742999994,None,None,None,,,,,,,,,,,1690.3806250999996,1690.3806250999996,None,,1702.5545785999993,1707.2791838000003,1707.2791838000003,1707.2791838000003,1707.2791838000003,c,2.7943685999998706,1690.3806250999996,1690.3806250999996,,,,15,001,2024-07-10_16h03.32.439,robot_sternberg_sign,2022.2.5,59.989657783250706,
"['L_Head_Z_For', 'R_Arm_Y_For', 'L_Arm_Z_Back', 'R_Head_Z_For']",False,L_Head_Z_Back,4,robot,3,False,False,"['robot_stimuli\\L_Head_Z_For.mp4', 'robot_stimuli\\R_Arm_Y_For.mp4', 'robot_stimuli\\L_Arm_Z_Back.mp4', 'robot_stimuli\\R_Head_Z_For.mp4']",robot_stimuli\L_Head_Z_Back.mp4,15,,,,,,,,,,,,,0,63,63,63,,,,,,,,,,,,,,,,,1726.6912901000005,1727.7780995000003,,,,,,,,,1733.0453790000001,1733.0453790000001,1733.0453790000001,1733.0453790000001,1733.0453790000001,1733.0453790000001,1733.0453790000001,1733.0453790000001,None,None,None,,,,,,,,,,,1710.9300742999994,1710.9300742999994,None,,1723.0595069,1727.7780995000003,1727.7780995000003,1727.7780995000003,1727.7780995000003,n,5.240088200000173,1710.9300742999994,1710.9300742999994,,,,15,001,2024-07-10_16h03.32.439,robot_sternberg_sign,2022.2.5,59.989657783250706,
"['L_Arm_X_Back', 'L_Head_Z_For', 'L_Base_Y_Back', 'R_Base_X_For']",True,L_Base_Y_Back,4,robot,3,False,False,"['robot_stimuli\\L_Arm_X_Back.mp4', 'robot_stimuli\\L_Head_Z_For.mp4', 'robot_stimuli\\L_Base_Y_Back.mp4', 'robot_stimuli\\R_Base_X_For.mp4']",robot_stimuli\L_Base_Y_Back.mp4,15,,,,,,,,,,,,,0,64,64,64,,,,,,,,,,,,,,,,,1748.7553424000007,1749.8440187000006,,,,,,,,,1753.4158142000006,1753.4158142000006,1753.4158142000006,1753.4158142000006,1753.4158142000006,1753.4158142000006,1753.4158142000006,1753.4158142000006,None,None,None,,,,,,,,,,,1733.0453790000001,1733.0453790000001,None,,1745.2232178000004,1749.8440187000006,1749.8440187000006,1749.8440187000006,1749.8440187000006,c,3.0610379000008834,1733.0453790000001,1733.0453790000001,,,,15,001,2024-07-10_16h03.32.439,robot_sternberg_sign,2022.2.5,59.989657783250706,
"['R_Base_Y_Back', 'L_Head_Z_Back', 'R_Head_X_Back', 'L_Torso_Y_Back']",False,L_Arm_Y_Back,4,robot,3,False,False,"['robot_stimuli\\R_Base_Y_Back.mp4', 'robot_stimuli\\L_Head_Z_Back.mp4', 'robot_stimuli\\R_Head_X_Back.mp4', 'robot_stimuli\\L_Torso_Y_Back.mp4']",robot_stimuli\L_Arm_Y_Back.mp4,15,,,,,,,,,,,,,0,65,65,65,,,,,,,,,,,,,,,,,1769.1721368999997,1770.2631627,,,,,,,,,1773.9112121000007,1773.9112121000007,1773.9112121000007,1773.9112121000007,1773.9112121000007,1773.9112121000007,1773.9112121000007,1773.9112121000007,None,None,None,,,,,,,,,,,1753.4158142000006,1753.4158142000006,None,,1765.6635092000006,1770.2631627,1770.2631627,1770.2631627,1770.2631627,n,2.4908517000003485,1753.4158142000006,1753.4158142000006,,,,15,001,2024-07-10_16h03.32.439,robot_sternberg_sign,2022.2.5,59.989657783250706,
"['R_Torso_X_Back', 'L_Torso_Z_Back', 'L_Torso_X_Back', 'R_Torso_X_For']",False,R_Head_Y_For,4,robot,3,False,False,"['robot_stimuli\\R_Torso_X_Back.mp4', 'robot_stimuli\\L_Torso_Z_Back.mp4', 'robot_stimuli\\L_Torso_X_Back.mp4', 'robot_stimuli\\R_Torso_X_For.mp4']",robot_stimuli\R_Head_Y_For.mp4,15,,,,,,,,,,,,,0,66,66,66,,,,,,,,,,,,,,,,,1789.6563574000002,1790.7470750999992,,,,,,,,,1794.3944923999998,1794.3944923999998,1794.3944923999998,1794.3944923999998,1794.3944923999998,1794.3944923999998,1794.3944923999998,1794.3944923999998,None,None,None,,,,,,,,,,,1773.9112121000007,1773.9112121000007,None,,1786.0243285999995,1790.7470750999992,1790.7470750999992,1790.7470750999992,1790.7470750999992,n,3.255549500001507,1773.9112121000007,1773.9112121000007,,,,15,001,2024-07-10_16h03.32.439,robot_sternberg_sign,2022.2.5,59.989657783250706,
"['L_Arm_X_Back', 'R_Arm_X_Back', 'L_Base_Z_Back', 'R_Base_Z_Back']",True,L_Base_Z_Back,4,robot,3,False,False,"['robot_stimuli\\L_Arm_X_Back.mp4', 'robot_stimuli\\R_Arm_X_Back.mp4', 'robot_stimuli\\L_Base_Z_Back.mp4', 'robot_stimuli\\R_Base_Z_Back.mp4']",robot_stimuli\L_Base_Z_Back.mp4,15,,,,,,,,,,,,,0,67,67,67,,,,,,,,,,,,,,,,,1810.208399099999,1811.2968484000003,,,,,,,,,1814.9457456999999,1814.9457456999999,1814.9457456999999,1814.9457456999999,1814.9457456999999,1814.9457456999999,1814.9457456999999,1814.9457456999999,None,None,None,,,,,,,,,,,1794.3944923999998,1794.3944923999998,None,,1806.6672561999994,1811.2968484000003,1811.2968484000003,1811.2968484000003,1811.2968484000003,c,2.576784700000644,1794.3944923999998,1794.3944923999998,,,,15,001,2024-07-10_16h03.32.439,robot_sternberg_sign,2022.2.5,59.989657783250706,
"['L_Arm_Z_For', 'R_Torso_Y_For', 'L_Arm_Z_Back', 'R_Base_X_For']",True,R_Base_X_For,4,robot,3,False,False,"['robot_stimuli\\L_Arm_Z_For.mp4', 'robot_stimuli\\R_Torso_Y_For.mp4', 'robot_stimuli\\L_Arm_Z_Back.mp4', 'robot_stimuli\\R_Base_X_For.mp4']",robot_stimuli\R_Base_X_For.mp4,15,,,,,,,,,,,,,0,68,68,68,,,,,,,,,,,,,,,,,1830.7208117,1816.0239491999992,,,,,,,,,1835.3505802999998,1835.3505802999998,1835.3505802999998,1835.3505802999998,1835.3505802999998,1835.3505802999998,1835.3505802999998,1835.3505802999998,None,None,None,,,,,,,,,,,1814.9457456999999,1814.9457456999999,None,,1827.1894220000004,1831.8122458000007,1831.8122458000007,1831.8122458000007,1831.8122458000007,c,2.4136672000004182,1814.9457456999999,1814.9457456999999,,,,15,001,2024-07-10_16h03.32.439,robot_sternberg_sign,2022.2.5,59.989657783250706,
"['R_Torso_Z_For', 'R_Arm_Y_Back', 'R_Arm_Y_For', 'R_Torso_Z_Back']",False,L_Arm_X_For,4,robot,3,False,True,"['robot_stimuli\\R_Torso_Z_For.mp4', 'robot_stimuli\\R_Arm_Y_Back.mp4', 'robot_stimuli\\R_Arm_Y_For.mp4', 'robot_stimuli\\R_Torso_Z_Back.mp4']",robot_stimuli\L_Arm_X_For.mp4,15,,,,,,,,,,,,,0,69,69,69,,,,,,,,,,,,,,,,,1851.0721624999996,1852.1601946,,,,,,,,,1855.8337598999997,1860.6583724999991,1855.8337598999997,1860.6583724999991,1855.8337598999997,1860.6583724999991,1855.8337598999997,1860.6583724999991,27.8395061728395,3.5885092000007717,space,,,4.774912700000641,,,,,,,,1835.3505802999998,1835.3505802999998,None,,1847.4411864000003,1852.1601946,1852.1601946,1852.1601946,1852.1601946,n,2.728578000000198,1835.3505802999998,1835.3505802999998,,,,15,001,2024-07-10_16h03.32.439,robot_sternberg_sign,2022.2.5,59.989657783250706,
"['L_Base_Z_Back', 'L_Arm_X_Back', 'L_Torso_Y_For', 'R_Base_Y_Back', 'L_Torso_Z_Back', 'L_Base_X_For']",True,L_Base_X_For,6,robot,3,True,False,"['robot_stimuli\\L_Base_Z_Back.mp4', 'robot_stimuli\\L_Arm_X_Back.mp4', 'robot_stimuli\\L_Torso_Y_For.mp4', 'robot_stimuli\\R_Base_Y_Back.mp4', 'robot_stimuli\\L_Torso_Z_Back.mp4', 'robot_stimuli\\L_Base_X_For.mp4']",robot_stimuli\L_Base_X_For.mp4,15,,,,,,,,,,,,,0,70,70,70,,,,,,,,,,,,,,,,,1889.2214228000003,1890.3114132,,,,,,,,,1893.8839407000005,1893.8839407000005,1893.8839407000005,1893.8839407000005,1893.8839407000005,1893.8839407000005,1893.8839407000005,1893.8839407000005,None,None,None,,,,,,,,,,,1860.6583724999991,1860.6583724999991,space,5.416314100000818,1885.6589761000005,1890.3114132,1890.3114132,1890.3114132,1890.3114132,c,2.634611400000722,,,,,,15,001,2024-07-10_16h03.32.439,robot_sternberg_sign,2022.2.5,59.989657783250706,
"['R_Head_X_Back', 'L_Arm_Y_For', 'L_Torso_Z_For', 'R_Head_Z_Back', 'L_Torso_X_For', 'R_Arm_Y_For']",False,R_Head_Y_Back,6,robot,3,False,False,"['robot_stimuli\\R_Head_X_Back.mp4', 'robot_stimuli\\L_Arm_Y_For.mp4', 'robot_stimuli\\L_Torso_Z_For.mp4', 'robot_stimuli\\R_Head_Z_Back.mp4', 'robot_stimuli\\L_Torso_X_For.mp4', 'robot_stimuli\\R_Arm_Y_For.mp4']",robot_stimuli\R_Head_Y_Back.mp4,15,,,,,,,,,,,,,0,71,71,71,,,,,,,,,,,,,,,,,1917.0546490999996,1918.1418719000003,,,,,,,,,1921.7841356,1921.7841356,1921.7841356,1921.7841356,1921.7841356,1921.7841356,1921.7841356,1921.7841356,None,None,None,,,,,,,,,,,1893.8839407000005,1893.8839407000005,None,,1913.5468446999994,1918.1418719000003,1918.1418719000003,1918.1418719000003,1918.1418719000003,n,2.8840293000012025,1893.8839407000005,1893.8839407000005,,,,15,001,2024-07-10_16h03.32.439,robot_sternberg_sign,2022.2.5,59.989657783250706,
"['L_Torso_Y_For', 'R_Head_X_For', 'R_Torso_Z_For', 'R_Head_X_Back', 'L_Base_Y_Back', 'R_Torso_Y_For']",True,R_Torso_Y_For,6,robot,3,False,False,"['robot_stimuli\\L_Torso_Y_For.mp4', 'robot_stimuli\\R_Head_X_For.mp4', 'robot_stimuli\\R_Torso_Z_For.mp4', 'robot_stimuli\\R_Head_X_Back.mp4', 'robot_stimuli\\L_Base_Y_Back.mp4', 'robot_stimuli\\R_Torso_Y_For.mp4']",robot_stimuli\R_Torso_Y_For.mp4,15,,,,,,,,,,,,,0,72,72,72,,,,,,,,,,,,,,,,,1945.0240280999997,1946.1128426999994,,,,,,,,,1949.743161899999,1949.743161899999,1949.743161899999,1949.743161899999,1949.743161899999,1949.743161899999,1949.743161899999,1949.743161899999,None,None,None,,,,,,,,,,,1921.7841356,1921.7841356,None,,1941.38872,1946.1128426999994,1946.1128426999994,1946.1128426999994,1946.1128426999994,c,2.4412821999994776,1921.7841356,1921.7841356,,,,15,001,2024-07-10_16h03.32.439,robot_sternberg_sign,2022.2.5,59.989657783250706,
"['R_Arm_Z_For', 'L_Head_Y_For', 'L_Torso_Y_For', 'L_Torso_X_Back', 'L_Base_Z_Back', 'L_Torso_X_For']",False,R_Head_Z_For,6,robot,3,False,False,"['robot_stimuli\\R_Arm_Z_For.mp4', 'robot_stimuli\\L_Head_Y_For.mp4', 'robot_stimuli\\L_Torso_Y_For.mp4', 'robot_stimuli\\L_Torso_X_Back.mp4', 'robot_stimuli\\L_Base_Z_Back.mp4', 'robot_stimuli\\L_Torso_X_For.mp4']",robot_stimuli\R_Head_Z_For.mp4,15,,,,,,,,,,,,,0,73,73,73,,,,,,,,,,,,,,,,,1973.0717780000004,1974.1618719000007,,,,,,,,,1977.7998715999993,1977.7998715999993,1977.7998715999993,1977.7998715999993,1977.7998715999993,1977.7998715999993,1977.7998715999993,1977.7998715999993,None,None,None,,,,,,,,,,,1949.743161899999,1949.743161899999,None,,1969.4411525999994,1974.1618719000007,1974.1618719000007,1974.1618719000007,1974.1618719000007,n,1.8476535999998305,1949.743161899999,1949.743161899999,,,,15,001,2024-07-10_16h03.32.439,robot_sternberg_sign,2022.2.5,59.989657783250706,
"['R_Arm_X_Back', 'R_Base_Z_Back', 'R_Torso_X_Back', 'R_Arm_X_For', 'R_Head_Z_Back', 'L_Torso_Y_Back']",False,L_Head_Y_Back,6,robot,3,False,False,"['robot_stimuli\\R_Arm_X_Back.mp4', 'robot_stimuli\\R_Base_Z_Back.mp4', 'robot_stimuli\\R_Torso_X_Back.mp4', 'robot_stimuli\\R_Arm_X_For.mp4', 'robot_stimuli\\R_Head_Z_Back.mp4', 'robot_stimuli\\L_Torso_Y_Back.mp4']",robot_stimuli\L_Head_Y_Back.mp4,15,,,,,,,,,,,,,0,74,74,74,,,,,,,,,,,,,,,,,2000.8675997,2001.9424561000005,,,,,,,,,2005.5839709000002,2005.5839709000002,2005.5839709000002,2005.5839709000002,2005.5839709000002,2005.5839709000002,2005.5839709000002,2005.5839709000002,None,None,None,,,,,,,,,,,1977.7998715999993,1977.7998715999993,None,,1997.3715935999999,2001.9424561000005,2001.9424561000005,2001.9424561000005,2001.9424561000005,n,3.0272367000015947,1977.7998715999993,1977.7998715999993,,,,15,001,2024-07-10_16h03.32.439,robot_sternberg_sign,2022.2.5,59.989657783250706,
"['L_Torso_Y_For', 'R_Base_X_For', 'L_Head_Z_For', 'L_Torso_X_For', 'R_Torso_X_For', 'L_Head_X_For']",True,R_Torso_X_For,6,robot,3,False,False,"['robot_stimuli\\L_Torso_Y_For.mp4', 'robot_stimuli\\R_Base_X_For.mp4', 'robot_stimuli\\L_Head_Z_For.mp4', 'robot_stimuli\\L_Torso_X_For.mp4', 'robot_stimuli\\R_Torso_X_For.mp4', 'robot_stimuli\\L_Head_X_For.mp4']",robot_stimuli\R_Torso_X_For.mp4,15,,,,,,,,,,,,,0,75,75,75,,,,,,,,,,,,,,,,,2028.7080723999998,2029.808696699999,,,,,,,,,2033.4493150999997,2033.4493150999997,2033.4493150999997,2033.4493150999997,2033.4493150999997,2033.4493150999997,2033.4493150999997,2033.4493150999997,None,None,None,,,,,,,,,,,2005.5839709000002,2005.5839709000002,None,,2025.1376357,2029.808696699999,2029.808696699999,2029.808696699999,2029.808696699999,c,3.096480700000029,2005.5839709000002,2005.5839709000002,,,,15,001,2024-07-10_16h03.32.439,robot_sternberg_sign,2022.2.5,59.989657783250706,
"['L_Head_X_For', 'L_Head_Y_For', 'L_Base_X_Back', 'R_Arm_X_Back', 'R_Head_X_Back', 'R_Arm_X_For']",True,R_Arm_X_For,6,robot,3,False,False,"['robot_stimuli\\L_Head_X_For.mp4', 'robot_stimuli\\L_Head_Y_For.mp4', 'robot_stimuli\\L_Base_X_Back.mp4', 'robot_stimuli\\R_Arm_X_Back.mp4', 'robot_stimuli\\R_Head_X_Back.mp4', 'robot_stimuli\\R_Arm_X_For.mp4']",robot_stimuli\R_Arm_X_For.mp4,15,,,,,,,,,,,,,0,76,76,76,,,,,,,,,,,,,,,,,2056.6890988999994,2057.7869598000007,,,,,,,,,2061.4250337000003,2061.4250337000003,2061.4250337000003,2061.4250337000003,2061.4250337000003,2061.4250337000003,2061.4250337000003,2061.4250337000003,None,None,None,,,,,,,,,,,2033.4493150999997,2033.4493150999997,None,,2053.047565599999,2057.7869598000007,2057.7869598000007,2057.7869598000007,2057.7869598000007,c,2.782632000000376,2033.4493150999997,2033.4493150999997,,,,15,001,2024-07-10_16h03.32.439,robot_sternberg_sign,2022.2.5,59.989657783250706,
"['L_Base_Y_Back', 'L_Head_Y_For', 'L_Arm_Y_Back', 'R_Torso_X_For', 'L_Arm_X_Back', 'L_Torso_X_Back']",True,L_Base_Y_Back,6,robot,3,False,False,"['robot_stimuli\\L_Base_Y_Back.mp4', 'robot_stimuli\\L_Head_Y_For.mp4', 'robot_stimuli\\L_Arm_Y_Back.mp4', 'robot_stimuli\\R_Torso_X_For.mp4', 'robot_stimuli\\L_Arm_X_Back.mp4', 'robot_stimuli\\L_Torso_X_Back.mp4']",robot_stimuli\L_Base_Y_Back.mp4,15,,,,,,,,,,,,,0,77,77,77,,,,,,,,,,,,,,,,,2084.6858421999996,2062.509191599999,,,,,,,,,2089.5843228000003,2089.5843228000003,2089.5843228000003,2089.5843228000003,2089.5843228000003,2089.5843228000003,2089.5843228000003,2089.5843228000003,None,None,None,,,,,,,,,,,2061.4250337000003,2061.4250337000003,None,,2081.0518156999997,2085.7788788999997,2085.7788788999997,2085.7788788999997,2085.7788788999997,n,3.7673269000006258,2061.4250337000003,2061.4250337000003,,,,15,001,2024-07-10_16h03.32.439,robot_sternberg_sign,2022.2.5,59.989657783250706,
"['L_Arm_X_For', 'R_Head_Y_For', 'R_Torso_X_For', 'R_Head_Z_Back', 'R_Base_Y_For', 'R_Head_Z_For']",False,R_Arm_Z_Back,6,robot,3,False,False,"['robot_stimuli\\L_Arm_X_For.mp4', 'robot_stimuli\\R_Head_Y_For.mp4', 'robot_stimuli\\R_Torso_X_For.mp4', 'robot_stimuli\\R_Head_Z_Back.mp4', 'robot_stimuli\\R_Base_Y_For.mp4', 'robot_stimuli\\R_Head_Z_For.mp4']",robot_stimuli\R_Arm_Z_Back.mp4,15,,,,,,,,,,,,,0,78,78,78,,,,,,,,,,,,,,,,,2112.9239995,2114.010126799999,,,,,,,,,2117.6612558000006,2117.6612558000006,2117.6612558000006,2117.6612558000006,2117.6612558000006,2117.6612558000006,2117.6612558000006,2117.6612558000006,None,None,None,,,,,,,,,,,2089.5843228000003,2089.5843228000003,None,,2109.2930503,2114.010126799999,2114.010126799999,2114.010126799999,2114.010126799999,n,2.175921099998959,2089.5843228000003,2089.5843228000003,,,,15,001,2024-07-10_16h03.32.439,robot_sternberg_sign,2022.2.5,59.989657783250706,
"['L_Base_Z_Back', 'L_Arm_Y_Back', 'L_Torso_Z_Back', 'R_Base_Z_For', 'R_Arm_Y_For', 'L_Base_X_For']",False,R_Torso_X_For,6,robot,3,False,True,"['robot_stimuli\\L_Base_Z_Back.mp4', 'robot_stimuli\\L_Arm_Y_Back.mp4', 'robot_stimuli\\L_Torso_Z_Back.mp4', 'robot_stimuli\\R_Base_Z_For.mp4', 'robot_stimuli\\R_Arm_Y_For.mp4', 'robot_stimuli\\L_Base_X_For.mp4']",robot_stimuli\R_Torso_X_For.mp4,15,,,,,,,,,,,,,0,79,79,79,,,,,,,,,,,,,,,,,2140.6525104,2118.7410111,,,,,,,,,2145.409601299999,2154.1548236999997,2145.409601299999,2154.1548236999997,2145.409601299999,2154.1548236999997,2145.409601299999,2154.1548236999997,50.21604938271606,6.465529299999616,space,,,8.688441300000704,,,,,,,,2117.6612558000006,2117.6612558000006,None,,2137.0855660999996,2141.7450352999995,2141.7450352999995,2141.7450352999995,2141.7450352999995,c,2.4807913999993616,2117.6612558000006,2117.6612558000006,,,,15,001,2024-07-10_16h03.32.439,robot_sternberg_sign,2022.2.5,59.989657783250706,
"['R_Torso_X_For', 'R_Base_X_Back']",False,R_Head_Y_For,2,robot,3,True,False,"['robot_stimuli\\R_Torso_X_For.mp4', 'robot_stimuli\\R_Base_X_Back.mp4']",robot_stimuli\R_Head_Y_For.mp4,15,,,,,,,,,,,,,0,80,80,80,,,,,,,,,,,,,,,,,2182.184408099999,2183.2629564999997,,,,,,,,,2186.9131628000005,2186.9131628000005,2186.9131628000005,2186.9131628000005,2186.9131628000005,2186.9131628000005,2186.9131628000005,2186.9131628000005,None,None,None,,,,,,,,,,,2154.1548236999997,2154.1548236999997,space,19.582121700001153,2178.5640341999997,2183.2629564999997,2183.2629564999997,2183.2629564999997,2183.2629564999997,n,1.530606500000431,,,,,,15,001,2024-07-10_16h03.32.439,robot_sternberg_sign,2022.2.5,59.989657783250706,
"['R_Arm_X_Back', 'L_Base_Z_Back']",True,R_Arm_X_Back,2,robot,3,False,False,"['robot_stimuli\\R_Arm_X_Back.mp4', 'robot_stimuli\\L_Base_Z_Back.mp4']",robot_stimuli\R_Arm_X_Back.mp4,15,,,,,,,,,,,,,0,81,81,81,,,,,,,,,,,,,,,,,2195.3410842999992,2196.4272446999994,,,,,,,,,2200.8632441,2200.8632441,2200.8632441,2200.8632441,2200.8632441,2200.8632441,2200.8632441,2200.8632441,None,None,None,,,,,,,,,,,2186.9131628000005,2186.9131628000005,None,,2191.711917399999,2196.4272446999994,2196.4272446999994,2196.4272446999994,2196.4272446999994,n,4.399421500000244,2186.9131628000005,2186.9131628000005,,,,15,001,2024-07-10_16h03.32.439,robot_sternberg_sign,2022.2.5,59.989657783250706,
"['R_Arm_X_Back', 'R_Arm_Y_For']",False,R_Base_Z_Back,2,robot,3,False,False,"['robot_stimuli\\R_Arm_X_Back.mp4', 'robot_stimuli\\R_Arm_Y_For.mp4']",robot_stimuli\R_Base_Z_Back.mp4,15,,,,,,,,,,,,,0,82,82,82,,,,,,,,,,,,,,,,,2209.1748455999996,2210.2648144000004,,,,,,,,,2213.8127311,2213.8127311,2213.8127311,2213.8127311,2213.8127311,2213.8127311,2213.8127311,2213.8127311,None,None,None,,,,,,,,,,,2200.8632441,2200.8632441,None,,2205.6689027,2210.2648144000004,2210.2648144000004,2210.2648144000004,2210.2648144000004,n,1.6319413000019267,2200.8632441,2200.8632441,,,,15,001,2024-07-10_16h03.32.439,robot_sternberg_sign,2022.2.5,59.989657783250706,
"['L_Head_X_Back', 'L_Base_X_For']",False,R_Torso_Y_For,2,robot,3,False,False,"['robot_stimuli\\L_Head_X_Back.mp4', 'robot_stimuli\\L_Base_X_For.mp4']",robot_stimuli\R_Torso_Y_For.mp4,15,,,,,,,,,,,,,0,83,83,83,,,,,,,,,,,,,,,,,2222.204574299999,2223.2968567,,,,,,,,,2226.9450203999995,2226.9450203999995,2226.9450203999995,2226.9450203999995,2226.9450203999995,2226.9450203999995,2226.9450203999995,2226.9450203999995,None,None,None,,,,,,,,,,,2213.8127311,2213.8127311,None,,2218.6289334000003,2223.2968567,2223.2968567,2223.2968567,2223.2968567,n,1.5997373000009247,2213.8127311,2213.8127311,,,,15,001,2024-07-10_16h03.32.439,robot_sternberg_sign,2022.2.5,59.989657783250706,
"['R_Torso_Z_For', 'R_Head_Z_Back']",True,R_Torso_Z_For,2,robot,3,False,False,"['robot_stimuli\\R_Torso_Z_For.mp4', 'robot_stimuli\\R_Head_Z_Back.mp4']",robot_stimuli\R_Torso_Z_For.mp4,15,,,,,,,,,,,,,0,84,84,84,,,,,,,,,,,,,,,,,2235.3743212,2236.4615559999993,,,,,,,,,2240.1115031,2240.1115031,2240.1115031,2240.1115031,2240.1115031,2240.1115031,2240.1115031,2240.1115031,None,None,None,,,,,,,,,,,2226.9450203999995,2226.9450203999995,None,,2231.7454245,2236.4615559999993,2236.4615559999993,2236.4615559999993,2236.4615559999993,n,3.164540699999634,2226.9450203999995,2226.9450203999995,,,,15,001,2024-07-10_16h03.32.439,robot_sternberg_sign,2022.2.5,59.989657783250706,
"['L_Head_X_For', 'R_Base_Y_Back']",False,R_Torso_Y_Back,2,robot,3,False,False,"['robot_stimuli\\L_Head_X_For.mp4', 'robot_stimuli\\R_Base_Y_Back.mp4']",robot_stimuli\R_Torso_Y_Back.mp4,15,,,,,,,,,,,,,0,85,85,85,,,,,,,,,,,,,,,,,2248.4891096,2249.5778609,,,,,,,,,2253.2149182000003,2253.2149182000003,2253.2149182000003,2253.2149182000003,2253.2149182000003,2253.2149182000003,2253.2149182000003,2253.2149182000003,None,None,None,,,,,,,,,,,2240.1115031,2240.1115031,None,,2244.8502098,2249.5778609,2249.5778609,2249.5778609,2249.5778609,n,2.280430599999818,2240.1115031,2240.1115031,,,,15,001,2024-07-10_16h03.32.439,robot_sternberg_sign,2022.2.5,59.989657783250706,
"['R_Base_Y_For', 'L_Base_X_For']",False,L_Head_Y_For,2,robot,3,False,False,"['robot_stimuli\\R_Base_Y_For.mp4', 'robot_stimuli\\L_Base_X_For.mp4']",robot_stimuli\L_Head_Y_For.mp4,15,,,,,,,,,,,,,0,86,86,86,,,,,,,,,,,,,,,,,2261.5880277000006,2254.2924047999995,,,,,,,,,2266.3263868000004,2266.3263868000004,2266.3263868000004,2266.3263868000004,2266.3263868000004,2266.3263868000004,2266.3263868000004,2266.3263868000004,None,None,None,,,,,,,,,,,2253.2149182000003,2253.2149182000003,None,,2258.0141037999992,2262.6811738999995,2262.6811738999995,2262.6811738999995,2262.6811738999995,n,1.3448917000005167,2253.2149182000003,2253.2149182000003,,,,15,001,2024-07-10_16h03.32.439,robot_sternberg_sign,2022.2.5,59.989657783250706,
"['R_Base_X_For', 'R_Arm_X_Back']",True,R_Arm_X_Back,2,robot,3,False,False,"['robot_stimuli\\R_Base_X_For.mp4', 'robot_stimuli\\R_Arm_X_Back.mp4']",robot_stimuli\R_Arm_X_Back.mp4,15,,,,,,,,,,,,,0,87,87,87,,,,,,,,,,,,,,,,,2274.6511659,2275.7290841000004,,,,,,,,,2279.3670945999993,2279.3670945999993,2279.3670945999993,2279.3670945999993,2279.3670945999993,2279.3670945999993,2279.3670945999993,2279.3670945999993,None,None,None,,,,,,,,,,,2266.3263868000004,2266.3263868000004,None,,2271.0306207999993,2275.7290841000004,2275.7290841000004,2275.7290841000004,2275.7290841000004,c,2.144631600000139,2266.3263868000004,2266.3263868000004,,,,15,001,2024-07-10_16h03.32.439,robot_sternberg_sign,2022.2.5,59.989657783250706,
"['R_Head_Y_Back', 'R_Base_X_Back']",True,R_Head_Y_Back,2,robot,3,False,False,"['robot_stimuli\\R_Head_Y_Back.mp4', 'robot_stimuli\\R_Base_X_Back.mp4']",robot_stimuli\R_Head_Y_Back.mp4,15,,,,,,,,,,,,,0,88,88,88,,,,,,,,,,,,,,,,,2287.8078003,2288.9095380999997,,,,,,,,,2292.5519995999994,2292.5519995999994,2292.5519995999994,2292.5519995999994,2292.5519995999994,2292.5519995999994,2292.5519995999994,2292.5519995999994,None,None,None,,,,,,,,,,,2279.3670945999993,2279.3670945999993,None,,2284.1645486999996,2288.9095380999997,2288.9095380999997,2288.9095380999997,2288.9095380999997,c,2.14828210000087,2279.3670945999993,2279.3670945999993,,,,15,001,2024-07-10_16h03.32.439,robot_sternberg_sign,2022.2.5,59.989657783250706,
"['L_Head_Y_Back', 'R_Arm_X_Back']",True,R_Arm_X_Back,2,robot,3,False,True,"['robot_stimuli\\L_Head_Y_Back.mp4', 'robot_stimuli\\R_Arm_X_Back.mp4']",robot_stimuli\R_Arm_X_Back.mp4,15,,,,,,,,,,,,,0,89,89,89,,,,,,,,,,,,,,,,,2301.0073138,2302.0927760999994,,,,,,,,,2305.7645951000004,2316.2041122,2305.7645951000004,2316.2041122,2305.7645951000004,2316.2041122,2305.7645951000004,2316.2041122,32.932098765432094,6.331030199999077,space,,,10.371974900001078,,,,,,,,2292.5519995999994,2292.5519995999994,None,,2297.365056899999,2302.0927760999994,2302.0927760999994,2302.0927760999994,2302.0927760999994,c,2.341253399999914,2292.5519995999994,2292.5519995999994,,,,15,001,2024-07-10_16h03.32.439,robot_sternberg_sign,2022.2.5,59.989657783250706,
"['F', 'M', 'W', 'L', 'V', 'X']",True,M,6,letter,4,True,False,"['robot_stimuli\\\\filler.mp4', 'robot_stimuli\\\\filler.mp4', 'robot_stimuli\\\\filler.mp4', 'robot_stimuli\\\\filler.mp4', 'robot_stimuli\\\\filler.mp4', 'robot_stimuli\\\\filler.mp4']",robot_stimuli\\filler.mp4,15,,,,,,,,,,,,,0,90,90,90,,,,,,,,,,,,,,,,,2372.3927498000003,2373.462214099999,,,,,,,,,2375.2805880999995,2375.2805880999995,2375.2805880999995,2375.2805880999995,2375.2805880999995,2375.2805880999995,2375.2805880999995,2375.2805880999995,None,None,None,,,,,,,,,,,2316.2041122,2316.2041122,space,42.036722400000144,,,2373.462214099999,2373.462214099999,2373.462214099999,c,1.6438120999991952,,,2370.173499899999,2372.3927498000003,2373.462214099999,15,001,2024-07-10_16h03.32.439,robot_sternberg_sign,2022.2.5,59.989657783250706,
"['V', 'H', 'M', 'L', 'R', 'S']",True,L,6,letter,4,False,False,"['robot_stimuli\\\\filler.mp4', 'robot_stimuli\\\\filler.mp4', 'robot_stimuli\\\\filler.mp4', 'robot_stimuli\\\\filler.mp4', 'robot_stimuli\\\\filler.mp4', 'robot_stimuli\\\\filler.mp4']",robot_stimuli\\filler.mp4,15,,,,,,,,,,,,,0,91,91,91,,,,,,,,,,,,,,,,,2389.394508799999,2390.4543416000006,,,,,,,,,2391.680551299999,2391.680551299999,2391.680551299999,2391.680551299999,2391.680551299999,2391.680551299999,2391.680551299999,2391.680551299999,None,None,None,,,,,,,,,,,2375.2805880999995,2375.2805880999995,None,,,,2390.4543416000006,2390.4543416000006,2390.4543416000006,c,1.0275500000007014,2375.2805880999995,2375.2805880999995,2387.3705903,2389.394508799999,2390.4543416000006,15,001,2024-07-10_16h03.32.439,robot_sternberg_sign,2022.2.5,59.989657783250706,
"['D', 'L', 'M', 'H', 'S', 'Q']",False,Z,6,letter,4,False,False,"['robot_stimuli\\\\filler.mp4', 'robot_stimuli\\\\filler.mp4', 'robot_stimuli\\\\filler.mp4', 'robot_stimuli\\\\filler.mp4', 'robot_stimuli\\\\filler.mp4', 'robot_stimuli\\\\filler.mp4']",robot_stimuli\\filler.mp4,15,,,,,,,,,,,,,0,92,92,92,,,,,,,,,,,,,,,,,2405.998617799999,2407.0568589000004,,,,,,,,,2407.8801348000006,2407.8801348000006,2407.8801348000006,2407.8801348000006,2407.8801348000006,2407.8801348000006,2407.8801348000006,2407.8801348000006,None,None,None,,,,,,,,,,,2391.680551299999,2391.680551299999,None,,,,2407.0568589000004,2407.0568589000004,2407.0568589000004,n,0.7207515000009153,2391.680551299999,2391.680551299999,2403.9793287,2405.998617799999,2407.0568589000004,15,001,2024-07-10_16h03.32.439,robot_sternberg_sign,2022.2.5,59.989657783250706,
"['M', 'J', 'P', 'Q', 'V', 'C']",True,M,6,letter,4,False,False,"['robot_stimuli\\\\filler.mp4', 'robot_stimuli\\\\filler.mp4', 'robot_stimuli\\\\filler.mp4', 'robot_stimuli\\\\filler.mp4', 'robot_stimuli\\\\filler.mp4', 'robot_stimuli\\\\filler.mp4']",robot_stimuli\\filler.mp4,15,,,,,,,,,,,,,0,93,93,93,,,,,,,,,,,,,,,,,2421.7840449000005,2422.8407596000006,,,,,,,,,2424.0606517000006,2424.0606517000006,2424.0606517000006,2424.0606517000006,2424.0606517000006,2424.0606517000006,2424.0606517000006,2424.0606517000006,None,None,None,,,,,,,,,,,2407.8801348000006,2407.8801348000006,None,,,,2422.8407596000006,2422.8407596000006,2422.8407596000006,c,1.065454100000352,2407.8801348000006,2407.8801348000006,2419.7658062,2421.7840449000005,2422.8407596000006,15,001,2024-07-10_16h03.32.439,robot_sternberg_sign,2022.2.5,59.989657783250706,
"['V', 'R', 'P', 'B', 'T', 'H']",False,D,6,letter,4,False,False,"['robot_stimuli\\\\filler.mp4', 'robot_stimuli\\\\filler.mp4', 'robot_stimuli\\\\filler.mp4', 'robot_stimuli\\\\filler.mp4', 'robot_stimuli\\\\filler.mp4', 'robot_stimuli\\\\filler.mp4']",robot_stimuli\\filler.mp4,15,,,,,,,,,,,,,0,94,94,94,,,,,,,,,,,,,,,,,2438.1823575999997,2439.237689299999,,,,,,,,,2440.067211299999,2440.067211299999,2440.067211299999,2440.067211299999,2440.067211299999,2440.067211299999,2440.067211299999,2440.067211299999,None,None,None,,,,,,,,,,,2424.0606517000006,2424.0606517000006,None,,,,2439.237689299999,2439.237689299999,2439.237689299999,n,0.7235988000011275,2424.0606517000006,2424.0606517000006,2436.1634267,2438.1823575999997,2439.237689299999,15,001,2024-07-10_16h03.32.439,robot_sternberg_sign,2022.2.5,59.989657783250706,
"['G', 'V', 'D', 'Q', 'K', 'W']",True,Q,6,letter,4,False,False,"['robot_stimuli\\\\filler.mp4', 'robot_stimuli\\\\filler.mp4', 'robot_stimuli\\\\filler.mp4', 'robot_stimuli\\\\filler.mp4', 'robot_stimuli\\\\filler.mp4', 'robot_stimuli\\\\filler.mp4']",robot_stimuli\\filler.mp4,15,,,,,,,,,,,,,0,95,95,95,,,,,,,,,,,,,,,,,2454.384906799999,2455.4432632,,,,,,,,,2456.6632125000006,2456.6632125000006,2456.6632125000006,2456.6632125000006,2456.6632125000006,2456.6632125000006,2456.6632125000006,2456.6632125000006,None,None,None,,,,,,,,,,,2440.067211299999,2440.067211299999,None,,,,2455.4432632,2455.4432632,2455.4432632,c,1.1429234000006545,2440.067211299999,2440.067211299999,2452.1721965999996,2454.384906799999,2455.4432632,15,001,2024-07-10_16h03.32.439,robot_sternberg_sign,2022.2.5,59.989657783250706,
"['R', 'T', 'X', 'B', 'D', 'N']",True,D,6,letter,4,False,False,"['robot_stimuli\\\\filler.mp4', 'robot_stimuli\\\\filler.mp4', 'robot_stimuli\\\\filler.mp4', 'robot_stimuli\\\\filler.mp4', 'robot_stimuli\\\\filler.mp4', 'robot_stimuli\\\\filler.mp4']",robot_stimuli\\filler.mp4,15,,,,,,,,,,,,,0,96,96,96,,,,,,,,,,,,,,,,,2470.9969501000005,2472.0577270000003,,,,,,,,,2473.8796087,2473.8796087,2473.8796087,2473.8796087,2473.8796087,2473.8796087,2473.8796087,2473.8796087,None,None,None,,,,,,,,,,,2456.6632125000006,2456.6632125000006,None,,,,2472.0577270000003,2472.0577270000003,2472.0577270000003,c,1.6240811000006943,2456.6632125000006,2456.6632125000006,2468.977045999999,2470.9969501000005,2472.0577270000003,15,001,2024-07-10_16h03.32.439,robot_sternberg_sign,2022.2.5,59.989657783250706,
"['W', 'C', 'X', 'D', 'N', 'Z']",False,P,6,letter,4,False,False,"['robot_stimuli\\\\filler.mp4', 'robot_stimuli\\\\filler.mp4', 'robot_stimuli\\\\filler.mp4', 'robot_stimuli\\\\filler.mp4', 'robot_stimuli\\\\filler.mp4', 'robot_stimuli\\\\filler.mp4']",robot_stimuli\\filler.mp4,15,,,,,,,,,,,,,0,97,97,97,,,,,,,,,,,,,,,,,2487.818881799999,2488.8701857999995,,,,,,,,,2489.695497399999,2489.695497399999,2489.695497399999,2489.695497399999,2489.695497399999,2489.695497399999,2489.695497399999,2489.695497399999,None,None,None,,,,,,,,,,,2473.8796087,2473.8796087,None,,,,2488.8701857999995,2488.8701857999995,2488.8701857999995,n,0.7563657999999123,2473.8796087,2473.8796087,2485.8001424000004,2487.818881799999,2488.8701857999995,15,001,2024-07-10_16h03.32.439,robot_sternberg_sign,2022.2.5,59.989657783250706,
"['Z', 'W', 'J', 'H', 'C', 'L']",False,S,6,letter,4,False,False,"['robot_stimuli\\\\filler.mp4', 'robot_stimuli\\\\filler.mp4', 'robot_stimuli\\\\filler.mp4', 'robot_stimuli\\\\filler.mp4', 'robot_stimuli\\\\filler.mp4', 'robot_stimuli\\\\filler.mp4']",robot_stimuli\\filler.mp4,15,,,,,,,,,,,,,0,98,98,98,,,,,,,,,,,,,,,,,2503.622697,2504.6886022999997,,,,,,,,,2506.3112420000007,2506.3112420000007,2506.3112420000007,2506.3112420000007,2506.3112420000007,2506.3112420000007,2506.3112420000007,2506.3112420000007,None,None,None,,,,,,,,,,,2489.695497399999,2489.695497399999,None,,,,2504.6886022999997,2504.6886022999997,2504.6886022999997,n,1.5129489000009926,2489.695497399999,2489.695497399999,2501.4046726999995,2503.622697,2504.6886022999997,15,001,2024-07-10_16h03.32.439,robot_sternberg_sign,2022.2.5,59.989657783250706,
"['M', 'N', 'B', 'F', 'G', 'T']",False,V,6,letter,4,False,True,"['robot_stimuli\\\\filler.mp4', 'robot_stimuli\\\\filler.mp4', 'robot_stimuli\\\\filler.mp4', 'robot_stimuli\\\\filler.mp4', 'robot_stimuli\\\\filler.mp4', 'robot_stimuli\\\\filler.mp4']",robot_stimuli\\filler.mp4,15,,,,,,,,,,,,,0,99,99,99,,,,,,,,,,,,,,,,,2520.447143799999,2521.5144972999997,,,,,,,,,2522.9717575999994,2529.9382256,2522.9717575999994,2529.9382256,2522.9717575999994,2529.9382256,2522.9717575999994,2529.9382256,36.79012345679013,6.3424692999997205,space,,,6.917128600000069,,,,,,,,2506.3112420000007,2506.3112420000007,None,,,,2521.5144972999997,2521.5144972999997,2521.5144972999997,n,1.3581225000016275,2506.3112420000007,2506.3112420000007,2518.4322423000003,2520.447143799999,2521.5144972999997,15,001,2024-07-10_16h03.32.439,robot_sternberg_sign,2022.2.5,59.989657783250706,
"['L', 'J']",True,J,2,letter,4,True,False,"['robot_stimuli\\\\filler.mp4', 'robot_stimuli\\\\filler.mp4']",robot_stimuli\\filler.mp4,15,,,,,,,,,,,,,0,100,100,100,,,,,,,,,,,,,,,,,2539.4910451999995,2540.5566114999992,,,,,,,,,2541.9853558999994,2541.9853558999994,2541.9853558999994,2541.9853558999994,2541.9853558999994,2541.9853558999994,2541.9853558999994,2541.9853558999994,None,None,None,,,,,,,,,,,2529.9382256,2529.9382256,space,4.158405300000595,,,2540.5566114999992,2540.5566114999992,2540.5566114999992,c,1.3653867000011815,,,2537.2719559999996,2539.4910451999995,2540.5566114999992,15,001,2024-07-10_16h03.32.439,robot_sternberg_sign,2022.2.5,59.989657783250706,
"['C', 'L']",True,C,2,letter,4,False,False,"['robot_stimuli\\\\filler.mp4', 'robot_stimuli\\\\filler.mp4']",robot_stimuli\\filler.mp4,15,,,,,,,,,,,,,0,101,101,101,,,,,,,,,,,,,,,,,2547.1480710999995,2548.2061454999994,,,,,,,,,2549.2306935000006,2549.2306935000006,2549.2306935000006,2549.2306935000006,2549.2306935000006,2549.2306935000006,2549.2306935000006,2549.2306935000006,None,None,None,,,,,,,,,,,2541.9853558999994,2541.9853558999994,None,,,,2548.2061454999994,2548.2061454999994,2548.2061454999994,c,0.8191388000013831,2541.9853558999994,2541.9853558999994,2545.1264901999994,2547.1480710999995,2548.2061454999994,15,001,2024-07-10_16h03.32.439,robot_sternberg_sign,2022.2.5,59.989657783250706,
"['Z', 'T']",False,D,2,letter,4,False,False,"['robot_stimuli\\\\filler.mp4', 'robot_stimuli\\\\filler.mp4']",robot_stimuli\\filler.mp4,15,,,,,,,,,,,,,0,102,102,102,,,,,,,,,,,,,,,,,2554.5933022,2555.6536215999995,,,,,,,,,2556.4742720999993,2556.4742720999993,2556.4742720999993,2556.4742720999993,2556.4742720999993,2556.4742720999993,2556.4742720999993,2556.4742720999993,None,None,None,,,,,,,,,,,2549.2306935000006,2549.2306935000006,None,,,,2555.6536215999995,2555.6536215999995,2555.6536215999995,n,0.6834318000001076,2549.2306935000006,2549.2306935000006,2552.371059,2554.5933022,2555.6536215999995,15,001,2024-07-10_16h03.32.439,robot_sternberg_sign,2022.2.5,59.989657783250706,
"['T', 'P']",False,S,2,letter,4,False,False,"['robot_stimuli\\\\filler.mp4', 'robot_stimuli\\\\filler.mp4']",robot_stimuli\\filler.mp4,15,,,,,,,,,,,,,0,103,103,103,,,,,,,,,,,,,,,,,2561.8432767999993,2562.904145899999,,,,,,,,,2564.1337097000005,2564.1337097000005,2564.1337097000005,2564.1337097000005,2564.1337097000005,2564.1337097000005,2564.1337097000005,2564.1337097000005,None,None,None,,,,,,,,,,,2556.4742720999993,2556.4742720999993,None,,,,2562.904145899999,2562.904145899999,2562.904145899999,n,1.1048931000004814,2556.4742720999993,2556.4742720999993,2559.8236067999997,2561.8432767999993,2562.904145899999,15,001,2024-07-10_16h03.32.439,robot_sternberg_sign,2022.2.5,59.989657783250706,
