sequence,is_target,condition,stimuli,block,is_block_beginning,is_block_ending,fname,subject,retraining.thisRepN,retraining.thisTrialN,retraining.thisN,retraining.thisIndex,training.thisRepN,training.thisTrialN,training.thisN,training.thisIndex,trials.thisRepN,trials.thisTrialN,trials.thisN,trials.thisIndex,langage_text.started,langage_key.started,langage_key.keys,langage_key.rt,intro_text.started,intro_key.started,intro_key.keys,intro_key.rt,training_robot_intro_text.started,training_robot_intro_key.started,training_robot_intro_key.keys,training_robot_intro_key.rt,cross.started,cross.stopped,training_letter.started,training_robot_key.started,training_robot_question.started,training_robot_keys.started,training_letter.stopped,training_robot_key.keys,RSME_labels.started,RSME_labels.stopped,RSME_ticks.started,RSME_ticks.stopped,RSME_text.started,RSME_text.stopped,RSME_key.started,RSME_key.stopped,RSME_ticks.response,RSME_ticks.rt,RSME_key.keys,training_robot_intro_text.stopped,training_robot_intro_key.stopped,training_robot_key.rt,RSME_key.rt,training_robot_movie.started,experiment_beginning_text.started,experiment_beginning_keys.started,experiment_beginning_key.started,experiment_beginning_key.keys,experiment_beginning_key.rt,block_intro_text.started,block_intro_key.started,block_intro_key.keys,block_intro_key.rt,letter.started,key.started,letter.stopped,key.keys,block_intro_text.stopped,block_intro_key.stopped,key.rt,movie.started,participant,session,date,expName,psychopyVersion,frameRate,Unnamed: 80
,,,,,,,,,,,,,,,,,,,,,11.844909300001746,11.844909300001746,e,28.573041899999225,,,,,,,,,,,,,,,,,,,,,,,,,,,,,,,,,,,,,,,,,,,,,,,,,,12,1,2024-06-18_17h02.34.500,robot_nback_sign,2022.2.5,60.20647207619808,
,,,,,,,,,,,,,,,,,,,,,,,,,40.47138310000082,40.47138310000082,space,86.66616580000118,,,,,,,,,,,,,,,,,,,,,,,,,,,,,,,,,,,,,,,,,,,,,,12,1,2024-06-18_17h02.34.500,robot_nback_sign,2022.2.5,60.20647207619808,
B,False,1.0,letter,1.0,True,False,robot_stimuli\\filler.mp4,12.0,0.0,0.0,0.0,0.0,0.0,0.0,0.0,0.0,,,,,,,,,,,,,127.18454610000116,127.18454610000116,space,14.825556199997663,142.0359924000004,143.15320390000124,143.15320390000124,143.15320390000124,143.15320390000124,143.15320390000124,145.36882669999977,None,145.36882669999977,145.36882669999977,145.36882669999977,145.36882669999977,145.36882669999977,145.36882669999977,145.36882669999977,145.36882669999977,None,None,None,,,,,,,,,,,,,,,,,,,,,,,12,1,2024-06-18_17h02.34.500,robot_nback_sign,2022.2.5,60.20647207619808,
H,False,1.0,letter,1.0,False,False,robot_stimuli\\filler.mp4,12.0,0.0,0.0,0.0,0.0,0.0,1.0,1.0,1.0,,,,,,,,,,,,,145.36882669999977,145.36882669999977,None,,145.36882669999977,146.43827470000178,146.43827470000178,146.43827470000178,146.43827470000178,146.43827470000178,148.67082950000258,n,148.67082950000258,148.67082950000258,148.67082950000258,148.67082950000258,148.67082950000258,148.67082950000258,148.67082950000258,148.67082950000258,None,None,None,145.36882669999977,145.36882669999977,1.6344023999990895,,,,,,,,,,,,,,,,,,,,12,1,2024-06-18_17h02.34.500,robot_nback_sign,2022.2.5,60.20647207619808,
H,True,1.0,letter,1.0,False,False,robot_stimuli\\filler.mp4,12.0,0.0,0.0,0.0,0.0,0.0,2.0,2.0,2.0,,,,,,,,,,,,,148.67082950000258,148.67082950000258,None,,148.67082950000258,149.73353770000176,149.73353770000176,149.73353770000176,149.73353770000176,149.73353770000176,151.76450900000054,c,151.76450900000054,151.76450900000054,151.76450900000054,151.76450900000054,151.76450900000054,151.76450900000054,151.76450900000054,151.76450900000054,None,None,None,148.67082950000258,148.67082950000258,1.2765086999970665,,,,,,,,,,,,,,,,,,,,12,1,2024-06-18_17h02.34.500,robot_nback_sign,2022.2.5,60.20647207619808,
K,False,1.0,letter,1.0,False,False,robot_stimuli\\filler.mp4,12.0,0.0,0.0,0.0,0.0,0.0,3.0,3.0,3.0,,,,,,,,,,,,,151.76450900000054,151.76450900000054,None,,151.76450900000054,152.8367911000023,152.8367911000023,152.8367911000023,152.8367911000023,152.8367911000023,154.8693127000006,n,154.8693127000006,154.8693127000006,154.8693127000006,154.8693127000006,154.8693127000006,154.8693127000006,154.8693127000006,154.8693127000006,None,None,None,151.76450900000054,151.76450900000054,0.8297444999989239,,,,,,,,,,,,,,,,,,,,12,1,2024-06-18_17h02.34.500,robot_nback_sign,2022.2.5,60.20647207619808,
K,True,1.0,letter,1.0,False,False,robot_stimuli\\filler.mp4,12.0,0.0,0.0,0.0,0.0,0.0,4.0,4.0,4.0,,,,,,,,,,,,,154.8693127000006,154.8693127000006,None,,154.8693127000006,155.93761260000247,155.93761260000247,155.93761260000247,155.93761260000247,155.93761260000247,158.17156400000022,c,158.17156400000022,158.17156400000022,158.17156400000022,158.17156400000022,158.17156400000022,158.17156400000022,158.17156400000022,158.17156400000022,None,None,None,154.8693127000006,154.8693127000006,0.519628099998954,,,,,,,,,,,,,,,,,,,,12,1,2024-06-18_17h02.34.500,robot_nback_sign,2022.2.5,60.20647207619808,
P,False,1.0,letter,1.0,False,True,robot_stimuli\\filler.mp4,12.0,0.0,0.0,0.0,0.0,0.0,5.0,5.0,5.0,,,,,,,,,,,,,158.17156400000022,158.17156400000022,None,,158.17156400000022,,159.2563145999993,159.2563145999993,159.2563145999993,159.2563145999993,161.54234759999963,n,161.54234759999963,171.21451069999966,161.54234759999963,171.21451069999966,161.54234759999963,171.21451069999966,161.54234759999963,171.21451069999966,29.38271604938271,7.88157560000036,space,158.17156400000022,158.17156400000022,0.8642448999999033,9.611238499997851,,,,,,,,,,,,,,,,,,,12,1,2024-06-18_17h02.34.500,robot_nback_sign,2022.2.5,60.20647207619808,
S,False,2.0,letter,1.0,True,False,robot_stimuli\\filler.mp4,12.0,0.0,0.0,0.0,0.0,0.0,6.0,6.0,6.0,,,,,,,,,,,,,171.21451069999966,171.21451069999966,space,5.586500799996429,176.8196167999995,177.8954502000015,177.8954502000015,177.8954502000015,177.8954502000015,177.8954502000015,179.92548440000246,None,179.92548440000246,179.92548440000246,179.92548440000246,179.92548440000246,179.92548440000246,179.92548440000246,179.92548440000246,179.92548440000246,None,None,None,,,,,,,,,,,,,,,,,,,,,,,12,1,2024-06-18_17h02.34.500,robot_nback_sign,2022.2.5,60.20647207619808,
S,False,2.0,letter,1.0,False,False,robot_stimuli\\filler.mp4,12.0,0.0,0.0,0.0,0.0,0.0,7.0,7.0,7.0,,,,,,,,,,,,,179.92548440000246,179.92548440000246,None,,179.92548440000246,181.00322199999937,181.00322199999937,181.00322199999937,181.00322199999937,181.00322199999937,183.03833809999924,None,183.03833809999924,183.03833809999924,183.03833809999924,183.03833809999924,183.03833809999924,183.03833809999924,183.03833809999924,183.03833809999924,None,None,None,179.92548440000246,179.92548440000246,,,,,,,,,,,,,,,,,,,,,12,1,2024-06-18_17h02.34.500,robot_nback_sign,2022.2.5,60.20647207619808,
S,True,2.0,letter,1.0,False,False,robot_stimuli\\filler.mp4,12.0,0.0,0.0,0.0,0.0,0.0,8.0,8.0,8.0,,,,,,,,,,,,,183.03833809999924,183.03833809999924,None,,183.03833809999924,,184.11698420000167,184.11698420000167,184.11698420000167,184.11698420000167,186.1506064999994,c,186.1506064999994,186.1506064999994,186.1506064999994,186.1506064999994,186.1506064999994,186.1506064999994,186.1506064999994,186.1506064999994,None,None,None,183.03833809999924,183.03833809999924,0.6369683999982954,,,,,,,,,,,,,,,,,,,,12,1,2024-06-18_17h02.34.500,robot_nback_sign,2022.2.5,60.20647207619808,
S,True,2.0,letter,1.0,False,False,robot_stimuli\\filler.mp4,12.0,0.0,0.0,0.0,0.0,0.0,9.0,9.0,9.0,,,,,,,,,,,,,186.1506064999994,186.1506064999994,None,,186.1506064999994,187.2161823000024,187.2161823000024,187.2161823000024,187.2161823000024,187.2161823000024,189.25007470000128,c,189.25007470000128,189.25007470000128,189.25007470000128,189.25007470000128,189.25007470000128,189.25007470000128,189.25007470000128,189.25007470000128,None,None,None,186.1506064999994,186.1506064999994,0.6731843999987177,,,,,,,,,,,,,,,,,,,,12,1,2024-06-18_17h02.34.500,robot_nback_sign,2022.2.5,60.20647207619808,
F,False,2.0,letter,1.0,False,False,robot_stimuli\\filler.mp4,12.0,0.0,0.0,0.0,0.0,0.0,10.0,10.0,10.0,,,,,,,,,,,,,189.25007470000128,189.25007470000128,None,,189.25007470000128,190.32099690000177,190.32099690000177,190.32099690000177,190.32099690000177,190.32099690000177,192.54944299999988,n,192.54944299999988,192.54944299999988,192.54944299999988,192.54944299999988,192.54944299999988,192.54944299999988,192.54944299999988,192.54944299999988,None,None,None,189.25007470000128,189.25007470000128,0.8477034999959869,,,,,,,,,,,,,,,,,,,,12,1,2024-06-18_17h02.34.500,robot_nback_sign,2022.2.5,60.20647207619808,
F,False,2.0,letter,1.0,False,True,robot_stimuli\\filler.mp4,12.0,0.0,0.0,0.0,0.0,0.0,11.0,11.0,11.0,,,,,,,,,,,,,192.54944299999988,192.54944299999988,None,,192.54944299999988,193.6160149999996,193.6160149999996,193.6160149999996,193.6160149999996,193.6160149999996,195.68138380000164,n,195.68138380000164,200.37996500000008,195.68138380000164,200.37996500000008,195.68138380000164,200.37996500000008,195.68138380000164,200.37996500000008,36.327160493827165,3.334565000001021,space,192.54944299999988,192.54944299999988,0.9221814999982598,4.639984999997978,,,,,,,,,,,,,,,,,,,12,1,2024-06-18_17h02.34.500,robot_nback_sign,2022.2.5,60.20647207619808,
C,False,3.0,letter,1.0,True,False,robot_stimuli\\filler.mp4,12.0,0.0,0.0,0.0,0.0,0.0,12.0,12.0,12.0,,,,,,,,,,,,,200.37996500000008,200.37996500000008,space,2.1577876999981527,202.56958999999915,203.6450842000013,203.6450842000013,203.6450842000013,203.6450842000013,203.6450842000013,205.8771309000004,None,205.8771309000004,205.8771309000004,205.8771309000004,205.8771309000004,205.8771309000004,205.8771309000004,205.8771309000004,205.8771309000004,None,None,None,,,,,,,,,,,,,,,,,,,,,,,12,1,2024-06-18_17h02.34.500,robot_nback_sign,2022.2.5,60.20647207619808,
M,False,3.0,letter,1.0,False,False,robot_stimuli\\filler.mp4,12.0,0.0,0.0,0.0,0.0,0.0,13.0,13.0,13.0,,,,,,,,,,,,,205.8771309000004,205.8771309000004,None,,205.8771309000004,206.95388300000195,206.95388300000195,206.95388300000195,206.95388300000195,206.95388300000195,208.9859653999993,None,208.9859653999993,208.9859653999993,208.9859653999993,208.9859653999993,208.9859653999993,208.9859653999993,208.9859653999993,208.9859653999993,None,None,None,205.8771309000004,205.8771309000004,,,,,,,,,,,,,,,,,,,,,12,1,2024-06-18_17h02.34.500,robot_nback_sign,2022.2.5,60.20647207619808,
N,False,3.0,letter,1.0,False,False,robot_stimuli\\filler.mp4,12.0,0.0,0.0,0.0,0.0,0.0,14.0,14.0,14.0,,,,,,,,,,,,,208.9859653999993,208.9859653999993,None,,208.9859653999993,210.0530249000003,210.0530249000003,210.0530249000003,210.0530249000003,210.0530249000003,212.08331550000003,None,212.08331550000003,212.08331550000003,212.08331550000003,212.08331550000003,212.08331550000003,212.08331550000003,212.08331550000003,212.08331550000003,None,None,None,208.9859653999993,208.9859653999993,,,,,,,,,,,,,,,,,,,,,12,1,2024-06-18_17h02.34.500,robot_nback_sign,2022.2.5,60.20647207619808,
Q,False,3.0,letter,1.0,False,False,robot_stimuli\\filler.mp4,12.0,0.0,0.0,0.0,0.0,0.0,15.0,15.0,15.0,,,,,,,,,,,,,212.08331550000003,212.08331550000003,None,,212.08331550000003,213.15530600000056,213.15530600000056,213.15530600000056,213.15530600000056,213.15530600000056,215.38843780000025,n,215.38843780000025,215.38843780000025,215.38843780000025,215.38843780000025,215.38843780000025,215.38843780000025,215.38843780000025,215.38843780000025,None,None,None,212.08331550000003,212.08331550000003,0.5823729000003368,,,,,,,,,,,,,,,,,,,,12,1,2024-06-18_17h02.34.500,robot_nback_sign,2022.2.5,60.20647207619808,
M,True,3.0,letter,1.0,False,False,robot_stimuli\\filler.mp4,12.0,0.0,0.0,0.0,0.0,0.0,16.0,16.0,16.0,,,,,,,,,,,,,215.38843780000025,215.38843780000025,None,,215.38843780000025,,216.46765589999995,216.46765589999995,216.46765589999995,216.46765589999995,218.50471620000096,n,218.50471620000096,218.50471620000096,218.50471620000096,218.50471620000096,218.50471620000096,218.50471620000096,218.50471620000096,218.50471620000096,None,None,None,215.38843780000025,215.38843780000025,1.375031299998227,,,,,,,,,,,,,,,,,,,,12,1,2024-06-18_17h02.34.500,robot_nback_sign,2022.2.5,60.20647207619808,
N,True,3.0,letter,1.0,False,True,robot_stimuli\\filler.mp4,12.0,0.0,0.0,0.0,0.0,0.0,17.0,17.0,17.0,,,,,,,,,,,,,218.50471620000096,218.50471620000096,None,,218.50471620000096,,219.5835871000017,219.5835871000017,219.5835871000017,219.5835871000017,221.6408011999993,n,221.6408011999993,225.6441279999999,221.6408011999993,225.6441279999999,221.6408011999993,225.6441279999999,221.6408011999993,225.6441279999999,44.197530864197525,3.0918481000007887,space,218.50471620000096,218.50471620000096,1.354097899999033,3.944333399998868,,,,,,,,,,,,,,,,,,,12,1,2024-06-18_17h02.34.500,robot_nback_sign,2022.2.5,60.20647207619808,
L_Base_X_For,False,1.0,robot,2.0,True,False,robot_stimuli\L_Base_X_For.mp4,12.0,0.0,0.0,0.0,0.0,0.0,18.0,18.0,18.0,,,,,,,,,,,,,225.6441279999999,225.6441279999999,space,1.8136815999969256,227.4863905999992,228.5981974000024,,228.5981974000024,228.5981974000024,228.5981974000024,,None,232.16788169999927,232.16788169999927,232.16788169999927,232.16788169999927,232.16788169999927,232.16788169999927,232.16788169999927,232.16788169999927,None,None,None,,,,,228.5981974000024,,,,,,,,,,,,,,,,,,12,1,2024-06-18_17h02.34.500,robot_nback_sign,2022.2.5,60.20647207619808,
L_Base_X_For,True,1.0,robot,2.0,False,False,robot_stimuli\L_Base_X_For.mp4,12.0,0.0,0.0,0.0,0.0,0.0,19.0,19.0,19.0,,,,,,,,,,,,,232.16788169999927,232.16788169999927,None,,232.16788169999927,233.26122570000007,,233.26122570000007,233.26122570000007,233.26122570000007,,None,236.8382352000008,236.8382352000008,236.8382352000008,236.8382352000008,236.8382352000008,236.8382352000008,236.8382352000008,236.8382352000008,None,None,None,232.16788169999927,232.16788169999927,,,233.26122570000007,,,,,,,,,,,,,,,,,,12,1,2024-06-18_17h02.34.500,robot_nback_sign,2022.2.5,60.20647207619808,
R_Torso_Z_For,False,1.0,robot,2.0,False,False,robot_stimuli\R_Torso_Z_For.mp4,12.0,0.0,0.0,0.0,0.0,0.0,20.0,20.0,20.0,,,,,,,,,,,,,236.8382352000008,236.8382352000008,None,,236.8382352000008,,,237.9530575999997,237.9530575999997,237.9530575999997,,n,241.5983883000008,241.5983883000008,241.5983883000008,241.5983883000008,241.5983883000008,241.5983883000008,241.5983883000008,241.5983883000008,None,None,None,236.8382352000008,236.8382352000008,2.76066009999704,,237.9530575999997,,,,,,,,,,,,,,,,,,12,1,2024-06-18_17h02.34.500,robot_nback_sign,2022.2.5,60.20647207619808,
R_Torso_Z_For,True,1.0,robot,2.0,False,False,robot_stimuli\R_Torso_Z_For.mp4,12.0,0.0,0.0,0.0,0.0,0.0,21.0,21.0,21.0,,,,,,,,,,,,,241.5983883000008,241.5983883000008,None,,241.5983883000008,242.6943229999997,,242.6943229999997,242.6943229999997,242.6943229999997,,c,246.33850040000107,246.33850040000107,246.33850040000107,246.33850040000107,246.33850040000107,246.33850040000107,246.33850040000107,246.33850040000107,None,None,None,241.5983883000008,241.5983883000008,1.4198385999989114,,242.6943229999997,,,,,,,,,,,,,,,,,,12,1,2024-06-18_17h02.34.500,robot_nback_sign,2022.2.5,60.20647207619808,
R_Base_Z_Back,False,1.0,robot,2.0,False,False,robot_stimuli\R_Base_Z_Back.mp4,12.0,0.0,0.0,0.0,0.0,0.0,22.0,22.0,22.0,,,,,,,,,,,,,246.33850040000107,246.33850040000107,None,,246.33850040000107,,,247.4492804000001,247.4492804000001,247.4492804000001,,c,251.00218120000136,251.00218120000136,251.00218120000136,251.00218120000136,251.00218120000136,251.00218120000136,251.00218120000136,251.00218120000136,None,None,None,246.33850040000107,246.33850040000107,1.5289207999994687,,247.4492804000001,,,,,,,,,,,,,,,,,,12,1,2024-06-18_17h02.34.500,robot_nback_sign,2022.2.5,60.20647207619808,
R_Base_Z_For,False,1.0,robot,2.0,False,True,robot_stimuli\R_Base_Z_For.mp4,12.0,0.0,0.0,0.0,0.0,0.0,23.0,23.0,23.0,,,,,,,,,,,,,251.00218120000136,251.00218120000136,None,,251.00218120000136,252.09705870000107,,252.09705870000107,252.09705870000107,252.09705870000107,,c,255.76645410000128,259.3869382000012,255.76645410000128,259.3869382000012,255.76645410000128,259.3869382000012,255.76645410000128,259.3869382000012,39.72222222222223,2.430975999999646,space,251.00218120000136,251.00218120000136,1.817317399996682,3.5630377999987104,252.09705870000107,,,,,,,,,,,,,,,,,,12,1,2024-06-18_17h02.34.500,robot_nback_sign,2022.2.5,60.20647207619808,
R_Arm_X_For,False,2.0,robot,2.0,True,False,robot_stimuli\R_Arm_X_For.mp4,12.0,0.0,0.0,0.0,0.0,0.0,24.0,24.0,24.0,,,,,,,,,,,,,259.3869382000012,259.3869382000012,space,2.287211099999695,261.703075100002,262.7987262000024,,262.7987262000024,262.7987262000024,262.7987262000024,,None,266.43131150000045,266.43131150000045,266.43131150000045,266.43131150000045,266.43131150000045,266.43131150000045,266.43131150000045,266.43131150000045,None,None,None,,,,,262.7987262000024,,,,,,,,,,,,,,,,,,12,1,2024-06-18_17h02.34.500,robot_nback_sign,2022.2.5,60.20647207619808,
L_Head_Z_Back,False,2.0,robot,2.0,False,False,robot_stimuli\L_Head_Z_Back.mp4,12.0,0.0,0.0,0.0,0.0,0.0,25.0,25.0,25.0,,,,,,,,,,,,,266.43131150000045,266.43131150000045,None,,266.43131150000045,267.53101380000226,,267.53101380000226,267.53101380000226,267.53101380000226,,None,271.17409899999984,271.17409899999984,271.17409899999984,271.17409899999984,271.17409899999984,271.17409899999984,271.17409899999984,271.17409899999984,None,None,None,266.43131150000045,266.43131150000045,,,267.53101380000226,,,,,,,,,,,,,,,,,,12,1,2024-06-18_17h02.34.500,robot_nback_sign,2022.2.5,60.20647207619808,
R_Arm_X_For,True,2.0,robot,2.0,False,False,robot_stimuli\R_Arm_X_For.mp4,12.0,0.0,0.0,0.0,0.0,0.0,26.0,26.0,26.0,,,,,,,,,,,,,271.17409899999984,271.17409899999984,None,,271.17409899999984,272.2811980000006,,272.2811980000006,272.2811980000006,272.2811980000006,,c,275.92229020000013,275.92229020000013,275.92229020000013,275.92229020000013,275.92229020000013,275.92229020000013,275.92229020000013,275.92229020000013,None,None,None,271.17409899999984,271.17409899999984,2.048576299996057,,272.2811980000006,,,,,,,,,,,,,,,,,,12,1,2024-06-18_17h02.34.500,robot_nback_sign,2022.2.5,60.20647207619808,
L_Head_Z_Back,True,2.0,robot,2.0,False,False,robot_stimuli\L_Head_Z_Back.mp4,12.0,0.0,0.0,0.0,0.0,0.0,27.0,27.0,27.0,,,,,,,,,,,,,275.92229020000013,275.92229020000013,None,,275.92229020000013,,,277.0305503000018,277.0305503000018,277.0305503000018,,c,280.6727697000024,280.6727697000024,280.6727697000024,280.6727697000024,280.6727697000024,280.6727697000024,280.6727697000024,280.6727697000024,None,None,None,275.92229020000013,275.92229020000013,1.6740646999969613,,277.0305503000018,,,,,,,,,,,,,,,,,,12,1,2024-06-18_17h02.34.500,robot_nback_sign,2022.2.5,60.20647207619808,
L_Head_X_Back,False,2.0,robot,2.0,False,False,robot_stimuli\L_Head_X_Back.mp4,12.0,0.0,0.0,0.0,0.0,0.0,28.0,28.0,28.0,,,,,,,,,,,,,280.6727697000024,280.6727697000024,None,,280.6727697000024,,,281.7784353999996,281.7784353999996,281.7784353999996,,n,285.4109494000004,285.4109494000004,285.4109494000004,285.4109494000004,285.4109494000004,285.4109494000004,285.4109494000004,285.4109494000004,None,None,None,280.6727697000024,280.6727697000024,1.7675997000005736,,281.7784353999996,,,,,,,,,,,,,,,,,,12,1,2024-06-18_17h02.34.500,robot_nback_sign,2022.2.5,60.20647207619808,
L_Arm_Z_Back,False,2.0,robot,2.0,False,True,robot_stimuli\L_Arm_Z_Back.mp4,12.0,0.0,0.0,0.0,0.0,0.0,29.0,29.0,29.0,,,,,,,,,,,,,285.4109494000004,285.4109494000004,None,,285.4109494000004,286.50256020000234,,286.50256020000234,286.50256020000234,286.50256020000234,,n,290.18111130000034,297.2863378000002,290.18111130000034,297.2863378000002,290.18111130000034,297.2863378000002,290.18111130000034,297.2863378000002,49.75308641975309,2.4974336000013864,space,285.4109494000004,285.4109494000004,2.5632259999983944,7.059651200001099,286.50256020000234,,,,,,,,,,,,,,,,,,12,1,2024-06-18_17h02.34.500,robot_nback_sign,2022.2.5,60.20647207619808,
R_Torso_Z_For,False,3.0,robot,2.0,True,False,robot_stimuli\R_Torso_Z_For.mp4,12.0,0.0,0.0,0.0,0.0,0.0,30.0,30.0,30.0,,,,,,,,,,,,,297.2863378000002,297.2863378000002,space,1.1463416999977198,298.45297589999973,299.5370881000017,,299.5370881000017,299.5370881000017,299.5370881000017,,None,303.1867476000007,303.1867476000007,303.1867476000007,303.1867476000007,303.1867476000007,303.1867476000007,303.1867476000007,303.1867476000007,None,None,None,,,,,299.5370881000017,,,,,,,,,,,,,,,,,,12,1,2024-06-18_17h02.34.500,robot_nback_sign,2022.2.5,60.20647207619808,
R_Head_X_Back,False,3.0,robot,2.0,False,False,robot_stimuli\R_Head_X_Back.mp4,12.0,0.0,0.0,0.0,0.0,0.0,31.0,31.0,31.0,,,,,,,,,,,,,303.1867476000007,303.1867476000007,None,,303.1867476000007,304.2693648000022,,304.2693648000022,304.2693648000022,304.2693648000022,,None,307.9227288000002,307.9227288000002,307.9227288000002,307.9227288000002,307.9227288000002,307.9227288000002,307.9227288000002,307.9227288000002,None,None,None,303.1867476000007,303.1867476000007,,,304.2693648000022,,,,,,,,,,,,,,,,,,12,1,2024-06-18_17h02.34.500,robot_nback_sign,2022.2.5,60.20647207619808,
R_Torso_Z_For,False,3.0,robot,2.0,False,False,robot_stimuli\R_Torso_Z_For.mp4,12.0,0.0,0.0,0.0,0.0,0.0,32.0,32.0,32.0,,,,,,,,,,,,,307.9227288000002,307.9227288000002,None,,307.9227288000002,,,309.0303066000015,309.0303066000015,309.0303066000015,,None,312.6713335000022,312.6713335000022,312.6713335000022,312.6713335000022,312.6713335000022,312.6713335000022,312.6713335000022,312.6713335000022,None,None,None,307.9227288000002,307.9227288000002,,,309.0303066000015,,,,,,,,,,,,,,,,,,12,1,2024-06-18_17h02.34.500,robot_nback_sign,2022.2.5,60.20647207619808,
R_Torso_Z_For,True,3.0,robot,2.0,False,False,robot_stimuli\R_Torso_Z_For.mp4,12.0,0.0,0.0,0.0,0.0,0.0,33.0,33.0,33.0,,,,,,,,,,,,,312.6713335000022,312.6713335000022,None,,312.6713335000022,,,313.7758680000006,313.7758680000006,313.7758680000006,,c,317.4153905999992,317.4153905999992,317.4153905999992,317.4153905999992,317.4153905999992,317.4153905999992,317.4153905999992,317.4153905999992,None,None,None,312.6713335000022,312.6713335000022,2.1142283999979554,,313.7758680000006,,,,,,,,,,,,,,,,,,12,1,2024-06-18_17h02.34.500,robot_nback_sign,2022.2.5,60.20647207619808,
R_Head_X_Back,True,3.0,robot,2.0,False,False,robot_stimuli\R_Head_X_Back.mp4,12.0,0.0,0.0,0.0,0.0,0.0,34.0,34.0,34.0,,,,,,,,,,,,,317.4153905999992,317.4153905999992,None,,317.4153905999992,318.50454150000223,,318.50454150000223,318.50454150000223,318.50454150000223,,c,322.1450905999991,322.1450905999991,322.1450905999991,322.1450905999991,322.1450905999991,322.1450905999991,322.1450905999991,322.1450905999991,None,None,None,317.4153905999992,317.4153905999992,2.3043889999971725,,318.50454150000223,,,,,,,,,,,,,,,,,,12,1,2024-06-18_17h02.34.500,robot_nback_sign,2022.2.5,60.20647207619808,
L_Torso_Y_For,False,3.0,robot,2.0,False,True,robot_stimuli\L_Torso_Y_For.mp4,12.0,0.0,0.0,0.0,0.0,0.0,35.0,35.0,35.0,,,,,,,,,,,,,322.1450905999991,322.1450905999991,None,,322.1450905999991,323.2400143000013,,323.2400143000013,323.2400143000013,323.2400143000013,,n,326.90874070000064,330.6347573999992,326.90874070000064,330.6347573999992,326.90874070000064,330.6347573999992,326.90874070000064,330.6347573999992,57.77777777777778,2.6061618000021554,space,322.1450905999991,322.1450905999991,1.225694199998543,3.659985999998753,323.2400143000013,,,,,,,,,,,,,,,,,,12,1,2024-06-18_17h02.34.500,robot_nback_sign,2022.2.5,60.20647207619808,
,,,,,,,,,0.0,0.0,0.0,0.0,,,,,,,,,,,,,,,,,,,,,,,,,,,,,,,,,,,,,,,,,,,,,330.6347573999992,330.6347573999992,330.6347573999992,c,28.00722969999697,,,,,,,,,,,,,12,1,2024-06-18_17h02.34.500,robot_nback_sign,2022.2.5,60.20647207619808,
C,False,2.0,letter,1.0,True,False,robot_stimuli\\filler.mp4,12.0,,,,,,,,,0.0,0.0,0.0,0.0,,,,,,,,,,,,,362.3031278000017,363.35759569999937,,,,,,,365.5865435000014,365.5865435000014,365.5865435000014,365.5865435000014,365.5865435000014,365.5865435000014,365.5865435000014,365.5865435000014,None,None,None,,,,,,,,,,,358.70962730000247,358.70962730000247,space,3.572706799997832,363.35759569999937,363.35759569999937,365.5865435000014,None,,,,,12,1,2024-06-18_17h02.34.500,robot_nback_sign,2022.2.5,60.20647207619808,
V,False,2.0,letter,1.0,False,False,robot_stimuli\\filler.mp4,12.0,,,,,,,,,0.0,1.0,1.0,1.0,,,,,,,,,,,,,365.5865435000014,366.65190730000177,,,,,,,368.6780171999999,368.6780171999999,368.6780171999999,368.6780171999999,368.6780171999999,368.6780171999999,368.6780171999999,368.6780171999999,None,None,None,,,,,,,,,,,365.5865435000014,365.5865435000014,None,,366.65190730000177,366.65190730000177,368.6780171999999,n,365.5865435000014,365.5865435000014,0.9172642999983508,,12,1,2024-06-18_17h02.34.500,robot_nback_sign,2022.2.5,60.20647207619808,
F,False,2.0,letter,1.0,False,False,robot_stimuli\\filler.mp4,12.0,,,,,,,,,0.0,2.0,2.0,2.0,,,,,,,,,,,,,368.6780171999999,369.7506919000007,,,,,,,371.7778757000015,371.7778757000015,371.7778757000015,371.7778757000015,371.7778757000015,371.7778757000015,371.7778757000015,371.7778757000015,None,None,None,,,,,,,,,,,368.6780171999999,368.6780171999999,None,,369.7506919000007,369.7506919000007,371.7778757000015,n,368.6780171999999,368.6780171999999,0.6120259999988775,,12,1,2024-06-18_17h02.34.500,robot_nback_sign,2022.2.5,60.20647207619808,
K,False,2.0,letter,1.0,False,False,robot_stimuli\\filler.mp4,12.0,,,,,,,,,0.0,3.0,3.0,3.0,,,,,,,,,,,,,371.7778757000015,372.8401522999993,,,,,,,374.86780310000177,374.86780310000177,374.86780310000177,374.86780310000177,374.86780310000177,374.86780310000177,374.86780310000177,374.86780310000177,None,None,None,,,,,,,,,,,371.7778757000015,371.7778757000015,None,,372.8401522999993,372.8401522999993,374.86780310000177,n,371.7778757000015,371.7778757000015,1.1611716999977943,,12,1,2024-06-18_17h02.34.500,robot_nback_sign,2022.2.5,60.20647207619808,
L,False,2.0,letter,1.0,False,False,robot_stimuli\\filler.mp4,12.0,,,,,,,,,0.0,4.0,4.0,4.0,,,,,,,,,,,,,374.86780310000177,375.9228770000009,,,,,,,377.95231630000126,377.95231630000126,377.95231630000126,377.95231630000126,377.95231630000126,377.95231630000126,377.95231630000126,377.95231630000126,None,None,None,,,,,,,,,,,374.86780310000177,374.86780310000177,None,,375.9228770000009,375.9228770000009,377.95231630000126,n,374.86780310000177,374.86780310000177,0.7265306000008422,,12,1,2024-06-18_17h02.34.500,robot_nback_sign,2022.2.5,60.20647207619808,
J,False,2.0,letter,1.0,False,False,robot_stimuli\\filler.mp4,12.0,,,,,,,,,0.0,5.0,5.0,5.0,,,,,,,,,,,,,377.95231630000126,379.0099064000024,,,,,,,381.0362916000013,381.0362916000013,381.0362916000013,381.0362916000013,381.0362916000013,381.0362916000013,381.0362916000013,381.0362916000013,None,None,None,,,,,,,,,,,377.95231630000126,377.95231630000126,None,,379.0099064000024,379.0099064000024,381.0362916000013,n,377.95231630000126,377.95231630000126,0.5996816999977455,,12,1,2024-06-18_17h02.34.500,robot_nback_sign,2022.2.5,60.20647207619808,
L,True,2.0,letter,1.0,False,False,robot_stimuli\\filler.mp4,12.0,,,,,,,,,0.0,6.0,6.0,6.0,,,,,,,,,,,,,381.0362916000013,382.0903080999997,,,,,,,384.32199220000257,384.32199220000257,384.32199220000257,384.32199220000257,384.32199220000257,384.32199220000257,384.32199220000257,384.32199220000257,None,None,None,,,,,,,,,,,381.0362916000013,381.0362916000013,None,,382.0903080999997,382.0903080999997,384.32199220000257,c,381.0362916000013,381.0362916000013,0.5356520999994245,,12,1,2024-06-18_17h02.34.500,robot_nback_sign,2022.2.5,60.20647207619808,
J,True,2.0,letter,1.0,False,False,robot_stimuli\\filler.mp4,12.0,,,,,,,,,0.0,7.0,7.0,7.0,,,,,,,,,,,,,384.32199220000257,,,,,,,,387.6239372000018,387.6239372000018,387.6239372000018,387.6239372000018,387.6239372000018,387.6239372000018,387.6239372000018,387.6239372000018,None,None,None,,,,,,,,,,,384.32199220000257,384.32199220000257,None,,385.3895021999997,385.3895021999997,387.6239372000018,c,384.32199220000257,384.32199220000257,0.8759087999969779,,12,1,2024-06-18_17h02.34.500,robot_nback_sign,2022.2.5,60.20647207619808,
X,False,2.0,letter,1.0,False,False,robot_stimuli\\filler.mp4,12.0,,,,,,,,,0.0,8.0,8.0,8.0,,,,,,,,,,,,,387.6239372000018,388.6898645000001,,,,,,,390.919721000002,390.919721000002,390.919721000002,390.919721000002,390.919721000002,390.919721000002,390.919721000002,390.919721000002,None,None,None,,,,,,,,,,,387.6239372000018,387.6239372000018,None,,388.6898645000001,388.6898645000001,390.919721000002,n,387.6239372000018,387.6239372000018,0.8795295999989321,,12,1,2024-06-18_17h02.34.500,robot_nback_sign,2022.2.5,60.20647207619808,
V,False,2.0,letter,1.0,False,False,robot_stimuli\\filler.mp4,12.0,,,,,,,,,0.0,9.0,9.0,9.0,,,,,,,,,,,,,390.919721000002,391.9739861000016,,,,,,,394.0081831999996,394.0081831999996,394.0081831999996,394.0081831999996,394.0081831999996,394.0081831999996,394.0081831999996,394.0081831999996,None,None,None,,,,,,,,,,,390.919721000002,390.919721000002,None,,391.9739861000016,391.9739861000016,394.0081831999996,n,390.919721000002,390.919721000002,0.9083423000010952,,12,1,2024-06-18_17h02.34.500,robot_nback_sign,2022.2.5,60.20647207619808,
C,False,2.0,letter,1.0,False,False,robot_stimuli\\filler.mp4,12.0,,,,,,,,,0.0,10.0,10.0,10.0,,,,,,,,,,,,,394.0081831999996,395.0737828999991,,,,,,,397.3072252999991,397.3072252999991,397.3072252999991,397.3072252999991,397.3072252999991,397.3072252999991,397.3072252999991,397.3072252999991,None,None,None,,,,,,,,,,,394.0081831999996,394.0081831999996,None,,395.0737828999991,395.0737828999991,397.3072252999991,n,394.0081831999996,394.0081831999996,1.0312788999981422,,12,1,2024-06-18_17h02.34.500,robot_nback_sign,2022.2.5,60.20647207619808,
V,True,2.0,letter,1.0,False,False,robot_stimuli\\filler.mp4,12.0,,,,,,,,,0.0,11.0,11.0,11.0,,,,,,,,,,,,,397.3072252999991,398.3739134999996,,,,,,,400.41001139999935,400.41001139999935,400.41001139999935,400.41001139999935,400.41001139999935,400.41001139999935,400.41001139999935,400.41001139999935,None,None,None,,,,,,,,,,,397.3072252999991,397.3072252999991,None,,398.3739134999996,398.3739134999996,400.41001139999935,c,397.3072252999991,397.3072252999991,0.5806454999983544,,12,1,2024-06-18_17h02.34.500,robot_nback_sign,2022.2.5,60.20647207619808,
T,False,2.0,letter,1.0,False,False,robot_stimuli\\filler.mp4,12.0,,,,,,,,,0.0,12.0,12.0,12.0,,,,,,,,,,,,,400.41001139999935,401.4845662000007,,,,,,,403.5088622000003,403.5088622000003,403.5088622000003,403.5088622000003,403.5088622000003,403.5088622000003,403.5088622000003,403.5088622000003,None,None,None,,,,,,,,,,,400.41001139999935,400.41001139999935,None,,401.4845662000007,401.4845662000007,403.5088622000003,n,400.41001139999935,400.41001139999935,0.8842886999991606,,12,1,2024-06-18_17h02.34.500,robot_nback_sign,2022.2.5,60.20647207619808,
C,False,2.0,letter,1.0,False,False,robot_stimuli\\filler.mp4,12.0,,,,,,,,,0.0,13.0,13.0,13.0,,,,,,,,,,,,,403.5088622000003,404.5734548,,,,,,,406.80359880000105,406.80359880000105,406.80359880000105,406.80359880000105,406.80359880000105,406.80359880000105,406.80359880000105,406.80359880000105,None,None,None,,,,,,,,,,,403.5088622000003,403.5088622000003,None,,404.5734548,404.5734548,406.80359880000105,n,403.5088622000003,403.5088622000003,1.1955261000002793,,12,1,2024-06-18_17h02.34.500,robot_nback_sign,2022.2.5,60.20647207619808,
V,False,2.0,letter,1.0,False,False,robot_stimuli\\filler.mp4,12.0,,,,,,,,,0.0,14.0,14.0,14.0,,,,,,,,,,,,,406.80359880000105,407.8718169999993,,,,,,,410.10082220000186,410.10082220000186,410.10082220000186,410.10082220000186,410.10082220000186,410.10082220000186,410.10082220000186,410.10082220000186,None,None,None,,,,,,,,,,,406.80359880000105,406.80359880000105,None,,407.8718169999993,407.8718169999993,410.10082220000186,n,406.80359880000105,406.80359880000105,0.9137579999987792,,12,1,2024-06-18_17h02.34.500,robot_nback_sign,2022.2.5,60.20647207619808,
C,True,2.0,letter,1.0,False,False,robot_stimuli\\filler.mp4,12.0,,,,,,,,,0.0,15.0,15.0,15.0,,,,,,,,,,,,,410.10082220000186,411.1558286,,,,,,,413.38885429999937,413.38885429999937,413.38885429999937,413.38885429999937,413.38885429999937,413.38885429999937,413.38885429999937,413.38885429999937,None,None,None,,,,,,,,,,,410.10082220000186,410.10082220000186,None,,411.1558286,411.1558286,413.38885429999937,c,410.10082220000186,410.10082220000186,1.3664868999985629,,12,1,2024-06-18_17h02.34.500,robot_nback_sign,2022.2.5,60.20647207619808,
R,False,2.0,letter,1.0,False,False,robot_stimuli\\filler.mp4,12.0,,,,,,,,,0.0,16.0,16.0,16.0,,,,,,,,,,,,,413.38885429999937,,,,,,,,416.6886168000019,416.6886168000019,416.6886168000019,416.6886168000019,416.6886168000019,416.6886168000019,416.6886168000019,416.6886168000019,None,None,None,,,,,,,,,,,413.38885429999937,413.38885429999937,None,,414.4564260000007,414.4564260000007,416.6886168000019,n,413.38885429999937,413.38885429999937,0.6332700999992085,,12,1,2024-06-18_17h02.34.500,robot_nback_sign,2022.2.5,60.20647207619808,
W,False,2.0,letter,1.0,False,False,robot_stimuli\\filler.mp4,12.0,,,,,,,,,0.0,17.0,17.0,17.0,,,,,,,,,,,,,416.6886168000019,,,,,,,,419.78898839999965,419.78898839999965,419.78898839999965,419.78898839999965,419.78898839999965,419.78898839999965,419.78898839999965,419.78898839999965,None,None,None,,,,,,,,,,,416.6886168000019,416.6886168000019,None,,417.75713520000136,417.75713520000136,419.78898839999965,n,416.6886168000019,416.6886168000019,0.596182699995552,,12,1,2024-06-18_17h02.34.500,robot_nback_sign,2022.2.5,60.20647207619808,
F,False,2.0,letter,1.0,False,False,robot_stimuli\\filler.mp4,12.0,,,,,,,,,0.0,18.0,18.0,18.0,,,,,,,,,,,,,419.78898839999965,,,,,,,,423.0898870000019,423.0898870000019,423.0898870000019,423.0898870000019,423.0898870000019,423.0898870000019,423.0898870000019,423.0898870000019,None,None,None,,,,,,,,,,,419.78898839999965,419.78898839999965,None,,420.8576137000018,420.8576137000018,423.0898870000019,n,419.78898839999965,419.78898839999965,0.9841844999973546,,12,1,2024-06-18_17h02.34.500,robot_nback_sign,2022.2.5,60.20647207619808,
W,True,2.0,letter,1.0,False,False,robot_stimuli\\filler.mp4,12.0,,,,,,,,,0.0,19.0,19.0,19.0,,,,,,,,,,,,,423.0898870000019,,,,,,,,426.1866563000003,426.1866563000003,426.1866563000003,426.1866563000003,426.1866563000003,426.1866563000003,426.1866563000003,426.1866563000003,None,None,None,,,,,,,,,,,423.0898870000019,423.0898870000019,None,,424.16630799999984,424.16630799999984,426.1866563000003,c,423.0898870000019,423.0898870000019,0.452134200000728,,12,1,2024-06-18_17h02.34.500,robot_nback_sign,2022.2.5,60.20647207619808,
S,False,2.0,letter,1.0,False,False,robot_stimuli\\filler.mp4,12.0,,,,,,,,,0.0,20.0,20.0,20.0,,,,,,,,,,,,,426.1866563000003,427.2399038000003,,,,,,,429.4662415999992,429.4662415999992,429.4662415999992,429.4662415999992,429.4662415999992,429.4662415999992,429.4662415999992,429.4662415999992,None,None,None,,,,,,,,,,,426.1866563000003,426.1866563000003,None,,427.2399038000003,427.2399038000003,429.4662415999992,n,426.1866563000003,426.1866563000003,0.5622278999981063,,12,1,2024-06-18_17h02.34.500,robot_nback_sign,2022.2.5,60.20647207619808,
M,False,2.0,letter,1.0,False,False,robot_stimuli\\filler.mp4,12.0,,,,,,,,,0.0,21.0,21.0,21.0,,,,,,,,,,,,,429.4662415999992,430.5234120000023,,,,,,,432.5557423999999,432.5557423999999,432.5557423999999,432.5557423999999,432.5557423999999,432.5557423999999,432.5557423999999,432.5557423999999,None,None,None,,,,,,,,,,,429.4662415999992,429.4662415999992,None,,430.5234120000023,430.5234120000023,432.5557423999999,n,429.4662415999992,429.4662415999992,0.7429299999967043,,12,1,2024-06-18_17h02.34.500,robot_nback_sign,2022.2.5,60.20647207619808,
C,False,2.0,letter,1.0,False,False,robot_stimuli\\filler.mp4,12.0,,,,,,,,,0.0,22.0,22.0,22.0,,,,,,,,,,,,,432.5557423999999,,,,,,,,435.6623591999996,435.6623591999996,435.6623591999996,435.6623591999996,435.6623591999996,435.6623591999996,435.6623591999996,435.6623591999996,None,None,None,,,,,,,,,,,432.5557423999999,432.5557423999999,None,,433.6344358999995,433.6344358999995,435.6623591999996,n,432.5557423999999,432.5557423999999,0.9438863999966998,,12,1,2024-06-18_17h02.34.500,robot_nback_sign,2022.2.5,60.20647207619808,
T,False,2.0,letter,1.0,False,False,robot_stimuli\\filler.mp4,12.0,,,,,,,,,0.0,23.0,23.0,23.0,,,,,,,,,,,,,435.6623591999996,436.72451,,,,,,,438.7499733000004,438.7499733000004,438.7499733000004,438.7499733000004,438.7499733000004,438.7499733000004,438.7499733000004,438.7499733000004,None,None,None,,,,,,,,,,,435.6623591999996,435.6623591999996,None,,436.72451,436.72451,438.7499733000004,n,435.6623591999996,435.6623591999996,0.6524269999972603,,12,1,2024-06-18_17h02.34.500,robot_nback_sign,2022.2.5,60.20647207619808,
C,True,2.0,letter,1.0,False,False,robot_stimuli\\filler.mp4,12.0,,,,,,,,,0.0,24.0,24.0,24.0,,,,,,,,,,,,,438.7499733000004,439.8057919999992,,,,,,,442.0378430000019,442.0378430000019,442.0378430000019,442.0378430000019,442.0378430000019,442.0378430000019,442.0378430000019,442.0378430000019,None,None,None,,,,,,,,,,,438.7499733000004,438.7499733000004,None,,439.8057919999992,439.8057919999992,442.0378430000019,n,438.7499733000004,438.7499733000004,1.1242668999984744,,12,1,2024-06-18_17h02.34.500,robot_nback_sign,2022.2.5,60.20647207619808,
S,False,2.0,letter,1.0,False,False,robot_stimuli\\filler.mp4,12.0,,,,,,,,,0.0,25.0,25.0,25.0,,,,,,,,,,,,,442.0378430000019,,,,,,,,445.1363586000007,445.1363586000007,445.1363586000007,445.1363586000007,445.1363586000007,445.1363586000007,445.1363586000007,445.1363586000007,None,None,None,,,,,,,,,,,442.0378430000019,442.0378430000019,None,,443.1072543000009,443.1072543000009,445.1363586000007,n,442.0378430000019,442.0378430000019,1.1105403000001388,,12,1,2024-06-18_17h02.34.500,robot_nback_sign,2022.2.5,60.20647207619808,
N,False,2.0,letter,1.0,False,False,robot_stimuli\\filler.mp4,12.0,,,,,,,,,0.0,26.0,26.0,26.0,,,,,,,,,,,,,445.1363586000007,446.1900946000024,,,,,,,448.4138010000024,448.4138010000024,448.4138010000024,448.4138010000024,448.4138010000024,448.4138010000024,448.4138010000024,448.4138010000024,None,None,None,,,,,,,,,,,445.1363586000007,445.1363586000007,None,,446.1900946000024,446.1900946000024,448.4138010000024,n,445.1363586000007,445.1363586000007,0.6119765999974334,,12,1,2024-06-18_17h02.34.500,robot_nback_sign,2022.2.5,60.20647207619808,
M,False,2.0,letter,1.0,False,False,robot_stimuli\\filler.mp4,12.0,,,,,,,,,0.0,27.0,27.0,27.0,,,,,,,,,,,,,448.4138010000024,449.47451450000153,,,,,,,451.7072200000002,451.7072200000002,451.7072200000002,451.7072200000002,451.7072200000002,451.7072200000002,451.7072200000002,451.7072200000002,None,None,None,,,,,,,,,,,448.4138010000024,448.4138010000024,None,,449.47451450000153,449.47451450000153,451.7072200000002,n,448.4138010000024,448.4138010000024,0.8237053000011656,,12,1,2024-06-18_17h02.34.500,robot_nback_sign,2022.2.5,60.20647207619808,
N,True,2.0,letter,1.0,False,False,robot_stimuli\\filler.mp4,12.0,,,,,,,,,0.0,28.0,28.0,28.0,,,,,,,,,,,,,451.7072200000002,452.7735859000022,,,,,,,455.0055792999992,455.0055792999992,455.0055792999992,455.0055792999992,455.0055792999992,455.0055792999992,455.0055792999992,455.0055792999992,None,None,None,,,,,,,,,,,451.7072200000002,451.7072200000002,None,,452.7735859000022,452.7735859000022,455.0055792999992,c,451.7072200000002,451.7072200000002,1.836309499998606,,12,1,2024-06-18_17h02.34.500,robot_nback_sign,2022.2.5,60.20647207619808,
G,False,2.0,letter,1.0,False,False,robot_stimuli\\filler.mp4,12.0,,,,,,,,,0.0,29.0,29.0,29.0,,,,,,,,,,,,,455.0055792999992,,,,,,,,458.1059729000008,458.1059729000008,458.1059729000008,458.1059729000008,458.1059729000008,458.1059729000008,458.1059729000008,458.1059729000008,None,None,None,,,,,,,,,,,455.0055792999992,455.0055792999992,None,,456.07525840000017,456.07525840000017,458.1059729000008,n,455.0055792999992,455.0055792999992,0.9663093999988632,,12,1,2024-06-18_17h02.34.500,robot_nback_sign,2022.2.5,60.20647207619808,
R,False,2.0,letter,1.0,False,False,robot_stimuli\\filler.mp4,12.0,,,,,,,,,0.0,30.0,30.0,30.0,,,,,,,,,,,,,458.1059729000008,,,,,,,,461.4048342999995,461.4048342999995,461.4048342999995,461.4048342999995,461.4048342999995,461.4048342999995,461.4048342999995,461.4048342999995,None,None,None,,,,,,,,,,,458.1059729000008,458.1059729000008,None,,459.1733769000021,459.1733769000021,461.4048342999995,n,458.1059729000008,458.1059729000008,0.6602734999978566,,12,1,2024-06-18_17h02.34.500,robot_nback_sign,2022.2.5,60.20647207619808,
G,True,2.0,letter,1.0,False,False,robot_stimuli\\filler.mp4,12.0,,,,,,,,,0.0,31.0,31.0,31.0,,,,,,,,,,,,,461.4048342999995,,,,,,,,464.7018511999995,464.7018511999995,464.7018511999995,464.7018511999995,464.7018511999995,464.7018511999995,464.7018511999995,464.7018511999995,None,None,None,,,,,,,,,,,461.4048342999995,461.4048342999995,None,,462.4726479000019,462.4726479000019,464.7018511999995,c,461.4048342999995,461.4048342999995,1.2014393999961612,,12,1,2024-06-18_17h02.34.500,robot_nback_sign,2022.2.5,60.20647207619808,
G,False,2.0,letter,1.0,False,False,robot_stimuli\\filler.mp4,12.0,,,,,,,,,0.0,32.0,32.0,32.0,,,,,,,,,,,,,464.7018511999995,465.7552020000003,,,,,,,467.7869885,467.7869885,467.7869885,467.7869885,467.7869885,467.7869885,467.7869885,467.7869885,None,None,None,,,,,,,,,,,464.7018511999995,464.7018511999995,None,,465.7552020000003,465.7552020000003,467.7869885,n,464.7018511999995,464.7018511999995,1.3031742999992275,,12,1,2024-06-18_17h02.34.500,robot_nback_sign,2022.2.5,60.20647207619808,
X,False,2.0,letter,1.0,False,False,robot_stimuli\\filler.mp4,12.0,,,,,,,,,0.0,33.0,33.0,33.0,,,,,,,,,,,,,467.7869885,468.8518242999999,,,,,,,470.8820237,470.8820237,470.8820237,470.8820237,470.8820237,470.8820237,470.8820237,470.8820237,None,None,None,,,,,,,,,,,467.7869885,467.7869885,None,,468.8518242999999,468.8518242999999,470.8820237,n,467.7869885,467.7869885,0.5509623999969335,,12,1,2024-06-18_17h02.34.500,robot_nback_sign,2022.2.5,60.20647207619808,
Q,False,2.0,letter,1.0,False,False,robot_stimuli\\filler.mp4,12.0,,,,,,,,,0.0,34.0,34.0,34.0,,,,,,,,,,,,,470.8820237,471.9405007000023,,,,,,,474.1646801000024,474.1646801000024,474.1646801000024,474.1646801000024,474.1646801000024,474.1646801000024,474.1646801000024,474.1646801000024,None,None,None,,,,,,,,,,,470.8820237,470.8820237,None,,471.9405007000023,471.9405007000023,474.1646801000024,n,470.8820237,470.8820237,0.9889947999981814,,12,1,2024-06-18_17h02.34.500,robot_nback_sign,2022.2.5,60.20647207619808,
N,False,2.0,letter,1.0,False,False,robot_stimuli\\filler.mp4,12.0,,,,,,,,,0.0,35.0,35.0,35.0,,,,,,,,,,,,,474.1646801000024,475.2236649000006,,,,,,,477.2563493000016,477.2563493000016,477.2563493000016,477.2563493000016,477.2563493000016,477.2563493000016,477.2563493000016,477.2563493000016,None,None,None,,,,,,,,,,,474.1646801000024,474.1646801000024,None,,475.2236649000006,475.2236649000006,477.2563493000016,n,474.1646801000024,474.1646801000024,0.5941033999988576,,12,1,2024-06-18_17h02.34.500,robot_nback_sign,2022.2.5,60.20647207619808,
G,False,2.0,letter,1.0,False,False,robot_stimuli\\filler.mp4,12.0,,,,,,,,,0.0,36.0,36.0,36.0,,,,,,,,,,,,,477.2563493000016,,,,,,,,480.5556485000016,480.5556485000016,480.5556485000016,480.5556485000016,480.5556485000016,480.5556485000016,480.5556485000016,480.5556485000016,None,None,None,,,,,,,,,,,477.2563493000016,477.2563493000016,None,,478.3221190000004,478.3221190000004,480.5556485000016,n,477.2563493000016,477.2563493000016,1.0713875999972515,,12,1,2024-06-18_17h02.34.500,robot_nback_sign,2022.2.5,60.20647207619808,
D,False,2.0,letter,1.0,False,False,robot_stimuli\\filler.mp4,12.0,,,,,,,,,0.0,37.0,37.0,37.0,,,,,,,,,,,,,480.5556485000016,,,,,,,,483.66259600000194,483.66259600000194,483.66259600000194,483.66259600000194,483.66259600000194,483.66259600000194,483.66259600000194,483.66259600000194,None,None,None,,,,,,,,,,,480.5556485000016,480.5556485000016,None,,481.62520030000087,481.62520030000087,483.66259600000194,n,480.5556485000016,480.5556485000016,0.800465999996959,,12,1,2024-06-18_17h02.34.500,robot_nback_sign,2022.2.5,60.20647207619808,
V,False,2.0,letter,1.0,False,False,robot_stimuli\\filler.mp4,12.0,,,,,,,,,0.0,38.0,38.0,38.0,,,,,,,,,,,,,483.66259600000194,484.7223871000024,,,,,,,486.9531738000005,486.9531738000005,486.9531738000005,486.9531738000005,486.9531738000005,486.9531738000005,486.9531738000005,486.9531738000005,None,None,None,,,,,,,,,,,483.66259600000194,483.66259600000194,None,,484.7223871000024,484.7223871000024,486.9531738000005,n,483.66259600000194,483.66259600000194,1.175187199998618,,12,1,2024-06-18_17h02.34.500,robot_nback_sign,2022.2.5,60.20647207619808,
W,False,2.0,letter,1.0,False,False,robot_stimuli\\filler.mp4,12.0,,,,,,,,,0.0,39.0,39.0,39.0,,,,,,,,,,,,,486.9531738000005,488.0165522000025,,,,,,,490.0457767000007,490.0457767000007,490.0457767000007,490.0457767000007,490.0457767000007,490.0457767000007,490.0457767000007,490.0457767000007,None,None,None,,,,,,,,,,,486.9531738000005,486.9531738000005,None,,488.0165522000025,488.0165522000025,490.0457767000007,n,486.9531738000005,486.9531738000005,0.9216070999973454,,12,1,2024-06-18_17h02.34.500,robot_nback_sign,2022.2.5,60.20647207619808,
X,False,2.0,letter,1.0,False,False,robot_stimuli\\filler.mp4,12.0,,,,,,,,,0.0,40.0,40.0,40.0,,,,,,,,,,,,,490.0457767000007,491.10677340000257,,,,,,,493.1374136000013,493.1374136000013,493.1374136000013,493.1374136000013,493.1374136000013,493.1374136000013,493.1374136000013,493.1374136000013,None,None,None,,,,,,,,,,,490.0457767000007,490.0457767000007,None,,491.10677340000257,491.10677340000257,493.1374136000013,n,490.0457767000007,490.0457767000007,1.1915522999988752,,12,1,2024-06-18_17h02.34.500,robot_nback_sign,2022.2.5,60.20647207619808,
P,False,2.0,letter,1.0,False,False,robot_stimuli\\filler.mp4,12.0,,,,,,,,,0.0,41.0,41.0,41.0,,,,,,,,,,,,,493.1374136000013,494.1887951000026,,,,,,,496.4198001000004,496.4198001000004,496.4198001000004,496.4198001000004,496.4198001000004,496.4198001000004,496.4198001000004,496.4198001000004,None,None,None,,,,,,,,,,,493.1374136000013,493.1374136000013,None,,494.1887951000026,494.1887951000026,496.4198001000004,n,493.1374136000013,493.1374136000013,0.5653309999979683,,12,1,2024-06-18_17h02.34.500,robot_nback_sign,2022.2.5,60.20647207619808,
X,True,2.0,letter,1.0,False,False,robot_stimuli\\filler.mp4,12.0,,,,,,,,,0.0,42.0,42.0,42.0,,,,,,,,,,,,,496.4198001000004,497.47270720000233,,,,,,,499.7073283999998,499.7073283999998,499.7073283999998,499.7073283999998,499.7073283999998,499.7073283999998,499.7073283999998,499.7073283999998,None,None,None,,,,,,,,,,,496.4198001000004,496.4198001000004,None,,497.47270720000233,497.47270720000233,499.7073283999998,c,496.4198001000004,496.4198001000004,0.4019458000002487,,12,1,2024-06-18_17h02.34.500,robot_nback_sign,2022.2.5,60.20647207619808,
P,True,2.0,letter,1.0,False,False,robot_stimuli\\filler.mp4,12.0,,,,,,,,,0.0,43.0,43.0,43.0,,,,,,,,,,,,,499.7073283999998,500.7734087999997,,,,,,,502.9986219999992,502.9986219999992,502.9986219999992,502.9986219999992,502.9986219999992,502.9986219999992,502.9986219999992,502.9986219999992,None,None,None,,,,,,,,,,,499.7073283999998,499.7073283999998,None,,500.7734087999997,500.7734087999997,502.9986219999992,c,499.7073283999998,499.7073283999998,0.6771446999991895,,12,1,2024-06-18_17h02.34.500,robot_nback_sign,2022.2.5,60.20647207619808,
J,False,2.0,letter,1.0,False,False,robot_stimuli\\filler.mp4,12.0,,,,,,,,,0.0,44.0,44.0,44.0,,,,,,,,,,,,,502.9986219999992,504.0558727000025,,,,,,,506.0923135000012,506.0923135000012,506.0923135000012,506.0923135000012,506.0923135000012,506.0923135000012,506.0923135000012,506.0923135000012,None,None,None,,,,,,,,,,,502.9986219999992,502.9986219999992,None,,504.0558727000025,504.0558727000025,506.0923135000012,n,502.9986219999992,502.9986219999992,0.6184743999983766,,12,1,2024-06-18_17h02.34.500,robot_nback_sign,2022.2.5,60.20647207619808,
H,False,2.0,letter,1.0,False,False,robot_stimuli\\filler.mp4,12.0,,,,,,,,,0.0,45.0,45.0,45.0,,,,,,,,,,,,,506.0923135000012,507.1576244000025,,,,,,,509.1870603999996,509.1870603999996,509.1870603999996,509.1870603999996,509.1870603999996,509.1870603999996,509.1870603999996,509.1870603999996,None,None,None,,,,,,,,,,,506.0923135000012,506.0923135000012,None,,507.1576244000025,507.1576244000025,509.1870603999996,n,506.0923135000012,506.0923135000012,0.563557800000126,,12,1,2024-06-18_17h02.34.500,robot_nback_sign,2022.2.5,60.20647207619808,
Q,False,2.0,letter,1.0,False,False,robot_stimuli\\filler.mp4,12.0,,,,,,,,,0.0,46.0,46.0,46.0,,,,,,,,,,,,,509.1870603999996,510.2486222000007,,,,,,,512.2832383999994,512.2832383999994,512.2832383999994,512.2832383999994,512.2832383999994,512.2832383999994,512.2832383999994,512.2832383999994,None,None,None,,,,,,,,,,,509.1870603999996,509.1870603999996,None,,510.2486222000007,510.2486222000007,512.2832383999994,n,509.1870603999996,509.1870603999996,0.6409020999999484,,12,1,2024-06-18_17h02.34.500,robot_nback_sign,2022.2.5,60.20647207619808,
C,False,2.0,letter,1.0,False,False,robot_stimuli\\filler.mp4,12.0,,,,,,,,,0.0,47.0,47.0,47.0,,,,,,,,,,,,,512.2832383999994,513.3408890999999,,,,,,,515.3696693999991,515.3696693999991,515.3696693999991,515.3696693999991,515.3696693999991,515.3696693999991,515.3696693999991,515.3696693999991,None,None,None,,,,,,,,,,,512.2832383999994,512.2832383999994,None,,513.3408890999999,513.3408890999999,515.3696693999991,n,512.2832383999994,512.2832383999994,0.5804532000001927,,12,1,2024-06-18_17h02.34.500,robot_nback_sign,2022.2.5,60.20647207619808,
D,False,2.0,letter,1.0,False,False,robot_stimuli\\filler.mp4,12.0,,,,,,,,,0.0,48.0,48.0,48.0,,,,,,,,,,,,,515.3696693999991,516.4257562000021,,,,,,,518.6532423000026,518.6532423000026,518.6532423000026,518.6532423000026,518.6532423000026,518.6532423000026,518.6532423000026,518.6532423000026,None,None,None,,,,,,,,,,,515.3696693999991,515.3696693999991,None,,516.4257562000021,516.4257562000021,518.6532423000026,n,515.3696693999991,515.3696693999991,1.425199799999973,,12,1,2024-06-18_17h02.34.500,robot_nback_sign,2022.2.5,60.20647207619808,
K,False,2.0,letter,1.0,False,True,robot_stimuli\\filler.mp4,12.0,,,,,,,,,0.0,49.0,49.0,49.0,,,,,,,,,,,,,518.6532423000026,519.7073579999997,,,,,,,521.7602544000001,526.3603385000024,521.7602544000001,526.3603385000024,521.7602544000001,526.3603385000024,521.7602544000001,526.3603385000024,56.38888888888889,2.742605799998273,space,,,,4.529316399999516,,,,,,,518.6532423000026,518.6532423000026,None,,519.7073579999997,519.7073579999997,521.7602544000001,n,518.6532423000026,518.6532423000026,0.9421211999979278,,12,1,2024-06-18_17h02.34.500,robot_nback_sign,2022.2.5,60.20647207619808,
B,False,1.0,letter,1.0,True,False,robot_stimuli\\filler.mp4,12.0,,,,,,,,,0.0,50.0,50.0,50.0,,,,,,,,,,,,,535.3870132000011,536.4421356999992,,,,,,,538.471328399999,538.471328399999,538.471328399999,538.471328399999,538.471328399999,538.471328399999,538.471328399999,538.471328399999,None,None,None,,,,,,,,,,,526.3603385000024,526.3603385000024,space,9.009085499998037,536.4421356999992,536.4421356999992,538.471328399999,n,,,0.7273821999988286,,12,1,2024-06-18_17h02.34.500,robot_nback_sign,2022.2.5,60.20647207619808,
G,False,1.0,letter,1.0,False,False,robot_stimuli\\filler.mp4,12.0,,,,,,,,,0.0,51.0,51.0,51.0,,,,,,,,,,,,,538.471328399999,,,,,,,,541.7674790000019,541.7674790000019,541.7674790000019,541.7674790000019,541.7674790000019,541.7674790000019,541.7674790000019,541.7674790000019,None,None,None,,,,,,,,,,,538.471328399999,538.471328399999,None,,539.5396715999996,539.5396715999996,541.7674790000019,n,538.471328399999,538.471328399999,0.7581047999992734,,12,1,2024-06-18_17h02.34.500,robot_nback_sign,2022.2.5,60.20647207619808,
G,True,1.0,letter,1.0,False,False,robot_stimuli\\filler.mp4,12.0,,,,,,,,,0.0,52.0,52.0,52.0,,,,,,,,,,,,,541.7674790000019,542.8221300000005,,,,,,,545.0467707000025,545.0467707000025,545.0467707000025,545.0467707000025,545.0467707000025,545.0467707000025,545.0467707000025,545.0467707000025,None,None,None,,,,,,,,,,,541.7674790000019,541.7674790000019,None,,542.8221300000005,542.8221300000005,545.0467707000025,c,541.7674790000019,541.7674790000019,0.644314299999678,,12,1,2024-06-18_17h02.34.500,robot_nback_sign,2022.2.5,60.20647207619808,
N,False,1.0,letter,1.0,False,False,robot_stimuli\\filler.mp4,12.0,,,,,,,,,0.0,53.0,53.0,53.0,,,,,,,,,,,,,545.0467707000025,546.1066231000004,,,,,,,548.3342918000017,548.3342918000017,548.3342918000017,548.3342918000017,548.3342918000017,548.3342918000017,548.3342918000017,548.3342918000017,None,None,None,,,,,,,,,,,545.0467707000025,545.0467707000025,None,,546.1066231000004,546.1066231000004,548.3342918000017,n,545.0467707000025,545.0467707000025,0.4703625999973155,,12,1,2024-06-18_17h02.34.500,robot_nback_sign,2022.2.5,60.20647207619808,
F,False,1.0,letter,1.0,False,False,robot_stimuli\\filler.mp4,12.0,,,,,,,,,0.0,54.0,54.0,54.0,,,,,,,,,,,,,548.3342918000017,549.3907096000003,,,,,,,551.4250155000009,551.4250155000009,551.4250155000009,551.4250155000009,551.4250155000009,551.4250155000009,551.4250155000009,551.4250155000009,None,None,None,,,,,,,,,,,548.3342918000017,548.3342918000017,None,,549.3907096000003,549.3907096000003,551.4250155000009,n,548.3342918000017,548.3342918000017,0.5400286999974924,,12,1,2024-06-18_17h02.34.500,robot_nback_sign,2022.2.5,60.20647207619808,
B,False,1.0,letter,1.0,False,False,robot_stimuli\\filler.mp4,12.0,,,,,,,,,0.0,55.0,55.0,55.0,,,,,,,,,,,,,551.4250155000009,552.4908462999992,,,,,,,554.7182336000005,554.7182336000005,554.7182336000005,554.7182336000005,554.7182336000005,554.7182336000005,554.7182336000005,554.7182336000005,None,None,None,,,,,,,,,,,551.4250155000009,551.4250155000009,None,,552.4908462999992,552.4908462999992,554.7182336000005,n,551.4250155000009,551.4250155000009,0.4709202999983972,,12,1,2024-06-18_17h02.34.500,robot_nback_sign,2022.2.5,60.20647207619808,
T,False,1.0,letter,1.0,False,False,robot_stimuli\\filler.mp4,12.0,,,,,,,,,0.0,56.0,56.0,56.0,,,,,,,,,,,,,554.7182336000005,555.7845135999996,,,,,,,557.8145442999994,557.8145442999994,557.8145442999994,557.8145442999994,557.8145442999994,557.8145442999994,557.8145442999994,557.8145442999994,None,None,None,,,,,,,,,,,554.7182336000005,554.7182336000005,None,,555.7845135999996,555.7845135999996,557.8145442999994,n,554.7182336000005,554.7182336000005,0.4501932999992277,,12,1,2024-06-18_17h02.34.500,robot_nback_sign,2022.2.5,60.20647207619808,
Q,False,1.0,letter,1.0,False,False,robot_stimuli\\filler.mp4,12.0,,,,,,,,,0.0,57.0,57.0,57.0,,,,,,,,,,,,,557.8145442999994,558.8738233000004,,,,,,,560.9071782999999,560.9071782999999,560.9071782999999,560.9071782999999,560.9071782999999,560.9071782999999,560.9071782999999,560.9071782999999,None,None,None,,,,,,,,,,,557.8145442999994,557.8145442999994,None,,558.8738233000004,558.8738233000004,560.9071782999999,n,557.8145442999994,557.8145442999994,0.4407552999982727,,12,1,2024-06-18_17h02.34.500,robot_nback_sign,2022.2.5,60.20647207619808,
T,False,1.0,letter,1.0,False,False,robot_stimuli\\filler.mp4,12.0,,,,,,,,,0.0,58.0,58.0,58.0,,,,,,,,,,,,,560.9071782999999,561.9843922,,,,,,,564.0128217999991,564.0128217999991,564.0128217999991,564.0128217999991,564.0128217999991,564.0128217999991,564.0128217999991,564.0128217999991,None,None,None,,,,,,,,,,,560.9071782999999,560.9071782999999,None,,561.9843922,561.9843922,564.0128217999991,n,560.9071782999999,560.9071782999999,0.778358899999148,,12,1,2024-06-18_17h02.34.500,robot_nback_sign,2022.2.5,60.20647207619808,
D,False,1.0,letter,1.0,False,False,robot_stimuli\\filler.mp4,12.0,,,,,,,,,0.0,59.0,59.0,59.0,,,,,,,,,,,,,564.0128217999991,565.0752797000023,,,,,,,567.1008791000022,567.1008791000022,567.1008791000022,567.1008791000022,567.1008791000022,567.1008791000022,567.1008791000022,567.1008791000022,None,None,None,,,,,,,,,,,564.0128217999991,564.0128217999991,None,,565.0752797000023,565.0752797000023,567.1008791000022,n,564.0128217999991,564.0128217999991,0.5018850999986171,,12,1,2024-06-18_17h02.34.500,robot_nback_sign,2022.2.5,60.20647207619808,
R,False,1.0,letter,1.0,False,False,robot_stimuli\\filler.mp4,12.0,,,,,,,,,0.0,60.0,60.0,60.0,,,,,,,,,,,,,567.1008791000022,568.1578188999993,,,,,,,570.1874314000015,570.1874314000015,570.1874314000015,570.1874314000015,570.1874314000015,570.1874314000015,570.1874314000015,570.1874314000015,None,None,None,,,,,,,,,,,567.1008791000022,567.1008791000022,None,,568.1578188999993,568.1578188999993,570.1874314000015,n,567.1008791000022,567.1008791000022,0.6210519000014756,,12,1,2024-06-18_17h02.34.500,robot_nback_sign,2022.2.5,60.20647207619808,
Z,False,1.0,letter,1.0,False,False,robot_stimuli\\filler.mp4,12.0,,,,,,,,,0.0,61.0,61.0,61.0,,,,,,,,,,,,,570.1874314000015,571.2407913000025,,,,,,,573.2749636000008,573.2749636000008,573.2749636000008,573.2749636000008,573.2749636000008,573.2749636000008,573.2749636000008,573.2749636000008,None,None,None,,,,,,,,,,,570.1874314000015,570.1874314000015,None,,571.2407913000025,571.2407913000025,573.2749636000008,n,570.1874314000015,570.1874314000015,0.4252527999997255,,12,1,2024-06-18_17h02.34.500,robot_nback_sign,2022.2.5,60.20647207619808,
Z,True,1.0,letter,1.0,False,False,robot_stimuli\\filler.mp4,12.0,,,,,,,,,0.0,62.0,62.0,62.0,,,,,,,,,,,,,573.2749636000008,574.3399633000008,,,,,,,576.5700914000008,576.5700914000008,576.5700914000008,576.5700914000008,576.5700914000008,576.5700914000008,576.5700914000008,576.5700914000008,None,None,None,,,,,,,,,,,573.2749636000008,573.2749636000008,None,,574.3399633000008,574.3399633000008,576.5700914000008,c,573.2749636000008,573.2749636000008,0.4862407999971765,,12,1,2024-06-18_17h02.34.500,robot_nback_sign,2022.2.5,60.20647207619808,
B,False,1.0,letter,1.0,False,False,robot_stimuli\\filler.mp4,12.0,,,,,,,,,0.0,63.0,63.0,63.0,,,,,,,,,,,,,576.5700914000008,577.6240008000022,,,,,,,579.847534200002,579.847534200002,579.847534200002,579.847534200002,579.847534200002,579.847534200002,579.847534200002,579.847534200002,None,None,None,,,,,,,,,,,576.5700914000008,576.5700914000008,None,,577.6240008000022,577.6240008000022,579.847534200002,n,576.5700914000008,576.5700914000008,0.4747609999976703,,12,1,2024-06-18_17h02.34.500,robot_nback_sign,2022.2.5,60.20647207619808,
X,False,1.0,letter,1.0,False,False,robot_stimuli\\filler.mp4,12.0,,,,,,,,,0.0,64.0,64.0,64.0,,,,,,,,,,,,,579.847534200002,580.9069208000001,,,,,,,582.9318330999995,582.9318330999995,582.9318330999995,582.9318330999995,582.9318330999995,582.9318330999995,582.9318330999995,582.9318330999995,None,None,None,,,,,,,,,,,579.847534200002,579.847534200002,None,,580.9069208000001,580.9069208000001,582.9318330999995,n,579.847534200002,579.847534200002,0.6948565999991843,,12,1,2024-06-18_17h02.34.500,robot_nback_sign,2022.2.5,60.20647207619808,
M,False,1.0,letter,1.0,False,False,robot_stimuli\\filler.mp4,12.0,,,,,,,,,0.0,65.0,65.0,65.0,,,,,,,,,,,,,582.9318330999995,583.9901367999992,,,,,,,586.2222392000003,586.2222392000003,586.2222392000003,586.2222392000003,586.2222392000003,586.2222392000003,586.2222392000003,586.2222392000003,None,None,None,,,,,,,,,,,582.9318330999995,582.9318330999995,None,,583.9901367999992,583.9901367999992,586.2222392000003,n,582.9318330999995,582.9318330999995,0.7150610999960918,,12,1,2024-06-18_17h02.34.500,robot_nback_sign,2022.2.5,60.20647207619808,
M,True,1.0,letter,1.0,False,False,robot_stimuli\\filler.mp4,12.0,,,,,,,,,0.0,66.0,66.0,66.0,,,,,,,,,,,,,586.2222392000003,,,,,,,,589.3167740000026,589.3167740000026,589.3167740000026,589.3167740000026,589.3167740000026,589.3167740000026,589.3167740000026,589.3167740000026,None,None,None,,,,,,,,,,,586.2222392000003,586.2222392000003,None,,587.2890264000016,587.2890264000016,589.3167740000026,c,586.2222392000003,586.2222392000003,0.6325686999953177,,12,1,2024-06-18_17h02.34.500,robot_nback_sign,2022.2.5,60.20647207619808,
Z,False,1.0,letter,1.0,False,False,robot_stimuli\\filler.mp4,12.0,,,,,,,,,0.0,67.0,67.0,67.0,,,,,,,,,,,,,589.3167740000026,590.3730204000021,,,,,,,592.4100830999996,592.4100830999996,592.4100830999996,592.4100830999996,592.4100830999996,592.4100830999996,592.4100830999996,592.4100830999996,None,None,None,,,,,,,,,,,589.3167740000026,589.3167740000026,None,,590.3730204000021,590.3730204000021,592.4100830999996,n,589.3167740000026,589.3167740000026,0.7731493999963277,,12,1,2024-06-18_17h02.34.500,robot_nback_sign,2022.2.5,60.20647207619808,
C,False,1.0,letter,1.0,False,False,robot_stimuli\\filler.mp4,12.0,,,,,,,,,0.0,68.0,68.0,68.0,,,,,,,,,,,,,592.4100830999996,593.4792132000002,,,,,,,595.5100779999993,595.5100779999993,595.5100779999993,595.5100779999993,595.5100779999993,595.5100779999993,595.5100779999993,595.5100779999993,None,None,None,,,,,,,,,,,592.4100830999996,592.4100830999996,None,,593.4792132000002,593.4792132000002,595.5100779999993,n,592.4100830999996,592.4100830999996,0.5549306999964756,,12,1,2024-06-18_17h02.34.500,robot_nback_sign,2022.2.5,60.20647207619808,
S,False,1.0,letter,1.0,False,False,robot_stimuli\\filler.mp4,12.0,,,,,,,,,0.0,69.0,69.0,69.0,,,,,,,,,,,,,595.5100779999993,596.5736228999995,,,,,,,598.805786500001,598.805786500001,598.805786500001,598.805786500001,598.805786500001,598.805786500001,598.805786500001,598.805786500001,None,None,None,,,,,,,,,,,595.5100779999993,595.5100779999993,None,,596.5736228999995,596.5736228999995,598.805786500001,n,595.5100779999993,595.5100779999993,0.4999414999983855,,12,1,2024-06-18_17h02.34.500,robot_nback_sign,2022.2.5,60.20647207619808,
Q,False,1.0,letter,1.0,False,False,robot_stimuli\\filler.mp4,12.0,,,,,,,,,0.0,70.0,70.0,70.0,,,,,,,,,,,,,598.805786500001,,,,,,,,601.9064384000012,601.9064384000012,601.9064384000012,601.9064384000012,601.9064384000012,601.9064384000012,601.9064384000012,601.9064384000012,None,None,None,,,,,,,,,,,598.805786500001,598.805786500001,None,,599.8744581999999,599.8744581999999,601.9064384000012,n,598.805786500001,598.805786500001,0.5505778999977338,,12,1,2024-06-18_17h02.34.500,robot_nback_sign,2022.2.5,60.20647207619808,
J,False,1.0,letter,1.0,False,False,robot_stimuli\\filler.mp4,12.0,,,,,,,,,0.0,71.0,71.0,71.0,,,,,,,,,,,,,601.9064384000012,,,,,,,,605.2063864000011,605.2063864000011,605.2063864000011,605.2063864000011,605.2063864000011,605.2063864000011,605.2063864000011,605.2063864000011,None,None,None,,,,,,,,,,,601.9064384000012,601.9064384000012,None,,602.9727010999995,602.9727010999995,605.2063864000011,n,601.9064384000012,601.9064384000012,0.4691061999983503,,12,1,2024-06-18_17h02.34.500,robot_nback_sign,2022.2.5,60.20647207619808,
T,False,1.0,letter,1.0,False,False,robot_stimuli\\filler.mp4,12.0,,,,,,,,,0.0,72.0,72.0,72.0,,,,,,,,,,,,,605.2063864000011,,,,,,,,608.3048841000018,608.3048841000018,608.3048841000018,608.3048841000018,608.3048841000018,608.3048841000018,608.3048841000018,608.3048841000018,None,None,None,,,,,,,,,,,605.2063864000011,605.2063864000011,None,,606.274751500001,606.274751500001,608.3048841000018,n,605.2063864000011,605.2063864000011,0.446876499998325,,12,1,2024-06-18_17h02.34.500,robot_nback_sign,2022.2.5,60.20647207619808,
T,True,1.0,letter,1.0,False,False,robot_stimuli\\filler.mp4,12.0,,,,,,,,,0.0,73.0,73.0,73.0,,,,,,,,,,,,,608.3048841000018,,,,,,,,611.6006392000018,611.6006392000018,611.6006392000018,611.6006392000018,611.6006392000018,611.6006392000018,611.6006392000018,611.6006392000018,None,None,None,,,,,,,,,,,608.3048841000018,608.3048841000018,None,,609.3722928999996,609.3722928999996,611.6006392000018,c,608.3048841000018,608.3048841000018,0.4060715999985405,,12,1,2024-06-18_17h02.34.500,robot_nback_sign,2022.2.5,60.20647207619808,
Z,False,1.0,letter,1.0,False,False,robot_stimuli\\filler.mp4,12.0,,,,,,,,,0.0,74.0,74.0,74.0,,,,,,,,,,,,,611.6006392000018,612.6573616000023,,,,,,,614.6869621000005,614.6869621000005,614.6869621000005,614.6869621000005,614.6869621000005,614.6869621000005,614.6869621000005,614.6869621000005,None,None,None,,,,,,,,,,,611.6006392000018,611.6006392000018,None,,612.6573616000023,612.6573616000023,614.6869621000005,n,611.6006392000018,611.6006392000018,0.4970251999984612,,12,1,2024-06-18_17h02.34.500,robot_nback_sign,2022.2.5,60.20647207619808,
W,False,1.0,letter,1.0,False,False,robot_stimuli\\filler.mp4,12.0,,,,,,,,,0.0,75.0,75.0,75.0,,,,,,,,,,,,,614.6869621000005,615.7400535000015,,,,,,,617.9679991000012,617.9679991000012,617.9679991000012,617.9679991000012,617.9679991000012,617.9679991000012,617.9679991000012,617.9679991000012,None,None,None,,,,,,,,,,,614.6869621000005,614.6869621000005,None,,615.7400535000015,615.7400535000015,617.9679991000012,n,614.6869621000005,614.6869621000005,0.4618633999962185,,12,1,2024-06-18_17h02.34.500,robot_nback_sign,2022.2.5,60.20647207619808,
G,False,1.0,letter,1.0,False,False,robot_stimuli\\filler.mp4,12.0,,,,,,,,,0.0,76.0,76.0,76.0,,,,,,,,,,,,,617.9679991000012,619.0253102000024,,,,,,,621.0570439000003,621.0570439000003,621.0570439000003,621.0570439000003,621.0570439000003,621.0570439000003,621.0570439000003,621.0570439000003,None,None,None,,,,,,,,,,,617.9679991000012,617.9679991000012,None,,619.0253102000024,619.0253102000024,621.0570439000003,n,617.9679991000012,617.9679991000012,0.52026079999996,,12,1,2024-06-18_17h02.34.500,robot_nback_sign,2022.2.5,60.20647207619808,
M,False,1.0,letter,1.0,False,False,robot_stimuli\\filler.mp4,12.0,,,,,,,,,0.0,77.0,77.0,77.0,,,,,,,,,,,,,621.0570439000003,,,,,,,,624.3548544000005,624.3548544000005,624.3548544000005,624.3548544000005,624.3548544000005,624.3548544000005,624.3548544000005,624.3548544000005,None,None,None,,,,,,,,,,,621.0570439000003,621.0570439000003,None,,622.1239151000009,622.1239151000009,624.3548544000005,n,621.0570439000003,621.0570439000003,0.4545515999998315,,12,1,2024-06-18_17h02.34.500,robot_nback_sign,2022.2.5,60.20647207619808,
M,True,1.0,letter,1.0,False,False,robot_stimuli\\filler.mp4,12.0,,,,,,,,,0.0,78.0,78.0,78.0,,,,,,,,,,,,,624.3548544000005,,,,,,,,627.6542421000013,627.6542421000013,627.6542421000013,627.6542421000013,627.6542421000013,627.6542421000013,627.6542421000013,627.6542421000013,None,None,None,,,,,,,,,,,624.3548544000005,624.3548544000005,None,,625.4231701000026,625.4231701000026,627.6542421000013,c,624.3548544000005,624.3548544000005,0.6595952999996371,,12,1,2024-06-18_17h02.34.500,robot_nback_sign,2022.2.5,60.20647207619808,
L,False,1.0,letter,1.0,False,False,robot_stimuli\\filler.mp4,12.0,,,,,,,,,0.0,79.0,79.0,79.0,,,,,,,,,,,,,627.6542421000013,628.7070332000003,,,,,,,630.9321731000018,630.9321731000018,630.9321731000018,630.9321731000018,630.9321731000018,630.9321731000018,630.9321731000018,630.9321731000018,None,None,None,,,,,,,,,,,627.6542421000013,627.6542421000013,None,,628.7070332000003,628.7070332000003,630.9321731000018,n,627.6542421000013,627.6542421000013,0.6234822999977041,,12,1,2024-06-18_17h02.34.500,robot_nback_sign,2022.2.5,60.20647207619808,
L,True,1.0,letter,1.0,False,False,robot_stimuli\\filler.mp4,12.0,,,,,,,,,0.0,80.0,80.0,80.0,,,,,,,,,,,,,630.9321731000018,631.9884619000004,,,,,,,634.2179810000016,634.2179810000016,634.2179810000016,634.2179810000016,634.2179810000016,634.2179810000016,634.2179810000016,634.2179810000016,None,None,None,,,,,,,,,,,630.9321731000018,630.9321731000018,None,,631.9884619000004,631.9884619000004,634.2179810000016,c,630.9321731000018,630.9321731000018,0.4864244999989751,,12,1,2024-06-18_17h02.34.500,robot_nback_sign,2022.2.5,60.20647207619808,
S,False,1.0,letter,1.0,False,False,robot_stimuli\\filler.mp4,12.0,,,,,,,,,0.0,81.0,81.0,81.0,,,,,,,,,,,,,634.2179810000016,635.2752379000012,,,,,,,637.3001523999992,637.3001523999992,637.3001523999992,637.3001523999992,637.3001523999992,637.3001523999992,637.3001523999992,637.3001523999992,None,None,None,,,,,,,,,,,634.2179810000016,634.2179810000016,None,,635.2752379000012,635.2752379000012,637.3001523999992,n,634.2179810000016,634.2179810000016,0.4794752999987395,,12,1,2024-06-18_17h02.34.500,robot_nback_sign,2022.2.5,60.20647207619808,
T,False,1.0,letter,1.0,False,False,robot_stimuli\\filler.mp4,12.0,,,,,,,,,0.0,82.0,82.0,82.0,,,,,,,,,,,,,637.3001523999992,638.3595540999995,,,,,,,640.386880500002,640.386880500002,640.386880500002,640.386880500002,640.386880500002,640.386880500002,640.386880500002,640.386880500002,None,None,None,,,,,,,,,,,637.3001523999992,637.3001523999992,None,,638.3595540999995,638.3595540999995,640.386880500002,n,637.3001523999992,637.3001523999992,0.4663034999975934,,12,1,2024-06-18_17h02.34.500,robot_nback_sign,2022.2.5,60.20647207619808,
V,False,1.0,letter,1.0,False,False,robot_stimuli\\filler.mp4,12.0,,,,,,,,,0.0,83.0,83.0,83.0,,,,,,,,,,,,,640.386880500002,641.4397353999993,,,,,,,643.6742723000025,643.6742723000025,643.6742723000025,643.6742723000025,643.6742723000025,643.6742723000025,643.6742723000025,643.6742723000025,None,None,None,,,,,,,,,,,640.386880500002,640.386880500002,None,,641.4397353999993,641.4397353999993,643.6742723000025,n,640.386880500002,640.386880500002,0.5141548999963561,,12,1,2024-06-18_17h02.34.500,robot_nback_sign,2022.2.5,60.20647207619808,
V,True,1.0,letter,1.0,False,False,robot_stimuli\\filler.mp4,12.0,,,,,,,,,0.0,84.0,84.0,84.0,,,,,,,,,,,,,643.6742723000025,644.740185900002,,,,,,,646.9640338999998,646.9640338999998,646.9640338999998,646.9640338999998,646.9640338999998,646.9640338999998,646.9640338999998,646.9640338999998,None,None,None,,,,,,,,,,,643.6742723000025,643.6742723000025,None,,644.740185900002,644.740185900002,646.9640338999998,c,643.6742723000025,643.6742723000025,0.5893782999992254,,12,1,2024-06-18_17h02.34.500,robot_nback_sign,2022.2.5,60.20647207619808,
C,False,1.0,letter,1.0,False,False,robot_stimuli\\filler.mp4,12.0,,,,,,,,,0.0,85.0,85.0,85.0,,,,,,,,,,,,,646.9640338999998,648.0231065000007,,,,,,,650.2508739000004,650.2508739000004,650.2508739000004,650.2508739000004,650.2508739000004,650.2508739000004,650.2508739000004,650.2508739000004,None,None,None,,,,,,,,,,,646.9640338999998,646.9640338999998,None,,648.0231065000007,648.0231065000007,650.2508739000004,n,646.9640338999998,646.9640338999998,0.4756843999966804,,12,1,2024-06-18_17h02.34.500,robot_nback_sign,2022.2.5,60.20647207619808,
N,False,1.0,letter,1.0,False,False,robot_stimuli\\filler.mp4,12.0,,,,,,,,,0.0,86.0,86.0,86.0,,,,,,,,,,,,,650.2508739000004,651.3073546000014,,,,,,,653.3364288000012,653.3364288000012,653.3364288000012,653.3364288000012,653.3364288000012,653.3364288000012,653.3364288000012,653.3364288000012,None,None,None,,,,,,,,,,,650.2508739000004,650.2508739000004,None,,651.3073546000014,651.3073546000014,653.3364288000012,n,650.2508739000004,650.2508739000004,0.4954172999969159,,12,1,2024-06-18_17h02.34.500,robot_nback_sign,2022.2.5,60.20647207619808,
N,True,1.0,letter,1.0,False,False,robot_stimuli\\filler.mp4,12.0,,,,,,,,,0.0,87.0,87.0,87.0,,,,,,,,,,,,,653.3364288000012,654.3905268000017,,,,,,,656.6157999999996,656.6157999999996,656.6157999999996,656.6157999999996,656.6157999999996,656.6157999999996,656.6157999999996,656.6157999999996,None,None,None,,,,,,,,,,,653.3364288000012,653.3364288000012,None,,654.3905268000017,654.3905268000017,656.6157999999996,c,653.3364288000012,653.3364288000012,0.6280643999998574,,12,1,2024-06-18_17h02.34.500,robot_nback_sign,2022.2.5,60.20647207619808,
K,False,1.0,letter,1.0,False,False,robot_stimuli\\filler.mp4,12.0,,,,,,,,,0.0,88.0,88.0,88.0,,,,,,,,,,,,,656.6157999999996,657.6742469000019,,,,,,,659.7032884,659.7032884,659.7032884,659.7032884,659.7032884,659.7032884,659.7032884,659.7032884,None,None,None,,,,,,,,,,,656.6157999999996,656.6157999999996,None,,657.6742469000019,657.6742469000019,659.7032884,n,656.6157999999996,656.6157999999996,0.5444152000018221,,12,1,2024-06-18_17h02.34.500,robot_nback_sign,2022.2.5,60.20647207619808,
N,False,1.0,letter,1.0,False,False,robot_stimuli\\filler.mp4,12.0,,,,,,,,,0.0,89.0,89.0,89.0,,,,,,,,,,,,,659.7032884,660.7584975999998,,,,,,,662.7845655000019,662.7845655000019,662.7845655000019,662.7845655000019,662.7845655000019,662.7845655000019,662.7845655000019,662.7845655000019,None,None,None,,,,,,,,,,,659.7032884,659.7032884,None,,660.7584975999998,660.7584975999998,662.7845655000019,n,659.7032884,659.7032884,0.5313388999966264,,12,1,2024-06-18_17h02.34.500,robot_nback_sign,2022.2.5,60.20647207619808,
G,False,1.0,letter,1.0,False,False,robot_stimuli\\filler.mp4,12.0,,,,,,,,,0.0,90.0,90.0,90.0,,,,,,,,,,,,,662.7845655000019,663.8420002999992,,,,,,,665.8729768000012,665.8729768000012,665.8729768000012,665.8729768000012,665.8729768000012,665.8729768000012,665.8729768000012,665.8729768000012,None,None,None,,,,,,,,,,,662.7845655000019,662.7845655000019,None,,663.8420002999992,663.8420002999992,665.8729768000012,n,662.7845655000019,662.7845655000019,0.7369234999969194,,12,1,2024-06-18_17h02.34.500,robot_nback_sign,2022.2.5,60.20647207619808,
W,False,1.0,letter,1.0,False,False,robot_stimuli\\filler.mp4,12.0,,,,,,,,,0.0,91.0,91.0,91.0,,,,,,,,,,,,,665.8729768000012,,,,,,,,669.1717915000008,669.1717915000008,669.1717915000008,669.1717915000008,669.1717915000008,669.1717915000008,669.1717915000008,669.1717915000008,None,None,None,,,,,,,,,,,665.8729768000012,665.8729768000012,None,,666.9393512000024,666.9393512000024,669.1717915000008,n,665.8729768000012,665.8729768000012,0.6632908999999927,,12,1,2024-06-18_17h02.34.500,robot_nback_sign,2022.2.5,60.20647207619808,
T,False,1.0,letter,1.0,False,False,robot_stimuli\\filler.mp4,12.0,,,,,,,,,0.0,92.0,92.0,92.0,,,,,,,,,,,,,669.1717915000008,,,,,,,,672.2821605999998,672.2821605999998,672.2821605999998,672.2821605999998,672.2821605999998,672.2821605999998,672.2821605999998,672.2821605999998,None,None,None,,,,,,,,,,,669.1717915000008,669.1717915000008,None,,670.2482402999995,670.2482402999995,672.2821605999998,n,669.1717915000008,669.1717915000008,0.6735926999972435,,12,1,2024-06-18_17h02.34.500,robot_nback_sign,2022.2.5,60.20647207619808,
G,False,1.0,letter,1.0,False,False,robot_stimuli\\filler.mp4,12.0,,,,,,,,,0.0,93.0,93.0,93.0,,,,,,,,,,,,,672.2821605999998,673.3416053000001,,,,,,,675.5675233000002,675.5675233000002,675.5675233000002,675.5675233000002,675.5675233000002,675.5675233000002,675.5675233000002,675.5675233000002,None,None,None,,,,,,,,,,,672.2821605999998,672.2821605999998,None,,673.3416053000001,673.3416053000001,675.5675233000002,n,672.2821605999998,672.2821605999998,0.7237381999984791,,12,1,2024-06-18_17h02.34.500,robot_nback_sign,2022.2.5,60.20647207619808,
G,True,1.0,letter,1.0,False,False,robot_stimuli\\filler.mp4,12.0,,,,,,,,,0.0,94.0,94.0,94.0,,,,,,,,,,,,,675.5675233000002,676.6227485000018,,,,,,,678.8484687000018,678.8484687000018,678.8484687000018,678.8484687000018,678.8484687000018,678.8484687000018,678.8484687000018,678.8484687000018,None,None,None,,,,,,,,,,,675.5675233000002,675.5675233000002,None,,676.6227485000018,676.6227485000018,678.8484687000018,c,675.5675233000002,675.5675233000002,0.604299999999057,,12,1,2024-06-18_17h02.34.500,robot_nback_sign,2022.2.5,60.20647207619808,
W,False,1.0,letter,1.0,False,False,robot_stimuli\\filler.mp4,12.0,,,,,,,,,0.0,95.0,95.0,95.0,,,,,,,,,,,,,678.8484687000018,679.9070090999994,,,,,,,681.9429989000018,681.9429989000018,681.9429989000018,681.9429989000018,681.9429989000018,681.9429989000018,681.9429989000018,681.9429989000018,None,None,None,,,,,,,,,,,678.8484687000018,678.8484687000018,None,,679.9070090999994,679.9070090999994,681.9429989000018,n,678.8484687000018,678.8484687000018,0.5116658999977517,,12,1,2024-06-18_17h02.34.500,robot_nback_sign,2022.2.5,60.20647207619808,
H,False,1.0,letter,1.0,False,False,robot_stimuli\\filler.mp4,12.0,,,,,,,,,0.0,96.0,96.0,96.0,,,,,,,,,,,,,681.9429989000018,683.0078939000014,,,,,,,685.041411000002,685.041411000002,685.041411000002,685.041411000002,685.041411000002,685.041411000002,685.041411000002,685.041411000002,None,None,None,,,,,,,,,,,681.9429989000018,681.9429989000018,None,,683.0078939000014,683.0078939000014,685.041411000002,n,681.9429989000018,681.9429989000018,0.5305203999960213,,12,1,2024-06-18_17h02.34.500,robot_nback_sign,2022.2.5,60.20647207619808,
H,True,1.0,letter,1.0,False,False,robot_stimuli\\filler.mp4,12.0,,,,,,,,,0.0,97.0,97.0,97.0,,,,,,,,,,,,,685.041411000002,686.1054242999999,,,,,,,688.3308582999998,688.3308582999998,688.3308582999998,688.3308582999998,688.3308582999998,688.3308582999998,688.3308582999998,688.3308582999998,None,None,None,,,,,,,,,,,685.041411000002,685.041411000002,None,,686.1054242999999,686.1054242999999,688.3308582999998,c,685.041411000002,685.041411000002,0.5202972000006412,,12,1,2024-06-18_17h02.34.500,robot_nback_sign,2022.2.5,60.20647207619808,
R,False,1.0,letter,1.0,False,False,robot_stimuli\\filler.mp4,12.0,,,,,,,,,0.0,98.0,98.0,98.0,,,,,,,,,,,,,688.3308582999998,689.391795800002,,,,,,,691.4260482999998,691.4260482999998,691.4260482999998,691.4260482999998,691.4260482999998,691.4260482999998,691.4260482999998,691.4260482999998,None,None,None,,,,,,,,,,,688.3308582999998,688.3308582999998,None,,689.391795800002,689.391795800002,691.4260482999998,n,688.3308582999998,688.3308582999998,0.474823299999116,,12,1,2024-06-18_17h02.34.500,robot_nback_sign,2022.2.5,60.20647207619808,
J,False,1.0,letter,1.0,False,True,robot_stimuli\\filler.mp4,12.0,,,,,,,,,0.0,99.0,99.0,99.0,,,,,,,,,,,,,691.4260482999998,692.489859199999,,,,,,,694.7511438000001,698.9556448000003,694.7511438000001,698.9556448000003,694.7511438000001,698.9556448000003,694.7511438000001,698.9556448000003,27.067901234567895,2.741153900002246,space,,,,4.138438300000416,,,,,,,691.4260482999998,691.4260482999998,None,,692.489859199999,692.489859199999,694.7511438000001,n,691.4260482999998,691.4260482999998,0.4726822000011452,,12,1,2024-06-18_17h02.34.500,robot_nback_sign,2022.2.5,60.20647207619808,
L,False,3.0,letter,1.0,True,False,robot_stimuli\\filler.mp4,12.0,,,,,,,,,0.0,100.0,100.0,100.0,,,,,,,,,,,,,707.5206175000021,708.5766105000002,,,,,,,710.5987716000018,710.5987716000018,710.5987716000018,710.5987716000018,710.5987716000018,710.5987716000018,710.5987716000018,710.5987716000018,None,None,None,,,,,,,,,,,698.9556448000003,698.9556448000003,space,8.533371800000168,708.5766105000002,708.5766105000002,710.5987716000018,n,,,1.170227700000396,,12,1,2024-06-18_17h02.34.500,robot_nback_sign,2022.2.5,60.20647207619808,
L,False,3.0,letter,1.0,False,False,robot_stimuli\\filler.mp4,12.0,,,,,,,,,0.0,101.0,101.0,101.0,,,,,,,,,,,,,710.5987716000018,711.6558584000013,,,,,,,713.8899745000017,713.8899745000017,713.8899745000017,713.8899745000017,713.8899745000017,713.8899745000017,713.8899745000017,713.8899745000017,None,None,None,,,,,,,,,,,710.5987716000018,710.5987716000018,None,,711.6558584000013,711.6558584000013,713.8899745000017,n,710.5987716000018,710.5987716000018,0.2659841999993659,,12,1,2024-06-18_17h02.34.500,robot_nback_sign,2022.2.5,60.20647207619808,
D,False,3.0,letter,1.0,False,False,robot_stimuli\\filler.mp4,12.0,,,,,,,,,0.0,102.0,102.0,102.0,,,,,,,,,,,,,713.8899745000017,,,,,,,,716.9875341000006,716.9875341000006,716.9875341000006,716.9875341000006,716.9875341000006,716.9875341000006,716.9875341000006,716.9875341000006,None,None,None,,,,,,,,,,,713.8899745000017,713.8899745000017,None,,714.9577858000011,714.9577858000011,716.9875341000006,n,713.8899745000017,713.8899745000017,1.2288807000004454,,12,1,2024-06-18_17h02.34.500,robot_nback_sign,2022.2.5,60.20647207619808,
X,False,3.0,letter,1.0,False,False,robot_stimuli\\filler.mp4,12.0,,,,,,,,,0.0,103.0,103.0,103.0,,,,,,,,,,,,,716.9875341000006,718.0530787999996,,,,,,,720.0758839000009,720.0758839000009,720.0758839000009,720.0758839000009,720.0758839000009,720.0758839000009,720.0758839000009,720.0758839000009,None,None,None,,,,,,,,,,,716.9875341000006,716.9875341000006,None,,718.0530787999996,718.0530787999996,720.0758839000009,n,716.9875341000006,716.9875341000006,0.5332359999993059,,12,1,2024-06-18_17h02.34.500,robot_nback_sign,2022.2.5,60.20647207619808,
H,False,3.0,letter,1.0,False,False,robot_stimuli\\filler.mp4,12.0,,,,,,,,,0.0,104.0,104.0,104.0,,,,,,,,,,,,,720.0758839000009,721.1411571999997,,,,,,,723.3682345000016,723.3682345000016,723.3682345000016,723.3682345000016,723.3682345000016,723.3682345000016,723.3682345000016,723.3682345000016,None,None,None,,,,,,,,,,,720.0758839000009,720.0758839000009,None,,721.1411571999997,721.1411571999997,723.3682345000016,n,720.0758839000009,720.0758839000009,0.5815215999973589,,12,1,2024-06-18_17h02.34.500,robot_nback_sign,2022.2.5,60.20647207619808,
J,False,3.0,letter,1.0,False,False,robot_stimuli\\filler.mp4,12.0,,,,,,,,,0.0,105.0,105.0,105.0,,,,,,,,,,,,,723.3682345000016,724.4360096000019,,,,,,,726.4693705999998,726.4693705999998,726.4693705999998,726.4693705999998,726.4693705999998,726.4693705999998,726.4693705999998,726.4693705999998,None,None,None,,,,,,,,,,,723.3682345000016,723.3682345000016,None,,724.4360096000019,724.4360096000019,726.4693705999998,n,723.3682345000016,723.3682345000016,0.8465318999988085,,12,1,2024-06-18_17h02.34.500,robot_nback_sign,2022.2.5,60.20647207619808,
L,False,3.0,letter,1.0,False,False,robot_stimuli\\filler.mp4,12.0,,,,,,,,,0.0,106.0,106.0,106.0,,,,,,,,,,,,,726.4693705999998,727.5246385999999,,,,,,,729.5520023000026,729.5520023000026,729.5520023000026,729.5520023000026,729.5520023000026,729.5520023000026,729.5520023000026,729.5520023000026,None,None,None,,,,,,,,,,,726.4693705999998,726.4693705999998,None,,727.5246385999999,727.5246385999999,729.5520023000026,None,726.4693705999998,726.4693705999998,,,12,1,2024-06-18_17h02.34.500,robot_nback_sign,2022.2.5,60.20647207619808,
H,True,3.0,letter,1.0,False,False,robot_stimuli\\filler.mp4,12.0,,,,,,,,,0.0,107.0,107.0,107.0,,,,,,,,,,,,,729.5520023000026,730.6076410999995,,,,,,,732.8361475999991,732.8361475999991,732.8361475999991,732.8361475999991,732.8361475999991,732.8361475999991,732.8361475999991,732.8361475999991,None,None,None,,,,,,,,,,,729.5520023000026,729.5520023000026,None,,730.6076410999995,730.6076410999995,732.8361475999991,c,729.5520023000026,729.5520023000026,1.8673590999969747,,12,1,2024-06-18_17h02.34.500,robot_nback_sign,2022.2.5,60.20647207619808,
N,False,3.0,letter,1.0,False,False,robot_stimuli\\filler.mp4,12.0,,,,,,,,,0.0,108.0,108.0,108.0,,,,,,,,,,,,,732.8361475999991,733.8926931999995,,,,,,,735.9229240000022,735.9229240000022,735.9229240000022,735.9229240000022,735.9229240000022,735.9229240000022,735.9229240000022,735.9229240000022,None,None,None,,,,,,,,,,,732.8361475999991,732.8361475999991,None,,733.8926931999995,733.8926931999995,735.9229240000022,None,732.8361475999991,732.8361475999991,,,12,1,2024-06-18_17h02.34.500,robot_nback_sign,2022.2.5,60.20647207619808,
C,False,3.0,letter,1.0,False,False,robot_stimuli\\filler.mp4,12.0,,,,,,,,,0.0,109.0,109.0,109.0,,,,,,,,,,,,,735.9229240000022,,,,,,,,739.0258966000001,739.0258966000001,739.0258966000001,739.0258966000001,739.0258966000001,739.0258966000001,739.0258966000001,739.0258966000001,None,None,None,,,,,,,,,,,735.9229240000022,735.9229240000022,None,,737.0008646999995,737.0008646999995,739.0258966000001,None,735.9229240000022,735.9229240000022,,,12,1,2024-06-18_17h02.34.500,robot_nback_sign,2022.2.5,60.20647207619808,
Q,False,3.0,letter,1.0,False,False,robot_stimuli\\filler.mp4,12.0,,,,,,,,,0.0,110.0,110.0,110.0,,,,,,,,,,,,,739.0258966000001,740.0912529000016,,,,,,,742.1254961000013,742.1254961000013,742.1254961000013,742.1254961000013,742.1254961000013,742.1254961000013,742.1254961000013,742.1254961000013,None,None,None,,,,,,,,,,,739.0258966000001,739.0258966000001,None,,740.0912529000016,740.0912529000016,742.1254961000013,None,739.0258966000001,739.0258966000001,,,12,1,2024-06-18_17h02.34.500,robot_nback_sign,2022.2.5,60.20647207619808,
G,False,3.0,letter,1.0,False,False,robot_stimuli\\filler.mp4,12.0,,,,,,,,,0.0,111.0,111.0,111.0,,,,,,,,,,,,,742.1254961000013,743.1908598000009,,,,,,,745.4176685999992,745.4176685999992,745.4176685999992,745.4176685999992,745.4176685999992,745.4176685999992,745.4176685999992,745.4176685999992,None,None,None,,,,,,,,,,,742.1254961000013,742.1254961000013,None,,743.1908598000009,743.1908598000009,745.4176685999992,None,742.1254961000013,742.1254961000013,,,12,1,2024-06-18_17h02.34.500,robot_nback_sign,2022.2.5,60.20647207619808,
N,False,3.0,letter,1.0,False,False,robot_stimuli\\filler.mp4,12.0,,,,,,,,,0.0,112.0,112.0,112.0,,,,,,,,,,,,,745.4176685999992,746.4748684000006,,,,,,,748.6981960000012,748.6981960000012,748.6981960000012,748.6981960000012,748.6981960000012,748.6981960000012,748.6981960000012,748.6981960000012,None,None,None,,,,,,,,,,,745.4176685999992,745.4176685999992,None,,746.4748684000006,746.4748684000006,748.6981960000012,n,745.4176685999992,745.4176685999992,1.1832984999964538,,12,1,2024-06-18_17h02.34.500,robot_nback_sign,2022.2.5,60.20647207619808,
T,False,3.0,letter,1.0,False,False,robot_stimuli\\filler.mp4,12.0,,,,,,,,,0.0,113.0,113.0,113.0,,,,,,,,,,,,,748.6981960000012,749.7575298000011,,,,,,,751.9857130000019,751.9857130000019,751.9857130000019,751.9857130000019,751.9857130000019,751.9857130000019,751.9857130000019,751.9857130000019,None,None,None,,,,,,,,,,,748.6981960000012,748.6981960000012,None,,749.7575298000011,749.7575298000011,751.9857130000019,n,748.6981960000012,748.6981960000012,1.268162799999118,,12,1,2024-06-18_17h02.34.500,robot_nback_sign,2022.2.5,60.20647207619808,
V,False,3.0,letter,1.0,False,False,robot_stimuli\\filler.mp4,12.0,,,,,,,,,0.0,114.0,114.0,114.0,,,,,,,,,,,,,751.9857130000019,753.0419314999999,,,,,,,755.0648158000004,755.0648158000004,755.0648158000004,755.0648158000004,755.0648158000004,755.0648158000004,755.0648158000004,755.0648158000004,None,None,None,,,,,,,,,,,751.9857130000019,751.9857130000019,None,,753.0419314999999,753.0419314999999,755.0648158000004,n,751.9857130000019,751.9857130000019,0.9527324000009684,,12,1,2024-06-18_17h02.34.500,robot_nback_sign,2022.2.5,60.20647207619808,
P,False,3.0,letter,1.0,False,False,robot_stimuli\\filler.mp4,12.0,,,,,,,,,0.0,115.0,115.0,115.0,,,,,,,,,,,,,755.0648158000004,756.1244585999993,,,,,,,758.3488806000023,758.3488806000023,758.3488806000023,758.3488806000023,758.3488806000023,758.3488806000023,758.3488806000023,758.3488806000023,None,None,None,,,,,,,,,,,755.0648158000004,755.0648158000004,None,,756.1244585999993,756.1244585999993,758.3488806000023,n,755.0648158000004,755.0648158000004,0.8448460999970848,,12,1,2024-06-18_17h02.34.500,robot_nback_sign,2022.2.5,60.20647207619808,
X,False,3.0,letter,1.0,False,False,robot_stimuli\\filler.mp4,12.0,,,,,,,,,0.0,116.0,116.0,116.0,,,,,,,,,,,,,758.3488806000023,759.4083905000007,,,,,,,761.6361832000002,761.6361832000002,761.6361832000002,761.6361832000002,761.6361832000002,761.6361832000002,761.6361832000002,761.6361832000002,None,None,None,,,,,,,,,,,758.3488806000023,758.3488806000023,None,,759.4083905000007,759.4083905000007,761.6361832000002,n,758.3488806000023,758.3488806000023,1.5936141999991378,,12,1,2024-06-18_17h02.34.500,robot_nback_sign,2022.2.5,60.20647207619808,
P,False,3.0,letter,1.0,False,False,robot_stimuli\\filler.mp4,12.0,,,,,,,,,0.0,117.0,117.0,117.0,,,,,,,,,,,,,761.6361832000002,762.6908162,,,,,,,764.7233058999991,764.7233058999991,764.7233058999991,764.7233058999991,764.7233058999991,764.7233058999991,764.7233058999991,764.7233058999991,None,None,None,,,,,,,,,,,761.6361832000002,761.6361832000002,None,,762.6908162,762.6908162,764.7233058999991,c,761.6361832000002,761.6361832000002,1.303803999999218,,12,1,2024-06-18_17h02.34.500,robot_nback_sign,2022.2.5,60.20647207619808,
P,True,3.0,letter,1.0,False,False,robot_stimuli\\filler.mp4,12.0,,,,,,,,,0.0,118.0,118.0,118.0,,,,,,,,,,,,,764.7233058999991,,,,,,,,768.0152182999991,768.0152182999991,768.0152182999991,768.0152182999991,768.0152182999991,768.0152182999991,768.0152182999991,768.0152182999991,None,None,None,,,,,,,,,,,764.7233058999991,764.7233058999991,None,,765.7888007000001,765.7888007000001,768.0152182999991,n,764.7233058999991,764.7233058999991,0.7410324999982549,,12,1,2024-06-18_17h02.34.500,robot_nback_sign,2022.2.5,60.20647207619808,
L,False,3.0,letter,1.0,False,False,robot_stimuli\\filler.mp4,12.0,,,,,,,,,0.0,119.0,119.0,119.0,,,,,,,,,,,,,768.0152182999991,769.0734742000022,,,,,,,771.298103699999,771.298103699999,771.298103699999,771.298103699999,771.298103699999,771.298103699999,771.298103699999,771.298103699999,None,None,None,,,,,,,,,,,768.0152182999991,768.0152182999991,None,,769.0734742000022,769.0734742000022,771.298103699999,n,768.0152182999991,768.0152182999991,1.2088067999975465,,12,1,2024-06-18_17h02.34.500,robot_nback_sign,2022.2.5,60.20647207619808,
N,False,3.0,letter,1.0,False,False,robot_stimuli\\filler.mp4,12.0,,,,,,,,,0.0,120.0,120.0,120.0,,,,,,,,,,,,,771.298103699999,772.3566073000002,,,,,,,774.5808393000007,774.5808393000007,774.5808393000007,774.5808393000007,774.5808393000007,774.5808393000007,774.5808393000007,774.5808393000007,None,None,None,,,,,,,,,,,771.298103699999,771.298103699999,None,,772.3566073000002,772.3566073000002,774.5808393000007,n,771.298103699999,771.298103699999,1.7900957999991078,,12,1,2024-06-18_17h02.34.500,robot_nback_sign,2022.2.5,60.20647207619808,
P,True,3.0,letter,1.0,False,False,robot_stimuli\\filler.mp4,12.0,,,,,,,,,0.0,121.0,121.0,121.0,,,,,,,,,,,,,774.5808393000007,775.6410133999998,,,,,,,777.8711522000012,777.8711522000012,777.8711522000012,777.8711522000012,777.8711522000012,777.8711522000012,777.8711522000012,777.8711522000012,None,None,None,,,,,,,,,,,774.5808393000007,774.5808393000007,None,,775.6410133999998,775.6410133999998,777.8711522000012,c,774.5808393000007,774.5808393000007,1.9532878999998504,,12,1,2024-06-18_17h02.34.500,robot_nback_sign,2022.2.5,60.20647207619808,
L,True,3.0,letter,1.0,False,False,robot_stimuli\\filler.mp4,12.0,,,,,,,,,0.0,122.0,122.0,122.0,,,,,,,,,,,,,777.8711522000012,778.9249324000011,,,,,,,780.9554882000011,780.9554882000011,780.9554882000011,780.9554882000011,780.9554882000011,780.9554882000011,780.9554882000011,780.9554882000011,None,None,None,,,,,,,,,,,777.8711522000012,777.8711522000012,None,,778.9249324000011,778.9249324000011,780.9554882000011,c,777.8711522000012,777.8711522000012,0.917981199996575,,12,1,2024-06-18_17h02.34.500,robot_nback_sign,2022.2.5,60.20647207619808,
N,True,3.0,letter,1.0,False,False,robot_stimuli\\filler.mp4,12.0,,,,,,,,,0.0,123.0,123.0,123.0,,,,,,,,,,,,,780.9554882000011,,,,,,,,784.0546715000019,784.0546715000019,784.0546715000019,784.0546715000019,784.0546715000019,784.0546715000019,784.0546715000019,784.0546715000019,None,None,None,,,,,,,,,,,780.9554882000011,780.9554882000011,None,,782.0237555000022,782.0237555000022,784.0546715000019,c,780.9554882000011,780.9554882000011,0.929399699998612,,12,1,2024-06-18_17h02.34.500,robot_nback_sign,2022.2.5,60.20647207619808,
K,False,3.0,letter,1.0,False,False,robot_stimuli\\filler.mp4,12.0,,,,,,,,,0.0,124.0,124.0,124.0,,,,,,,,,,,,,784.0546715000019,785.1094698000015,,,,,,,787.1436783000026,787.1436783000026,787.1436783000026,787.1436783000026,787.1436783000026,787.1436783000026,787.1436783000026,787.1436783000026,None,None,None,,,,,,,,,,,784.0546715000019,784.0546715000019,None,,785.1094698000015,785.1094698000015,787.1436783000026,n,784.0546715000019,784.0546715000019,0.7718992000009166,,12,1,2024-06-18_17h02.34.500,robot_nback_sign,2022.2.5,60.20647207619808,
N,False,3.0,letter,1.0,False,False,robot_stimuli\\filler.mp4,12.0,,,,,,,,,0.0,125.0,125.0,125.0,,,,,,,,,,,,,787.1436783000026,788.2063434000011,,,,,,,790.431367000001,790.431367000001,790.431367000001,790.431367000001,790.431367000001,790.431367000001,790.431367000001,790.431367000001,None,None,None,,,,,,,,,,,787.1436783000026,787.1436783000026,None,,788.2063434000011,788.2063434000011,790.431367000001,n,787.1436783000026,787.1436783000026,1.187917599996581,,12,1,2024-06-18_17h02.34.500,robot_nback_sign,2022.2.5,60.20647207619808,
Q,False,3.0,letter,1.0,False,False,robot_stimuli\\filler.mp4,12.0,,,,,,,,,0.0,126.0,126.0,126.0,,,,,,,,,,,,,790.431367000001,791.4983990000001,,,,,,,793.5319655000021,793.5319655000021,793.5319655000021,793.5319655000021,793.5319655000021,793.5319655000021,793.5319655000021,793.5319655000021,None,None,None,,,,,,,,,,,790.431367000001,790.431367000001,None,,791.4983990000001,791.4983990000001,793.5319655000021,n,790.431367000001,790.431367000001,0.8547055999988515,,12,1,2024-06-18_17h02.34.500,robot_nback_sign,2022.2.5,60.20647207619808,
L,False,3.0,letter,1.0,False,False,robot_stimuli\\filler.mp4,12.0,,,,,,,,,0.0,127.0,127.0,127.0,,,,,,,,,,,,,793.5319655000021,794.5910777000026,,,,,,,796.6169475000024,796.6169475000024,796.6169475000024,796.6169475000024,796.6169475000024,796.6169475000024,796.6169475000024,796.6169475000024,None,None,None,,,,,,,,,,,793.5319655000021,793.5319655000021,None,,794.5910777000026,794.5910777000026,796.6169475000024,c,793.5319655000021,793.5319655000021,1.8272270999987088,,12,1,2024-06-18_17h02.34.500,robot_nback_sign,2022.2.5,60.20647207619808,
X,False,3.0,letter,1.0,False,False,robot_stimuli\\filler.mp4,12.0,,,,,,,,,0.0,128.0,128.0,128.0,,,,,,,,,,,,,796.6169475000024,797.6743736999997,,,,,,,799.902425799999,799.902425799999,799.902425799999,799.902425799999,799.902425799999,799.902425799999,799.902425799999,799.902425799999,None,None,None,,,,,,,,,,,796.6169475000024,796.6169475000024,None,,797.6743736999997,797.6743736999997,799.902425799999,n,796.6169475000024,796.6169475000024,0.750810099998489,,12,1,2024-06-18_17h02.34.500,robot_nback_sign,2022.2.5,60.20647207619808,
V,False,3.0,letter,1.0,False,False,robot_stimuli\\filler.mp4,12.0,,,,,,,,,0.0,129.0,129.0,129.0,,,,,,,,,,,,,799.902425799999,800.9580547000005,,,,,,,803.1817422999993,803.1817422999993,803.1817422999993,803.1817422999993,803.1817422999993,803.1817422999993,803.1817422999993,803.1817422999993,None,None,None,,,,,,,,,,,799.902425799999,799.902425799999,None,,800.9580547000005,800.9580547000005,803.1817422999993,n,799.902425799999,799.902425799999,0.9239145999999892,,12,1,2024-06-18_17h02.34.500,robot_nback_sign,2022.2.5,60.20647207619808,
C,False,3.0,letter,1.0,False,False,robot_stimuli\\filler.mp4,12.0,,,,,,,,,0.0,130.0,130.0,130.0,,,,,,,,,,,,,803.1817422999993,804.2412459000006,,,,,,,806.2753674000014,806.2753674000014,806.2753674000014,806.2753674000014,806.2753674000014,806.2753674000014,806.2753674000014,806.2753674000014,None,None,None,,,,,,,,,,,803.1817422999993,803.1817422999993,None,,804.2412459000006,804.2412459000006,806.2753674000014,n,803.1817422999993,803.1817422999993,1.2017692999979772,,12,1,2024-06-18_17h02.34.500,robot_nback_sign,2022.2.5,60.20647207619808,
C,False,3.0,letter,1.0,False,False,robot_stimuli\\filler.mp4,12.0,,,,,,,,,0.0,131.0,131.0,131.0,,,,,,,,,,,,,806.2753674000014,807.3393405999996,,,,,,,809.5684230000006,809.5684230000006,809.5684230000006,809.5684230000006,809.5684230000006,809.5684230000006,809.5684230000006,809.5684230000006,None,None,None,,,,,,,,,,,806.2753674000014,806.2753674000014,None,,807.3393405999996,807.3393405999996,809.5684230000006,c,806.2753674000014,806.2753674000014,1.863324399997509,,12,1,2024-06-18_17h02.34.500,robot_nback_sign,2022.2.5,60.20647207619808,
Q,False,3.0,letter,1.0,False,False,robot_stimuli\\filler.mp4,12.0,,,,,,,,,0.0,132.0,132.0,132.0,,,,,,,,,,,,,809.5684230000006,810.6245710000003,,,,,,,812.6498809000004,812.6498809000004,812.6498809000004,812.6498809000004,812.6498809000004,812.6498809000004,812.6498809000004,812.6498809000004,None,None,None,,,,,,,,,,,809.5684230000006,809.5684230000006,None,,810.6245710000003,810.6245710000003,812.6498809000004,n,809.5684230000006,809.5684230000006,1.4170817999984138,,12,1,2024-06-18_17h02.34.500,robot_nback_sign,2022.2.5,60.20647207619808,
M,False,3.0,letter,1.0,False,False,robot_stimuli\\filler.mp4,12.0,,,,,,,,,0.0,133.0,133.0,133.0,,,,,,,,,,,,,812.6498809000004,813.7088571000022,,,,,,,815.7390468000012,815.7390468000012,815.7390468000012,815.7390468000012,815.7390468000012,815.7390468000012,815.7390468000012,815.7390468000012,None,None,None,,,,,,,,,,,812.6498809000004,812.6498809000004,None,,813.7088571000022,813.7088571000022,815.7390468000012,n,812.6498809000004,812.6498809000004,0.7581526999965718,,12,1,2024-06-18_17h02.34.500,robot_nback_sign,2022.2.5,60.20647207619808,
V,False,3.0,letter,1.0,False,False,robot_stimuli\\filler.mp4,12.0,,,,,,,,,0.0,134.0,134.0,134.0,,,,,,,,,,,,,815.7390468000012,,,,,,,,818.836393900001,818.836393900001,818.836393900001,818.836393900001,818.836393900001,818.836393900001,818.836393900001,818.836393900001,None,None,None,,,,,,,,,,,815.7390468000012,815.7390468000012,None,,816.8077535000011,816.8077535000011,818.836393900001,None,815.7390468000012,815.7390468000012,,,12,1,2024-06-18_17h02.34.500,robot_nback_sign,2022.2.5,60.20647207619808,
Q,True,3.0,letter,1.0,False,False,robot_stimuli\\filler.mp4,12.0,,,,,,,,,0.0,135.0,135.0,135.0,,,,,,,,,,,,,818.836393900001,819.8906648000011,,,,,,,822.1185877000025,822.1185877000025,822.1185877000025,822.1185877000025,822.1185877000025,822.1185877000025,822.1185877000025,822.1185877000025,None,None,None,,,,,,,,,,,818.836393900001,818.836393900001,None,,819.8906648000011,819.8906648000011,822.1185877000025,None,818.836393900001,818.836393900001,,,12,1,2024-06-18_17h02.34.500,robot_nback_sign,2022.2.5,60.20647207619808,
M,True,3.0,letter,1.0,False,False,robot_stimuli\\filler.mp4,12.0,,,,,,,,,0.0,136.0,136.0,136.0,,,,,,,,,,,,,822.1185877000025,823.1750848000011,,,,,,,825.1989195999995,825.1989195999995,825.1989195999995,825.1989195999995,825.1989195999995,825.1989195999995,825.1989195999995,825.1989195999995,None,None,None,,,,,,,,,,,822.1185877000025,822.1185877000025,None,,823.1750848000011,823.1750848000011,825.1989195999995,c,822.1185877000025,822.1185877000025,0.8832824999954028,,12,1,2024-06-18_17h02.34.500,robot_nback_sign,2022.2.5,60.20647207619808,
P,False,3.0,letter,1.0,False,False,robot_stimuli\\filler.mp4,12.0,,,,,,,,,0.0,137.0,137.0,137.0,,,,,,,,,,,,,825.1989195999995,826.2585154000008,,,,,,,828.2925792999995,828.2925792999995,828.2925792999995,828.2925792999995,828.2925792999995,828.2925792999995,828.2925792999995,828.2925792999995,None,None,None,,,,,,,,,,,825.1989195999995,825.1989195999995,None,,826.2585154000008,826.2585154000008,828.2925792999995,n,825.1989195999995,825.1989195999995,0.8151760999971884,,12,1,2024-06-18_17h02.34.500,robot_nback_sign,2022.2.5,60.20647207619808,
M,False,3.0,letter,1.0,False,False,robot_stimuli\\filler.mp4,12.0,,,,,,,,,0.0,138.0,138.0,138.0,,,,,,,,,,,,,828.2925792999995,829.3581245999994,,,,,,,831.3883136000004,831.3883136000004,831.3883136000004,831.3883136000004,831.3883136000004,831.3883136000004,831.3883136000004,831.3883136000004,None,None,None,,,,,,,,,,,828.2925792999995,828.2925792999995,None,,829.3581245999994,829.3581245999994,831.3883136000004,n,828.2925792999995,828.2925792999995,1.1319987999995649,,12,1,2024-06-18_17h02.34.500,robot_nback_sign,2022.2.5,60.20647207619808,
L,False,3.0,letter,1.0,False,False,robot_stimuli\\filler.mp4,12.0,,,,,,,,,0.0,139.0,139.0,139.0,,,,,,,,,,,,,831.3883136000004,832.4406775000025,,,,,,,834.673973500001,834.673973500001,834.673973500001,834.673973500001,834.673973500001,834.673973500001,834.673973500001,834.673973500001,None,None,None,,,,,,,,,,,831.3883136000004,831.3883136000004,None,,832.4406775000025,832.4406775000025,834.673973500001,n,831.3883136000004,831.3883136000004,0.8420664000004763,,12,1,2024-06-18_17h02.34.500,robot_nback_sign,2022.2.5,60.20647207619808,
G,False,3.0,letter,1.0,False,False,robot_stimuli\\filler.mp4,12.0,,,,,,,,,0.0,140.0,140.0,140.0,,,,,,,,,,,,,834.673973500001,,,,,,,,837.7771487999998,837.7771487999998,837.7771487999998,837.7771487999998,837.7771487999998,837.7771487999998,837.7771487999998,837.7771487999998,None,None,None,,,,,,,,,,,834.673973500001,834.673973500001,None,,835.7417616000021,835.7417616000021,837.7771487999998,n,834.673973500001,834.673973500001,0.6680651999995462,,12,1,2024-06-18_17h02.34.500,robot_nback_sign,2022.2.5,60.20647207619808,
M,True,3.0,letter,1.0,False,False,robot_stimuli\\filler.mp4,12.0,,,,,,,,,0.0,141.0,141.0,141.0,,,,,,,,,,,,,837.7771487999998,838.842446300001,,,,,,,841.0650170000008,841.0650170000008,841.0650170000008,841.0650170000008,841.0650170000008,841.0650170000008,841.0650170000008,841.0650170000008,None,None,None,,,,,,,,,,,837.7771487999998,837.7771487999998,None,,838.842446300001,838.842446300001,841.0650170000008,c,837.7771487999998,837.7771487999998,0.607465900000534,,12,1,2024-06-18_17h02.34.500,robot_nback_sign,2022.2.5,60.20647207619808,
