sequence,is_true,target,condition,stimuli,block,is_block_beginning,is_block_ending,sequence_fnames,target_fname,subject,retraining.thisRepN,retraining.thisTrialN,retraining.thisN,retraining.thisIndex,training.thisRepN,training.thisTrialN,training.thisN,training.thisIndex,training_sequence_loop.thisRepN,training_sequence_loop.thisTrialN,training_sequence_loop.thisN,training_sequence_loop.thisIndex,trials.thisRepN,trials.thisTrialN,trials.thisN,trials.thisIndex,sequence_loop.thisRepN,sequence_loop.thisTrialN,sequence_loop.thisN,sequence_loop.thisIndex,langage_text.started,langage_key.started,langage_key.keys,langage_key.rt,intro_text.started,intro_key.started,intro_key.keys,intro_key.rt,training_intro_text.started,training_intro_key.started,training_intro_key.keys,training_intro_key.rt,polygon.started,polygon.stopped,training_presentation_letter.started,training_presentation_letter.stopped,training_recall_letter.started,training_recall_key.started,training_recall_question.started,training_recall_answer.started,training_recall_key.keys,training_recall_key.rt,RSME_labels.started,RSME_labels.stopped,RSME_ticks.started,RSME_ticks.stopped,RSME_text.started,RSME_text.stopped,RSME_key.started,RSME_key.stopped,RSME_ticks.response,RSME_ticks.rt,RSME_key.keys,training_intro_text.stopped,training_intro_key.stopped,RSME_key.rt,training_presentation_movie.started,training_recall_movie.started,experiment_beginning_text.started,experiment_beginning_keys.started,experiment_beginning_key.started,experiment_beginning_key.keys,experiment_beginning_key.rt,block_intro_text.started,block_intro_key.started,block_intro_key.keys,block_intro_key.rt,presentation_movie.started,recall_movie.started,recall_key.started,recall_question.started,recall_answer.started,recall_key.keys,recall_key.rt,block_intro_text.stopped,block_intro_key.stopped,presentation_letter.started,presentation_letter.stopped,recall_letter.started,participant,session,date,expName,psychopyVersion,frameRate,
,,,,,,,,,,,,,,,,,,,,,,,,,,,,,,,18.810711800000718,18.810711800000718,e,2.114560399999391,,,,,,,,,,,,,,,,,,,,,,,,,,,,,,,,,,,,,,,,,,,,,,,,,,,,,,,,21,001,2024-07-31_15h05.46.183,robot_sternberg_sign,2022.2.5,60.01460755579563,
,,,,,,,,,,,,,,,,,,,,,,,,,,,,,,,,,,,20.97442039999987,20.97442039999987,space,182.24021150000044,,,,,,,,,,,,,,,,,,,,,,,,,,,,,,,,,,,,,,,,,,,,,,,,,,,,21,001,2024-07-31_15h05.46.183,robot_sternberg_sign,2022.2.5,60.01460755579563,
"['B', 'R']",False,X,2,letter,2,True,False,"['robot_stimuli\\\\filler.mp4', 'robot_stimuli\\\\filler.mp4']",robot_stimuli\\filler.mp4,21,0,0,0,0,0,0,0,0,,,,,,,,,,,,,,,,,,,,,203.25417130000096,203.25417130000096,space,5.2306011999990005,214.18017970000074,215.28707580000082,211.9614918999996,214.18017970000074,215.28707580000082,215.28707580000082,215.28707580000082,215.28707580000082,n,3.798890500000198,219.30734069999926,219.30734069999926,219.30734069999926,219.30734069999926,219.30734069999926,219.30734069999926,219.30734069999926,219.30734069999926,None,None,None,,,,,,,,,,,,,,,,,,,,,,,,,,,21,001,2024-07-31_15h05.46.183,robot_sternberg_sign,2022.2.5,60.01460755579563,
"['X', 'R']",True,R,2,letter,2,False,False,"['robot_stimuli\\\\filler.mp4', 'robot_stimuli\\\\filler.mp4']",robot_stimuli\\filler.mp4,21,0,0,0,0,0,1,1,1,,,,,,,,,,,,,,,,,,,,,219.30734069999926,219.30734069999926,None,,224.50159809999968,225.57548569999926,222.4769166999995,224.50159809999968,225.57548569999926,225.57548569999926,225.57548569999926,225.57548569999926,c,1.6529594999992696,227.41068040000027,227.41068040000027,227.41068040000027,227.41068040000027,227.41068040000027,227.41068040000027,227.41068040000027,227.41068040000027,None,None,None,219.30734069999926,219.30734069999926,,,,,,,,,,,,,,,,,,,,,,,,,21,001,2024-07-31_15h05.46.183,robot_sternberg_sign,2022.2.5,60.01460755579563,
"['T', 'V']",True,V,2,letter,2,False,True,"['robot_stimuli\\\\filler.mp4', 'robot_stimuli\\\\filler.mp4']",robot_stimuli\\filler.mp4,21,0,0,0,0,0,2,2,2,,,,,,,,,,,,,,,,,,,,,227.41068040000027,227.41068040000027,None,,233.00233370000024,234.0736324999998,230.78027389999988,233.00233370000024,234.0736324999998,234.0736324999998,234.0736324999998,234.0736324999998,c,1.3393849999993108,235.56670379999923,265.43721760000153,235.56670379999923,265.43721760000153,235.56670379999923,265.43721760000153,235.56670379999923,265.43721760000153,26.141975308641975,28.589308799999344,space,227.41068040000027,227.41068040000027,29.806295500000488,,,,,,,,,,,,,,,,,,,,,,,,21,001,2024-07-31_15h05.46.183,robot_sternberg_sign,2022.2.5,60.01460755579563,
"['X', 'Z', 'K', 'S']",True,X,4,letter,2,True,False,"['robot_stimuli\\\\filler.mp4', 'robot_stimuli\\\\filler.mp4', 'robot_stimuli\\\\filler.mp4', 'robot_stimuli\\\\filler.mp4']",robot_stimuli\\filler.mp4,21,0,0,0,0,0,3,3,3,,,,,,,,,,,,,,,,,,,,,265.43721760000153,265.43721760000153,space,4.4959309000005305,279.9542835000011,281.0249907999987,277.9385679999996,279.9542835000011,281.0249907999987,281.0249907999987,281.0249907999987,281.0249907999987,c,1.6134230999996362,282.85591039999963,282.85591039999963,282.85591039999963,282.85591039999963,282.85591039999963,282.85591039999963,282.85591039999963,282.85591039999963,None,None,None,,,,,,,,,,,,,,,,,,,,,,,,,,,21,001,2024-07-31_15h05.46.183,robot_sternberg_sign,2022.2.5,60.01460755579563,
"['V', 'S', 'D', 'Q']",False,W,4,letter,2,False,False,"['robot_stimuli\\\\filler.mp4', 'robot_stimuli\\\\filler.mp4', 'robot_stimuli\\\\filler.mp4', 'robot_stimuli\\\\filler.mp4']",robot_stimuli\\filler.mp4,21,0,0,0,0,0,4,4,4,,,,,,,,,,,,,,,,,,,,,282.85591039999963,282.85591039999963,None,,292.84645320000163,283.92699240000184,290.63410580000163,292.84645320000163,293.92708369999855,293.92708369999855,293.92708369999855,293.92708369999855,n,2.8306931000006443,296.96200940000017,296.96200940000017,296.96200940000017,296.96200940000017,296.96200940000017,296.96200940000017,296.96200940000017,296.96200940000017,None,None,None,282.85591039999963,282.85591039999963,,,,,,,,,,,,,,,,,,,,,,,,,21,001,2024-07-31_15h05.46.183,robot_sternberg_sign,2022.2.5,60.01460755579563,
"['T', 'H', 'C', 'P']",True,P,4,letter,2,False,True,"['robot_stimuli\\\\filler.mp4', 'robot_stimuli\\\\filler.mp4', 'robot_stimuli\\\\filler.mp4', 'robot_stimuli\\\\filler.mp4']",robot_stimuli\\filler.mp4,21,0,0,0,0,0,5,5,5,,,,,,,,,,,,,,,,,,,,,296.96200940000017,296.96200940000017,None,,306.57634589999907,307.6397554000014,304.5608732000019,306.57634589999907,307.6397554000014,307.6397554000014,307.6397554000014,307.6397554000014,c,1.1181117999985872,308.9041249999991,314.9627841999991,308.9041249999991,314.9627841999991,308.9041249999991,314.9627841999991,308.9041249999991,314.9627841999991,59.32098765432099,4.7929531000008865,space,296.96200940000017,296.96200940000017,6.012519399999292,,,,,,,,,,,,,,,,,,,,,,,,21,001,2024-07-31_15h05.46.183,robot_sternberg_sign,2022.2.5,60.01460755579563,
"['J', 'L', 'Q', 'N', 'P', 'W']",True,W,6,letter,2,True,False,"['robot_stimuli\\\\filler.mp4', 'robot_stimuli\\\\filler.mp4', 'robot_stimuli\\\\filler.mp4', 'robot_stimuli\\\\filler.mp4', 'robot_stimuli\\\\filler.mp4', 'robot_stimuli\\\\filler.mp4']",robot_stimuli\\filler.mp4,21,0,0,0,0,0,6,6,6,,,,,,,,,,,,,,,,,,,,,314.9627841999991,314.9627841999991,space,2.2020040999996127,330.99177999999847,332.06125169999905,328.9721961999985,330.99177999999847,332.06125169999905,332.06125169999905,332.06125169999905,332.06125169999905,c,1.4888276999990921,333.67970629999945,333.67970629999945,333.67970629999945,333.67970629999945,333.67970629999945,333.67970629999945,333.67970629999945,333.67970629999945,None,None,None,,,,,,,,,,,,,,,,,,,,,,,,,,,21,001,2024-07-31_15h05.46.183,robot_sternberg_sign,2022.2.5,60.01460755579563,
"['S', 'D', 'V', 'G', 'M', 'X']",False,W,6,letter,2,False,False,"['robot_stimuli\\\\filler.mp4', 'robot_stimuli\\\\filler.mp4', 'robot_stimuli\\\\filler.mp4', 'robot_stimuli\\\\filler.mp4', 'robot_stimuli\\\\filler.mp4', 'robot_stimuli\\\\filler.mp4']",robot_stimuli\\filler.mp4,21,0,0,0,0,0,7,7,7,,,,,,,,,,,,,,,,,,,,,333.67970629999945,333.67970629999945,None,,347.8196463000004,348.8800078000004,345.8060705000007,347.8196463000004,348.8800078000004,348.8800078000004,348.8800078000004,348.8800078000004,c,2.6771966999986034,351.711276,351.711276,351.711276,351.711276,351.711276,351.711276,351.711276,351.711276,None,None,None,333.67970629999945,333.67970629999945,,,,,,,,,,,,,,,,,,,,,,,,,21,001,2024-07-31_15h05.46.183,robot_sternberg_sign,2022.2.5,60.01460755579563,
"['P', 'F', 'W', 'V', 'D', 'R']",True,V,6,letter,2,False,True,"['robot_stimuli\\\\filler.mp4', 'robot_stimuli\\\\filler.mp4', 'robot_stimuli\\\\filler.mp4', 'robot_stimuli\\\\filler.mp4', 'robot_stimuli\\\\filler.mp4', 'robot_stimuli\\\\filler.mp4']",robot_stimuli\\filler.mp4,21,0,0,0,0,0,8,8,8,,,,,,,,,,,,,,,,,,,,,351.711276,351.711276,None,,365.6762246999988,366.7476035000018,363.6593462000001,365.6762246999988,366.7476035000018,366.7476035000018,366.7476035000018,366.7476035000018,c,1.8571088000026066,368.79770680000183,373.8722364000005,368.79770680000183,373.8722364000005,368.79770680000183,373.8722364000005,368.79770680000183,373.8722364000005,85.0925925925926,3.8671271999992314,space,351.711276,351.711276,5.007304799997655,,,,,,,,,,,,,,,,,,,,,,,,21,001,2024-07-31_15h05.46.183,robot_sternberg_sign,2022.2.5,60.01460755579563,
"['L_Head_X_Back', 'R_Head_Z_For']",True,L_Head_X_Back,2,robot,1,True,False,"['robot_stimuli\\L_Head_X_Back.mp4', 'robot_stimuli\\R_Head_Z_For.mp4']",robot_stimuli\L_Head_X_Back.mp4,21,0,0,0,0,0,9,9,9,,,,,,,,,,,,,,,,,,,,,373.8722364000005,373.8722364000005,space,4.30045660000178,386.6450731999994,379.2907724000015,,,,387.7442733000007,387.7442733000007,387.7442733000007,c,8.91749400000117,396.7132333999998,396.7132333999998,396.7132333999998,396.7132333999998,396.7132333999998,396.7132333999998,396.7132333999998,396.7132333999998,None,None,None,,,,383.01334139999926,387.7442733000007,,,,,,,,,,,,,,,,,,,,,,21,001,2024-07-31_15h05.46.183,robot_sternberg_sign,2022.2.5,60.01460755579563,
"['L_Head_Z_Back', 'R_Arm_Y_Back']",False,L_Torso_Z_Back,2,robot,1,False,False,"['robot_stimuli\\L_Head_Z_Back.mp4', 'robot_stimuli\\R_Arm_Y_Back.mp4']",robot_stimuli\L_Torso_Z_Back.mp4,21,0,0,0,0,0,10,10,10,,,,,,,,,,,,,,,,,,,,,396.7132333999998,396.7132333999998,None,,405.1868211000019,406.27826639999876,,,,406.27826639999876,406.27826639999876,406.27826639999876,n,3.54339550000077,409.8605135000016,409.8605135000016,409.8605135000016,409.8605135000016,409.8605135000016,409.8605135000016,409.8605135000016,409.8605135000016,None,None,None,396.7132333999998,396.7132333999998,,401.54568720000134,406.27826639999876,,,,,,,,,,,,,,,,,,,,,,21,001,2024-07-31_15h05.46.183,robot_sternberg_sign,2022.2.5,60.01460755579563,
"['L_Torso_Z_Back', 'R_Base_Y_Back']",True,L_Torso_Z_Back,2,robot,1,False,True,"['robot_stimuli\\L_Torso_Z_Back.mp4', 'robot_stimuli\\R_Base_Y_Back.mp4']",robot_stimuli\L_Torso_Z_Back.mp4,21,0,0,0,0,0,11,11,11,,,,,,,,,,,,,,,,,,,,,409.8605135000016,409.8605135000016,None,,418.1960678999985,410.9413737999985,,,,419.2987501000007,419.2987501000007,419.2987501000007,c,2.563151899998047,422.83812809999836,431.1117762999984,422.83812809999836,431.1117762999984,422.83812809999836,431.1117762999984,422.83812809999836,431.1117762999984,36.79012345679013,6.690600499998254,space,409.8605135000016,409.8605135000016,8.216253399998095,414.56448569999884,419.2987501000007,,,,,,,,,,,,,,,,,,,,,,21,001,2024-07-31_15h05.46.183,robot_sternberg_sign,2022.2.5,60.01460755579563,
"['L_Torso_X_For', 'R_Head_X_For', 'R_Base_X_For', 'L_Torso_Z_Back']",True,R_Head_X_For,4,robot,1,True,False,"['robot_stimuli\\L_Torso_X_For.mp4', 'robot_stimuli\\R_Head_X_For.mp4', 'robot_stimuli\\R_Base_X_For.mp4', 'robot_stimuli\\L_Torso_Z_Back.mp4']",robot_stimuli\R_Head_X_For.mp4,21,0,0,0,0,0,12,12,12,,,,,,,,,,,,,,,,,,,,,431.1117762999984,431.1117762999984,space,2.3095624999987194,449.1268446999984,450.20631270000194,,,,450.20631270000194,450.20631270000194,450.20631270000194,c,4.486531099999411,454.72279030000027,454.72279030000027,454.72279030000027,454.72279030000027,454.72279030000027,454.72279030000027,454.72279030000027,454.72279030000027,None,None,None,,,,445.6267831999994,450.20631270000194,,,,,,,,,,,,,,,,,,,,,,21,001,2024-07-31_15h05.46.183,robot_sternberg_sign,2022.2.5,60.01460755579563,
"['L_Head_X_Back', 'R_Arm_Y_For', 'R_Torso_Z_Back', 'L_Head_Y_Back']",False,L_Base_X_For,4,robot,1,False,False,"['robot_stimuli\\L_Head_X_Back.mp4', 'robot_stimuli\\R_Arm_Y_For.mp4', 'robot_stimuli\\R_Torso_Z_Back.mp4', 'robot_stimuli\\L_Head_Y_Back.mp4']",robot_stimuli\L_Base_X_For.mp4,21,0,0,0,0,0,13,13,13,,,,,,,,,,,,,,,,,,,,,454.72279030000027,454.72279030000027,None,,470.4679722000019,471.5572058000016,,,,471.5572058000016,471.5572058000016,471.5572058000016,n,4.504560500001389,476.09421269999984,476.09421269999984,476.09421269999984,476.09421269999984,476.09421269999984,476.09421269999984,476.09421269999984,476.09421269999984,None,None,None,454.72279030000027,454.72279030000027,,466.8364989999991,471.5572058000016,,,,,,,,,,,,,,,,,,,,,,21,001,2024-07-31_15h05.46.183,robot_sternberg_sign,2022.2.5,60.01460755579563,
"['L_Base_Y_Back', 'R_Base_Y_For', 'R_Torso_Z_Back', 'R_Torso_X_For']",True,R_Base_Y_For,4,robot,1,False,True,"['robot_stimuli\\L_Base_Y_Back.mp4', 'robot_stimuli\\R_Base_Y_For.mp4', 'robot_stimuli\\R_Torso_Z_Back.mp4', 'robot_stimuli\\R_Torso_X_For.mp4']",robot_stimuli\R_Base_Y_For.mp4,21,0,0,0,0,0,14,14,14,,,,,,,,,,,,,,,,,,,,,476.09421269999984,476.09421269999984,None,,491.91817249999986,493.007505399999,,,,493.007505399999,493.007505399999,493.007505399999,c,5.08583059999728,498.14928540000074,503.2480478000016,498.14928540000074,503.2480478000016,498.14928540000074,503.2480478000016,498.14928540000074,503.2480478000016,84.62962962962963,3.8705455000017537,space,476.09421269999984,476.09421269999984,5.048586899996735,488.2869738999998,493.007505399999,,,,,,,,,,,,,,,,,,,,,,21,001,2024-07-31_15h05.46.183,robot_sternberg_sign,2022.2.5,60.01460755579563,
"['R_Head_Y_Back', 'L_Base_X_Back', 'R_Arm_X_For', 'R_Base_Z_For', 'R_Torso_Z_Back', 'R_Arm_X_Back']",False,R_Arm_Z_For,6,robot,1,True,False,"['robot_stimuli\\R_Head_Y_Back.mp4', 'robot_stimuli\\L_Base_X_Back.mp4', 'robot_stimuli\\R_Arm_X_For.mp4', 'robot_stimuli\\R_Base_Z_For.mp4', 'robot_stimuli\\R_Torso_Z_Back.mp4', 'robot_stimuli\\R_Arm_X_Back.mp4']",robot_stimuli\R_Arm_Z_For.mp4,21,0,0,0,0,0,15,15,15,,,,,,,,,,,,,,,,,,,,,503.2480478000016,503.2480478000016,space,2.773325499998464,529.3622922999984,507.1185563000017,,,,530.4715416000017,530.4715416000017,530.4715416000017,c,3.8545234000011988,534.3521152000012,534.3521152000012,534.3521152000012,534.3521152000012,534.3521152000012,534.3521152000012,534.3521152000012,534.3521152000012,None,None,None,,,,525.7297976999998,530.4715416000017,,,,,,,,,,,,,,,,,,,,,,21,001,2024-07-31_15h05.46.183,robot_sternberg_sign,2022.2.5,60.01460755579563,
"['L_Arm_Z_Back', 'R_Torso_X_Back', 'R_Base_Y_For', 'L_Torso_Z_Back', 'R_Torso_Z_Back', 'L_Arm_X_Back']",True,R_Torso_Z_Back,6,robot,1,False,False,"['robot_stimuli\\L_Arm_Z_Back.mp4', 'robot_stimuli\\R_Torso_X_Back.mp4', 'robot_stimuli\\R_Base_Y_For.mp4', 'robot_stimuli\\L_Torso_Z_Back.mp4', 'robot_stimuli\\R_Torso_Z_Back.mp4', 'robot_stimuli\\L_Arm_X_Back.mp4']",robot_stimuli\R_Torso_Z_Back.mp4,21,0,0,0,0,0,16,16,16,,,,,,,,,,,,,,,,,,,,,534.3521152000012,534.3521152000012,None,,557.5809184000009,558.6773521999985,,,,558.6773521999985,558.6773521999985,558.6773521999985,c,5.192325999996683,563.9117266999983,563.9117266999983,563.9117266999983,563.9117266999983,563.9117266999983,563.9117266999983,563.9117266999983,563.9117266999983,None,None,None,534.3521152000012,534.3521152000012,,553.9382399000006,558.6773521999985,,,,,,,,,,,,,,,,,,,,,,21,001,2024-07-31_15h05.46.183,robot_sternberg_sign,2022.2.5,60.01460755579563,
"['L_Head_Z_For', 'L_Head_Y_Back', 'L_Head_Y_For', 'L_Arm_Y_Back', 'R_Torso_Z_Back', 'R_Base_X_For']",True,L_Head_Y_For,6,robot,1,False,True,"['robot_stimuli\\L_Head_Z_For.mp4', 'robot_stimuli\\L_Head_Y_Back.mp4', 'robot_stimuli\\L_Head_Y_For.mp4', 'robot_stimuli\\L_Arm_Y_Back.mp4', 'robot_stimuli\\R_Torso_Z_Back.mp4', 'robot_stimuli\\R_Base_X_For.mp4']",robot_stimuli\L_Head_Y_For.mp4,21,0,0,0,0,0,17,17,17,,,,,,,,,,,,,,,,,,,,,563.9117266999983,563.9117266999983,None,,587.1973029000019,588.2959887999987,,,,588.2959887999987,588.2959887999987,588.2959887999987,c,4.189196599996649,592.5573155000002,597.1265021000017,592.5573155000002,597.1265021000017,592.5573155000002,597.1265021000017,592.5573155000002,597.1265021000017,101.14197530864197,3.2324014000005263,space,563.9117266999983,563.9117266999983,4.528097999998863,583.6565328000015,588.2959887999987,,,,,,,,,,,,,,,,,,,,,,21,001,2024-07-31_15h05.46.183,robot_sternberg_sign,2022.2.5,60.01460755579563,
,,,,,,,,,,,0,0,0,0,,,,,,,,,,,,,,,,,,,,,,,,,,,,,,,,,,,,,,,,,,,,,,,,,,,,,,,597.1265021000017,597.1265021000017,597.1265021000017,c,3.4627973999995447,,,,,,,,,,,,,,,,,21,001,2024-07-31_15h05.46.183,robot_sternberg_sign,2022.2.5,60.01460755579563,
"['R_Head_Z_Back', 'R_Arm_Z_For']",True,R_Arm_Z_For,2,robot,1,True,False,"['robot_stimuli\\R_Head_Z_Back.mp4', 'robot_stimuli\\R_Arm_Z_For.mp4']",robot_stimuli\R_Arm_Z_For.mp4,21,,,,,,,,,,,,,0,0,0,0,,,,,,,,,,,,,,,,,615.729816699999,608.3585952000012,,,,,,,,,620.5760965999998,620.5760965999998,620.5760965999998,620.5760965999998,620.5760965999998,620.5760965999998,620.5760965999998,620.5760965999998,None,None,None,,,,,,,,,,,600.6248034,600.6248034,space,6.628547500000423,612.0933072999997,616.8215217000015,616.8215217000015,616.8215217000015,616.8215217000015,c,3.7195013999989897,,,,,,21,001,2024-07-31_15h05.46.183,robot_sternberg_sign,2022.2.5,60.01460755579563,
"['L_Torso_X_For', 'L_Torso_Y_For']",False,R_Torso_Z_For,2,robot,1,False,False,"['robot_stimuli\\L_Torso_X_For.mp4', 'robot_stimuli\\L_Torso_Y_For.mp4']",robot_stimuli\R_Torso_Z_For.mp4,21,,,,,,,,,,,,,0,1,1,1,,,,,,,,,,,,,,,,,629.033216400001,630.1204199000003,,,,,,,,,633.7626091000002,633.7626091000002,633.7626091000002,633.7626091000002,633.7626091000002,633.7626091000002,633.7626091000002,633.7626091000002,None,None,None,,,,,,,,,,,620.5760965999998,620.5760965999998,None,,625.3951859999997,630.1204199000003,630.1204199000003,630.1204199000003,630.1204199000003,n,2.324265600000217,620.5760965999998,620.5760965999998,,,,21,001,2024-07-31_15h05.46.183,robot_sternberg_sign,2022.2.5,60.01460755579563,
"['R_Arm_Z_Back', 'L_Head_X_Back']",True,L_Head_X_Back,2,robot,1,False,False,"['robot_stimuli\\R_Arm_Z_Back.mp4', 'robot_stimuli\\L_Head_X_Back.mp4']",robot_stimuli\L_Head_X_Back.mp4,21,,,,,,,,,,,,,0,2,2,2,,,,,,,,,,,,,,,,,642.2294815000005,,,,,,,,,,646.9586457999994,646.9586457999994,646.9586457999994,646.9586457999994,646.9586457999994,646.9586457999994,646.9586457999994,646.9586457999994,None,None,None,,,,,,,,,,,633.7626091000002,633.7626091000002,None,,638.592797700001,643.3208254000001,643.3208254000001,643.3208254000001,643.3208254000001,c,3.2682001999964996,633.7626091000002,633.7626091000002,,,,21,001,2024-07-31_15h05.46.183,robot_sternberg_sign,2022.2.5,60.01460755579563,
"['R_Base_X_For', 'R_Head_Y_For']",True,R_Head_Y_For,2,robot,1,False,False,"['robot_stimuli\\R_Base_X_For.mp4', 'robot_stimuli\\R_Head_Y_For.mp4']",robot_stimuli\R_Head_Y_For.mp4,21,,,,,,,,,,,,,0,3,3,3,,,,,,,,,,,,,,,,,655.2991431999999,656.3880924999994,,,,,,,,,660.0260662000019,660.0260662000019,660.0260662000019,660.0260662000019,660.0260662000019,660.0260662000019,660.0260662000019,660.0260662000019,None,None,None,,,,,,,,,,,646.9586457999994,646.9586457999994,None,,651.6592741000004,656.3880924999994,656.3880924999994,656.3880924999994,656.3880924999994,c,2.432881400000042,646.9586457999994,646.9586457999994,,,,21,001,2024-07-31_15h05.46.183,robot_sternberg_sign,2022.2.5,60.01460755579563,
"['R_Base_Y_For', 'R_Arm_X_Back']",True,R_Base_Y_For,2,robot,1,False,False,"['robot_stimuli\\R_Base_Y_For.mp4', 'robot_stimuli\\R_Arm_X_Back.mp4']",robot_stimuli\R_Base_Y_For.mp4,21,,,,,,,,,,,,,0,4,4,4,,,,,,,,,,,,,,,,,668.4622844999994,661.1046966000013,,,,,,,,,674.2046104000019,674.2046104000019,674.2046104000019,674.2046104000019,674.2046104000019,674.2046104000019,674.2046104000019,674.2046104000019,None,None,None,,,,,,,,,,,660.0260662000019,660.0260662000019,None,,664.8364788000017,669.5639548999989,669.5639548999989,669.5639548999989,669.5639548999989,c,4.6018858999996155,660.0260662000019,660.0260662000019,,,,21,001,2024-07-31_15h05.46.183,robot_sternberg_sign,2022.2.5,60.01460755579563,
"['L_Base_Z_For', 'L_Head_X_For']",True,L_Head_X_For,2,robot,1,False,False,"['robot_stimuli\\L_Base_Z_For.mp4', 'robot_stimuli\\L_Head_X_For.mp4']",robot_stimuli\L_Head_X_For.mp4,21,,,,,,,,,,,,,0,5,5,5,,,,,,,,,,,,,,,,,682.5821386000007,683.6761981,,,,,,,,,687.2575038999985,687.2575038999985,687.2575038999985,687.2575038999985,687.2575038999985,687.2575038999985,687.2575038999985,687.2575038999985,None,None,None,,,,,,,,,,,674.2046104000019,674.2046104000019,None,,679.0121625000011,683.6761981,683.6761981,683.6761981,683.6761981,c,2.6250503000010212,674.2046104000019,674.2046104000019,,,,21,001,2024-07-31_15h05.46.183,robot_sternberg_sign,2022.2.5,60.01460755579563,
"['L_Torso_Z_Back', 'L_Torso_Z_For']",False,R_Base_Z_Back,2,robot,1,False,False,"['robot_stimuli\\L_Torso_Z_Back.mp4', 'robot_stimuli\\L_Torso_Z_For.mp4']",robot_stimuli\R_Base_Z_Back.mp4,21,,,,,,,,,,,,,0,6,6,6,,,,,,,,,,,,,,,,,695.5508596999989,696.6383264000015,,,,,,,,,700.1777437000001,700.1777437000001,700.1777437000001,700.1777437000001,700.1777437000001,700.1777437000001,700.1777437000001,700.1777437000001,None,None,None,,,,,,,,,,,687.2575038999985,687.2575038999985,None,,691.9221983000007,696.6383264000015,696.6383264000015,696.6383264000015,696.6383264000015,n,1.8467936999986705,687.2575038999985,687.2575038999985,,,,21,001,2024-07-31_15h05.46.183,robot_sternberg_sign,2022.2.5,60.01460755579563,
"['R_Head_Y_For', 'R_Head_Z_For']",False,L_Arm_Y_Back,2,robot,1,False,False,"['robot_stimuli\\R_Head_Y_For.mp4', 'robot_stimuli\\R_Head_Z_For.mp4']",robot_stimuli\L_Arm_Y_Back.mp4,21,,,,,,,,,,,,,0,7,7,7,,,,,,,,,,,,,,,,,708.5987226999987,709.6928702999994,,,,,,,,,713.3466795000004,713.3466795000004,713.3466795000004,713.3466795000004,713.3466795000004,713.3466795000004,713.3466795000004,713.3466795000004,None,None,None,,,,,,,,,,,700.1777437000001,700.1777437000001,None,,704.9717039000006,709.6928702999994,709.6928702999994,709.6928702999994,709.6928702999994,n,3.3372691000004124,700.1777437000001,700.1777437000001,,,,21,001,2024-07-31_15h05.46.183,robot_sternberg_sign,2022.2.5,60.01460755579563,
"['R_Base_Z_For', 'R_Torso_Y_For']",False,R_Arm_X_For,2,robot,1,False,False,"['robot_stimuli\\R_Base_Z_For.mp4', 'robot_stimuli\\R_Torso_Y_For.mp4']",robot_stimuli\R_Arm_X_For.mp4,21,,,,,,,,,,,,,0,8,8,8,,,,,,,,,,,,,,,,,721.8172162999999,722.9274903999994,,,,,,,,,727.2892458000006,727.2892458000006,727.2892458000006,727.2892458000006,727.2892458000006,727.2892458000006,727.2892458000006,727.2892458000006,None,None,None,,,,,,,,,,,713.3466795000004,713.3466795000004,None,,718.1777104000012,722.9274903999994,722.9274903999994,722.9274903999994,722.9274903999994,n,4.3250953999995545,713.3466795000004,713.3466795000004,,,,21,001,2024-07-31_15h05.46.183,robot_sternberg_sign,2022.2.5,60.01460755579563,
"['L_Head_Y_Back', 'R_Arm_Y_For']",False,L_Torso_Y_Back,2,robot,1,False,True,"['robot_stimuli\\L_Head_Y_Back.mp4', 'robot_stimuli\\R_Arm_Y_For.mp4']",robot_stimuli\L_Torso_Y_Back.mp4,21,,,,,,,,,,,,,0,9,9,9,,,,,,,,,,,,,,,,,735.615577300001,736.7109392000002,,,,,,,,,742.3852803999998,748.7147444999991,742.3852803999998,748.7147444999991,742.3852803999998,748.7147444999991,742.3852803999998,748.7147444999991,71.04938271604938,5.054827500000101,space,,,6.275670399998489,,,,,,,,727.2892458000006,727.2892458000006,None,,732.1117285000018,736.7109392000002,736.7109392000002,736.7109392000002,736.7109392000002,n,5.6056055999979435,727.2892458000006,727.2892458000006,,,,21,001,2024-07-31_15h05.46.183,robot_sternberg_sign,2022.2.5,60.01460755579563,
"['R_Head_X_Back', 'R_Base_Y_For', 'R_Base_X_For', 'L_Head_Z_Back', 'L_Arm_X_Back', 'R_Base_Z_Back']",True,R_Base_X_For,6,robot,1,True,False,"['robot_stimuli\\R_Head_X_Back.mp4', 'robot_stimuli\\R_Base_Y_For.mp4', 'robot_stimuli\\R_Base_X_For.mp4', 'robot_stimuli\\L_Head_Z_Back.mp4', 'robot_stimuli\\L_Arm_X_Back.mp4', 'robot_stimuli\\R_Base_Z_Back.mp4']",robot_stimuli\R_Base_X_For.mp4,21,,,,,,,,,,,,,0,10,10,10,,,,,,,,,,,,,,,,,778.9604540000018,780.0392311000014,,,,,,,,,784.0698334999997,784.0698334999997,784.0698334999997,784.0698334999997,784.0698334999997,784.0698334999997,784.0698334999997,784.0698334999997,None,None,None,,,,,,,,,,,748.7147444999991,748.7147444999991,space,7.0666524000007485,775.4285569000003,780.0392311000014,780.0392311000014,780.0392311000014,780.0392311000014,c,3.9985688000015216,,,,,,21,001,2024-07-31_15h05.46.183,robot_sternberg_sign,2022.2.5,60.01460755579563,
"['L_Arm_Y_For', 'R_Arm_X_For', 'R_Head_Z_For', 'R_Torso_Z_For', 'R_Arm_Z_For', 'R_Head_Y_For']",False,R_Base_X_For,6,robot,1,False,False,"['robot_stimuli\\L_Arm_Y_For.mp4', 'robot_stimuli\\R_Arm_X_For.mp4', 'robot_stimuli\\R_Head_Z_For.mp4', 'robot_stimuli\\R_Torso_Z_For.mp4', 'robot_stimuli\\R_Arm_Z_For.mp4', 'robot_stimuli\\R_Head_Y_For.mp4']",robot_stimuli\R_Base_X_For.mp4,21,,,,,,,,,,,,,0,11,11,11,,,,,,,,,,,,,,,,,807.4275867000015,808.5062630000011,,,,,,,,,812.5276687999994,812.5276687999994,812.5276687999994,812.5276687999994,812.5276687999994,812.5276687999994,812.5276687999994,812.5276687999994,None,None,None,,,,,,,,,,,784.0698334999997,784.0698334999997,None,,803.8058117000019,808.5062630000011,808.5062630000011,808.5062630000011,808.5062630000011,c,3.986605400001281,784.0698334999997,784.0698334999997,,,,21,001,2024-07-31_15h05.46.183,robot_sternberg_sign,2022.2.5,60.01460755579563,
"['R_Torso_Z_For', 'L_Torso_Y_For', 'L_Arm_X_For', 'L_Arm_Y_For', 'R_Arm_X_For', 'L_Torso_X_Back']",False,L_Head_Y_For,6,robot,1,False,False,"['robot_stimuli\\R_Torso_Z_For.mp4', 'robot_stimuli\\L_Torso_Y_For.mp4', 'robot_stimuli\\L_Arm_X_For.mp4', 'robot_stimuli\\L_Arm_Y_For.mp4', 'robot_stimuli\\R_Arm_X_For.mp4', 'robot_stimuli\\L_Torso_X_Back.mp4']",robot_stimuli\L_Head_Y_For.mp4,21,,,,,,,,,,,,,0,12,12,12,,,,,,,,,,,,,,,,,835.8625539000004,813.6159841999997,,,,,,,,,840.7238377999984,840.7238377999984,840.7238377999984,840.7238377999984,840.7238377999984,840.7238377999984,840.7238377999984,840.7238377999984,None,None,None,,,,,,,,,,,812.5276687999994,812.5276687999994,None,,832.2236119999998,836.9599553999997,836.9599553999997,836.9599553999997,836.9599553999997,n,3.725652400000399,812.5276687999994,812.5276687999994,,,,21,001,2024-07-31_15h05.46.183,robot_sternberg_sign,2022.2.5,60.01460755579563,
"['R_Head_X_For', 'R_Arm_Y_Back', 'R_Torso_Z_For', 'L_Torso_X_For', 'L_Base_X_For', 'L_Torso_Y_For']",False,R_Head_Z_For,6,robot,1,False,False,"['robot_stimuli\\R_Head_X_For.mp4', 'robot_stimuli\\R_Arm_Y_Back.mp4', 'robot_stimuli\\R_Torso_Z_For.mp4', 'robot_stimuli\\L_Torso_X_For.mp4', 'robot_stimuli\\L_Base_X_For.mp4', 'robot_stimuli\\L_Torso_Y_For.mp4']",robot_stimuli\R_Head_Z_For.mp4,21,,,,,,,,,,,,,0,13,13,13,,,,,,,,,,,,,,,,,864.0157477000012,865.1123290000014,,,,,,,,,870.7590021000015,870.7590021000015,870.7590021000015,870.7590021000015,870.7590021000015,870.7590021000015,870.7590021000015,870.7590021000015,None,None,None,,,,,,,,,,,840.7238377999984,840.7238377999984,None,,860.3854463000007,865.1123290000014,865.1123290000014,865.1123290000014,865.1123290000014,n,5.604627399996389,840.7238377999984,840.7238377999984,,,,21,001,2024-07-31_15h05.46.183,robot_sternberg_sign,2022.2.5,60.01460755579563,
"['L_Head_Z_For', 'L_Torso_X_For', 'R_Torso_Z_Back', 'R_Base_X_Back', 'R_Torso_Y_Back', 'R_Arm_Z_For']",False,L_Torso_Z_Back,6,robot,1,False,False,"['robot_stimuli\\L_Head_Z_For.mp4', 'robot_stimuli\\L_Torso_X_For.mp4', 'robot_stimuli\\R_Torso_Z_Back.mp4', 'robot_stimuli\\R_Base_X_Back.mp4', 'robot_stimuli\\R_Torso_Y_Back.mp4', 'robot_stimuli\\R_Arm_Z_For.mp4']",robot_stimuli\L_Torso_Z_Back.mp4,21,,,,,,,,,,,,,0,14,14,14,,,,,,,,,,,,,,,,,894.0829395000019,895.1734416999989,,,,,,,,,898.8364208000003,898.8364208000003,898.8364208000003,898.8364208000003,898.8364208000003,898.8364208000003,898.8364208000003,898.8364208000003,None,None,None,,,,,,,,,,,870.7590021000015,870.7590021000015,None,,890.4557506000001,895.1734416999989,895.1734416999989,895.1734416999989,895.1734416999989,c,3.6232186000015645,870.7590021000015,870.7590021000015,,,,21,001,2024-07-31_15h05.46.183,robot_sternberg_sign,2022.2.5,60.01460755579563,
"['L_Head_Z_Back', 'L_Base_X_For', 'R_Arm_Y_Back', 'L_Torso_Y_Back', 'L_Head_Z_For', 'R_Base_Y_For']",True,L_Torso_Y_Back,6,robot,1,False,False,"['robot_stimuli\\L_Head_Z_Back.mp4', 'robot_stimuli\\L_Base_X_For.mp4', 'robot_stimuli\\R_Arm_Y_Back.mp4', 'robot_stimuli\\L_Torso_Y_Back.mp4', 'robot_stimuli\\L_Head_Z_For.mp4', 'robot_stimuli\\R_Base_Y_For.mp4']",robot_stimuli\L_Torso_Y_Back.mp4,21,,,,,,,,,,,,,0,15,15,15,,,,,,,,,,,,,,,,,922.050451000001,923.1408921999991,,,,,,,,,926.6563055999995,926.6563055999995,926.6563055999995,926.6563055999995,926.6563055999995,926.6563055999995,926.6563055999995,926.6563055999995,None,None,None,,,,,,,,,,,898.8364208000003,898.8364208000003,None,,918.4197003999998,923.1408921999991,923.1408921999991,923.1408921999991,923.1408921999991,c,2.6882922999975563,898.8364208000003,898.8364208000003,,,,21,001,2024-07-31_15h05.46.183,robot_sternberg_sign,2022.2.5,60.01460755579563,
"['R_Arm_X_Back', 'L_Base_Z_Back', 'R_Head_Y_For', 'L_Head_Z_For', 'R_Torso_X_For', 'L_Arm_X_Back']",True,L_Head_Z_For,6,robot,1,False,False,"['robot_stimuli\\R_Arm_X_Back.mp4', 'robot_stimuli\\L_Base_Z_Back.mp4', 'robot_stimuli\\R_Head_Y_For.mp4', 'robot_stimuli\\L_Head_Z_For.mp4', 'robot_stimuli\\R_Torso_X_For.mp4', 'robot_stimuli\\L_Arm_X_Back.mp4']",robot_stimuli\L_Head_Z_For.mp4,21,,,,,,,,,,,,,0,16,16,16,,,,,,,,,,,,,,,,,949.9940122999997,951.0770248999997,,,,,,,,,954.7264210000012,954.7264210000012,954.7264210000012,954.7264210000012,954.7264210000012,954.7264210000012,954.7264210000012,954.7264210000012,None,None,None,,,,,,,,,,,926.6563055999995,926.6563055999995,None,,946.3643419000018,951.0770248999997,951.0770248999997,951.0770248999997,951.0770248999997,c,3.016212499998801,926.6563055999995,926.6563055999995,,,,21,001,2024-07-31_15h05.46.183,robot_sternberg_sign,2022.2.5,60.01460755579563,
"['R_Torso_X_Back', 'L_Torso_Z_For', 'R_Base_Z_Back', 'R_Base_Y_Back', 'L_Torso_X_For', 'L_Head_X_For']",False,R_Arm_Y_For,6,robot,1,False,False,"['robot_stimuli\\R_Torso_X_Back.mp4', 'robot_stimuli\\L_Torso_Z_For.mp4', 'robot_stimuli\\R_Base_Z_Back.mp4', 'robot_stimuli\\R_Base_Y_Back.mp4', 'robot_stimuli\\L_Torso_X_For.mp4', 'robot_stimuli\\L_Head_X_For.mp4']",robot_stimuli\R_Arm_Y_For.mp4,21,,,,,,,,,,,,,0,17,17,17,,,,,,,,,,,,,,,,,977.8656987000013,978.9581574999993,,,,,,,,,982.4746357999993,982.4746357999993,982.4746357999993,982.4746357999993,982.4746357999993,982.4746357999993,982.4746357999993,982.4746357999993,None,None,None,,,,,,,,,,,954.7264210000012,954.7264210000012,None,,974.2974836000012,978.9581574999993,978.9581574999993,978.9581574999993,978.9581574999993,c,2.5835657000025094,954.7264210000012,954.7264210000012,,,,21,001,2024-07-31_15h05.46.183,robot_sternberg_sign,2022.2.5,60.01460755579563,
"['L_Arm_X_For', 'L_Arm_Y_For', 'L_Head_Y_For', 'L_Torso_X_Back', 'L_Arm_X_Back', 'R_Head_X_For']",True,L_Arm_X_Back,6,robot,1,False,False,"['robot_stimuli\\L_Arm_X_For.mp4', 'robot_stimuli\\L_Arm_Y_For.mp4', 'robot_stimuli\\L_Head_Y_For.mp4', 'robot_stimuli\\L_Torso_X_Back.mp4', 'robot_stimuli\\L_Arm_X_Back.mp4', 'robot_stimuli\\R_Head_X_For.mp4']",robot_stimuli\L_Arm_X_Back.mp4,21,,,,,,,,,,,,,0,18,18,18,,,,,,,,,,,,,,,,,1005.7772091999996,1006.8554783999989,,,,,,,,,1010.4869473999988,1010.4869473999988,1010.4869473999988,1010.4869473999988,1010.4869473999988,1010.4869473999988,1010.4869473999988,1010.4869473999988,None,None,None,,,,,,,,,,,982.4746357999993,982.4746357999993,None,,1002.1559537000012,1006.8554783999989,1006.8554783999989,1006.8554783999989,1006.8554783999989,c,3.6065020999994886,982.4746357999993,982.4746357999993,,,,21,001,2024-07-31_15h05.46.183,robot_sternberg_sign,2022.2.5,60.01460755579563,
"['L_Torso_Y_For', 'L_Arm_Y_For', 'L_Torso_X_For', 'L_Torso_Z_Back', 'R_Base_Y_Back', 'L_Head_Z_For']",True,L_Head_Z_For,6,robot,1,False,True,"['robot_stimuli\\L_Torso_Y_For.mp4', 'robot_stimuli\\L_Arm_Y_For.mp4', 'robot_stimuli\\L_Torso_X_For.mp4', 'robot_stimuli\\L_Torso_Z_Back.mp4', 'robot_stimuli\\R_Base_Y_Back.mp4', 'robot_stimuli\\L_Head_Z_For.mp4']",robot_stimuli\L_Head_Z_For.mp4,21,,,,,,,,,,,,,0,19,19,19,,,,,,,,,,,,,,,,,1033.6453772000004,1011.5690755000014,,,,,,,,,1038.4115277,1043.2630384999993,1038.4115277,1043.2630384999993,1038.4115277,1043.2630384999993,1038.4115277,1043.2630384999993,102.22222222222221,3.3355137999969884,space,,,4.802498999997624,,,,,,,,1010.4869473999988,1010.4869473999988,None,,1030.0153703999986,1034.7384707,1034.7384707,1034.7384707,1034.7384707,c,2.8348416999979236,1010.4869473999988,1010.4869473999988,,,,21,001,2024-07-31_15h05.46.183,robot_sternberg_sign,2022.2.5,60.01460755579563,
"['L_Base_Y_Back', 'L_Base_X_For', 'R_Base_Z_Back', 'R_Arm_X_Back']",False,R_Torso_Z_Back,4,robot,1,True,False,"['robot_stimuli\\L_Base_Y_Back.mp4', 'robot_stimuli\\L_Base_X_For.mp4', 'robot_stimuli\\R_Base_Z_Back.mp4', 'robot_stimuli\\R_Arm_X_Back.mp4']",robot_stimuli\R_Torso_Z_Back.mp4,21,,,,,,,,,,,,,0,20,20,20,,,,,,,,,,,,,,,,,1067.136583900001,1068.2217250000012,,,,,,,,,1071.8604694000005,1071.8604694000005,1071.8604694000005,1071.8604694000005,1071.8604694000005,1071.8604694000005,1071.8604694000005,1071.8604694000005,None,None,None,,,,,,,,,,,1043.2630384999993,1043.2630384999993,space,8.229988899998716,1063.5048449000005,1068.2217250000012,1068.2217250000012,1068.2217250000012,1068.2217250000012,c,3.319951299999957,,,,,,21,001,2024-07-31_15h05.46.183,robot_sternberg_sign,2022.2.5,60.01460755579563,
"['R_Head_Z_For', 'L_Base_Z_For', 'L_Torso_Y_Back', 'L_Arm_Z_For']",False,L_Torso_X_For,4,robot,1,False,False,"['robot_stimuli\\R_Head_Z_For.mp4', 'robot_stimuli\\L_Base_Z_For.mp4', 'robot_stimuli\\L_Torso_Y_Back.mp4', 'robot_stimuli\\L_Arm_Z_For.mp4']",robot_stimuli\L_Torso_X_For.mp4,21,,,,,,,,,,,,,0,21,21,21,,,,,,,,,,,,,,,,,1087.6037400000005,1088.6931815000007,,,,,,,,,1092.343869800001,1092.343869800001,1092.343869800001,1092.343869800001,1092.343869800001,1092.343869800001,1092.343869800001,1092.343869800001,None,None,None,,,,,,,,,,,1071.8604694000005,1071.8604694000005,None,,1083.9707026999986,1088.6931815000007,1088.6931815000007,1088.6931815000007,1088.6931815000007,c,3.4716065999964485,1071.8604694000005,1071.8604694000005,,,,21,001,2024-07-31_15h05.46.183,robot_sternberg_sign,2022.2.5,60.01460755579563,
"['L_Torso_Z_Back', 'R_Torso_Y_For', 'R_Base_Y_For', 'R_Torso_Y_Back']",True,L_Torso_Z_Back,4,robot,1,False,False,"['robot_stimuli\\L_Torso_Z_Back.mp4', 'robot_stimuli\\R_Torso_Y_For.mp4', 'robot_stimuli\\R_Base_Y_For.mp4', 'robot_stimuli\\R_Torso_Y_Back.mp4']",robot_stimuli\L_Torso_Z_Back.mp4,21,,,,,,,,,,,,,0,22,22,22,,,,,,,,,,,,,,,,,1108.0987602000005,1109.1895834000006,,,,,,,,,1112.6927177999987,1112.6927177999987,1112.6927177999987,1112.6927177999987,1112.6927177999987,1112.6927177999987,1112.6927177999987,1112.6927177999987,None,None,None,,,,,,,,,,,1092.343869800001,1092.343869800001,None,,1104.4596933000012,1109.1895834000006,1109.1895834000006,1109.1895834000006,1109.1895834000006,n,1.8953802999967593,1092.343869800001,1092.343869800001,,,,21,001,2024-07-31_15h05.46.183,robot_sternberg_sign,2022.2.5,60.01460755579563,
"['L_Arm_Y_For', 'R_Base_Z_Back', 'L_Base_Y_For', 'R_Arm_X_Back']",False,R_Head_X_Back,4,robot,1,False,False,"['robot_stimuli\\L_Arm_Y_For.mp4', 'robot_stimuli\\R_Base_Z_Back.mp4', 'robot_stimuli\\L_Base_Y_For.mp4', 'robot_stimuli\\R_Arm_X_Back.mp4']",robot_stimuli\R_Head_X_Back.mp4,21,,,,,,,,,,,,,0,23,23,23,,,,,,,,,,,,,,,,,1128.369281199999,1129.4625128999996,,,,,,,,,1133.1112518999998,1133.1112518999998,1133.1112518999998,1133.1112518999998,1133.1112518999998,1133.1112518999998,1133.1112518999998,1133.1112518999998,None,None,None,,,,,,,,,,,1112.6927177999987,1112.6927177999987,None,,1124.7383285999986,1129.4625128999996,1129.4625128999996,1129.4625128999996,1129.4625128999996,n,2.783897599998454,1112.6927177999987,1112.6927177999987,,,,21,001,2024-07-31_15h05.46.183,robot_sternberg_sign,2022.2.5,60.01460755579563,
"['R_Base_Y_Back', 'R_Base_Z_For', 'L_Head_Z_For', 'L_Torso_X_Back']",False,R_Arm_X_Back,4,robot,1,False,False,"['robot_stimuli\\R_Base_Y_Back.mp4', 'robot_stimuli\\R_Base_Z_For.mp4', 'robot_stimuli\\L_Head_Z_For.mp4', 'robot_stimuli\\L_Torso_X_Back.mp4']",robot_stimuli\R_Arm_X_Back.mp4,21,,,,,,,,,,,,,0,24,24,24,,,,,,,,,,,,,,,,,1148.9818099999993,1150.0723779000018,,,,,,,,,1153.709837299999,1153.709837299999,1153.709837299999,1153.709837299999,1153.709837299999,1153.709837299999,1153.709837299999,1153.709837299999,None,None,None,,,,,,,,,,,1133.1112518999998,1133.1112518999998,None,,1145.3535004999994,1150.0723779000018,1150.0723779000018,1150.0723779000018,1150.0723779000018,n,2.054172899999685,1133.1112518999998,1133.1112518999998,,,,21,001,2024-07-31_15h05.46.183,robot_sternberg_sign,2022.2.5,60.01460755579563,
"['L_Head_Y_Back', 'L_Arm_Z_Back', 'R_Head_Y_For', 'R_Arm_Z_Back']",True,L_Head_Y_Back,4,robot,1,False,False,"['robot_stimuli\\L_Head_Y_Back.mp4', 'robot_stimuli\\L_Arm_Z_Back.mp4', 'robot_stimuli\\R_Head_Y_For.mp4', 'robot_stimuli\\R_Arm_Z_Back.mp4']",robot_stimuli\L_Head_Y_Back.mp4,21,,,,,,,,,,,,,0,25,25,25,,,,,,,,,,,,,,,,,1169.617402400001,1170.7052072999995,,,,,,,,,1174.3444848000017,1174.3444848000017,1174.3444848000017,1174.3444848000017,1174.3444848000017,1174.3444848000017,1174.3444848000017,1174.3444848000017,None,None,None,,,,,,,,,,,1153.709837299999,1153.709837299999,None,,1165.9763636000007,1170.7052072999995,1170.7052072999995,1170.7052072999995,1170.7052072999995,c,2.9887891999969725,1153.709837299999,1153.709837299999,,,,21,001,2024-07-31_15h05.46.183,robot_sternberg_sign,2022.2.5,60.01460755579563,
"['L_Head_Y_Back', 'R_Torso_X_Back', 'R_Torso_Z_For', 'L_Arm_Z_Back']",True,L_Arm_Z_Back,4,robot,1,False,False,"['robot_stimuli\\L_Head_Y_Back.mp4', 'robot_stimuli\\R_Torso_X_Back.mp4', 'robot_stimuli\\R_Torso_Z_For.mp4', 'robot_stimuli\\L_Arm_Z_Back.mp4']",robot_stimuli\L_Arm_Z_Back.mp4,21,,,,,,,,,,,,,0,26,26,26,,,,,,,,,,,,,,,,,1190.2162536999986,1191.3054912999996,,,,,,,,,1194.9488223999997,1194.9488223999997,1194.9488223999997,1194.9488223999997,1194.9488223999997,1194.9488223999997,1194.9488223999997,1194.9488223999997,None,None,None,,,,,,,,,,,1174.3444848000017,1174.3444848000017,None,,1186.5838774999993,1191.3054912999996,1191.3054912999996,1191.3054912999996,1191.3054912999996,c,3.595857000000251,1174.3444848000017,1174.3444848000017,,,,21,001,2024-07-31_15h05.46.183,robot_sternberg_sign,2022.2.5,60.01460755579563,
"['L_Arm_X_For', 'L_Base_Z_For', 'R_Base_Y_Back', 'R_Torso_X_For']",True,L_Arm_X_For,4,robot,1,False,False,"['robot_stimuli\\L_Arm_X_For.mp4', 'robot_stimuli\\L_Base_Z_For.mp4', 'robot_stimuli\\R_Base_Y_Back.mp4', 'robot_stimuli\\R_Torso_X_For.mp4']",robot_stimuli\L_Arm_X_For.mp4,21,,,,,,,,,,,,,0,27,27,27,,,,,,,,,,,,,,,,,1210.8663862000012,1211.9571550000019,,,,,,,,,1215.5955521999986,1215.5955521999986,1215.5955521999986,1215.5955521999986,1215.5955521999986,1215.5955521999986,1215.5955521999986,1215.5955521999986,None,None,None,,,,,,,,,,,1194.9488223999997,1194.9488223999997,None,,1207.2264639000005,1211.9571550000019,1211.9571550000019,1211.9571550000019,1211.9571550000019,c,3.216448399998626,1194.9488223999997,1194.9488223999997,,,,21,001,2024-07-31_15h05.46.183,robot_sternberg_sign,2022.2.5,60.01460755579563,
"['L_Base_Y_For', 'L_Torso_Y_For', 'R_Head_Z_Back', 'R_Torso_Y_For']",False,L_Head_Y_For,4,robot,1,False,False,"['robot_stimuli\\L_Base_Y_For.mp4', 'robot_stimuli\\L_Torso_Y_For.mp4', 'robot_stimuli\\R_Head_Z_Back.mp4', 'robot_stimuli\\R_Torso_Y_For.mp4']",robot_stimuli\L_Head_Y_For.mp4,21,,,,,,,,,,,,,0,28,28,28,,,,,,,,,,,,,,,,,1231.3635550999988,,,,,,,,,,1236.0954311000005,1236.0954311000005,1236.0954311000005,1236.0954311000005,1236.0954311000005,1236.0954311000005,1236.0954311000005,1236.0954311000005,None,None,None,,,,,,,,,,,1215.5955521999986,1215.5955521999986,None,,1227.735086999999,1232.4566061999994,1232.4566061999994,1232.4566061999994,1232.4566061999994,n,1.7653075999987777,1215.5955521999986,1215.5955521999986,,,,21,001,2024-07-31_15h05.46.183,robot_sternberg_sign,2022.2.5,60.01460755579563,
"['R_Head_Y_Back', 'L_Base_Z_Back', 'L_Head_Z_Back', 'L_Torso_X_Back']",True,L_Head_Z_Back,4,robot,1,False,True,"['robot_stimuli\\R_Head_Y_Back.mp4', 'robot_stimuli\\L_Base_Z_Back.mp4', 'robot_stimuli\\L_Head_Z_Back.mp4', 'robot_stimuli\\L_Torso_X_Back.mp4']",robot_stimuli\L_Head_Z_Back.mp4,21,,,,,,,,,,,,,0,29,29,29,,,,,,,,,,,,,,,,,1251.9675260999993,1253.0611837999986,,,,,,,,,1256.9238711000016,1261.4096240000017,1256.9238711000016,1261.4096240000017,1256.9238711000016,1261.4096240000017,1256.9238711000016,1261.4096240000017,85.0925925925926,3.23943330000111,space,,,4.433271000001696,,,,,,,,1236.0954311000005,1236.0954311000005,None,,1248.337201299999,1253.0611837999986,1253.0611837999986,1253.0611837999986,1253.0611837999986,c,3.800734599997668,1236.0954311000005,1236.0954311000005,,,,21,001,2024-07-31_15h05.46.183,robot_sternberg_sign,2022.2.5,60.01460755579563,
"['C', 'P', 'H', 'T']",True,T,4,letter,2,True,False,"['robot_stimuli\\\\filler.mp4', 'robot_stimuli\\\\filler.mp4', 'robot_stimuli\\\\filler.mp4', 'robot_stimuli\\\\filler.mp4']",robot_stimuli\\filler.mp4,21,,,,,,,,,,,,,0,30,30,30,,,,,,,,,,,,,,,,,1276.3118931000008,1277.3661422999994,,,,,,,,,1278.7924958999993,1278.7924958999993,1278.7924958999993,1278.7924958999993,1278.7924958999993,1278.7924958999993,1278.7924958999993,1278.7924958999993,None,None,None,,,,,,,,,,,1261.4096240000017,1261.4096240000017,space,4.939306799999031,,,1277.3661422999994,1277.3661422999994,1277.3661422999994,c,1.3510644999987562,,,1274.0963170999985,1276.3118931000008,1277.3661422999994,21,001,2024-07-31_15h05.46.183,robot_sternberg_sign,2022.2.5,60.01460755579563,
"['X', 'K', 'B', 'T']",True,T,4,letter,2,False,False,"['robot_stimuli\\\\filler.mp4', 'robot_stimuli\\\\filler.mp4', 'robot_stimuli\\\\filler.mp4', 'robot_stimuli\\\\filler.mp4']",robot_stimuli\\filler.mp4,21,,,,,,,,,,,,,0,31,31,31,,,,,,,,,,,,,,,,,1288.5268763000004,1289.5808963,,,,,,,,,1291.4060450999987,1291.4060450999987,1291.4060450999987,1291.4060450999987,1291.4060450999987,1291.4060450999987,1291.4060450999987,1291.4060450999987,None,None,None,,,,,,,,,,,1278.7924958999993,1278.7924958999993,None,,,,1289.5808963,1289.5808963,1289.5808963,c,1.6882448999967892,1278.7924958999993,1278.7924958999993,1286.3125610000006,1288.5268763000004,1289.5808963,21,001,2024-07-31_15h05.46.183,robot_sternberg_sign,2022.2.5,60.01460755579563,
"['B', 'Q', 'R', 'V']",True,Q,4,letter,2,False,False,"['robot_stimuli\\\\filler.mp4', 'robot_stimuli\\\\filler.mp4', 'robot_stimuli\\\\filler.mp4', 'robot_stimuli\\\\filler.mp4']",robot_stimuli\\filler.mp4,21,,,,,,,,,,,,,0,32,32,32,,,,,,,,,,,,,,,,,1301.1543704999985,1302.2205464000017,,,,,,,,,1303.2505058000006,1303.2505058000006,1303.2505058000006,1303.2505058000006,1303.2505058000006,1303.2505058000006,1303.2505058000006,1303.2505058000006,None,None,None,,,,,,,,,,,1291.4060450999987,1291.4060450999987,None,,,,1302.2205464000017,1302.2205464000017,1302.2205464000017,c,0.9360006999995676,1291.4060450999987,1291.4060450999987,1299.1368281999985,1301.1543704999985,1302.2205464000017,21,001,2024-07-31_15h05.46.183,robot_sternberg_sign,2022.2.5,60.01460755579563,
"['B', 'L', 'T', 'H']",True,L,4,letter,2,False,False,"['robot_stimuli\\\\filler.mp4', 'robot_stimuli\\\\filler.mp4', 'robot_stimuli\\\\filler.mp4', 'robot_stimuli\\\\filler.mp4']",robot_stimuli\\filler.mp4,21,,,,,,,,,,,,,0,33,33,33,,,,,,,,,,,,,,,,,1312.9930522000013,1314.0483894000008,,,,,,,,,1315.080211999999,1315.080211999999,1315.080211999999,1315.080211999999,1315.080211999999,1315.080211999999,1315.080211999999,1315.080211999999,None,None,None,,,,,,,,,,,1303.2505058000006,1303.2505058000006,None,,,,1314.0483894000008,1314.0483894000008,1314.0483894000008,c,0.8214239999979327,1303.2505058000006,1303.2505058000006,1310.7858305999998,1312.9930522000013,1314.0483894000008,21,001,2024-07-31_15h05.46.183,robot_sternberg_sign,2022.2.5,60.01460755579563,
"['J', 'R', 'H', 'N']",False,F,4,letter,2,False,False,"['robot_stimuli\\\\filler.mp4', 'robot_stimuli\\\\filler.mp4', 'robot_stimuli\\\\filler.mp4', 'robot_stimuli\\\\filler.mp4']",robot_stimuli\\filler.mp4,21,,,,,,,,,,,,,0,34,34,34,,,,,,,,,,,,,,,,,1325.2344751,1326.2995376000017,,,,,,,,,1327.5288759000014,1327.5288759000014,1327.5288759000014,1327.5288759000014,1327.5288759000014,1327.5288759000014,1327.5288759000014,1327.5288759000014,None,None,None,,,,,,,,,,,1315.080211999999,1315.080211999999,None,,,,1326.2995376000017,1326.2995376000017,1326.2995376000017,n,1.113306499999453,1315.080211999999,1315.080211999999,1323.0176617999987,1325.2344751,1326.2995376000017,21,001,2024-07-31_15h05.46.183,robot_sternberg_sign,2022.2.5,60.01460755579563,
"['N', 'K', 'M', 'P']",False,W,4,letter,2,False,False,"['robot_stimuli\\\\filler.mp4', 'robot_stimuli\\\\filler.mp4', 'robot_stimuli\\\\filler.mp4', 'robot_stimuli\\\\filler.mp4']",robot_stimuli\\filler.mp4,21,,,,,,,,,,,,,0,35,35,35,,,,,,,,,,,,,,,,,1337.0887874000018,1338.1620544999987,,,,,,,,,1339.3923195000007,1339.3923195000007,1339.3923195000007,1339.3923195000007,1339.3923195000007,1339.3923195000007,1339.3923195000007,1339.3923195000007,None,None,None,,,,,,,,,,,1327.5288759000014,1327.5288759000014,None,,,,1338.1620544999987,1338.1620544999987,1338.1620544999987,n,1.1484004000012646,1327.5288759000014,1327.5288759000014,1334.868618300001,1337.0887874000018,1338.1620544999987,21,001,2024-07-31_15h05.46.183,robot_sternberg_sign,2022.2.5,60.01460755579563,
"['J', 'V', 'X', 'P']",False,F,4,letter,2,False,False,"['robot_stimuli\\\\filler.mp4', 'robot_stimuli\\\\filler.mp4', 'robot_stimuli\\\\filler.mp4', 'robot_stimuli\\\\filler.mp4']",robot_stimuli\\filler.mp4,21,,,,,,,,,,,,,0,36,36,36,,,,,,,,,,,,,,,,,1348.9397117999997,1349.997526199999,,,,,,,,,1351.2263535000002,1351.2263535000002,1351.2263535000002,1351.2263535000002,1351.2263535000002,1351.2263535000002,1351.2263535000002,1351.2263535000002,None,None,None,,,,,,,,,,,1339.3923195000007,1339.3923195000007,None,,,,1349.997526199999,1349.997526199999,1349.997526199999,n,1.1040151999986847,1339.3923195000007,1339.3923195000007,1346.9271228999987,1348.9397117999997,1349.997526199999,21,001,2024-07-31_15h05.46.183,robot_sternberg_sign,2022.2.5,60.01460755579563,
"['C', 'R', 'J', 'L']",False,D,4,letter,2,False,False,"['robot_stimuli\\\\filler.mp4', 'robot_stimuli\\\\filler.mp4', 'robot_stimuli\\\\filler.mp4', 'robot_stimuli\\\\filler.mp4']",robot_stimuli\\filler.mp4,21,,,,,,,,,,,,,0,37,37,37,,,,,,,,,,,,,,,,,1360.9703556000004,1362.0330000999984,,,,,,,,,1363.2625800000005,1363.2625800000005,1363.2625800000005,1363.2625800000005,1363.2625800000005,1363.2625800000005,1363.2625800000005,1363.2625800000005,None,None,None,,,,,,,,,,,1351.2263535000002,1351.2263535000002,None,,,,1362.0330000999984,1362.0330000999984,1362.0330000999984,n,0.9964321999977983,1351.2263535000002,1351.2263535000002,1358.9608781000006,1360.9703556000004,1362.0330000999984,21,001,2024-07-31_15h05.46.183,robot_sternberg_sign,2022.2.5,60.01460755579563,
"['S', 'K', 'G', 'Z']",True,G,4,letter,2,False,False,"['robot_stimuli\\\\filler.mp4', 'robot_stimuli\\\\filler.mp4', 'robot_stimuli\\\\filler.mp4', 'robot_stimuli\\\\filler.mp4']",robot_stimuli\\filler.mp4,21,,,,,,,,,,,,,0,38,38,38,,,,,,,,,,,,,,,,,1373.021238700001,1374.0866005000007,,,,,,,,,1375.5128537,1375.5128537,1375.5128537,1375.5128537,1375.5128537,1375.5128537,1375.5128537,1375.5128537,None,None,None,,,,,,,,,,,1363.2625800000005,1363.2625800000005,None,,,,1374.0866005000007,1374.0866005000007,1374.0866005000007,c,1.3187469000004057,1363.2625800000005,1363.2625800000005,1371.0087005000005,1373.021238700001,1374.0866005000007,21,001,2024-07-31_15h05.46.183,robot_sternberg_sign,2022.2.5,60.01460755579563,
"['G', 'F', 'J', 'Q']",False,M,4,letter,2,False,True,"['robot_stimuli\\\\filler.mp4', 'robot_stimuli\\\\filler.mp4', 'robot_stimuli\\\\filler.mp4', 'robot_stimuli\\\\filler.mp4']",robot_stimuli\\filler.mp4,21,,,,,,,,,,,,,0,39,39,39,,,,,,,,,,,,,,,,,1385.2816244000005,1386.3487581999998,,,,,,,,,1387.8048909000008,1391.9207493000013,1387.8048909000008,1391.9207493000013,1387.8048909000008,1391.9207493000013,1387.8048909000008,1391.9207493000013,59.93827160493827,2.892669900000328,space,,,4.0564439999980095,,,,,,,,1375.5128537,1375.5128537,None,,,,1386.3487581999998,1386.3487581999998,1386.3487581999998,n,1.296944199999416,1375.5128537,1375.5128537,1383.2713348000016,1385.2816244000005,1386.3487581999998,21,001,2024-07-31_15h05.46.183,robot_sternberg_sign,2022.2.5,60.01460755579563,
"['P', 'N', 'C', 'Z', 'D', 'V']",True,V,6,letter,2,True,False,"['robot_stimuli\\\\filler.mp4', 'robot_stimuli\\\\filler.mp4', 'robot_stimuli\\\\filler.mp4', 'robot_stimuli\\\\filler.mp4', 'robot_stimuli\\\\filler.mp4', 'robot_stimuli\\\\filler.mp4']",robot_stimuli\\filler.mp4,21,,,,,,,,,,,,,0,40,40,40,,,,,,,,,,,,,,,,,1407.8523474999984,1408.917170499999,,,,,,,,,1409.9455681000018,1409.9455681000018,1409.9455681000018,1409.9455681000018,1409.9455681000018,1409.9455681000018,1409.9455681000018,1409.9455681000018,None,None,None,,,,,,,,,,,1391.9207493000013,1391.9207493000013,space,2.2203861999987566,,,1408.917170499999,1408.917170499999,1408.917170499999,c,0.8561098999998649,,,1405.8366149000012,1407.8523474999984,1408.917170499999,21,001,2024-07-31_15h05.46.183,robot_sternberg_sign,2022.2.5,60.01460755579563,
"['M', 'J', 'P', 'C', 'G', 'D']",False,W,6,letter,2,False,False,"['robot_stimuli\\\\filler.mp4', 'robot_stimuli\\\\filler.mp4', 'robot_stimuli\\\\filler.mp4', 'robot_stimuli\\\\filler.mp4', 'robot_stimuli\\\\filler.mp4', 'robot_stimuli\\\\filler.mp4']",robot_stimuli\\filler.mp4,21,,,,,,,,,,,,,0,41,41,41,,,,,,,,,,,,,,,,,1424.6472578000012,,,,,,,,,,1426.942756800001,1426.942756800001,1426.942756800001,1426.942756800001,1426.942756800001,1426.942756800001,1426.942756800001,1426.942756800001,None,None,None,,,,,,,,,,,1409.9455681000018,1409.9455681000018,None,,,,1425.715487899999,1425.715487899999,1425.715487899999,n,1.161688199998025,1409.9455681000018,1409.9455681000018,1422.4299544000005,1424.6472578000012,1425.715487899999,21,001,2024-07-31_15h05.46.183,robot_sternberg_sign,2022.2.5,60.01460755579563,
"['S', 'H', 'M', 'D', 'X', 'N']",True,S,6,letter,2,False,False,"['robot_stimuli\\\\filler.mp4', 'robot_stimuli\\\\filler.mp4', 'robot_stimuli\\\\filler.mp4', 'robot_stimuli\\\\filler.mp4', 'robot_stimuli\\\\filler.mp4', 'robot_stimuli\\\\filler.mp4']",robot_stimuli\\filler.mp4,21,,,,,,,,,,,,,0,42,42,42,,,,,,,,,,,,,,,,,1440.863192400002,1427.9993857999998,,,,,,,,,1444.3612245999993,1444.3612245999993,1444.3612245999993,1444.3612245999993,1444.3612245999993,1444.3612245999993,1444.3612245999993,1444.3612245999993,None,None,None,,,,,,,,,,,1426.942756800001,1426.942756800001,None,,,,1441.9335138000006,1441.9335138000006,1441.9335138000006,c,2.3198254000017187,1426.942756800001,1426.942756800001,1438.6472411999985,1440.863192400002,1441.9335138000006,21,001,2024-07-31_15h05.46.183,robot_sternberg_sign,2022.2.5,60.01460755579563,
"['R', 'H', 'X', 'M', 'F', 'L']",True,R,6,letter,2,False,False,"['robot_stimuli\\\\filler.mp4', 'robot_stimuli\\\\filler.mp4', 'robot_stimuli\\\\filler.mp4', 'robot_stimuli\\\\filler.mp4', 'robot_stimuli\\\\filler.mp4', 'robot_stimuli\\\\filler.mp4']",robot_stimuli\\filler.mp4,21,,,,,,,,,,,,,0,43,43,43,,,,,,,,,,,,,,,,,1458.3248551000015,1459.3854311999985,,,,,,,,,1461.0055942999988,1461.0055942999988,1461.0055942999988,1461.0055942999988,1461.0055942999988,1461.0055942999988,1461.0055942999988,1461.0055942999988,None,None,None,,,,,,,,,,,1444.3612245999993,1444.3612245999993,None,,,,1459.3854311999985,1459.3854311999985,1459.3854311999985,c,1.5648201999974845,1444.3612245999993,1444.3612245999993,1456.3044210999997,1458.3248551000015,1459.3854311999985,21,001,2024-07-31_15h05.46.183,robot_sternberg_sign,2022.2.5,60.01460755579563,
"['X', 'H', 'R', 'Z', 'N', 'P']",False,G,6,letter,2,False,False,"['robot_stimuli\\\\filler.mp4', 'robot_stimuli\\\\filler.mp4', 'robot_stimuli\\\\filler.mp4', 'robot_stimuli\\\\filler.mp4', 'robot_stimuli\\\\filler.mp4', 'robot_stimuli\\\\filler.mp4']",robot_stimuli\\filler.mp4,21,,,,,,,,,,,,,0,44,44,44,,,,,,,,,,,,,,,,,1474.9367146999994,1475.9982327999987,,,,,,,,,1478.0261125999987,1478.0261125999987,1478.0261125999987,1478.0261125999987,1478.0261125999987,1478.0261125999987,1478.0261125999987,1478.0261125999987,None,None,None,,,,,,,,,,,1461.0055942999988,1461.0055942999988,None,,,,1475.9982327999987,1475.9982327999987,1475.9982327999987,c,1.8711015999979281,1461.0055942999988,1461.0055942999988,1472.9223941,1474.9367146999994,1475.9982327999987,21,001,2024-07-31_15h05.46.183,robot_sternberg_sign,2022.2.5,60.01460755579563,
"['D', 'K', 'C', 'J', 'W', 'N']",False,F,6,letter,2,False,False,"['robot_stimuli\\\\filler.mp4', 'robot_stimuli\\\\filler.mp4', 'robot_stimuli\\\\filler.mp4', 'robot_stimuli\\\\filler.mp4', 'robot_stimuli\\\\filler.mp4', 'robot_stimuli\\\\filler.mp4']",robot_stimuli\\filler.mp4,21,,,,,,,,,,,,,0,45,45,45,,,,,,,,,,,,,,,,,1492.5392665999989,1493.601128299999,,,,,,,,,1494.8324204,1494.8324204,1494.8324204,1494.8324204,1494.8324204,1494.8324204,1494.8324204,1494.8324204,None,None,None,,,,,,,,,,,1478.0261125999987,1478.0261125999987,None,,,,1493.601128299999,1493.601128299999,1493.601128299999,n,1.11657859999832,1478.0261125999987,1478.0261125999987,1490.3190145999997,1492.5392665999989,1493.601128299999,21,001,2024-07-31_15h05.46.183,robot_sternberg_sign,2022.2.5,60.01460755579563,
"['C', 'M', 'P', 'N', 'L', 'D']",False,V,6,letter,2,False,False,"['robot_stimuli\\\\filler.mp4', 'robot_stimuli\\\\filler.mp4', 'robot_stimuli\\\\filler.mp4', 'robot_stimuli\\\\filler.mp4', 'robot_stimuli\\\\filler.mp4', 'robot_stimuli\\\\filler.mp4']",robot_stimuli\\filler.mp4,21,,,,,,,,,,,,,0,46,46,46,,,,,,,,,,,,,,,,,1508.7412084000007,1509.7982175999987,,,,,,,,,1511.2228554999983,1511.2228554999983,1511.2228554999983,1511.2228554999983,1511.2228554999983,1511.2228554999983,1511.2228554999983,1511.2228554999983,None,None,None,,,,,,,,,,,1494.8324204,1494.8324204,None,,,,1509.7982175999987,1509.7982175999987,1509.7982175999987,n,1.2636450999998488,1494.8324204,1494.8324204,1506.5304784000018,1508.7412084000007,1509.7982175999987,21,001,2024-07-31_15h05.46.183,robot_sternberg_sign,2022.2.5,60.01460755579563,
"['Q', 'V', 'W', 'G', 'M', 'B']",True,B,6,letter,2,False,False,"['robot_stimuli\\\\filler.mp4', 'robot_stimuli\\\\filler.mp4', 'robot_stimuli\\\\filler.mp4', 'robot_stimuli\\\\filler.mp4', 'robot_stimuli\\\\filler.mp4', 'robot_stimuli\\\\filler.mp4']",robot_stimuli\\filler.mp4,21,,,,,,,,,,,,,0,47,47,47,,,,,,,,,,,,,,,,,1525.1470766000002,1512.282015499999,,,,,,,,,1529.0445826000014,1529.0445826000014,1529.0445826000014,1529.0445826000014,1529.0445826000014,1529.0445826000014,1529.0445826000014,1529.0445826000014,None,None,None,,,,,,,,,,,1511.2228554999983,1511.2228554999983,None,,,,1526.2151589000005,1526.2151589000005,1526.2151589000005,c,2.6704429000019445,1511.2228554999983,1511.2228554999983,1522.9315420000003,1525.1470766000002,1526.2151589000005,21,001,2024-07-31_15h05.46.183,robot_sternberg_sign,2022.2.5,60.01460755579563,
"['Z', 'Q', 'R', 'N', 'J', 'T']",True,T,6,letter,2,False,False,"['robot_stimuli\\\\filler.mp4', 'robot_stimuli\\\\filler.mp4', 'robot_stimuli\\\\filler.mp4', 'robot_stimuli\\\\filler.mp4', 'robot_stimuli\\\\filler.mp4', 'robot_stimuli\\\\filler.mp4']",robot_stimuli\\filler.mp4,21,,,,,,,,,,,,,0,48,48,48,,,,,,,,,,,,,,,,,1543.5668071000018,1544.631942099999,,,,,,,,,1546.0545057,1546.0545057,1546.0545057,1546.0545057,1546.0545057,1546.0545057,1546.0545057,1546.0545057,None,None,None,,,,,,,,,,,1529.0445826000014,1529.0445826000014,None,,,,1544.631942099999,1544.631942099999,1544.631942099999,c,1.2304231999987678,1529.0445826000014,1529.0445826000014,1541.3471039000015,1543.5668071000018,1544.631942099999,21,001,2024-07-31_15h05.46.183,robot_sternberg_sign,2022.2.5,60.01460755579563,
"['H', 'K', 'Q', 'X', 'D', 'N']",False,Z,6,letter,2,False,True,"['robot_stimuli\\\\filler.mp4', 'robot_stimuli\\\\filler.mp4', 'robot_stimuli\\\\filler.mp4', 'robot_stimuli\\\\filler.mp4', 'robot_stimuli\\\\filler.mp4', 'robot_stimuli\\\\filler.mp4']",robot_stimuli\\filler.mp4,21,,,,,,,,,,,,,0,49,49,49,,,,,,,,,,,,,,,,,1559.9846601000008,1561.0491993999985,,,,,,,,,1562.5107321999985,1566.9588123000012,1562.5107321999985,1566.9588123000012,1562.5107321999985,1566.9588123000012,1562.5107321999985,1566.9588123000012,111.79012345679011,3.1674063999998907,space,,,4.3901544000000285,,,,,,,,1546.0545057,1546.0545057,None,,,,1561.0491993999985,1561.0491993999985,1561.0491993999985,c,1.3322424999969371,1546.0545057,1546.0545057,1557.9731674999985,1559.9846601000008,1561.0491993999985,21,001,2024-07-31_15h05.46.183,robot_sternberg_sign,2022.2.5,60.01460755579563,
"['D', 'W']",False,P,2,letter,2,True,False,"['robot_stimuli\\\\filler.mp4', 'robot_stimuli\\\\filler.mp4']",robot_stimuli\\filler.mp4,21,,,,,,,,,,,,,0,50,50,50,,,,,,,,,,,,,,,,,1573.7406519999986,1574.8003506000005,,,,,,,,,1576.0291793999986,1576.0291793999986,1576.0291793999986,1576.0291793999986,1576.0291793999986,1576.0291793999986,1576.0291793999986,1576.0291793999986,None,None,None,,,,,,,,,,,1566.9588123000012,1566.9588123000012,space,1.5989336000020558,,,1574.8003506000005,1574.8003506000005,1574.8003506000005,n,1.0213463999971282,,,1571.7249361000013,1573.7406519999986,1574.8003506000005,21,001,2024-07-31_15h05.46.183,robot_sternberg_sign,2022.2.5,60.01460755579563,
"['P', 'S']",False,M,2,letter,2,False,False,"['robot_stimuli\\\\filler.mp4', 'robot_stimuli\\\\filler.mp4']",robot_stimuli\\filler.mp4,21,,,,,,,,,,,,,0,51,51,51,,,,,,,,,,,,,,,,,1581.2108596999988,1582.2814897000007,,,,,,,,,1583.3064791000015,1583.3064791000015,1583.3064791000015,1583.3064791000015,1583.3064791000015,1583.3064791000015,1583.3064791000015,1583.3064791000015,None,None,None,,,,,,,,,,,1576.0291793999986,1576.0291793999986,None,,,,1582.2814897000007,1582.2814897000007,1582.2814897000007,n,0.8998117000010097,1576.0291793999986,1576.0291793999986,1579.1922269000006,1581.2108596999988,1582.2814897000007,21,001,2024-07-31_15h05.46.183,robot_sternberg_sign,2022.2.5,60.01460755579563,
"['W', 'V']",True,V,2,letter,2,False,False,"['robot_stimuli\\\\filler.mp4', 'robot_stimuli\\\\filler.mp4']",robot_stimuli\\filler.mp4,21,,,,,,,,,,,,,0,52,52,52,,,,,,,,,,,,,,,,,1588.6714635000008,1589.7397395999997,,,,,,,,,1590.9687049000004,1590.9687049000004,1590.9687049000004,1590.9687049000004,1590.9687049000004,1590.9687049000004,1590.9687049000004,1590.9687049000004,None,None,None,,,,,,,,,,,1583.3064791000015,1583.3064791000015,None,,,,1589.7397395999997,1589.7397395999997,1589.7397395999997,c,1.0415133999995305,1583.3064791000015,1583.3064791000015,1586.6583174999996,1588.6714635000008,1589.7397395999997,21,001,2024-07-31_15h05.46.183,robot_sternberg_sign,2022.2.5,60.01460755579563,
"['K', 'C']",True,C,2,letter,2,False,False,"['robot_stimuli\\\\filler.mp4', 'robot_stimuli\\\\filler.mp4']",robot_stimuli\\filler.mp4,21,,,,,,,,,,,,,0,53,53,53,,,,,,,,,,,,,,,,,1596.5277581999999,1597.5924657999985,,,,,,,,,1598.6226942000012,1598.6226942000012,1598.6226942000012,1598.6226942000012,1598.6226942000012,1598.6226942000012,1598.6226942000012,1598.6226942000012,None,None,None,,,,,,,,,,,1590.9687049000004,1590.9687049000004,None,,,,1597.5924657999985,1597.5924657999985,1597.5924657999985,c,0.8451175999980478,1590.9687049000004,1590.9687049000004,1594.317000000001,1596.5277581999999,1597.5924657999985,21,001,2024-07-31_15h05.46.183,robot_sternberg_sign,2022.2.5,60.01460755579563,
"['L', 'D']",True,L,2,letter,2,False,False,"['robot_stimuli\\\\filler.mp4', 'robot_stimuli\\\\filler.mp4']",robot_stimuli\\filler.mp4,21,,,,,,,,,,,,,0,54,54,54,,,,,,,,,,,,,,,,,1603.9868403000019,1605.049017899999,,,,,,,,,1606.272526499999,1606.272526499999,1606.272526499999,1606.272526499999,1606.272526499999,1606.272526499999,1606.272526499999,1606.272526499999,None,None,None,,,,,,,,,,,1598.6226942000012,1598.6226942000012,None,,,,1605.049017899999,1605.049017899999,1605.049017899999,c,0.9810434999999416,1598.6226942000012,1598.6226942000012,1601.9773946000005,1603.9868403000019,1605.049017899999,21,001,2024-07-31_15h05.46.183,robot_sternberg_sign,2022.2.5,60.01460755579563,
"['M', 'K']",False,T,2,letter,2,False,False,"['robot_stimuli\\\\filler.mp4', 'robot_stimuli\\\\filler.mp4']",robot_stimuli\\filler.mp4,21,,,,,,,,,,,,,0,55,55,55,,,,,,,,,,,,,,,,,1611.6467604000009,1607.3334827999988,,,,,,,,,1615.5431679000012,1615.5431679000012,1615.5431679000012,1615.5431679000012,1615.5431679000012,1615.5431679000012,1615.5431679000012,1615.5431679000012,None,None,None,,,,,,,,,,,1606.272526499999,1606.272526499999,None,,,,1612.7152370999993,1612.7152370999993,1612.7152370999993,n,2.6977174999992712,1606.272526499999,1606.272526499999,1609.432670799999,1611.6467604000009,1612.7152370999993,21,001,2024-07-31_15h05.46.183,robot_sternberg_sign,2022.2.5,60.01460755579563,
"['W', 'M']",True,M,2,letter,2,False,False,"['robot_stimuli\\\\filler.mp4', 'robot_stimuli\\\\filler.mp4']",robot_stimuli\\filler.mp4,21,,,,,,,,,,,,,0,56,56,56,,,,,,,,,,,,,,,,,1621.1093784999994,1622.1650885,,,,,,,,,1623.395314700001,1623.395314700001,1623.395314700001,1623.395314700001,1623.395314700001,1623.395314700001,1623.395314700001,1623.395314700001,None,None,None,,,,,,,,,,,1615.5431679000012,1615.5431679000012,None,,,,1622.1650885,1622.1650885,1622.1650885,c,1.0967252000009466,1615.5431679000012,1615.5431679000012,1618.8990685000008,1621.1093784999994,1622.1650885,21,001,2024-07-31_15h05.46.183,robot_sternberg_sign,2022.2.5,60.01460755579563,
"['G', 'F']",True,F,2,letter,2,False,False,"['robot_stimuli\\\\filler.mp4', 'robot_stimuli\\\\filler.mp4']",robot_stimuli\\filler.mp4,21,,,,,,,,,,,,,0,57,57,57,,,,,,,,,,,,,,,,,1628.9469018,1624.4493114999987,,,,,,,,,1631.0350194000002,1631.0350194000002,1631.0350194000002,1631.0350194000002,1631.0350194000002,1631.0350194000002,1631.0350194000002,1631.0350194000002,None,None,None,,,,,,,,,,,1623.395314700001,1623.395314700001,None,,,,1630.0150416000015,1630.0150416000015,1630.0150416000015,c,0.9747023000018089,1623.395314700001,1623.395314700001,1626.7352827999985,1628.9469018,1630.0150416000015,21,001,2024-07-31_15h05.46.183,robot_sternberg_sign,2022.2.5,60.01460755579563,
"['K', 'W']",False,L,2,letter,2,False,False,"['robot_stimuli\\\\filler.mp4', 'robot_stimuli\\\\filler.mp4']",robot_stimuli\\filler.mp4,21,,,,,,,,,,,,,0,58,58,58,,,,,,,,,,,,,,,,,1636.1995597000005,1637.2660262000009,,,,,,,,,1638.2898416000007,1638.2898416000007,1638.2898416000007,1638.2898416000007,1638.2898416000007,1638.2898416000007,1638.2898416000007,1638.2898416000007,None,None,None,,,,,,,,,,,1631.0350194000002,1631.0350194000002,None,,,,1637.2660262000009,1637.2660262000009,1637.2660262000009,n,0.9640561999985948,1631.0350194000002,1631.0350194000002,1634.1914068999995,1636.1995597000005,1637.2660262000009,21,001,2024-07-31_15h05.46.183,robot_sternberg_sign,2022.2.5,60.01460755579563,
"['Q', 'J']",False,K,2,letter,2,False,True,"['robot_stimuli\\\\filler.mp4', 'robot_stimuli\\\\filler.mp4']",robot_stimuli\\filler.mp4,21,,,,,,,,,,,,,0,59,59,59,,,,,,,,,,,,,,,,,1643.4551938999994,1644.5162026999988,,,,,,,,,1645.5742689000017,1650.2308681000013,1645.5742689000017,1650.2308681000013,1645.5742689000017,1650.2308681000013,1645.5742689000017,1650.2308681000013,24.135802469135797,3.7749758000027214,space,,,4.598512200002006,,,,,,,,1638.2898416000007,1638.2898416000007,None,,,,1644.5162026999988,1644.5162026999988,1644.5162026999988,n,0.800501699999586,1638.2898416000007,1638.2898416000007,1641.4366848000009,1643.4551938999994,1644.5162026999988,21,001,2024-07-31_15h05.46.183,robot_sternberg_sign,2022.2.5,60.01460755579563,
"['R_Torso_Y_For', 'L_Torso_Y_For', 'R_Torso_X_For', 'R_Head_X_Back']",True,R_Torso_Y_For,4,robot,3,True,False,"['robot_stimuli\\R_Torso_Y_For.mp4', 'robot_stimuli\\L_Torso_Y_For.mp4', 'robot_stimuli\\R_Torso_X_For.mp4', 'robot_stimuli\\R_Head_X_Back.mp4']",robot_stimuli\R_Torso_Y_For.mp4,21,,,,,,,,,,,,,0,60,60,60,,,,,,,,,,,,,,,,,1669.8511737999997,1670.9411822999991,,,,,,,,,1674.5891662000013,1674.5891662000013,1674.5891662000013,1674.5891662000013,1674.5891662000013,1674.5891662000013,1674.5891662000013,1674.5891662000013,None,None,None,,,,,,,,,,,1650.2308681000013,1650.2308681000013,space,3.726893499999278,1666.2227559000003,1670.9411822999991,1670.9411822999991,1670.9411822999991,1670.9411822999991,c,2.9757114999993064,,,,,,21,001,2024-07-31_15h05.46.183,robot_sternberg_sign,2022.2.5,60.01460755579563,
"['L_Head_X_Back', 'L_Base_Z_Back', 'R_Base_Y_For', 'L_Arm_X_For']",False,R_Torso_Z_Back,4,robot,3,False,False,"['robot_stimuli\\L_Head_X_Back.mp4', 'robot_stimuli\\L_Base_Z_Back.mp4', 'robot_stimuli\\R_Base_Y_For.mp4', 'robot_stimuli\\L_Arm_X_For.mp4']",robot_stimuli\R_Torso_Z_Back.mp4,21,,,,,,,,,,,,,0,61,61,61,,,,,,,,,,,,,,,,,1690.4794502999994,1675.6749765000004,,,,,,,,,1695.2033352999988,1695.2033352999988,1695.2033352999988,1695.2033352999988,1695.2033352999988,1695.2033352999988,1695.2033352999988,1695.2033352999988,None,None,None,,,,,,,,,,,1674.5891662000013,1674.5891662000013,None,,1686.8495681000004,1691.5733127000003,1691.5733127000003,1691.5733127000003,1691.5733127000003,c,2.1204729999990377,1674.5891662000013,1674.5891662000013,,,,21,001,2024-07-31_15h05.46.183,robot_sternberg_sign,2022.2.5,60.01460755579563,
"['R_Torso_Z_For', 'L_Torso_Y_For', 'R_Head_X_For', 'L_Head_X_Back']",True,L_Torso_Y_For,4,robot,3,False,False,"['robot_stimuli\\R_Torso_Z_For.mp4', 'robot_stimuli\\L_Torso_Y_For.mp4', 'robot_stimuli\\R_Head_X_For.mp4', 'robot_stimuli\\L_Head_X_Back.mp4']",robot_stimuli\L_Torso_Y_For.mp4,21,,,,,,,,,,,,,0,62,62,62,,,,,,,,,,,,,,,,,1711.0985832999995,1712.1945257999996,,,,,,,,,1715.8432440000015,1715.8432440000015,1715.8432440000015,1715.8432440000015,1715.8432440000015,1715.8432440000015,1715.8432440000015,1715.8432440000015,None,None,None,,,,,,,,,,,1695.2033352999988,1695.2033352999988,None,,1707.469759900001,1712.1945257999996,1712.1945257999996,1712.1945257999996,1712.1945257999996,c,2.978841799998918,1695.2033352999988,1695.2033352999988,,,,21,001,2024-07-31_15h05.46.183,robot_sternberg_sign,2022.2.5,60.01460755579563,
"['L_Head_X_Back', 'L_Torso_X_Back', 'L_Head_Z_For', 'L_Arm_Z_For']",False,R_Torso_X_Back,4,robot,3,False,False,"['robot_stimuli\\L_Head_X_Back.mp4', 'robot_stimuli\\L_Torso_X_Back.mp4', 'robot_stimuli\\L_Head_Z_For.mp4', 'robot_stimuli\\L_Arm_Z_For.mp4']",robot_stimuli\R_Torso_X_Back.mp4,21,,,,,,,,,,,,,0,63,63,63,,,,,,,,,,,,,,,,,1731.7115676999983,1732.7945094000006,,,,,,,,,1739.1121339000001,1739.1121339000001,1739.1121339000001,1739.1121339000001,1739.1121339000001,1739.1121339000001,1739.1121339000001,1739.1121339000001,None,None,None,,,,,,,,,,,1715.8432440000015,1715.8432440000015,None,,1728.0820726000002,1732.7945094000006,1732.7945094000006,1732.7945094000006,1732.7945094000006,c,6.282825299997057,1715.8432440000015,1715.8432440000015,,,,21,001,2024-07-31_15h05.46.183,robot_sternberg_sign,2022.2.5,60.01460755579563,
"['R_Head_X_For', 'L_Base_X_Back', 'L_Torso_Z_Back', 'R_Head_X_Back']",True,L_Torso_Z_Back,4,robot,3,False,False,"['robot_stimuli\\R_Head_X_For.mp4', 'robot_stimuli\\L_Base_X_Back.mp4', 'robot_stimuli\\L_Torso_Z_Back.mp4', 'robot_stimuli\\R_Head_X_Back.mp4']",robot_stimuli\L_Torso_Z_Back.mp4,21,,,,,,,,,,,,,0,64,64,64,,,,,,,,,,,,,,,,,1754.818046800001,1755.907556600001,,,,,,,,,1759.4281815999984,1759.4281815999984,1759.4281815999984,1759.4281815999984,1759.4281815999984,1759.4281815999984,1759.4281815999984,1759.4281815999984,None,None,None,,,,,,,,,,,1739.1121339000001,1739.1121339000001,None,,1751.1865463999984,1755.907556600001,1755.907556600001,1755.907556600001,1755.907556600001,c,1.6095887999981642,1739.1121339000001,1739.1121339000001,,,,21,001,2024-07-31_15h05.46.183,robot_sternberg_sign,2022.2.5,60.01460755579563,
"['R_Head_X_For', 'R_Torso_Y_Back', 'R_Base_Y_For', 'L_Base_X_Back']",False,L_Arm_X_For,4,robot,3,False,False,"['robot_stimuli\\R_Head_X_For.mp4', 'robot_stimuli\\R_Torso_Y_Back.mp4', 'robot_stimuli\\R_Base_Y_For.mp4', 'robot_stimuli\\L_Base_X_Back.mp4']",robot_stimuli\L_Arm_X_For.mp4,21,,,,,,,,,,,,,0,65,65,65,,,,,,,,,,,,,,,,,1775.2986686999993,1776.3943931999984,,,,,,,,,1780.0400428000012,1780.0400428000012,1780.0400428000012,1780.0400428000012,1780.0400428000012,1780.0400428000012,1780.0400428000012,1780.0400428000012,None,None,None,,,,,,,,,,,1759.4281815999984,1759.4281815999984,None,,1771.7031607000008,1776.3943931999984,1776.3943931999984,1776.3943931999984,1776.3943931999984,n,2.2354421999989427,1759.4281815999984,1759.4281815999984,,,,21,001,2024-07-31_15h05.46.183,robot_sternberg_sign,2022.2.5,60.01460755579563,
"['R_Base_X_For', 'R_Torso_Z_Back', 'R_Head_Z_For', 'L_Head_Y_For']",True,R_Torso_Z_Back,4,robot,3,False,False,"['robot_stimuli\\R_Base_X_For.mp4', 'robot_stimuli\\R_Torso_Z_Back.mp4', 'robot_stimuli\\R_Head_Z_For.mp4', 'robot_stimuli\\L_Head_Y_For.mp4']",robot_stimuli\R_Torso_Z_Back.mp4,21,,,,,,,,,,,,,0,66,66,66,,,,,,,,,,,,,,,,,1795.804322500002,1796.8947009999993,,,,,,,,,1800.5443534999995,1800.5443534999995,1800.5443534999995,1800.5443534999995,1800.5443534999995,1800.5443534999995,1800.5443534999995,1800.5443534999995,None,None,None,,,,,,,,,,,1780.0400428000012,1780.0400428000012,None,,1792.1731611999985,1796.8947009999993,1796.8947009999993,1796.8947009999993,1796.8947009999993,c,2.205921799999487,1780.0400428000012,1780.0400428000012,,,,21,001,2024-07-31_15h05.46.183,robot_sternberg_sign,2022.2.5,60.01460755579563,
"['L_Head_X_Back', 'L_Arm_X_Back', 'L_Arm_X_For', 'L_Torso_Z_Back']",True,L_Head_X_Back,4,robot,3,False,False,"['robot_stimuli\\L_Head_X_Back.mp4', 'robot_stimuli\\L_Arm_X_Back.mp4', 'robot_stimuli\\L_Arm_X_For.mp4', 'robot_stimuli\\L_Torso_Z_Back.mp4']",robot_stimuli\L_Head_X_Back.mp4,21,,,,,,,,,,,,,0,67,67,67,,,,,,,,,,,,,,,,,1816.3166370999988,1817.4059690999984,,,,,,,,,1825.7305813000003,1825.7305813000003,1825.7305813000003,1825.7305813000003,1825.7305813000003,1825.7305813000003,1825.7305813000003,1825.7305813000003,None,None,None,,,,,,,,,,,1800.5443534999995,1800.5443534999995,None,,1812.8210449000017,1817.4059690999984,1817.4059690999984,1817.4059690999984,1817.4059690999984,n,8.288241399997787,1800.5443534999995,1800.5443534999995,,,,21,001,2024-07-31_15h05.46.183,robot_sternberg_sign,2022.2.5,60.01460755579563,
"['L_Torso_Y_For', 'R_Base_X_For', 'R_Torso_Y_For', 'L_Arm_Z_For']",False,R_Torso_X_For,4,robot,3,False,False,"['robot_stimuli\\L_Torso_Y_For.mp4', 'robot_stimuli\\R_Base_X_For.mp4', 'robot_stimuli\\R_Torso_Y_For.mp4', 'robot_stimuli\\L_Arm_Z_For.mp4']",robot_stimuli\R_Torso_X_For.mp4,21,,,,,,,,,,,,,0,68,68,68,,,,,,,,,,,,,,,,,1841.5296704000011,,,,,,,,,,1846.2762776,1846.2762776,1846.2762776,1846.2762776,1846.2762776,1846.2762776,1846.2762776,1846.2762776,None,None,None,,,,,,,,,,,1825.7305813000003,1825.7305813000003,None,,1837.8997346000015,1842.6284275000016,1842.6284275000016,1842.6284275000016,1842.6284275000016,c,1.7449726999984705,1825.7305813000003,1825.7305813000003,,,,21,001,2024-07-31_15h05.46.183,robot_sternberg_sign,2022.2.5,60.01460755579563,
"['R_Head_Y_Back', 'L_Torso_Z_For', 'R_Torso_X_Back', 'R_Arm_Z_Back']",False,L_Base_X_For,4,robot,3,False,True,"['robot_stimuli\\R_Head_Y_Back.mp4', 'robot_stimuli\\L_Torso_Z_For.mp4', 'robot_stimuli\\R_Torso_X_Back.mp4', 'robot_stimuli\\R_Arm_Z_Back.mp4']",robot_stimuli\L_Base_X_For.mp4,21,,,,,,,,,,,,,0,69,69,69,,,,,,,,,,,,,,,,,1862.161951600001,1863.245676299999,,,,,,,,,1867.6240658000006,1873.503569800001,1867.6240658000006,1873.503569800001,1867.6240658000006,1873.503569800001,1867.6240658000006,1873.503569800001,85.0925925925926,5.2878607000020565,space,,,5.828976799999509,,,,,,,,1846.2762776,1846.2762776,None,,1858.5243881000006,1863.245676299999,1863.245676299999,1863.245676299999,1863.245676299999,c,4.312884399998438,1846.2762776,1846.2762776,,,,21,001,2024-07-31_15h05.46.183,robot_sternberg_sign,2022.2.5,60.01460755579563,
"['L_Base_Z_Back', 'R_Arm_X_Back']",False,R_Base_Y_Back,2,robot,3,True,False,"['robot_stimuli\\L_Base_Z_Back.mp4', 'robot_stimuli\\R_Arm_X_Back.mp4']",robot_stimuli\R_Base_Y_Back.mp4,21,,,,,,,,,,,,,0,70,70,70,,,,,,,,,,,,,,,,,1886.2374535,1887.3227852,,,,,,,,,1890.9603564000008,1890.9603564000008,1890.9603564000008,1890.9603564000008,1890.9603564000008,1890.9603564000008,1890.9603564000008,1890.9603564000008,None,None,None,,,,,,,,,,,1873.503569800001,1873.503569800001,space,4.285715599999094,1882.6077596999985,1887.3227852,1887.3227852,1887.3227852,1887.3227852,n,2.4351988999987952,,,,,,21,001,2024-07-31_15h05.46.183,robot_sternberg_sign,2022.2.5,60.01460755579563,
"['R_Arm_X_Back', 'R_Head_X_For']",False,R_Arm_Z_Back,2,robot,3,False,False,"['robot_stimuli\\R_Arm_X_Back.mp4', 'robot_stimuli\\R_Head_X_For.mp4']",robot_stimuli\R_Arm_Z_Back.mp4,21,,,,,,,,,,,,,0,71,71,71,,,,,,,,,,,,,,,,,1899.4150112000007,1892.0378225000004,,,,,,,,,1907.4290836000018,1907.4290836000018,1907.4290836000018,1907.4290836000018,1907.4290836000018,1907.4290836000018,1907.4290836000018,1907.4290836000018,None,None,None,,,,,,,,,,,1890.9603564000008,1890.9603564000008,None,,1895.7786383000002,1900.5105109000015,1900.5105109000015,1900.5105109000015,1900.5105109000015,n,6.871266899997863,1890.9603564000008,1890.9603564000008,,,,21,001,2024-07-31_15h05.46.183,robot_sternberg_sign,2022.2.5,60.01460755579563,
"['L_Arm_X_Back', 'L_Torso_X_Back']",False,L_Torso_Y_For,2,robot,3,False,False,"['robot_stimuli\\L_Arm_X_Back.mp4', 'robot_stimuli\\L_Torso_X_Back.mp4']",robot_stimuli\L_Torso_Y_For.mp4,21,,,,,,,,,,,,,0,72,72,72,,,,,,,,,,,,,,,,,1915.8658747999998,1916.9580818000013,,,,,,,,,1920.603835,1920.603835,1920.603835,1920.603835,1920.603835,1920.603835,1920.603835,1920.603835,None,None,None,,,,,,,,,,,1907.4290836000018,1907.4290836000018,None,,1912.2281015999997,1916.9580818000013,1916.9580818000013,1916.9580818000013,1916.9580818000013,c,2.7912871000007726,1907.4290836000018,1907.4290836000018,,,,21,001,2024-07-31_15h05.46.183,robot_sternberg_sign,2022.2.5,60.01460755579563,
"['R_Head_X_Back', 'L_Torso_X_For']",True,R_Head_X_Back,2,robot,3,False,False,"['robot_stimuli\\R_Head_X_Back.mp4', 'robot_stimuli\\L_Torso_X_For.mp4']",robot_stimuli\R_Head_X_Back.mp4,21,,,,,,,,,,,,,0,73,73,73,,,,,,,,,,,,,,,,,1929.0629820000013,1921.6867823000011,,,,,,,,,1936.4241190000012,1936.4241190000012,1936.4241190000012,1936.4241190000012,1936.4241190000012,1936.4241190000012,1936.4241190000012,1936.4241190000012,None,None,None,,,,,,,,,,,1920.603835,1920.603835,None,,1925.4270127,1930.1549681999986,1930.1549681999986,1930.1549681999986,1930.1549681999986,n,6.227078100000654,1920.603835,1920.603835,,,,21,001,2024-07-31_15h05.46.183,robot_sternberg_sign,2022.2.5,60.01460755579563,
"['L_Arm_X_For', 'R_Base_Z_For']",True,L_Arm_X_For,2,robot,3,False,False,"['robot_stimuli\\L_Arm_X_For.mp4', 'robot_stimuli\\R_Base_Z_For.mp4']",robot_stimuli\L_Arm_X_For.mp4,21,,,,,,,,,,,,,0,74,74,74,,,,,,,,,,,,,,,,,1944.8645898000013,1937.5081068000018,,,,,,,,,1949.6103439999988,1949.6103439999988,1949.6103439999988,1949.6103439999988,1949.6103439999988,1949.6103439999988,1949.6103439999988,1949.6103439999988,None,None,None,,,,,,,,,,,1936.4241190000012,1936.4241190000012,None,,1941.2374187000005,1945.9631280000012,1945.9631280000012,1945.9631280000012,1945.9631280000012,c,3.1379144999991695,1936.4241190000012,1936.4241190000012,,,,21,001,2024-07-31_15h05.46.183,robot_sternberg_sign,2022.2.5,60.01460755579563,
"['L_Head_Y_For', 'R_Base_Z_For']",True,R_Base_Z_For,2,robot,3,False,False,"['robot_stimuli\\L_Head_Y_For.mp4', 'robot_stimuli\\R_Base_Z_For.mp4']",robot_stimuli\R_Base_Z_For.mp4,21,,,,,,,,,,,,,0,75,75,75,,,,,,,,,,,,,,,,,1958.0322203000014,1959.128090799999,,,,,,,,,1962.776553900001,1962.776553900001,1962.776553900001,1962.776553900001,1962.776553900001,1962.776553900001,1962.776553900001,1962.776553900001,None,None,None,,,,,,,,,,,1949.6103439999988,1949.6103439999988,None,,1954.405155999999,1959.128090799999,1959.128090799999,1959.128090799999,1959.128090799999,c,2.4700640000010026,1949.6103439999988,1949.6103439999988,,,,21,001,2024-07-31_15h05.46.183,robot_sternberg_sign,2022.2.5,60.01460755579563,
"['R_Torso_Z_Back', 'L_Head_Y_For']",True,L_Head_Y_For,2,robot,3,False,False,"['robot_stimuli\\R_Torso_Z_Back.mp4', 'robot_stimuli\\L_Head_Y_For.mp4']",robot_stimuli\L_Head_Y_For.mp4,21,,,,,,,,,,,,,0,76,76,76,,,,,,,,,,,,,,,,,1971.2153110999989,1963.852389900001,,,,,,,,,1975.9432605999991,1975.9432605999991,1975.9432605999991,1975.9432605999991,1975.9432605999991,1975.9432605999991,1975.9432605999991,1975.9432605999991,None,None,None,,,,,,,,,,,1962.776553900001,1962.776553900001,None,,1967.5759914999999,1972.3075464000012,1972.3075464000012,1972.3075464000012,1972.3075464000012,c,2.578107799999998,1962.776553900001,1962.776553900001,,,,21,001,2024-07-31_15h05.46.183,robot_sternberg_sign,2022.2.5,60.01460755579563,
"['R_Base_X_For', 'L_Torso_Z_For']",False,R_Base_Z_Back,2,robot,3,False,False,"['robot_stimuli\\R_Base_X_For.mp4', 'robot_stimuli\\L_Torso_Z_For.mp4']",robot_stimuli\R_Base_Z_Back.mp4,21,,,,,,,,,,,,,0,77,77,77,,,,,,,,,,,,,,,,,1984.267211299999,1985.3583187999993,,,,,,,,,1989.7617405,1989.7617405,1989.7617405,1989.7617405,1989.7617405,1989.7617405,1989.7617405,1989.7617405,None,None,None,,,,,,,,,,,1975.9432605999991,1975.9432605999991,None,,1980.6416904999987,1985.3583187999993,1985.3583187999993,1985.3583187999993,1985.3583187999993,n,4.359374699997716,1975.9432605999991,1975.9432605999991,,,,21,001,2024-07-31_15h05.46.183,robot_sternberg_sign,2022.2.5,60.01460755579563,
"['R_Arm_Y_Back', 'L_Arm_Y_For']",False,R_Base_Z_Back,2,robot,3,False,False,"['robot_stimuli\\R_Arm_Y_Back.mp4', 'robot_stimuli\\L_Arm_Y_For.mp4']",robot_stimuli\R_Base_Z_Back.mp4,21,,,,,,,,,,,,,0,78,78,78,,,,,,,,,,,,,,,,,1998.1873834999988,1999.2751482000003,,,,,,,,,2003.1207956000017,2003.1207956000017,2003.1207956000017,2003.1207956000017,2003.1207956000017,2003.1207956000017,2003.1207956000017,2003.1207956000017,None,None,None,,,,,,,,,,,1989.7617405,1989.7617405,None,,1994.5580448000019,1999.2751482000003,1999.2751482000003,1999.2751482000003,1999.2751482000003,n,3.8195613999996567,1989.7617405,1989.7617405,,,,21,001,2024-07-31_15h05.46.183,robot_sternberg_sign,2022.2.5,60.01460755579563,
"['L_Head_Y_Back', 'R_Arm_Y_Back']",True,R_Arm_Y_Back,2,robot,3,False,True,"['robot_stimuli\\L_Head_Y_Back.mp4', 'robot_stimuli\\R_Arm_Y_Back.mp4']",robot_stimuli\R_Arm_Y_Back.mp4,21,,,,,,,,,,,,,0,79,79,79,,,,,,,,,,,,,,,,,2011.586341100001,2012.6761037999986,,,,,,,,,2016.3570167999987,2021.0502069000013,2016.3570167999987,2021.0502069000013,2016.3570167999987,2021.0502069000013,2016.3570167999987,2021.0502069000013,71.04938271604938,3.698515000000043,space,,,4.632559199999378,,,,,,,,2003.1207956000017,2003.1207956000017,None,,2007.9590279999993,2012.6761037999986,2012.6761037999986,2012.6761037999986,2012.6761037999986,c,2.90509629999724,2003.1207956000017,2003.1207956000017,,,,21,001,2024-07-31_15h05.46.183,robot_sternberg_sign,2022.2.5,60.01460755579563,
"['L_Base_X_Back', 'R_Base_Y_Back', 'R_Torso_X_For', 'L_Arm_Y_For', 'L_Arm_X_Back', 'L_Base_Z_Back']",False,R_Head_Y_Back,6,robot,3,True,False,"['robot_stimuli\\L_Base_X_Back.mp4', 'robot_stimuli\\R_Base_Y_Back.mp4', 'robot_stimuli\\R_Torso_X_For.mp4', 'robot_stimuli\\L_Arm_Y_For.mp4', 'robot_stimuli\\L_Arm_X_Back.mp4', 'robot_stimuli\\L_Base_Z_Back.mp4']",robot_stimuli\R_Head_Y_Back.mp4,21,,,,,,,,,,,,,0,80,80,80,,,,,,,,,,,,,,,,,2050.2749028000017,2051.3709910999987,,,,,,,,,2055.009264800001,2055.009264800001,2055.009264800001,2055.009264800001,2055.009264800001,2055.009264800001,2055.009264800001,2055.009264800001,None,None,None,,,,,,,,,,,2021.0502069000013,2021.0502069000013,space,5.906422299998667,2046.6408175999986,2051.3709910999987,2051.3709910999987,2051.3709910999987,2051.3709910999987,c,3.55471789999865,,,,,,21,001,2024-07-31_15h05.46.183,robot_sternberg_sign,2022.2.5,60.01460755579563,
"['L_Head_Y_For', 'R_Torso_Z_For', 'R_Base_Z_Back', 'L_Base_Y_For', 'L_Base_X_For', 'R_Arm_Z_For']",True,R_Base_Z_Back,6,robot,3,False,False,"['robot_stimuli\\L_Head_Y_For.mp4', 'robot_stimuli\\R_Torso_Z_For.mp4', 'robot_stimuli\\R_Base_Z_Back.mp4', 'robot_stimuli\\L_Base_Y_For.mp4', 'robot_stimuli\\L_Base_X_For.mp4', 'robot_stimuli\\R_Arm_Z_For.mp4']",robot_stimuli\R_Base_Z_Back.mp4,21,,,,,,,,,,,,,0,81,81,81,,,,,,,,,,,,,,,,,2078.0634999999984,2056.086623199999,,,,,,,,,2082.6938089999985,2082.6938089999985,2082.6938089999985,2082.6938089999985,2082.6938089999985,2082.6938089999985,2082.6938089999985,2082.6938089999985,None,None,None,,,,,,,,,,,2055.009264800001,2055.009264800001,None,,2074.4366658000017,2079.1575313999983,2079.1575313999983,2079.1575313999983,2079.1575313999983,c,3.0161464999982854,2055.009264800001,2055.009264800001,,,,21,001,2024-07-31_15h05.46.183,robot_sternberg_sign,2022.2.5,60.01460755579563,
"['L_Arm_Z_Back', 'L_Head_X_Back', 'R_Torso_Z_For', 'R_Torso_Y_For', 'L_Torso_X_Back', 'R_Arm_Y_Back']",True,L_Torso_X_Back,6,robot,3,False,False,"['robot_stimuli\\L_Arm_Z_Back.mp4', 'robot_stimuli\\L_Head_X_Back.mp4', 'robot_stimuli\\R_Torso_Z_For.mp4', 'robot_stimuli\\R_Torso_Y_For.mp4', 'robot_stimuli\\L_Torso_X_Back.mp4', 'robot_stimuli\\R_Arm_Y_Back.mp4']",robot_stimuli\L_Torso_X_Back.mp4,21,,,,,,,,,,,,,0,82,82,82,,,,,,,,,,,,,,,,,2106.0549254000016,2107.1447117000007,,,,,,,,,2110.791669799999,2110.791669799999,2110.791669799999,2110.791669799999,2110.791669799999,2110.791669799999,2110.791669799999,2110.791669799999,None,None,None,,,,,,,,,,,2082.6938089999985,2082.6938089999985,None,,2102.413369600001,2107.1447117000007,2107.1447117000007,2107.1447117000007,2107.1447117000007,c,2.44438469999659,2082.6938089999985,2082.6938089999985,,,,21,001,2024-07-31_15h05.46.183,robot_sternberg_sign,2022.2.5,60.01460755579563,
"['R_Arm_X_Back', 'R_Base_Y_For', 'L_Base_X_For', 'L_Base_Y_Back', 'L_Arm_Z_Back', 'L_Torso_Y_For']",False,L_Head_X_For,6,robot,3,False,False,"['robot_stimuli\\R_Arm_X_Back.mp4', 'robot_stimuli\\R_Base_Y_For.mp4', 'robot_stimuli\\L_Base_X_For.mp4', 'robot_stimuli\\L_Base_Y_Back.mp4', 'robot_stimuli\\L_Arm_Z_Back.mp4', 'robot_stimuli\\L_Torso_Y_For.mp4']",robot_stimuli\L_Head_X_For.mp4,21,,,,,,,,,,,,,0,83,83,83,,,,,,,,,,,,,,,,,2134.0021488,2135.0899972999996,,,,,,,,,2138.6602619999994,2138.6602619999994,2138.6602619999994,2138.6602619999994,2138.6602619999994,2138.6602619999994,2138.6602619999994,2138.6602619999994,None,None,None,,,,,,,,,,,2110.791669799999,2110.791669799999,None,,2130.372392200001,2135.0899972999996,2135.0899972999996,2135.0899972999996,2135.0899972999996,n,3.3874740000028396,2110.791669799999,2110.791669799999,,,,21,001,2024-07-31_15h05.46.183,robot_sternberg_sign,2022.2.5,60.01460755579563,
"['L_Torso_Y_For', 'L_Head_Y_Back', 'R_Base_X_Back', 'R_Arm_X_Back', 'R_Base_Y_For', 'L_Base_X_Back']",True,L_Torso_Y_For,6,robot,3,False,False,"['robot_stimuli\\L_Torso_Y_For.mp4', 'robot_stimuli\\L_Head_Y_Back.mp4', 'robot_stimuli\\R_Base_X_Back.mp4', 'robot_stimuli\\R_Arm_X_Back.mp4', 'robot_stimuli\\R_Base_Y_For.mp4', 'robot_stimuli\\L_Base_X_Back.mp4']",robot_stimuli\L_Torso_Y_For.mp4,21,,,,,,,,,,,,,0,84,84,84,,,,,,,,,,,,,,,,,2161.9548258999985,2163.044775799999,,,,,,,,,2166.6908243000016,2166.6908243000016,2166.6908243000016,2166.6908243000016,2166.6908243000016,2166.6908243000016,2166.6908243000016,2166.6908243000016,None,None,None,,,,,,,,,,,2138.6602619999994,2138.6602619999994,None,,2158.3405691999997,2163.044775799999,2163.044775799999,2163.044775799999,2163.044775799999,c,2.9600165000010747,2138.6602619999994,2138.6602619999994,,,,21,001,2024-07-31_15h05.46.183,robot_sternberg_sign,2022.2.5,60.01460755579563,
"['L_Torso_Z_Back', 'R_Torso_X_For', 'R_Torso_Y_For', 'R_Arm_X_Back', 'R_Torso_Z_For', 'L_Arm_X_For']",True,L_Arm_X_For,6,robot,3,False,False,"['robot_stimuli\\L_Torso_Z_Back.mp4', 'robot_stimuli\\R_Torso_X_For.mp4', 'robot_stimuli\\R_Torso_Y_For.mp4', 'robot_stimuli\\R_Arm_X_Back.mp4', 'robot_stimuli\\R_Torso_Z_For.mp4', 'robot_stimuli\\L_Arm_X_For.mp4']",robot_stimuli\L_Arm_X_For.mp4,21,,,,,,,,,,,,,0,85,85,85,,,,,,,,,,,,,,,,,2189.871577600001,2190.955910499999,,,,,,,,,2194.595306000001,2194.595306000001,2194.595306000001,2194.595306000001,2194.595306000001,2194.595306000001,2194.595306000001,2194.595306000001,None,None,None,,,,,,,,,,,2166.6908243000016,2166.6908243000016,None,,2186.2296687,2190.955910499999,2190.955910499999,2190.955910499999,2190.955910499999,c,3.322443299999577,2166.6908243000016,2166.6908243000016,,,,21,001,2024-07-31_15h05.46.183,robot_sternberg_sign,2022.2.5,60.01460755579563,
"['L_Torso_X_For', 'L_Torso_X_Back', 'R_Torso_X_Back', 'R_Base_X_Back', 'R_Arm_Z_For', 'L_Base_Z_For']",False,R_Head_Z_Back,6,robot,3,False,False,"['robot_stimuli\\L_Torso_X_For.mp4', 'robot_stimuli\\L_Torso_X_Back.mp4', 'robot_stimuli\\R_Torso_X_Back.mp4', 'robot_stimuli\\R_Base_X_Back.mp4', 'robot_stimuli\\R_Arm_Z_For.mp4', 'robot_stimuli\\L_Base_Z_For.mp4']",robot_stimuli\R_Head_Z_Back.mp4,21,,,,,,,,,,,,,0,86,86,86,,,,,,,,,,,,,,,,,2217.9157103000016,2219.0107568000003,,,,,,,,,2222.6610262000013,2222.6610262000013,2222.6610262000013,2222.6610262000013,2222.6610262000013,2222.6610262000013,2222.6610262000013,2222.6610262000013,None,None,None,,,,,,,,,,,2194.595306000001,2194.595306000001,None,,2214.275251000001,2219.0107568000003,2219.0107568000003,2219.0107568000003,2219.0107568000003,n,2.7223793999983172,2194.595306000001,2194.595306000001,,,,21,001,2024-07-31_15h05.46.183,robot_sternberg_sign,2022.2.5,60.01460755579563,
"['R_Arm_X_Back', 'L_Arm_X_Back', 'L_Arm_X_For', 'L_Base_Z_Back', 'L_Arm_Z_Back', 'L_Head_Z_For']",False,L_Head_Y_For,6,robot,3,False,False,"['robot_stimuli\\R_Arm_X_Back.mp4', 'robot_stimuli\\L_Arm_X_Back.mp4', 'robot_stimuli\\L_Arm_X_For.mp4', 'robot_stimuli\\L_Base_Z_Back.mp4', 'robot_stimuli\\L_Arm_Z_Back.mp4', 'robot_stimuli\\L_Head_Z_For.mp4']",robot_stimuli\L_Head_Y_For.mp4,21,,,,,,,,,,,,,0,87,87,87,,,,,,,,,,,,,,,,,2246.0328205999995,2247.1252888,,,,,,,,,2250.770800299999,2250.770800299999,2250.770800299999,2250.770800299999,2250.770800299999,2250.770800299999,2250.770800299999,2250.770800299999,None,None,None,,,,,,,,,,,2222.6610262000013,2222.6610262000013,None,,2242.3924438999984,2247.1252888,2247.1252888,2247.1252888,2247.1252888,c,2.6642467999990913,2222.6610262000013,2222.6610262000013,,,,21,001,2024-07-31_15h05.46.183,robot_sternberg_sign,2022.2.5,60.01460755579563,
"['L_Head_Z_Back', 'L_Arm_X_Back', 'R_Torso_Y_For', 'R_Arm_X_For', 'L_Head_Z_For', 'L_Arm_Z_Back']",True,R_Torso_Y_For,6,robot,3,False,False,"['robot_stimuli\\L_Head_Z_Back.mp4', 'robot_stimuli\\L_Arm_X_Back.mp4', 'robot_stimuli\\R_Torso_Y_For.mp4', 'robot_stimuli\\R_Arm_X_For.mp4', 'robot_stimuli\\L_Head_Z_For.mp4', 'robot_stimuli\\L_Arm_Z_Back.mp4']",robot_stimuli\R_Torso_Y_For.mp4,21,,,,,,,,,,,,,0,88,88,88,,,,,,,,,,,,,,,,,2274.099688600001,2275.1949796999997,,,,,,,,,2278.840822,2278.840822,2278.840822,2278.840822,2278.840822,2278.840822,2278.840822,2278.840822,None,None,None,,,,,,,,,,,2250.770800299999,2250.770800299999,None,,2270.4720523999986,2275.1949796999997,2275.1949796999997,2275.1949796999997,2275.1949796999997,c,1.9789672999977483,2250.770800299999,2250.770800299999,,,,21,001,2024-07-31_15h05.46.183,robot_sternberg_sign,2022.2.5,60.01460755579563,
"['R_Arm_Y_Back', 'R_Base_Z_Back', 'L_Head_Y_For', 'R_Arm_X_For', 'R_Base_X_Back', 'L_Torso_Y_For']",False,R_Arm_Z_Back,6,robot,3,False,True,"['robot_stimuli\\R_Arm_Y_Back.mp4', 'robot_stimuli\\R_Base_Z_Back.mp4', 'robot_stimuli\\L_Head_Y_For.mp4', 'robot_stimuli\\R_Arm_X_For.mp4', 'robot_stimuli\\R_Base_X_Back.mp4', 'robot_stimuli\\L_Torso_Y_For.mp4']",robot_stimuli\R_Arm_Z_Back.mp4,21,,,,,,,,,,,,,0,89,89,89,,,,,,,,,,,,,,,,,2302.083130000001,2303.1789936000005,,,,,,,,,2306.8624063000007,2311.8995406000013,2306.8624063000007,2311.8995406000013,2306.8624063000007,2311.8995406000013,2306.8624063000007,2311.8995406000013,113.0246913580247,3.341976200001227,space,,,4.967424299997219,,,,,,,,2278.840822,2278.840822,None,,2298.4455875000003,2303.1789936000005,2303.1789936000005,2303.1789936000005,2303.1789936000005,c,2.233699300002627,2278.840822,2278.840822,,,,21,001,2024-07-31_15h05.46.183,robot_sternberg_sign,2022.2.5,60.01460755579563,
"['V', 'W']",True,W,2,letter,4,True,False,"['robot_stimuli\\\\filler.mp4', 'robot_stimuli\\\\filler.mp4']",robot_stimuli\\filler.mp4,21,,,,,,,,,,,,,0,90,90,90,,,,,,,,,,,,,,,,,2320.0505496999995,2321.1168142000006,,,,,,,,,2322.1486618,2322.1486618,2322.1486618,2322.1486618,2322.1486618,2322.1486618,2322.1486618,2322.1486618,None,None,None,,,,,,,,,,,2311.8995406000013,2311.8995406000013,space,2.7618852999985393,,,2321.1168142000006,2321.1168142000006,2321.1168142000006,c,0.8331479000007675,,,2318.0425352,2320.0505496999995,2321.1168142000006,21,001,2024-07-31_15h05.46.183,robot_sternberg_sign,2022.2.5,60.01460755579563,
"['V', 'D']",False,N,2,letter,4,False,False,"['robot_stimuli\\\\filler.mp4', 'robot_stimuli\\\\filler.mp4']",robot_stimuli\\filler.mp4,21,,,,,,,,,,,,,0,91,91,91,,,,,,,,,,,,,,,,,2327.5241351999994,2328.5853418999995,,,,,,,,,2329.8113501999997,2329.8113501999997,2329.8113501999997,2329.8113501999997,2329.8113501999997,2329.8113501999997,2329.8113501999997,2329.8113501999997,None,None,None,,,,,,,,,,,2322.1486618,2322.1486618,None,,,,2328.5853418999995,2328.5853418999995,2328.5853418999995,n,0.9879349999973783,2322.1486618,2322.1486618,2325.316012199999,2327.5241351999994,2328.5853418999995,21,001,2024-07-31_15h05.46.183,robot_sternberg_sign,2022.2.5,60.01460755579563,
"['V', 'F']",True,F,2,letter,4,False,False,"['robot_stimuli\\\\filler.mp4', 'robot_stimuli\\\\filler.mp4']",robot_stimuli\\filler.mp4,21,,,,,,,,,,,,,0,92,92,92,,,,,,,,,,,,,,,,,2335.381055,2330.8673091,,,,,,,,,2337.4792214999998,2337.4792214999998,2337.4792214999998,2337.4792214999998,2337.4792214999998,2337.4792214999998,2337.4792214999998,2337.4792214999998,None,None,None,,,,,,,,,,,2329.8113501999997,2329.8113501999997,None,,,,2336.451332400002,2336.451332400002,2336.451332400002,c,0.9292409999980009,2329.8113501999997,2329.8113501999997,2333.165816999999,2335.381055,2336.451332400002,21,001,2024-07-31_15h05.46.183,robot_sternberg_sign,2022.2.5,60.01460755579563,
"['R', 'L']",True,L,2,letter,4,False,False,"['robot_stimuli\\\\filler.mp4', 'robot_stimuli\\\\filler.mp4']",robot_stimuli\\filler.mp4,21,,,,,,,,,,,,,0,93,93,93,,,,,,,,,,,,,,,,,2342.850767599999,2343.9174202999984,,,,,,,,,2344.9417823999993,2344.9417823999993,2344.9417823999993,2344.9417823999993,2344.9417823999993,2344.9417823999993,2344.9417823999993,2344.9417823999993,None,None,None,,,,,,,,,,,2337.4792214999998,2337.4792214999998,None,,,,2343.9174202999984,2343.9174202999984,2343.9174202999984,c,0.7919425999971281,2337.4792214999998,2337.4792214999998,2340.633110500001,2342.850767599999,2343.9174202999984,21,001,2024-07-31_15h05.46.183,robot_sternberg_sign,2022.2.5,60.01460755579563,
"['D', 'C']",True,C,2,letter,4,False,False,"['robot_stimuli\\\\filler.mp4', 'robot_stimuli\\\\filler.mp4']",robot_stimuli\\filler.mp4,21,,,,,,,,,,,,,0,94,94,94,,,,,,,,,,,,,,,,,2350.3140110000004,2346.001392100001,,,,,,,,,2352.6052817,2352.6052817,2352.6052817,2352.6052817,2352.6052817,2352.6052817,2352.6052817,2352.6052817,None,None,None,,,,,,,,,,,2344.9417823999993,2344.9417823999993,None,,,,2351.386893000001,2351.386893000001,2351.386893000001,c,1.0662766000023112,2344.9417823999993,2344.9417823999993,2348.0979026000005,2350.3140110000004,2351.386893000001,21,001,2024-07-31_15h05.46.183,robot_sternberg_sign,2022.2.5,60.01460755579563,
"['S', 'Z']",False,X,2,letter,4,False,False,"['robot_stimuli\\\\filler.mp4', 'robot_stimuli\\\\filler.mp4']",robot_stimuli\\filler.mp4,21,,,,,,,,,,,,,0,95,95,95,,,,,,,,,,,,,,,,,2357.974437499999,2359.0343238000005,,,,,,,,,2360.266415600001,2360.266415600001,2360.266415600001,2360.266415600001,2360.266415600001,2360.266415600001,2360.266415600001,2360.266415600001,None,None,None,,,,,,,,,,,2352.6052817,2352.6052817,None,,,,2359.0343238000005,2359.0343238000005,2359.0343238000005,n,1.1143139999985578,2352.6052817,2352.6052817,2355.9545084,2357.974437499999,2359.0343238000005,21,001,2024-07-31_15h05.46.183,robot_sternberg_sign,2022.2.5,60.01460755579563,
"['Z', 'T']",False,N,2,letter,4,False,False,"['robot_stimuli\\\\filler.mp4', 'robot_stimuli\\\\filler.mp4']",robot_stimuli\\filler.mp4,21,,,,,,,,,,,,,0,96,96,96,,,,,,,,,,,,,,,,,2365.6521435999985,2366.7201355000016,,,,,,,,,2367.943681300001,2367.943681300001,2367.943681300001,2367.943681300001,2367.943681300001,2367.943681300001,2367.943681300001,2367.943681300001,None,None,None,,,,,,,,,,,2360.266415600001,2360.266415600001,None,,,,2366.7201355000016,2366.7201355000016,2366.7201355000016,n,0.9973701000017172,2360.266415600001,2360.266415600001,2363.4357427999985,2365.6521435999985,2366.7201355000016,21,001,2024-07-31_15h05.46.183,robot_sternberg_sign,2022.2.5,60.01460755579563,
"['M', 'H']",False,T,2,letter,4,False,False,"['robot_stimuli\\\\filler.mp4', 'robot_stimuli\\\\filler.mp4']",robot_stimuli\\filler.mp4,21,,,,,,,,,,,,,0,97,97,97,,,,,,,,,,,,,,,,,2373.3102025999997,2374.367188800001,,,,,,,,,2377.7930576000017,2377.7930576000017,2377.7930576000017,2377.7930576000017,2377.7930576000017,2377.7930576000017,2377.7930576000017,2377.7930576000017,None,None,None,,,,,,,,,,,2367.943681300001,2367.943681300001,None,,,,2374.367188800001,2374.367188800001,2374.367188800001,n,3.3666893999979948,2367.943681300001,2367.943681300001,2371.2928033000007,2373.3102025999997,2374.367188800001,21,001,2024-07-31_15h05.46.183,robot_sternberg_sign,2022.2.5,60.01460755579563,
"['T', 'X']",False,C,2,letter,4,False,False,"['robot_stimuli\\\\filler.mp4', 'robot_stimuli\\\\filler.mp4']",robot_stimuli\\filler.mp4,21,,,,,,,,,,,,,0,98,98,98,,,,,,,,,,,,,,,,,2383.169033,2384.2335199999998,,,,,,,,,2385.055291400002,2385.055291400002,2385.055291400002,2385.055291400002,2385.055291400002,2385.055291400002,2385.055291400002,2385.055291400002,None,None,None,,,,,,,,,,,2377.7930576000017,2377.7930576000017,None,,,,2384.2335199999998,2384.2335199999998,2384.2335199999998,n,0.7401074000008521,2377.7930576000017,2377.7930576000017,2380.9555143999987,2383.169033,2384.2335199999998,21,001,2024-07-31_15h05.46.183,robot_sternberg_sign,2022.2.5,60.01460755579563,
"['K', 'V']",True,V,2,letter,4,False,True,"['robot_stimuli\\\\filler.mp4', 'robot_stimuli\\\\filler.mp4']",robot_stimuli\\filler.mp4,21,,,,,,,,,,,,,0,99,99,99,,,,,,,,,,,,,,,,,2390.2349835000005,2391.3052718000017,,,,,,,,,2392.5624264000016,2396.6147091000003,2392.5624264000016,2396.6147091000003,2392.5624264000016,2396.6147091000003,2392.5624264000016,2396.6147091000003,36.48148148148148,3.56520509999973,space,,,3.9868234999994456,,,,,,,,2385.055291400002,2385.055291400002,None,,,,2391.3052718000017,2391.3052718000017,2391.3052718000017,c,1.1802160000006552,2385.055291400002,2385.055291400002,2388.2245361000005,2390.2349835000005,2391.3052718000017,21,001,2024-07-31_15h05.46.183,robot_sternberg_sign,2022.2.5,60.01460755579563,
"['C', 'V', 'M', 'Z', 'J', 'X']",False,W,6,letter,4,True,False,"['robot_stimuli\\\\filler.mp4', 'robot_stimuli\\\\filler.mp4', 'robot_stimuli\\\\filler.mp4', 'robot_stimuli\\\\filler.mp4', 'robot_stimuli\\\\filler.mp4', 'robot_stimuli\\\\filler.mp4']",robot_stimuli\\filler.mp4,21,,,,,,,,,,,,,0,100,100,100,,,,,,,,,,,,,,,,,2412.6982649,2399.6200811,,,,,,,,,2414.791168900001,2414.791168900001,2414.791168900001,2414.791168900001,2414.791168900001,2414.791168900001,2414.791168900001,2414.791168900001,None,None,None,,,,,,,,,,,2396.6147091000003,2396.6147091000003,space,1.9183144999988144,,,2413.767449699999,2413.767449699999,2413.767449699999,n,0.9500036999997974,,,2410.4836540000015,2412.6982649,2413.767449699999,21,001,2024-07-31_15h05.46.183,robot_sternberg_sign,2022.2.5,60.01460755579563,
"['T', 'W', 'L', 'K', 'S', 'J']",False,Q,6,letter,4,False,False,"['robot_stimuli\\\\filler.mp4', 'robot_stimuli\\\\filler.mp4', 'robot_stimuli\\\\filler.mp4', 'robot_stimuli\\\\filler.mp4', 'robot_stimuli\\\\filler.mp4', 'robot_stimuli\\\\filler.mp4']",robot_stimuli\\filler.mp4,21,,,,,,,,,,,,,0,101,101,101,,,,,,,,,,,,,,,,,2428.7286506,2429.7893362000013,,,,,,,,,2431.4215773000014,2431.4215773000014,2431.4215773000014,2431.4215773000014,2431.4215773000014,2431.4215773000014,2431.4215773000014,2431.4215773000014,None,None,None,,,,,,,,,,,2414.791168900001,2414.791168900001,None,,,,2429.7893362000013,2429.7893362000013,2429.7893362000013,n,1.4720954000003985,2414.791168900001,2414.791168900001,2426.704971199999,2428.7286506,2429.7893362000013,21,001,2024-07-31_15h05.46.183,robot_sternberg_sign,2022.2.5,60.01460755579563,
"['W', 'C', 'T', 'G', 'X', 'L']",True,L,6,letter,4,False,False,"['robot_stimuli\\\\filler.mp4', 'robot_stimuli\\\\filler.mp4', 'robot_stimuli\\\\filler.mp4', 'robot_stimuli\\\\filler.mp4', 'robot_stimuli\\\\filler.mp4', 'robot_stimuli\\\\filler.mp4']",robot_stimuli\\filler.mp4,21,,,,,,,,,,,,,0,102,102,102,,,,,,,,,,,,,,,,,2445.5737409999983,2446.633536800002,,,,,,,,,2450.0631545999986,2450.0631545999986,2450.0631545999986,2450.0631545999986,2450.0631545999986,2450.0631545999986,2450.0631545999986,2450.0631545999986,None,None,None,,,,,,,,,,,2431.4215773000014,2431.4215773000014,None,,,,2446.633536800002,2446.633536800002,2446.633536800002,c,3.3250985000013316,2431.4215773000014,2431.4215773000014,2443.5614842000014,2445.5737409999983,2446.633536800002,21,001,2024-07-31_15h05.46.183,robot_sternberg_sign,2022.2.5,60.01460755579563,
"['Z', 'R', 'M', 'N', 'T', 'D']",True,D,6,letter,4,False,False,"['robot_stimuli\\\\filler.mp4', 'robot_stimuli\\\\filler.mp4', 'robot_stimuli\\\\filler.mp4', 'robot_stimuli\\\\filler.mp4', 'robot_stimuli\\\\filler.mp4', 'robot_stimuli\\\\filler.mp4']",robot_stimuli\\filler.mp4,21,,,,,,,,,,,,,0,103,103,103,,,,,,,,,,,,,,,,,2463.9902494,2465.051097900001,,,,,,,,,2466.0762798000014,2466.0762798000014,2466.0762798000014,2466.0762798000014,2466.0762798000014,2466.0762798000014,2466.0762798000014,2466.0762798000014,None,None,None,,,,,,,,,,,2450.0631545999986,2450.0631545999986,None,,,,2465.051097900001,2465.051097900001,2465.051097900001,c,0.8348855999975058,2450.0631545999986,2450.0631545999986,2461.9725740999984,2463.9902494,2465.051097900001,21,001,2024-07-31_15h05.46.183,robot_sternberg_sign,2022.2.5,60.01460755579563,
"['L', 'S', 'X', 'D', 'Q', 'R']",True,D,6,letter,4,False,False,"['robot_stimuli\\\\filler.mp4', 'robot_stimuli\\\\filler.mp4', 'robot_stimuli\\\\filler.mp4', 'robot_stimuli\\\\filler.mp4', 'robot_stimuli\\\\filler.mp4', 'robot_stimuli\\\\filler.mp4']",robot_stimuli\\filler.mp4,21,,,,,,,,,,,,,0,104,104,104,,,,,,,,,,,,,,,,,2480.007083800001,2481.066527600002,,,,,,,,,2482.4961042000014,2482.4961042000014,2482.4961042000014,2482.4961042000014,2482.4961042000014,2482.4961042000014,2482.4961042000014,2482.4961042000014,None,None,None,,,,,,,,,,,2466.0762798000014,2466.0762798000014,None,,,,2481.066527600002,2481.066527600002,2481.066527600002,c,1.2348386999983632,2466.0762798000014,2466.0762798000014,2477.991881600001,2480.007083800001,2481.066527600002,21,001,2024-07-31_15h05.46.183,robot_sternberg_sign,2022.2.5,60.01460755579563,
