sequence,is_true,target,condition,stimuli,block,is_block_beginning,is_block_ending,sequence_fnames,target_fname,subject,retraining.thisRepN,retraining.thisTrialN,retraining.thisN,retraining.thisIndex,training.thisRepN,training.thisTrialN,training.thisN,training.thisIndex,training_sequence_loop.thisRepN,training_sequence_loop.thisTrialN,training_sequence_loop.thisN,training_sequence_loop.thisIndex,trials.thisRepN,trials.thisTrialN,trials.thisN,trials.thisIndex,sequence_loop.thisRepN,sequence_loop.thisTrialN,sequence_loop.thisN,sequence_loop.thisIndex,langage_text.started,langage_key.started,langage_key.keys,langage_key.rt,intro_text.started,intro_key.started,intro_key.keys,intro_key.rt,training_intro_text.started,training_intro_key.started,training_intro_key.keys,training_intro_key.rt,polygon.started,polygon.stopped,training_presentation_letter.started,training_presentation_letter.stopped,training_recall_letter.started,training_recall_key.started,training_recall_question.started,training_recall_answer.started,training_recall_key.keys,training_recall_key.rt,RSME_labels.started,RSME_labels.stopped,RSME_ticks.started,RSME_ticks.stopped,RSME_text.started,RSME_text.stopped,RSME_key.started,RSME_key.stopped,RSME_ticks.response,RSME_ticks.rt,RSME_key.keys,training_intro_text.stopped,training_intro_key.stopped,RSME_key.rt,training_presentation_movie.started,training_recall_movie.started,experiment_beginning_text.started,experiment_beginning_keys.started,experiment_beginning_key.started,experiment_beginning_key.keys,experiment_beginning_key.rt,block_intro_text.started,block_intro_key.started,block_intro_key.keys,block_intro_key.rt,presentation_letter.started,presentation_letter.stopped,recall_letter.started,recall_key.started,recall_question.started,recall_answer.started,recall_key.keys,recall_key.rt,block_intro_text.stopped,block_intro_key.stopped,presentation_movie.started,recall_movie.started,participant,session,date,expName,psychopyVersion,frameRate,
,,,,,,,,,,,,,,,,,,,,,,,,,,,,,,,16.721538399999986,16.721538399999986,f,1.1789055000000417,,,,,,,,,,,,,,,,,,,,,,,,,,,,,,,,,,,,,,,,,,,,,,,,,,,,,,,,4,001,2024-06-27_14h11.15.725,robot_sternberg_sign,2022.2.5,59.916117435570385,
,,,,,,,,,,,,,,,,,,,,,,,,,,,,,,,,,,,17.960104,17.960104,space,35.370873500000016,,,,,,,,,,,,,,,,,,,,,,,,,,,,,,,,,,,,,,,,,,,,,,,,,,,,4,001,2024-06-27_14h11.15.725,robot_sternberg_sign,2022.2.5,59.916117435570385,
"['J', 'D']",True,D,2,letter,1,True,False,"['robot_stimuli\\\\filler.mp4', 'robot_stimuli\\\\filler.mp4']",robot_stimuli\\filler.mp4,4,0,0,0,0,0,0,0,0,,,,,,,,,,,,,,,,,,,,,53.370013799999924,53.370013799999924,space,4.392955100000108,63.59854789999997,64.69793269999991,61.582932599999936,63.59854789999997,64.69793269999991,64.69793269999991,64.69793269999991,64.69793269999991,c,1.6902198000000226,66.61283779999997,66.61283779999997,66.61283779999997,66.61283779999997,66.61283779999997,66.61283779999997,66.61283779999997,66.61283779999997,None,None,None,,,,,,,,,,,,,,,,,,,,,,,,,,,4,001,2024-06-27_14h11.15.725,robot_sternberg_sign,2022.2.5,59.916117435570385,
"['C', 'R']",True,C,2,letter,1,False,False,"['robot_stimuli\\\\filler.mp4', 'robot_stimuli\\\\filler.mp4']",robot_stimuli\\filler.mp4,4,0,0,0,0,0,1,1,1,,,,,,,,,,,,,,,,,,,,,66.61283779999997,66.61283779999997,None,,72.0130289,73.09040379999999,70.00004679999995,72.0130289,73.09040379999999,73.09040379999999,73.09040379999999,73.09040379999999,c,0.8979270000000952,74.12016369999992,74.12016369999992,74.12016369999992,74.12016369999992,74.12016369999992,74.12016369999992,74.12016369999992,74.12016369999992,None,None,None,66.61283779999997,66.61283779999997,,,,,,,,,,,,,,,,,,,,,,,,,4,001,2024-06-27_14h11.15.725,robot_sternberg_sign,2022.2.5,59.916117435570385,
"['M', 'C']",False,P,2,letter,1,False,True,"['robot_stimuli\\\\filler.mp4', 'robot_stimuli\\\\filler.mp4']",robot_stimuli\\filler.mp4,4,0,0,0,0,0,2,2,2,,,,,,,,,,,,,,,,,,,,,74.12016369999992,74.12016369999992,None,,79.5200873,80.5876649999999,77.4967418,79.5200873,80.5876649999999,80.5876649999999,80.5876649999999,80.5876649999999,n,1.58357060000003,82.47803519999991,88.07494489999999,82.47803519999991,88.07494489999999,82.47803519999991,88.07494489999999,82.47803519999991,88.07494489999999,1.759259259259252,3.6175468000000137,space,74.12016369999992,74.12016369999992,5.518724499999962,,,,,,,,,,,,,,,,,,,,,,,,4,001,2024-06-27_14h11.15.725,robot_sternberg_sign,2022.2.5,59.916117435570385,
"['H', 'B', 'J', 'V']",True,J,4,letter,1,True,False,"['robot_stimuli\\\\filler.mp4', 'robot_stimuli\\\\filler.mp4', 'robot_stimuli\\\\filler.mp4', 'robot_stimuli\\\\filler.mp4']",robot_stimuli\\filler.mp4,4,0,0,0,0,0,3,3,3,,,,,,,,,,,,,,,,,,,,,88.07494489999999,88.07494489999999,space,11.593692500000088,109.48677150000003,110.55195929999991,107.46592009999995,109.48677150000003,110.55195929999991,110.55195929999991,110.55195929999991,110.55195929999991,c,0.8514209000001074,111.58106469999984,111.58106469999984,111.58106469999984,111.58106469999984,111.58106469999984,111.58106469999984,111.58106469999984,111.58106469999984,None,None,None,,,,,,,,,,,,,,,,,,,,,,,,,,,4,001,2024-06-27_14h11.15.725,robot_sternberg_sign,2022.2.5,59.916117435570385,
"['S', 'K', 'C', 'T']",True,K,4,letter,1,False,False,"['robot_stimuli\\\\filler.mp4', 'robot_stimuli\\\\filler.mp4', 'robot_stimuli\\\\filler.mp4', 'robot_stimuli\\\\filler.mp4']",robot_stimuli\\filler.mp4,4,0,0,0,0,0,4,4,4,,,,,,,,,,,,,,,,,,,,,111.58106469999984,111.58106469999984,None,,121.37875229999986,122.45078969999986,119.36247149999986,121.37875229999986,122.45078969999986,122.45078969999986,122.45078969999986,122.45078969999986,c,0.9762733000001163,123.47862740000005,123.47862740000005,123.47862740000005,123.47862740000005,123.47862740000005,123.47862740000005,123.47862740000005,123.47862740000005,None,None,None,111.58106469999984,111.58106469999984,,,,,,,,,,,,,,,,,,,,,,,,,4,001,2024-06-27_14h11.15.725,robot_sternberg_sign,2022.2.5,59.916117435570385,
"['S', 'W', 'Z', 'V']",False,M,4,letter,1,False,True,"['robot_stimuli\\\\filler.mp4', 'robot_stimuli\\\\filler.mp4', 'robot_stimuli\\\\filler.mp4', 'robot_stimuli\\\\filler.mp4']",robot_stimuli\\filler.mp4,4,0,0,0,0,0,5,5,5,,,,,,,,,,,,,,,,,,,,,123.47862740000005,123.47862740000005,None,,133.48082269999986,134.55469440000002,131.2554255,133.48082269999986,134.55469440000002,134.55469440000002,134.55469440000002,134.55469440000002,n,0.8652634999999691,135.61090450000006,138.32354310000005,135.61090450000006,138.32354310000005,135.61090450000006,138.32354310000005,135.61090450000006,138.32354310000005,1.759259259259252,1.6937963999998829,space,123.47862740000005,123.47862740000005,2.656011800000101,,,,,,,,,,,,,,,,,,,,,,,,4,001,2024-06-27_14h11.15.725,robot_sternberg_sign,2022.2.5,59.916117435570385,
"['J', 'X', 'Z', 'Q', 'M', 'C']",False,F,6,letter,1,True,False,"['robot_stimuli\\\\filler.mp4', 'robot_stimuli\\\\filler.mp4', 'robot_stimuli\\\\filler.mp4', 'robot_stimuli\\\\filler.mp4', 'robot_stimuli\\\\filler.mp4', 'robot_stimuli\\\\filler.mp4']",robot_stimuli\\filler.mp4,4,0,0,0,0,0,6,6,6,,,,,,,,,,,,,,,,,,,,,138.32354310000005,138.32354310000005,space,3.248127400000044,155.60947220000003,156.68763579999995,153.58665339999993,155.60947220000003,156.68763579999995,156.68763579999995,156.68763579999995,156.68763579999995,n,1.3087933000000476,158.12106070000004,158.12106070000004,158.12106070000004,158.12106070000004,158.12106070000004,158.12106070000004,158.12106070000004,158.12106070000004,None,None,None,,,,,,,,,,,,,,,,,,,,,,,,,,,4,001,2024-06-27_14h11.15.725,robot_sternberg_sign,2022.2.5,59.916117435570385,
"['N', 'X', 'W', 'P', 'C', 'S']",True,C,6,letter,1,False,False,"['robot_stimuli\\\\filler.mp4', 'robot_stimuli\\\\filler.mp4', 'robot_stimuli\\\\filler.mp4', 'robot_stimuli\\\\filler.mp4', 'robot_stimuli\\\\filler.mp4', 'robot_stimuli\\\\filler.mp4']",robot_stimuli\\filler.mp4,4,0,0,0,0,0,7,7,7,,,,,,,,,,,,,,,,,,,,,158.12106070000004,158.12106070000004,None,,171.6949952,172.7574909,169.67025639999997,171.6949952,172.7574909,172.7574909,172.7574909,172.7574909,c,0.8788530999999011,173.77994509999985,173.77994509999985,173.77994509999985,173.77994509999985,173.77994509999985,173.77994509999985,173.77994509999985,173.77994509999985,None,None,None,158.12106070000004,158.12106070000004,,,,,,,,,,,,,,,,,,,,,,,,,4,001,2024-06-27_14h11.15.725,robot_sternberg_sign,2022.2.5,59.916117435570385,
"['W', 'C', 'G', 'Q', 'N', 'H']",True,W,6,letter,1,False,True,"['robot_stimuli\\\\filler.mp4', 'robot_stimuli\\\\filler.mp4', 'robot_stimuli\\\\filler.mp4', 'robot_stimuli\\\\filler.mp4', 'robot_stimuli\\\\filler.mp4', 'robot_stimuli\\\\filler.mp4']",robot_stimuli\\filler.mp4,4,0,0,0,0,0,8,8,8,,,,,,,,,,,,,,,,,,,,,173.77994509999985,173.77994509999985,None,,187.9180495999999,188.98322989999997,185.90281359999994,187.9180495999999,188.98322989999997,188.98322989999997,188.98322989999997,188.98322989999997,c,1.0530476999998655,190.23744779999993,194.89544709999996,190.23744779999993,194.89544709999996,190.23744779999993,194.89544709999996,190.23744779999993,194.89544709999996,3.4567901234567877,2.4557933000000958,space,173.77994509999985,173.77994509999985,4.6135980000000245,,,,,,,,,,,,,,,,,,,,,,,,4,001,2024-06-27_14h11.15.725,robot_sternberg_sign,2022.2.5,59.916117435570385,
"['L_Arm_X_Back', 'R_Base_X_For']",True,R_Base_X_For,2,robot,2,True,False,"['robot_stimuli\\L_Arm_X_Back.mp4', 'robot_stimuli\\R_Base_X_For.mp4']",robot_stimuli\R_Base_X_For.mp4,4,0,0,0,0,0,9,9,9,,,,,,,,,,,,,,,,,,,,,194.89544709999996,194.89544709999996,space,1.740749300000175,205.0059604999999,197.75054799999998,,,,206.10239899999988,206.10239899999988,206.10239899999988,c,3.1495316000001594,209.65293619999989,209.65293619999989,209.65293619999989,209.65293619999989,209.65293619999989,209.65293619999989,209.65293619999989,209.65293619999989,None,None,None,,,,201.47171159999994,206.10239899999988,,,,,,,,,,,,,,,,,,,,,,4,001,2024-06-27_14h11.15.725,robot_sternberg_sign,2022.2.5,59.916117435570385,
"['R_Torso_Y_Back', 'R_Torso_Z_Back']",False,R_Arm_X_Back,2,robot,2,False,False,"['robot_stimuli\\R_Torso_Y_Back.mp4', 'robot_stimuli\\R_Torso_Z_Back.mp4']",robot_stimuli\R_Arm_X_Back.mp4,4,0,0,0,0,0,10,10,10,,,,,,,,,,,,,,,,,,,,,209.65293619999989,209.65293619999989,None,,218.10534630000006,210.73298320000004,,,,219.20282640000005,219.20282640000005,219.20282640000005,n,2.8419414999999617,222.85665449999988,222.85665449999988,222.85665449999988,222.85665449999988,222.85665449999988,222.85665449999988,222.85665449999988,222.85665449999988,None,None,None,209.65293619999989,209.65293619999989,,214.47384069999998,219.20282640000005,,,,,,,,,,,,,,,,,,,,,,4,001,2024-06-27_14h11.15.725,robot_sternberg_sign,2022.2.5,59.916117435570385,
"['L_Torso_X_Back', 'L_Head_X_Back']",True,L_Torso_X_Back,2,robot,2,False,True,"['robot_stimuli\\L_Torso_X_Back.mp4', 'robot_stimuli\\L_Head_X_Back.mp4']",robot_stimuli\L_Torso_X_Back.mp4,4,0,0,0,0,0,11,11,11,,,,,,,,,,,,,,,,,,,,,222.85665449999988,222.85665449999988,None,,231.34291280000002,232.43662429999995,,,,232.43662429999995,232.43662429999995,232.43662429999995,c,5.302155200000129,237.79150289999984,249.56061999999997,237.79150289999984,249.56061999999997,237.79150289999984,249.56061999999997,237.79150289999984,249.56061999999997,4.537037037037034,3.4548597999998947,space,222.85665449999988,222.85665449999988,11.707951900000012,227.7024853999999,232.43662429999995,,,,,,,,,,,,,,,,,,,,,,4,001,2024-06-27_14h11.15.725,robot_sternberg_sign,2022.2.5,59.916117435570385,
"['L_Arm_X_For', 'L_Head_Y_Back', 'R_Head_Y_For', 'L_Torso_Y_For']",True,R_Head_Y_For,4,robot,2,True,False,"['robot_stimuli\\L_Arm_X_For.mp4', 'robot_stimuli\\L_Head_Y_Back.mp4', 'robot_stimuli\\R_Head_Y_For.mp4', 'robot_stimuli\\L_Torso_Y_For.mp4']",robot_stimuli\R_Head_Y_For.mp4,4,0,0,0,0,0,12,12,12,,,,,,,,,,,,,,,,,,,,,249.56061999999997,249.56061999999997,space,5.6119857000002185,271.15967179999984,272.2447288999999,,,,272.2447288999999,272.2447288999999,272.2447288999999,c,2.919152600000075,275.8859998999999,275.8859998999999,275.8859998999999,275.8859998999999,275.8859998999999,275.8859998999999,275.8859998999999,275.8859998999999,None,None,None,,,,267.5137345999999,272.2447288999999,,,,,,,,,,,,,,,,,,,,,,4,001,2024-06-27_14h11.15.725,robot_sternberg_sign,2022.2.5,59.916117435570385,
"['L_Torso_Z_Back', 'L_Head_Y_For', 'R_Base_Z_Back', 'L_Arm_Y_For']",True,L_Torso_Z_Back,4,robot,2,False,False,"['robot_stimuli\\L_Torso_Z_Back.mp4', 'robot_stimuli\\L_Head_Y_For.mp4', 'robot_stimuli\\R_Base_Z_Back.mp4', 'robot_stimuli\\L_Arm_Y_For.mp4']",robot_stimuli\L_Torso_Z_Back.mp4,4,0,0,0,0,0,13,13,13,,,,,,,,,,,,,,,,,,,,,275.8859998999999,275.8859998999999,None,,291.5584501999999,292.6501005,,,,292.6501005,292.6501005,292.6501005,n,3.8665886000002274,296.54855180000004,296.54855180000004,296.54855180000004,296.54855180000004,296.54855180000004,296.54855180000004,296.54855180000004,296.54855180000004,None,None,None,275.8859998999999,275.8859998999999,,287.9158602,292.6501005,,,,,,,,,,,,,,,,,,,,,,4,001,2024-06-27_14h11.15.725,robot_sternberg_sign,2022.2.5,59.916117435570385,
"['L_Base_Y_For', 'L_Base_X_For', 'R_Base_Y_For', 'L_Head_Y_Back']",False,L_Torso_X_For,4,robot,2,False,True,"['robot_stimuli\\L_Base_Y_For.mp4', 'robot_stimuli\\L_Base_X_For.mp4', 'robot_stimuli\\R_Base_Y_For.mp4', 'robot_stimuli\\L_Head_Y_Back.mp4']",robot_stimuli\L_Torso_X_For.mp4,4,0,0,0,0,0,14,14,14,,,,,,,,,,,,,,,,,,,,,296.54855180000004,296.54855180000004,None,,312.25591770000005,297.6306024999999,,,,313.36347520000004,313.36347520000004,313.36347520000004,c,7.4562921000000415,320.8828194,328.53385149999986,320.8828194,328.53385149999986,320.8828194,328.53385149999986,320.8828194,328.53385149999986,15.18518518518518,6.3324947000000975,space,296.54855180000004,296.54855180000004,7.58422250000001,308.6304132,313.36347520000004,,,,,,,,,,,,,,,,,,,,,,4,001,2024-06-27_14h11.15.725,robot_sternberg_sign,2022.2.5,59.916117435570385,
"['R_Head_X_Back', 'L_Base_Y_Back', 'R_Arm_Z_For', 'L_Base_Z_For', 'L_Head_Y_For', 'L_Head_Y_Back']",True,L_Head_Y_Back,6,robot,2,True,False,"['robot_stimuli\\R_Head_X_Back.mp4', 'robot_stimuli\\L_Base_Y_Back.mp4', 'robot_stimuli\\R_Arm_Z_For.mp4', 'robot_stimuli\\L_Base_Z_For.mp4', 'robot_stimuli\\L_Head_Y_For.mp4', 'robot_stimuli\\L_Head_Y_Back.mp4']",robot_stimuli\L_Head_Y_Back.mp4,4,0,0,0,0,0,15,15,15,,,,,,,,,,,,,,,,,,,,,328.53385149999986,328.53385149999986,space,2.828920599999833,354.6771779999999,355.76439400000004,,,,355.76439400000004,355.76439400000004,355.76439400000004,c,3.1513872000001584,359.41551819999995,359.41551819999995,359.41551819999995,359.41551819999995,359.41551819999995,359.41551819999995,359.41551819999995,359.41551819999995,None,None,None,,,,351.04287610000006,355.76439400000004,,,,,,,,,,,,,,,,,,,,,,4,001,2024-06-27_14h11.15.725,robot_sternberg_sign,2022.2.5,59.916117435570385,
"['R_Head_Z_For', 'R_Arm_X_Back', 'L_Base_Y_Back', 'L_Arm_Y_Back', 'L_Head_Z_For', 'L_Arm_Z_Back']",True,R_Head_Z_For,6,robot,2,False,False,"['robot_stimuli\\R_Head_Z_For.mp4', 'robot_stimuli\\R_Arm_X_Back.mp4', 'robot_stimuli\\L_Base_Y_Back.mp4', 'robot_stimuli\\L_Arm_Y_Back.mp4', 'robot_stimuli\\L_Head_Z_For.mp4', 'robot_stimuli\\L_Arm_Z_Back.mp4']",robot_stimuli\R_Head_Z_For.mp4,4,0,0,0,0,0,16,16,16,,,,,,,,,,,,,,,,,,,,,359.41551819999995,359.41551819999995,None,,382.6870758,383.76395149999985,,,,383.76395149999985,383.76395149999985,383.76395149999985,c,2.8319422000000714,387.4022536,387.4022536,387.4022536,387.4022536,387.4022536,387.4022536,387.4022536,387.4022536,None,None,None,359.41551819999995,359.41551819999995,,379.0643146,383.76395149999985,,,,,,,,,,,,,,,,,,,,,,4,001,2024-06-27_14h11.15.725,robot_sternberg_sign,2022.2.5,59.916117435570385,
"['R_Torso_Z_For', 'R_Arm_Z_Back', 'L_Head_Y_For', 'L_Arm_Z_For', 'R_Base_Y_Back', 'L_Base_X_For']",False,L_Base_Y_For,6,robot,2,False,True,"['robot_stimuli\\R_Torso_Z_For.mp4', 'robot_stimuli\\R_Arm_Z_Back.mp4', 'robot_stimuli\\L_Head_Y_For.mp4', 'robot_stimuli\\L_Arm_Z_For.mp4', 'robot_stimuli\\R_Base_Y_Back.mp4', 'robot_stimuli\\L_Base_X_For.mp4']",robot_stimuli\L_Base_Y_For.mp4,4,0,0,0,0,0,17,17,17,,,,,,,,,,,,,,,,,,,,,387.4022536,387.4022536,None,,410.6609248,411.764586,,,,411.764586,411.764586,411.764586,n,3.0879192000001012,415.3358736,419.00492970000005,415.3358736,419.00492970000005,415.3358736,419.00492970000005,415.3358736,419.00492970000005,20.586419753086417,2.3257315999999264,space,387.4022536,387.4022536,3.6106986999999435,407.0778728999999,411.764586,,,,,,,,,,,,,,,,,,,,,,4,001,2024-06-27_14h11.15.725,robot_sternberg_sign,2022.2.5,59.916117435570385,
,,,,,,,,,,,0,0,0,0,,,,,,,,,,,,,,,,,,,,,,,,,,,,,,,,,,,,,,,,,,,,,,,,,,,,,,,419.00492970000005,419.00492970000005,419.00492970000005,c,3.582156500000224,,,,,,,,,,,,,,,,,4,001,2024-06-27_14h11.15.725,robot_sternberg_sign,2022.2.5,59.916117435570385,
"['P', 'J', 'F', 'X', 'R', 'S']",False,N,6,letter,1,True,False,"['robot_stimuli\\\\filler.mp4', 'robot_stimuli\\\\filler.mp4', 'robot_stimuli\\\\filler.mp4', 'robot_stimuli\\\\filler.mp4', 'robot_stimuli\\\\filler.mp4', 'robot_stimuli\\\\filler.mp4']",robot_stimuli\\filler.mp4,4,,,,,,,,,,,,,0,0,0,0,,,,,,,,,,,,,,,,,441.14745949999997,442.23373790000005,,,,,,,,,452.85366939999994,452.85366939999994,452.85366939999994,452.85366939999994,452.85366939999994,452.85366939999994,452.85366939999994,452.85366939999994,None,None,None,,,,,,,,,,,422.6194596999999,422.6194596999999,space,4.383269499999983,439.1320541,441.14745949999997,442.23373790000005,442.23373790000005,442.23373790000005,442.23373790000005,n,10.424992000000088,,,,,4,001,2024-06-27_14h11.15.725,robot_sternberg_sign,2022.2.5,59.916117435570385,
"['W', 'R', 'N', 'L', 'P', 'V']",True,W,6,letter,1,False,False,"['robot_stimuli\\\\filler.mp4', 'robot_stimuli\\\\filler.mp4', 'robot_stimuli\\\\filler.mp4', 'robot_stimuli\\\\filler.mp4', 'robot_stimuli\\\\filler.mp4', 'robot_stimuli\\\\filler.mp4']",robot_stimuli\\filler.mp4,4,,,,,,,,,,,,,0,1,1,1,,,,,,,,,,,,,,,,,466.7719711,453.9139246,,,,,,,,,469.87125649999984,469.87125649999984,469.87125649999984,469.87125649999984,469.87125649999984,469.87125649999984,469.87125649999984,469.87125649999984,None,None,None,,,,,,,,,,,452.85366939999994,452.85366939999994,None,,464.5597184999999,466.7719711,467.8466788999999,467.8466788999999,467.8466788999999,467.8466788999999,c,1.9496663999999555,452.85366939999994,452.85366939999994,,,4,001,2024-06-27_14h11.15.725,robot_sternberg_sign,2022.2.5,59.916117435570385,
"['P', 'M', 'H', 'K', 'B', 'G']",False,V,6,letter,1,False,False,"['robot_stimuli\\\\filler.mp4', 'robot_stimuli\\\\filler.mp4', 'robot_stimuli\\\\filler.mp4', 'robot_stimuli\\\\filler.mp4', 'robot_stimuli\\\\filler.mp4', 'robot_stimuli\\\\filler.mp4']",robot_stimuli\\filler.mp4,4,,,,,,,,,,,,,0,2,2,2,,,,,,,,,,,,,,,,,483.97014450000006,485.0271473999999,,,,,,,,,486.6475648999999,486.6475648999999,486.6475648999999,486.6475648999999,486.6475648999999,486.6475648999999,486.6475648999999,486.6475648999999,None,None,None,,,,,,,,,,,469.87125649999984,469.87125649999984,None,,481.7593313,483.97014450000006,485.0271473999999,485.0271473999999,485.0271473999999,485.0271473999999,n,1.440624400000047,469.87125649999984,469.87125649999984,,,4,001,2024-06-27_14h11.15.725,robot_sternberg_sign,2022.2.5,59.916117435570385,
"['P', 'W', 'V', 'K', 'Z', 'R']",False,C,6,letter,1,False,False,"['robot_stimuli\\\\filler.mp4', 'robot_stimuli\\\\filler.mp4', 'robot_stimuli\\\\filler.mp4', 'robot_stimuli\\\\filler.mp4', 'robot_stimuli\\\\filler.mp4', 'robot_stimuli\\\\filler.mp4']",robot_stimuli\\filler.mp4,4,,,,,,,,,,,,,0,3,3,3,,,,,,,,,,,,,,,,,500.56102740000006,501.6265011999999,,,,,,,,,503.85066299999994,503.85066299999994,503.85066299999994,503.85066299999994,503.85066299999994,503.85066299999994,503.85066299999994,503.85066299999994,None,None,None,,,,,,,,,,,486.6475648999999,486.6475648999999,None,,498.54965189999984,500.56102740000006,501.6265011999999,501.6265011999999,501.6265011999999,501.6265011999999,n,2.0579111000000694,486.6475648999999,486.6475648999999,,,4,001,2024-06-27_14h11.15.725,robot_sternberg_sign,2022.2.5,59.916117435570385,
"['W', 'C', 'F', 'J', 'M', 'Q']",True,F,6,letter,1,False,False,"['robot_stimuli\\\\filler.mp4', 'robot_stimuli\\\\filler.mp4', 'robot_stimuli\\\\filler.mp4', 'robot_stimuli\\\\filler.mp4', 'robot_stimuli\\\\filler.mp4', 'robot_stimuli\\\\filler.mp4']",robot_stimuli\\filler.mp4,4,,,,,,,,,,,,,0,4,4,4,,,,,,,,,,,,,,,,,518.1714729999999,519.2242690999999,,,,,,,,,520.6539410999999,520.6539410999999,520.6539410999999,520.6539410999999,520.6539410999999,520.6539410999999,520.6539410999999,520.6539410999999,None,None,None,,,,,,,,,,,503.85066299999994,503.85066299999994,None,,515.9555723999999,518.1714729999999,519.2242690999999,519.2242690999999,519.2242690999999,519.2242690999999,c,1.2835708000001205,503.85066299999994,503.85066299999994,,,4,001,2024-06-27_14h11.15.725,robot_sternberg_sign,2022.2.5,59.916117435570385,
"['S', 'N', 'F', 'T', 'Q', 'X']",True,Q,6,letter,1,False,False,"['robot_stimuli\\\\filler.mp4', 'robot_stimuli\\\\filler.mp4', 'robot_stimuli\\\\filler.mp4', 'robot_stimuli\\\\filler.mp4', 'robot_stimuli\\\\filler.mp4', 'robot_stimuli\\\\filler.mp4']",robot_stimuli\\filler.mp4,4,,,,,,,,,,,,,0,5,5,5,,,,,,,,,,,,,,,,,534.768836,535.8239103999999,,,,,,,,,537.2475075,537.2475075,537.2475075,537.2475075,537.2475075,537.2475075,537.2475075,537.2475075,None,None,None,,,,,,,,,,,520.6539410999999,520.6539410999999,None,,532.7522653999999,534.768836,535.8239103999999,535.8239103999999,535.8239103999999,535.8239103999999,c,1.3717801000001373,520.6539410999999,520.6539410999999,,,4,001,2024-06-27_14h11.15.725,robot_sternberg_sign,2022.2.5,59.916117435570385,
"['H', 'W', 'C', 'Z', 'S', 'P']",True,P,6,letter,1,False,False,"['robot_stimuli\\\\filler.mp4', 'robot_stimuli\\\\filler.mp4', 'robot_stimuli\\\\filler.mp4', 'robot_stimuli\\\\filler.mp4', 'robot_stimuli\\\\filler.mp4', 'robot_stimuli\\\\filler.mp4']",robot_stimuli\\filler.mp4,4,,,,,,,,,,,,,0,6,6,6,,,,,,,,,,,,,,,,,551.5712882,552.6298990999999,,,,,,,,,559.8673285,559.8673285,559.8673285,559.8673285,559.8673285,559.8673285,559.8673285,559.8673285,None,None,None,,,,,,,,,,,537.2475075,537.2475075,None,,549.3557320999998,551.5712882,552.6298990999999,552.6298990999999,552.6298990999999,552.6298990999999,c,7.164573599999926,537.2475075,537.2475075,,,4,001,2024-06-27_14h11.15.725,robot_sternberg_sign,2022.2.5,59.916117435570385,
"['J', 'D', 'K', 'S', 'M', 'N']",False,Q,6,letter,1,False,False,"['robot_stimuli\\\\filler.mp4', 'robot_stimuli\\\\filler.mp4', 'robot_stimuli\\\\filler.mp4', 'robot_stimuli\\\\filler.mp4', 'robot_stimuli\\\\filler.mp4', 'robot_stimuli\\\\filler.mp4']",robot_stimuli\\filler.mp4,4,,,,,,,,,,,,,0,7,7,7,,,,,,,,,,,,,,,,,574.3788448,575.4402143,,,,,,,,,578.0711815,578.0711815,578.0711815,578.0711815,578.0711815,578.0711815,578.0711815,578.0711815,None,None,None,,,,,,,,,,,559.8673285,559.8673285,None,,572.3643629999999,574.3788448,575.4402143,575.4402143,575.4402143,575.4402143,n,2.443966400000022,559.8673285,559.8673285,,,4,001,2024-06-27_14h11.15.725,robot_sternberg_sign,2022.2.5,59.916117435570385,
"['V', 'P', 'Q', 'J', 'W', 'B']",True,J,6,letter,1,False,False,"['robot_stimuli\\\\filler.mp4', 'robot_stimuli\\\\filler.mp4', 'robot_stimuli\\\\filler.mp4', 'robot_stimuli\\\\filler.mp4', 'robot_stimuli\\\\filler.mp4', 'robot_stimuli\\\\filler.mp4']",robot_stimuli\\filler.mp4,4,,,,,,,,,,,,,0,8,8,8,,,,,,,,,,,,,,,,,592.3780024999999,593.4586081999998,,,,,,,,,594.88483,594.88483,594.88483,594.88483,594.88483,594.88483,594.88483,594.88483,None,None,None,,,,,,,,,,,578.0711815,578.0711815,None,,590.1612977,592.3780024999999,593.4586081999998,593.4586081999998,593.4586081999998,593.4586081999998,c,1.233436500000039,578.0711815,578.0711815,,,4,001,2024-06-27_14h11.15.725,robot_sternberg_sign,2022.2.5,59.916117435570385,
"['M', 'P', 'S', 'B', 'G', 'Z']",False,Q,6,letter,1,False,True,"['robot_stimuli\\\\filler.mp4', 'robot_stimuli\\\\filler.mp4', 'robot_stimuli\\\\filler.mp4', 'robot_stimuli\\\\filler.mp4', 'robot_stimuli\\\\filler.mp4', 'robot_stimuli\\\\filler.mp4']",robot_stimuli\\filler.mp4,4,,,,,,,,,,,,,0,9,9,9,,,,,,,,,,,,,,,,,609.4056458999999,595.9409286,,,,,,,,,612.1383165,617.244355,612.1383165,617.244355,612.1383165,617.244355,612.1383165,617.244355,9.78395061728395,2.759712699999909,space,,,5.049502799999914,,,,,,,,594.88483,594.88483,None,,607.1913523999999,609.4056458999999,610.4771183999999,610.4771183999999,610.4771183999999,610.4771183999999,n,1.5351951000001236,594.88483,594.88483,,,4,001,2024-06-27_14h11.15.725,robot_sternberg_sign,2022.2.5,59.916117435570385,
"['P', 'W', 'F', 'H']",True,H,4,letter,1,True,False,"['robot_stimuli\\\\filler.mp4', 'robot_stimuli\\\\filler.mp4', 'robot_stimuli\\\\filler.mp4', 'robot_stimuli\\\\filler.mp4']",robot_stimuli\\filler.mp4,4,,,,,,,,,,,,,0,10,10,10,,,,,,,,,,,,,,,,,631.0883331,622.4091415999999,,,,,,,,,633.7843857999999,633.7843857999999,633.7843857999999,633.7843857999999,633.7843857999999,633.7843857999999,633.7843857999999,633.7843857999999,None,None,None,,,,,,,,,,,617.244355,617.244355,space,4.0877497999998695,629.0690330999998,631.0883331,632.1568803999999,632.1568803999999,632.1568803999999,632.1568803999999,c,1.3897272999998904,,,,,4,001,2024-06-27_14h11.15.725,robot_sternberg_sign,2022.2.5,59.916117435570385,
"['N', 'M', 'J', 'Q']",True,N,4,letter,1,False,False,"['robot_stimuli\\\\filler.mp4', 'robot_stimuli\\\\filler.mp4', 'robot_stimuli\\\\filler.mp4', 'robot_stimuli\\\\filler.mp4']",robot_stimuli\\filler.mp4,4,,,,,,,,,,,,,0,11,11,11,,,,,,,,,,,,,,,,,643.5188185,644.5771511,,,,,,,,,645.8030839999999,645.8030839999999,645.8030839999999,645.8030839999999,645.8030839999999,645.8030839999999,645.8030839999999,645.8030839999999,None,None,None,,,,,,,,,,,633.7843857999999,633.7843857999999,None,,641.3106522,643.5188185,644.5771511,644.5771511,644.5771511,644.5771511,c,1.0662482000001319,633.7843857999999,633.7843857999999,,,4,001,2024-06-27_14h11.15.725,robot_sternberg_sign,2022.2.5,59.916117435570385,
"['F', 'X', 'K', 'J']",True,X,4,letter,1,False,False,"['robot_stimuli\\\\filler.mp4', 'robot_stimuli\\\\filler.mp4', 'robot_stimuli\\\\filler.mp4', 'robot_stimuli\\\\filler.mp4']",robot_stimuli\\filler.mp4,4,,,,,,,,,,,,,0,12,12,12,,,,,,,,,,,,,,,,,655.7522959,656.8071689999999,,,,,,,,,658.4305182999999,658.4305182999999,658.4305182999999,658.4305182999999,658.4305182999999,658.4305182999999,658.4305182999999,658.4305182999999,None,None,None,,,,,,,,,,,645.8030839999999,645.8030839999999,None,,653.5428978999998,655.7522959,656.8071689999999,656.8071689999999,656.8071689999999,656.8071689999999,c,1.4202968000000737,645.8030839999999,645.8030839999999,,,4,001,2024-06-27_14h11.15.725,robot_sternberg_sign,2022.2.5,59.916117435570385,
"['D', 'K', 'F', 'H']",False,W,4,letter,1,False,False,"['robot_stimuli\\\\filler.mp4', 'robot_stimuli\\\\filler.mp4', 'robot_stimuli\\\\filler.mp4', 'robot_stimuli\\\\filler.mp4']",robot_stimuli\\filler.mp4,4,,,,,,,,,,,,,0,13,13,13,,,,,,,,,,,,,,,,,668.3695981999999,669.4237662,,,,,,,,,670.6452787000001,670.6452787000001,670.6452787000001,670.6452787000001,670.6452787000001,670.6452787000001,670.6452787000001,670.6452787000001,None,None,None,,,,,,,,,,,658.4305182999999,658.4305182999999,None,,666.1606491,668.3695981999999,669.4237662,669.4237662,669.4237662,669.4237662,n,1.1315989000000855,658.4305182999999,658.4305182999999,,,4,001,2024-06-27_14h11.15.725,robot_sternberg_sign,2022.2.5,59.916117435570385,
"['W', 'V', 'S', 'B']",False,T,4,letter,1,False,False,"['robot_stimuli\\\\filler.mp4', 'robot_stimuli\\\\filler.mp4', 'robot_stimuli\\\\filler.mp4', 'robot_stimuli\\\\filler.mp4']",robot_stimuli\\filler.mp4,4,,,,,,,,,,,,,0,14,14,14,,,,,,,,,,,,,,,,,680.5918942999999,681.6695216999999,,,,,,,,,683.3031916999998,683.3031916999998,683.3031916999998,683.3031916999998,683.3031916999998,683.3031916999998,683.3031916999998,683.3031916999998,None,None,None,,,,,,,,,,,670.6452787000001,670.6452787000001,None,,678.3742454999999,680.5918942999999,681.6695216999999,681.6695216999999,681.6695216999999,681.6695216999999,n,1.4302830000000313,670.6452787000001,670.6452787000001,,,4,001,2024-06-27_14h11.15.725,robot_sternberg_sign,2022.2.5,59.916117435570385,
"['P', 'Q', 'N', 'B']",True,B,4,letter,1,False,False,"['robot_stimuli\\\\filler.mp4', 'robot_stimuli\\\\filler.mp4', 'robot_stimuli\\\\filler.mp4', 'robot_stimuli\\\\filler.mp4']",robot_stimuli\\filler.mp4,4,,,,,,,,,,,,,0,15,15,15,,,,,,,,,,,,,,,,,692.8566862999999,684.3674752,,,,,,,,,695.3492851999999,695.3492851999999,695.3492851999999,695.3492851999999,695.3492851999999,695.3492851999999,695.3492851999999,695.3492851999999,None,None,None,,,,,,,,,,,683.3031916999998,683.3031916999998,None,,690.6567106999998,692.8566862999999,693.9239769999999,693.9239769999999,693.9239769999999,693.9239769999999,c,1.3594338000001471,683.3031916999998,683.3031916999998,,,4,001,2024-06-27_14h11.15.725,robot_sternberg_sign,2022.2.5,59.916117435570385,
"['X', 'V', 'Z', 'S']",False,N,4,letter,1,False,False,"['robot_stimuli\\\\filler.mp4', 'robot_stimuli\\\\filler.mp4', 'robot_stimuli\\\\filler.mp4', 'robot_stimuli\\\\filler.mp4']",robot_stimuli\\filler.mp4,4,,,,,,,,,,,,,0,16,16,16,,,,,,,,,,,,,,,,,705.08341,706.141969,,,,,,,,,707.9700146999999,707.9700146999999,707.9700146999999,707.9700146999999,707.9700146999999,707.9700146999999,707.9700146999999,707.9700146999999,None,None,None,,,,,,,,,,,695.3492851999999,695.3492851999999,None,,703.0698229,705.08341,706.141969,706.141969,706.141969,706.141969,n,1.6372996000001194,695.3492851999999,695.3492851999999,,,4,001,2024-06-27_14h11.15.725,robot_sternberg_sign,2022.2.5,59.916117435570385,
"['J', 'Z', 'F', 'D']",False,P,4,letter,1,False,False,"['robot_stimuli\\\\filler.mp4', 'robot_stimuli\\\\filler.mp4', 'robot_stimuli\\\\filler.mp4', 'robot_stimuli\\\\filler.mp4']",robot_stimuli\\filler.mp4,4,,,,,,,,,,,,,0,17,17,17,,,,,,,,,,,,,,,,,717.4999306,718.5617230999999,,,,,,,,,719.9857651,719.9857651,719.9857651,719.9857651,719.9857651,719.9857651,719.9857651,719.9857651,None,None,None,,,,,,,,,,,707.9700146999999,707.9700146999999,None,,715.4821923,717.4999306,718.5617230999999,718.5617230999999,718.5617230999999,718.5617230999999,n,1.3381359999999631,707.9700146999999,707.9700146999999,,,4,001,2024-06-27_14h11.15.725,robot_sternberg_sign,2022.2.5,59.916117435570385,
"['J', 'D', 'X', 'T']",False,B,4,letter,1,False,False,"['robot_stimuli\\\\filler.mp4', 'robot_stimuli\\\\filler.mp4', 'robot_stimuli\\\\filler.mp4', 'robot_stimuli\\\\filler.mp4']",robot_stimuli\\filler.mp4,4,,,,,,,,,,,,,0,18,18,18,,,,,,,,,,,,,,,,,729.7177973999999,730.7744760999999,,,,,,,,,732.2013041999999,732.2013041999999,732.2013041999999,732.2013041999999,732.2013041999999,732.2013041999999,732.2013041999999,732.2013041999999,None,None,None,,,,,,,,,,,719.9857651,719.9857651,None,,727.5102259,729.7177973999999,730.7744760999999,730.7744760999999,730.7744760999999,730.7744760999999,n,1.2604594000000588,719.9857651,719.9857651,,,4,001,2024-06-27_14h11.15.725,robot_sternberg_sign,2022.2.5,59.916117435570385,
"['G', 'Z', 'R', 'L']",True,L,4,letter,1,False,True,"['robot_stimuli\\\\filler.mp4', 'robot_stimuli\\\\filler.mp4', 'robot_stimuli\\\\filler.mp4', 'robot_stimuli\\\\filler.mp4']",robot_stimuli\\filler.mp4,4,,,,,,,,,,,,,0,19,19,19,,,,,,,,,,,,,,,,,742.1265865,743.1909056,,,,,,,,,744.4439227,748.5560831,744.4439227,748.5560831,744.4439227,748.5560831,744.4439227,748.5560831,5.154320987654315,2.6010111000000506,space,,,4.070432600000117,,,,,,,,732.2013041999999,732.2013041999999,None,,740.1138139,742.1265865,743.1909056,743.1909056,743.1909056,743.1909056,c,1.0764606999999842,732.2013041999999,732.2013041999999,,,4,001,2024-06-27_14h11.15.725,robot_sternberg_sign,2022.2.5,59.916117435570385,
"['H', 'V']",False,R,2,letter,1,True,False,"['robot_stimuli\\\\filler.mp4', 'robot_stimuli\\\\filler.mp4']",robot_stimuli\\filler.mp4,4,,,,,,,,,,,,,0,20,20,20,,,,,,,,,,,,,,,,,756.7639750999999,757.8347022,,,,,,,,,759.6634468,759.6634468,759.6634468,759.6634468,759.6634468,759.6634468,759.6634468,759.6634468,None,None,None,,,,,,,,,,,748.5560831,748.5560831,space,2.8157257999999956,754.7501196999999,756.7639750999999,757.8347022,757.8347022,757.8347022,757.8347022,n,1.7837029999999459,,,,,4,001,2024-06-27_14h11.15.725,robot_sternberg_sign,2022.2.5,59.916117435570385,
"['G', 'X']",True,G,2,letter,1,False,False,"['robot_stimuli\\\\filler.mp4', 'robot_stimuli\\\\filler.mp4']",robot_stimuli\\filler.mp4,4,,,,,,,,,,,,,0,21,21,21,,,,,,,,,,,,,,,,,765.2413263999999,766.3101839999999,,,,,,,,,767.3300079999999,767.3300079999999,767.3300079999999,767.3300079999999,767.3300079999999,767.3300079999999,767.3300079999999,767.3300079999999,None,None,None,,,,,,,,,,,759.6634468,759.6634468,None,,763.0239575999999,765.2413263999999,766.3101839999999,766.3101839999999,766.3101839999999,766.3101839999999,c,0.7960570999999845,759.6634468,759.6634468,,,4,001,2024-06-27_14h11.15.725,robot_sternberg_sign,2022.2.5,59.916117435570385,
"['V', 'C']",False,G,2,letter,1,False,False,"['robot_stimuli\\\\filler.mp4', 'robot_stimuli\\\\filler.mp4']",robot_stimuli\\filler.mp4,4,,,,,,,,,,,,,0,22,22,22,,,,,,,,,,,,,,,,,772.6941193,773.7565278,,,,,,,,,777.7905343999998,777.7905343999998,777.7905343999998,777.7905343999998,777.7905343999998,777.7905343999998,777.7905343999998,777.7905343999998,None,None,None,,,,,,,,,,,767.3300079999999,767.3300079999999,None,,770.6816383,772.6941193,773.7565278,773.7565278,773.7565278,773.7565278,n,3.991076399999997,767.3300079999999,767.3300079999999,,,4,001,2024-06-27_14h11.15.725,robot_sternberg_sign,2022.2.5,59.916117435570385,
"['C', 'Z']",True,Z,2,letter,1,False,False,"['robot_stimuli\\\\filler.mp4', 'robot_stimuli\\\\filler.mp4']",robot_stimuli\\filler.mp4,4,,,,,,,,,,,,,0,23,23,23,,,,,,,,,,,,,,,,,783.3584154,784.4241434,,,,,,,,,785.4504055999998,785.4504055999998,785.4504055999998,785.4504055999998,785.4504055999998,785.4504055999998,785.4504055999998,785.4504055999998,None,None,None,,,,,,,,,,,777.7905343999998,777.7905343999998,None,,781.1441456999999,783.3584154,784.4241434,784.4241434,784.4241434,784.4241434,c,0.8435150000001386,777.7905343999998,777.7905343999998,,,4,001,2024-06-27_14h11.15.725,robot_sternberg_sign,2022.2.5,59.916117435570385,
"['P', 'L']",False,W,2,letter,1,False,False,"['robot_stimuli\\\\filler.mp4', 'robot_stimuli\\\\filler.mp4']",robot_stimuli\\filler.mp4,4,,,,,,,,,,,,,0,24,24,24,,,,,,,,,,,,,,,,,790.8138503,791.8740444999999,,,,,,,,,796.5109382999999,796.5109382999999,796.5109382999999,796.5109382999999,796.5109382999999,796.5109382999999,796.5109382999999,796.5109382999999,None,None,None,,,,,,,,,,,785.4504055999998,785.4504055999998,None,,788.8005608999999,790.8138503,791.8740444999999,791.8740444999999,791.8740444999999,791.8740444999999,n,4.4094661000000315,785.4504055999998,785.4504055999998,,,4,001,2024-06-27_14h11.15.725,robot_sternberg_sign,2022.2.5,59.916117435570385,
"['L', 'C']",False,M,2,letter,1,False,False,"['robot_stimuli\\\\filler.mp4', 'robot_stimuli\\\\filler.mp4']",robot_stimuli\\filler.mp4,4,,,,,,,,,,,,,0,25,25,25,,,,,,,,,,,,,,,,,801.8779259999999,802.9424887999999,,,,,,,,,804.3656719,804.3656719,804.3656719,804.3656719,804.3656719,804.3656719,804.3656719,804.3656719,None,None,None,,,,,,,,,,,796.5109382999999,796.5109382999999,None,,799.6659743999999,801.8779259999999,802.9424887999999,802.9424887999999,802.9424887999999,802.9424887999999,n,1.1964279000000033,796.5109382999999,796.5109382999999,,,4,001,2024-06-27_14h11.15.725,robot_sternberg_sign,2022.2.5,59.916117435570385,
"['B', 'S']",False,V,2,letter,1,False,False,"['robot_stimuli\\\\filler.mp4', 'robot_stimuli\\\\filler.mp4']",robot_stimuli\\filler.mp4,4,,,,,,,,,,,,,0,26,26,26,,,,,,,,,,,,,,,,,809.733283,810.7909993999999,,,,,,,,,812.2149465,812.2149465,812.2149465,812.2149465,812.2149465,812.2149465,812.2149465,812.2149465,None,None,None,,,,,,,,,,,804.3656719,804.3656719,None,,807.7164163,809.733283,810.7909993999999,810.7909993999999,810.7909993999999,810.7909993999999,n,1.3566337999999405,804.3656719,804.3656719,,,4,001,2024-06-27_14h11.15.725,robot_sternberg_sign,2022.2.5,59.916117435570385,
"['S', 'N']",True,N,2,letter,1,False,False,"['robot_stimuli\\\\filler.mp4', 'robot_stimuli\\\\filler.mp4']",robot_stimuli\\filler.mp4,4,,,,,,,,,,,,,0,27,27,27,,,,,,,,,,,,,,,,,817.5727837,813.2717049,,,,,,,,,819.4644171,819.4644171,819.4644171,819.4644171,819.4644171,819.4644171,819.4644171,819.4644171,None,None,None,,,,,,,,,,,812.2149465,812.2149465,None,,815.5621819,817.5727837,818.640324,818.640324,818.640324,818.640324,c,0.7064830999999003,812.2149465,812.2149465,,,4,001,2024-06-27_14h11.15.725,robot_sternberg_sign,2022.2.5,59.916117435570385,
"['G', 'P']",True,G,2,letter,1,False,False,"['robot_stimuli\\\\filler.mp4', 'robot_stimuli\\\\filler.mp4']",robot_stimuli\\filler.mp4,4,,,,,,,,,,,,,0,28,28,28,,,,,,,,,,,,,,,,,824.8441364,825.9081830999999,,,,,,,,,826.9304579,826.9304579,826.9304579,826.9304579,826.9304579,826.9304579,826.9304579,826.9304579,None,None,None,,,,,,,,,,,819.4644171,819.4644171,None,,822.6250192999998,824.8441364,825.9081830999999,825.9081830999999,825.9081830999999,825.9081830999999,c,0.871251000000143,819.4644171,819.4644171,,,4,001,2024-06-27_14h11.15.725,robot_sternberg_sign,2022.2.5,59.916117435570385,
"['S', 'N']",True,S,2,letter,1,False,True,"['robot_stimuli\\\\filler.mp4', 'robot_stimuli\\\\filler.mp4']",robot_stimuli\\filler.mp4,4,,,,,,,,,,,,,0,29,29,29,,,,,,,,,,,,,,,,,832.5016808999999,833.5572775,,,,,,,,,834.6120328,838.5251258999999,834.6120328,838.5251258999999,834.6120328,838.5251258999999,834.6120328,838.5251258999999,0.5246913580246898,2.6521605000000363,space,,,3.8539566999999124,,,,,,,,826.9304579,826.9304579,None,,830.2911383000001,832.5016808999999,833.5572775,833.5572775,833.5572775,833.5572775,c,0.8616197999998576,826.9304579,826.9304579,,,4,001,2024-06-27_14h11.15.725,robot_sternberg_sign,2022.2.5,59.916117435570385,
"['R_Torso_Y_Back', 'L_Arm_X_Back', 'L_Torso_X_Back', 'R_Base_Z_For', 'L_Base_X_For', 'R_Base_Y_For']",True,L_Torso_X_Back,6,robot,2,True,False,"['robot_stimuli\\R_Torso_Y_Back.mp4', 'robot_stimuli\\L_Arm_X_Back.mp4', 'robot_stimuli\\L_Torso_X_Back.mp4', 'robot_stimuli\\R_Base_Z_For.mp4', 'robot_stimuli\\L_Base_X_For.mp4', 'robot_stimuli\\R_Base_Y_For.mp4']",robot_stimuli\L_Torso_X_Back.mp4,4,,,,,,,,,,,,,0,30,30,30,,,,,,,,,,,,,,,,,895.5370582,896.6139653,,,,,,,,,973.8806371999999,973.8806371999999,973.8806371999999,973.8806371999999,973.8806371999999,973.8806371999999,973.8806371999999,973.8806371999999,None,None,None,,,,,,,,,,,838.5251258999999,838.5251258999999,space,33.661827200000175,,,,896.6139653,896.6139653,896.6139653,c,77.22883679999984,,,891.9017939999999,896.6139653,4,001,2024-06-27_14h11.15.725,robot_sternberg_sign,2022.2.5,59.916117435570385,
"['L_Arm_Z_For', 'L_Head_Y_For', 'R_Torso_Z_Back', 'R_Arm_Z_Back', 'R_Base_Y_For', 'R_Head_Y_For']",True,R_Torso_Z_Back,6,robot,2,False,False,"['robot_stimuli\\L_Arm_Z_For.mp4', 'robot_stimuli\\L_Head_Y_For.mp4', 'robot_stimuli\\R_Torso_Z_Back.mp4', 'robot_stimuli\\R_Arm_Z_Back.mp4', 'robot_stimuli\\R_Base_Y_For.mp4', 'robot_stimuli\\R_Head_Y_For.mp4']",robot_stimuli\R_Torso_Z_Back.mp4,4,,,,,,,,,,,,,0,31,31,31,,,,,,,,,,,,,,,,,997.2096543,998.2980536,,,,,,,,,1002.5492287,1002.5492287,1002.5492287,1002.5492287,1002.5492287,1002.5492287,1002.5492287,1002.5492287,None,None,None,,,,,,,,,,,973.8806371999999,973.8806371999999,None,,,,,998.2980536,998.2980536,998.2980536,c,4.208254600000032,973.8806371999999,973.8806371999999,993.5642192999999,998.2980536,4,001,2024-06-27_14h11.15.725,robot_sternberg_sign,2022.2.5,59.916117435570385,
"['L_Torso_Y_Back', 'R_Arm_Y_Back', 'L_Head_X_Back', 'R_Head_Y_For', 'R_Head_Z_Back', 'R_Base_X_Back']",False,R_Head_Z_For,6,robot,2,False,False,"['robot_stimuli\\L_Torso_Y_Back.mp4', 'robot_stimuli\\R_Arm_Y_Back.mp4', 'robot_stimuli\\L_Head_X_Back.mp4', 'robot_stimuli\\R_Head_Y_For.mp4', 'robot_stimuli\\R_Head_Z_Back.mp4', 'robot_stimuli\\R_Base_X_Back.mp4']",robot_stimuli\R_Head_Z_For.mp4,4,,,,,,,,,,,,,0,32,32,32,,,,,,,,,,,,,,,,,1025.7536773,1026.8371829,,,,,,,,,1031.5477718,1031.5477718,1031.5477718,1031.5477718,1031.5477718,1031.5477718,1031.5477718,1031.5477718,None,None,None,,,,,,,,,,,1002.5492287,1002.5492287,None,,,,,1026.8371829,1026.8371829,1026.8371829,n,4.669471899999962,1002.5492287,1002.5492287,1022.1310947,1026.8371829,4,001,2024-06-27_14h11.15.725,robot_sternberg_sign,2022.2.5,59.916117435570385,
"['L_Torso_Z_For', 'R_Torso_Y_Back', 'R_Base_Z_For', 'L_Torso_X_For', 'R_Head_Y_Back', 'R_Head_X_Back']",True,L_Torso_Z_For,6,robot,2,False,False,"['robot_stimuli\\L_Torso_Z_For.mp4', 'robot_stimuli\\R_Torso_Y_Back.mp4', 'robot_stimuli\\R_Base_Z_For.mp4', 'robot_stimuli\\L_Torso_X_For.mp4', 'robot_stimuli\\R_Head_Y_Back.mp4', 'robot_stimuli\\R_Head_X_Back.mp4']",robot_stimuli\L_Torso_Z_For.mp4,4,,,,,,,,,,,,,0,33,33,33,,,,,,,,,,,,,,,,,1054.9271703,1056.0161501,,,,,,,,,1063.8988844,1063.8988844,1063.8988844,1063.8988844,1063.8988844,1063.8988844,1063.8988844,1063.8988844,None,None,None,,,,,,,,,,,1031.5477718,1031.5477718,None,,,,,1056.0161501,1056.0161501,1056.0161501,c,7.851638900000125,1031.5477718,1031.5477718,1051.2804075,1056.0161501,4,001,2024-06-27_14h11.15.725,robot_sternberg_sign,2022.2.5,59.916117435570385,
"['R_Head_Z_Back', 'R_Torso_Z_Back', 'R_Torso_Z_For', 'L_Head_Y_For', 'L_Base_Y_Back', 'R_Base_X_Back']",False,R_Base_X_For,6,robot,2,False,False,"['robot_stimuli\\R_Head_Z_Back.mp4', 'robot_stimuli\\R_Torso_Z_Back.mp4', 'robot_stimuli\\R_Torso_Z_For.mp4', 'robot_stimuli\\L_Head_Y_For.mp4', 'robot_stimuli\\L_Base_Y_Back.mp4', 'robot_stimuli\\R_Base_X_Back.mp4']",robot_stimuli\R_Base_X_For.mp4,4,,,,,,,,,,,,,0,34,34,34,,,,,,,,,,,,,,,,,1087.1756277,1088.2654992999999,,,,,,,,,1091.9634294,1091.9634294,1091.9634294,1091.9634294,1091.9634294,1091.9634294,1091.9634294,1091.9634294,None,None,None,,,,,,,,,,,1063.8988844,1063.8988844,None,,,,,1088.2654992999999,1088.2654992999999,1088.2654992999999,n,3.6579012999998213,1063.8988844,1063.8988844,1083.5445264999998,1088.2654992999999,4,001,2024-06-27_14h11.15.725,robot_sternberg_sign,2022.2.5,59.916117435570385,
"['R_Head_X_For', 'L_Base_Z_For', 'R_Arm_X_Back', 'R_Torso_Z_For', 'R_Torso_X_For', 'R_Arm_Z_For']",True,R_Head_X_For,6,robot,2,False,False,"['robot_stimuli\\R_Head_X_For.mp4', 'robot_stimuli\\L_Base_Z_For.mp4', 'robot_stimuli\\R_Arm_X_Back.mp4', 'robot_stimuli\\R_Torso_Z_For.mp4', 'robot_stimuli\\R_Torso_X_For.mp4', 'robot_stimuli\\R_Arm_Z_For.mp4']",robot_stimuli\R_Head_X_For.mp4,4,,,,,,,,,,,,,0,35,35,35,,,,,,,,,,,,,,,,,1115.2777002999999,1116.3652477,,,,,,,,,1121.2613049000001,1121.2613049000001,1121.2613049000001,1121.2613049000001,1121.2613049000001,1121.2613049000001,1121.2613049000001,1121.2613049000001,None,None,None,,,,,,,,,,,1091.9634294,1091.9634294,None,,,,,1116.3652477,1116.3652477,1116.3652477,c,4.869949400000223,1091.9634294,1091.9634294,1111.646739,1116.3652477,4,001,2024-06-27_14h11.15.725,robot_sternberg_sign,2022.2.5,59.916117435570385,
"['L_Torso_Z_Back', 'R_Head_Z_For', 'L_Torso_Y_For', 'L_Base_Z_For', 'R_Arm_Z_For', 'R_Torso_Y_Back']",False,L_Base_X_Back,6,robot,2,False,False,"['robot_stimuli\\L_Torso_Z_Back.mp4', 'robot_stimuli\\R_Head_Z_For.mp4', 'robot_stimuli\\L_Torso_Y_For.mp4', 'robot_stimuli\\L_Base_Z_For.mp4', 'robot_stimuli\\R_Arm_Z_For.mp4', 'robot_stimuli\\R_Torso_Y_Back.mp4']",robot_stimuli\L_Base_X_Back.mp4,4,,,,,,,,,,,,,0,36,36,36,,,,,,,,,,,,,,,,,1144.5233425000001,1122.3454388999999,,,,,,,,,1149.2853184,1149.2853184,1149.2853184,1149.2853184,1149.2853184,1149.2853184,1149.2853184,1149.2853184,None,None,None,,,,,,,,,,,1121.2613049000001,1121.2613049000001,None,,,,,1145.6162313,1145.6162313,1145.6162313,n,3.634715099999994,1121.2613049000001,1121.2613049000001,1140.8814754999999,1145.6162313,4,001,2024-06-27_14h11.15.725,robot_sternberg_sign,2022.2.5,59.916117435570385,
"['R_Torso_Z_Back', 'R_Head_Y_For', 'L_Head_Y_Back', 'R_Head_Y_Back', 'L_Base_Y_Back', 'R_Base_X_Back']",False,R_Arm_Z_For,6,robot,2,False,False,"['robot_stimuli\\R_Torso_Z_Back.mp4', 'robot_stimuli\\R_Head_Y_For.mp4', 'robot_stimuli\\L_Head_Y_Back.mp4', 'robot_stimuli\\R_Head_Y_Back.mp4', 'robot_stimuli\\L_Base_Y_Back.mp4', 'robot_stimuli\\R_Base_X_Back.mp4']",robot_stimuli\R_Arm_Z_For.mp4,4,,,,,,,,,,,,,0,37,37,37,,,,,,,,,,,,,,,,,1172.5275354999999,1173.6173502000001,,,,,,,,,1177.265609,1177.265609,1177.265609,1177.265609,1177.265609,1177.265609,1177.265609,1177.265609,None,None,None,,,,,,,,,,,1149.2853184,1149.2853184,None,,,,,1173.6173502000001,1173.6173502000001,1173.6173502000001,n,3.3623807999997553,1149.2853184,1149.2853184,1168.8830935,1173.6173502000001,4,001,2024-06-27_14h11.15.725,robot_sternberg_sign,2022.2.5,59.916117435570385,
"['R_Head_Y_For', 'R_Head_Y_Back', 'R_Torso_Z_For', 'R_Torso_Z_Back', 'L_Torso_X_For', 'L_Base_Y_Back']",False,L_Torso_Y_For,6,robot,2,False,False,"['robot_stimuli\\R_Head_Y_For.mp4', 'robot_stimuli\\R_Head_Y_Back.mp4', 'robot_stimuli\\R_Torso_Z_For.mp4', 'robot_stimuli\\R_Torso_Z_Back.mp4', 'robot_stimuli\\L_Torso_X_For.mp4', 'robot_stimuli\\L_Base_Y_Back.mp4']",robot_stimuli\L_Torso_Y_For.mp4,4,,,,,,,,,,,,,0,38,38,38,,,,,,,,,,,,,,,,,1200.5401229,1178.3444079,,,,,,,,,1205.2686135999998,1205.2686135999998,1205.2686135999998,1205.2686135999998,1205.2686135999998,1205.2686135999998,1205.2686135999998,1205.2686135999998,None,None,None,,,,,,,,,,,1177.265609,1177.265609,None,,,,,1201.6313518000002,1201.6313518000002,1201.6313518000002,n,3.323798800000077,1177.265609,1177.265609,1196.9641444999997,1201.6313518000002,4,001,2024-06-27_14h11.15.725,robot_sternberg_sign,2022.2.5,59.916117435570385,
"['L_Base_Y_Back', 'R_Head_X_For', 'L_Arm_X_Back', 'L_Base_X_Back', 'R_Arm_Z_For', 'L_Head_Y_Back']",True,L_Base_X_Back,6,robot,2,False,True,"['robot_stimuli\\L_Base_Y_Back.mp4', 'robot_stimuli\\R_Head_X_For.mp4', 'robot_stimuli\\L_Arm_X_Back.mp4', 'robot_stimuli\\L_Base_X_Back.mp4', 'robot_stimuli\\R_Arm_Z_For.mp4', 'robot_stimuli\\L_Head_Y_Back.mp4']",robot_stimuli\L_Base_X_Back.mp4,4,,,,,,,,,,,,,0,39,39,39,,,,,,,,,,,,,,,,,1228.4873678,1229.565904,,,,,,,,,1235.1288211,1238.8734531999999,1235.1288211,1238.8734531999999,1235.1288211,1238.8734531999999,1235.1288211,1238.8734531999999,38.33333333333333,2.3097367999998824,space,,,3.6972864000003938,,,,,,,,1205.2686135999998,1205.2686135999998,None,,,,,1229.565904,1229.565904,1229.565904,n,5.491856100000405,1205.2686135999998,1205.2686135999998,1224.863667,1229.565904,4,001,2024-06-27_14h11.15.725,robot_sternberg_sign,2022.2.5,59.916117435570385,
"['R_Base_Y_Back', 'R_Torso_X_Back']",False,L_Head_Z_Back,2,robot,2,True,False,"['robot_stimuli\\R_Base_Y_Back.mp4', 'robot_stimuli\\R_Torso_X_Back.mp4']",robot_stimuli\L_Head_Z_Back.mp4,4,,,,,,,,,,,,,0,40,40,40,,,,,,,,,,,,,,,,,1249.5910119999999,1250.6824459999998,,,,,,,,,1254.3101305,1254.3101305,1254.3101305,1254.3101305,1254.3101305,1254.3101305,1254.3101305,1254.3101305,None,None,None,,,,,,,,,,,1238.8734531999999,1238.8734531999999,space,2.2570794000002934,,,,1250.6824459999998,1250.6824459999998,1250.6824459999998,n,1.7758512000004885,,,1245.9525334999998,1250.6824459999998,4,001,2024-06-27_14h11.15.725,robot_sternberg_sign,2022.2.5,59.916117435570385,
"['L_Base_Z_For', 'L_Head_Y_Back']",True,L_Base_Z_For,2,robot,2,False,False,"['robot_stimuli\\L_Base_Z_For.mp4', 'robot_stimuli\\L_Head_Y_Back.mp4']",robot_stimuli\L_Base_Z_For.mp4,4,,,,,,,,,,,,,0,41,41,41,,,,,,,,,,,,,,,,,1262.7450226,1263.8322096000002,,,,,,,,,1267.6287404999998,1267.6287404999998,1267.6287404999998,1267.6287404999998,1267.6287404999998,1267.6287404999998,1267.6287404999998,1267.6287404999998,None,None,None,,,,,,,,,,,1254.3101305,1254.3101305,None,,,,,1263.8322096000002,1263.8322096000002,1263.8322096000002,c,3.7712572999998883,1254.3101305,1254.3101305,1259.1152182,1263.8322096000002,4,001,2024-06-27_14h11.15.725,robot_sternberg_sign,2022.2.5,59.916117435570385,
"['L_Head_X_For', 'R_Head_Z_For']",False,L_Base_X_For,2,robot,2,False,False,"['robot_stimuli\\L_Head_X_For.mp4', 'robot_stimuli\\R_Head_Z_For.mp4']",robot_stimuli\L_Base_X_For.mp4,4,,,,,,,,,,,,,0,42,42,42,,,,,,,,,,,,,,,,,1275.9951154,1277.0820543,,,,,,,,,1280.6437483999998,1280.6437483999998,1280.6437483999998,1280.6437483999998,1280.6437483999998,1280.6437483999998,1280.6437483999998,1280.6437483999998,None,None,None,,,,,,,,,,,1267.6287404999998,1267.6287404999998,None,,,,,1277.0820543,1277.0820543,1277.0820543,n,3.2877708999999413,1267.6287404999998,1267.6287404999998,1272.3669231,1277.0820543,4,001,2024-06-27_14h11.15.725,robot_sternberg_sign,2022.2.5,59.916117435570385,
"['R_Arm_Z_For', 'L_Base_Y_Back']",False,R_Base_X_For,2,robot,2,False,False,"['robot_stimuli\\R_Arm_Z_For.mp4', 'robot_stimuli\\L_Base_Y_Back.mp4']",robot_stimuli\R_Base_X_For.mp4,4,,,,,,,,,,,,,0,43,43,43,,,,,,,,,,,,,,,,,1289.0255183999998,1290.1152530999998,,,,,,,,,1293.6554557999998,1293.6554557999998,1293.6554557999998,1293.6554557999998,1293.6554557999998,1293.6554557999998,1293.6554557999998,1293.6554557999998,None,None,None,,,,,,,,,,,1280.6437483999998,1280.6437483999998,None,,,,,1290.1152530999998,1290.1152530999998,1290.1152530999998,n,3.0551503000001503,1280.6437483999998,1280.6437483999998,1285.4512632,1290.1152530999998,4,001,2024-06-27_14h11.15.725,robot_sternberg_sign,2022.2.5,59.916117435570385,
"['R_Head_X_For', 'L_Head_Y_For']",False,R_Head_Z_Back,2,robot,2,False,False,"['robot_stimuli\\R_Head_X_For.mp4', 'robot_stimuli\\L_Head_Y_For.mp4']",robot_stimuli\R_Head_Z_Back.mp4,4,,,,,,,,,,,,,0,44,44,44,,,,,,,,,,,,,,,,,1302.1094647,1303.1990259999998,,,,,,,,,1306.8282233999998,1306.8282233999998,1306.8282233999998,1306.8282233999998,1306.8282233999998,1306.8282233999998,1306.8282233999998,1306.8282233999998,None,None,None,,,,,,,,,,,1293.6554557999998,1293.6554557999998,None,,,,,1303.1990259999998,1303.1990259999998,1303.1990259999998,n,2.707890700000462,1293.6554557999998,1293.6554557999998,1298.4780935999997,1303.1990259999998,4,001,2024-06-27_14h11.15.725,robot_sternberg_sign,2022.2.5,59.916117435570385,
"['R_Head_X_Back', 'L_Torso_Z_For']",True,L_Torso_Z_For,2,robot,2,False,False,"['robot_stimuli\\R_Head_X_Back.mp4', 'robot_stimuli\\L_Torso_Z_For.mp4']",robot_stimuli\L_Torso_Z_For.mp4,4,,,,,,,,,,,,,0,45,45,45,,,,,,,,,,,,,,,,,1315.2601043,1316.3487765999998,,,,,,,,,1319.9774397,1319.9774397,1319.9774397,1319.9774397,1319.9774397,1319.9774397,1319.9774397,1319.9774397,None,None,None,,,,,,,,,,,1306.8282233999998,1306.8282233999998,None,,,,,1316.3487765999998,1316.3487765999998,1316.3487765999998,c,2.4770039999998517,1306.8282233999998,1306.8282233999998,1311.631195,1316.3487765999998,4,001,2024-06-27_14h11.15.725,robot_sternberg_sign,2022.2.5,59.916117435570385,
"['L_Base_Z_For', 'L_Head_X_For']",True,L_Head_X_For,2,robot,2,False,False,"['robot_stimuli\\L_Base_Z_For.mp4', 'robot_stimuli\\L_Head_X_For.mp4']",robot_stimuli\L_Head_X_For.mp4,4,,,,,,,,,,,,,0,46,46,46,,,,,,,,,,,,,,,,,1328.3569182,1321.0616743,,,,,,,,,1333.0320972,1333.0320972,1333.0320972,1333.0320972,1333.0320972,1333.0320972,1333.0320972,1333.0320972,None,None,None,,,,,,,,,,,1319.9774397,1319.9774397,None,,,,,1329.4499879,1329.4499879,1329.4499879,c,2.591716500000075,1319.9774397,1319.9774397,1324.7839152000001,1329.4499879,4,001,2024-06-27_14h11.15.725,robot_sternberg_sign,2022.2.5,59.916117435570385,
"['L_Base_X_For', 'R_Torso_Z_Back']",False,R_Arm_Z_For,2,robot,2,False,False,"['robot_stimuli\\L_Base_X_For.mp4', 'robot_stimuli\\R_Torso_Z_Back.mp4']",robot_stimuli\R_Arm_Z_For.mp4,4,,,,,,,,,,,,,0,47,47,47,,,,,,,,,,,,,,,,,1341.3920244,1342.4821673000001,,,,,,,,,1346.1197303,1346.1197303,1346.1197303,1346.1197303,1346.1197303,1346.1197303,1346.1197303,1346.1197303,None,None,None,,,,,,,,,,,1333.0320972,1333.0320972,None,,,,,1342.4821673000001,1342.4821673000001,1342.4821673000001,n,3.1755143999998836,1333.0320972,1333.0320972,1337.7638438999998,1342.4821673000001,4,001,2024-06-27_14h11.15.725,robot_sternberg_sign,2022.2.5,59.916117435570385,
"['R_Base_X_Back', 'R_Base_Z_Back']",True,R_Base_X_Back,2,robot,2,False,False,"['robot_stimuli\\R_Base_X_Back.mp4', 'robot_stimuli\\R_Base_Z_Back.mp4']",robot_stimuli\R_Base_X_Back.mp4,4,,,,,,,,,,,,,0,48,48,48,,,,,,,,,,,,,,,,,1354.4550276,1355.5319294,,,,,,,,,1359.1703895,1359.1703895,1359.1703895,1359.1703895,1359.1703895,1359.1703895,1359.1703895,1359.1703895,None,None,None,,,,,,,,,,,1346.1197303,1346.1197303,None,,,,,1355.5319294,1355.5319294,1355.5319294,c,3.1188309000003756,1346.1197303,1346.1197303,1350.9137599,1355.5319294,4,001,2024-06-27_14h11.15.725,robot_sternberg_sign,2022.2.5,59.916117435570385,
"['L_Arm_Z_Back', 'L_Base_Y_For']",True,L_Arm_Z_Back,2,robot,2,False,True,"['robot_stimuli\\L_Arm_Z_Back.mp4', 'robot_stimuli\\L_Base_Y_For.mp4']",robot_stimuli\L_Arm_Z_Back.mp4,4,,,,,,,,,,,,,0,49,49,49,,,,,,,,,,,,,,,,,1367.4949863000002,1368.5815377999998,,,,,,,,,1373.3849756999998,1380.1088691,1373.3849756999998,1380.1088691,1373.3849756999998,1380.1088691,1373.3849756999998,1380.1088691,16.41975308641975,3.912767299999814,space,,,6.681423900000482,,,,,,,,1359.1703895,1359.1703895,None,,,,,1368.5815377999998,1368.5815377999998,1368.5815377999998,c,4.725400299999819,1359.1703895,1359.1703895,1363.9660892000002,1368.5815377999998,4,001,2024-06-27_14h11.15.725,robot_sternberg_sign,2022.2.5,59.916117435570385,
"['R_Base_Y_Back', 'R_Arm_Z_For', 'R_Head_X_For', 'L_Base_X_For']",False,R_Torso_Y_Back,4,robot,2,True,False,"['robot_stimuli\\R_Base_Y_Back.mp4', 'robot_stimuli\\R_Arm_Z_For.mp4', 'robot_stimuli\\R_Head_X_For.mp4', 'robot_stimuli\\L_Base_X_For.mp4']",robot_stimuli\R_Torso_Y_Back.mp4,4,,,,,,,,,,,,,0,50,50,50,,,,,,,,,,,,,,,,,1397.4552691,1382.7133970999998,,,,,,,,,1402.1978181999998,1402.1978181999998,1402.1978181999998,1402.1978181999998,1402.1978181999998,1402.1978181999998,1402.1978181999998,1402.1978181999998,None,None,None,,,,,,,,,,,1380.1088691,1380.1088691,space,1.5023625000003449,,,,1398.5505211999998,1398.5505211999998,1398.5505211999998,n,3.156337000000349,,,1393.8898708000002,1398.5505211999998,4,001,2024-06-27_14h11.15.725,robot_sternberg_sign,2022.2.5,59.916117435570385,
"['R_Head_X_Back', 'L_Torso_X_Back', 'L_Base_X_Back', 'R_Head_Y_Back']",False,R_Base_X_Back,4,robot,2,False,False,"['robot_stimuli\\R_Head_X_Back.mp4', 'robot_stimuli\\L_Torso_X_Back.mp4', 'robot_stimuli\\L_Base_X_Back.mp4', 'robot_stimuli\\R_Head_Y_Back.mp4']",robot_stimuli\R_Base_X_Back.mp4,4,,,,,,,,,,,,,0,51,51,51,,,,,,,,,,,,,,,,,1418.0572803999999,1419.1481095999998,,,,,,,,,1422.7869833,1422.7869833,1422.7869833,1422.7869833,1422.7869833,1422.7869833,1422.7869833,1422.7869833,None,None,None,,,,,,,,,,,1402.1978181999998,1402.1978181999998,None,,,,,1419.1481095999998,1419.1481095999998,1419.1481095999998,n,3.2861111000001983,1402.1978181999998,1402.1978181999998,1414.4143674000002,1419.1481095999998,4,001,2024-06-27_14h11.15.725,robot_sternberg_sign,2022.2.5,59.916117435570385,
"['L_Torso_Y_Back', 'R_Torso_X_Back', 'L_Base_X_For', 'L_Base_Y_Back']",False,L_Head_Z_Back,4,robot,2,False,False,"['robot_stimuli\\L_Torso_Y_Back.mp4', 'robot_stimuli\\R_Torso_X_Back.mp4', 'robot_stimuli\\L_Base_X_For.mp4', 'robot_stimuli\\L_Base_Y_Back.mp4']",robot_stimuli\L_Head_Z_Back.mp4,4,,,,,,,,,,,,,0,52,52,52,,,,,,,,,,,,,,,,,1438.3712946,1439.4513258000002,,,,,,,,,1443.0990634,1443.0990634,1443.0990634,1443.0990634,1443.0990634,1443.0990634,1443.0990634,1443.0990634,None,None,None,,,,,,,,,,,1422.7869833,1422.7869833,None,,,,,1439.4513258000002,1439.4513258000002,1439.4513258000002,n,3.247001900000214,1422.7869833,1422.7869833,1434.8059776999999,1439.4513258000002,4,001,2024-06-27_14h11.15.725,robot_sternberg_sign,2022.2.5,59.916117435570385,
"['L_Base_Z_For', 'L_Torso_Z_For', 'L_Base_Y_Back', 'L_Torso_Y_Back']",False,L_Base_X_For,4,robot,2,False,False,"['robot_stimuli\\L_Base_Z_For.mp4', 'robot_stimuli\\L_Torso_Z_For.mp4', 'robot_stimuli\\L_Base_Y_Back.mp4', 'robot_stimuli\\L_Torso_Y_Back.mp4']",robot_stimuli\L_Base_X_For.mp4,4,,,,,,,,,,,,,0,53,53,53,,,,,,,,,,,,,,,,,1458.7541316000002,1459.8332144,,,,,,,,,1464.1624613,1464.1624613,1464.1624613,1464.1624613,1464.1624613,1464.1624613,1464.1624613,1464.1624613,None,None,None,,,,,,,,,,,1443.0990634,1443.0990634,None,,,,,1459.8332144,1459.8332144,1459.8332144,n,4.305427100000088,1443.0990634,1443.0990634,1455.2636413,1459.8332144,4,001,2024-06-27_14h11.15.725,robot_sternberg_sign,2022.2.5,59.916117435570385,
"['L_Head_X_Back', 'R_Arm_Z_Back', 'R_Arm_X_For', 'R_Torso_Z_Back']",True,R_Torso_Z_Back,4,robot,2,False,False,"['robot_stimuli\\L_Head_X_Back.mp4', 'robot_stimuli\\R_Arm_Z_Back.mp4', 'robot_stimuli\\R_Arm_X_For.mp4', 'robot_stimuli\\R_Torso_Z_Back.mp4']",robot_stimuli\R_Torso_Z_Back.mp4,4,,,,,,,,,,,,,0,54,54,54,,,,,,,,,,,,,,,,,1480.0373602,1481.1164792999998,,,,,,,,,1484.7640912000002,1484.7640912000002,1484.7640912000002,1484.7640912000002,1484.7640912000002,1484.7640912000002,1484.7640912000002,1484.7640912000002,None,None,None,,,,,,,,,,,1464.1624613,1464.1624613,None,,,,,1481.1164792999998,1481.1164792999998,1481.1164792999998,c,3.1899600000001556,1464.1624613,1464.1624613,1476.4146132,1481.1164792999998,4,001,2024-06-27_14h11.15.725,robot_sternberg_sign,2022.2.5,59.916117435570385,
"['R_Torso_Z_Back', 'R_Torso_X_Back', 'L_Head_Z_For', 'R_Arm_Y_For']",True,R_Torso_X_Back,4,robot,2,False,False,"['robot_stimuli\\R_Torso_Z_Back.mp4', 'robot_stimuli\\R_Torso_X_Back.mp4', 'robot_stimuli\\L_Head_Z_For.mp4', 'robot_stimuli\\R_Arm_Y_For.mp4']",robot_stimuli\R_Torso_X_Back.mp4,4,,,,,,,,,,,,,0,55,55,55,,,,,,,,,,,,,,,,,1500.5108486999998,1501.5999468999998,,,,,,,,,1508.0665012999998,1508.0665012999998,1508.0665012999998,1508.0665012999998,1508.0665012999998,1508.0665012999998,1508.0665012999998,1508.0665012999998,None,None,None,,,,,,,,,,,1484.7640912000002,1484.7640912000002,None,,,,,1501.5999468999998,1501.5999468999998,1501.5999468999998,n,6.425635300000067,1484.7640912000002,1484.7640912000002,1497.0035429,1501.5999468999998,4,001,2024-06-27_14h11.15.725,robot_sternberg_sign,2022.2.5,59.916117435570385,
"['L_Head_Z_Back', 'R_Arm_Y_For', 'R_Torso_Z_For', 'R_Head_Y_For']",True,L_Head_Z_Back,4,robot,2,False,False,"['robot_stimuli\\L_Head_Z_Back.mp4', 'robot_stimuli\\R_Arm_Y_For.mp4', 'robot_stimuli\\R_Torso_Z_For.mp4', 'robot_stimuli\\R_Head_Y_For.mp4']",robot_stimuli\L_Head_Z_Back.mp4,4,,,,,,,,,,,,,0,56,56,56,,,,,,,,,,,,,,,,,1523.8241457999998,1524.9149263999998,,,,,,,,,1528.5514182000002,1528.5514182000002,1528.5514182000002,1528.5514182000002,1528.5514182000002,1528.5514182000002,1528.5514182000002,1528.5514182000002,None,None,None,,,,,,,,,,,1508.0665012999998,1508.0665012999998,None,,,,,1524.9149263999998,1524.9149263999998,1524.9149263999998,c,3.41567570000052,1508.0665012999998,1508.0665012999998,1520.1934163,1524.9149263999998,4,001,2024-06-27_14h11.15.725,robot_sternberg_sign,2022.2.5,59.916117435570385,
"['L_Torso_X_For', 'L_Torso_Y_Back', 'R_Base_X_For', 'R_Torso_X_Back']",False,L_Arm_X_For,4,robot,2,False,False,"['robot_stimuli\\L_Torso_X_For.mp4', 'robot_stimuli\\L_Torso_Y_Back.mp4', 'robot_stimuli\\R_Base_X_For.mp4', 'robot_stimuli\\R_Torso_X_Back.mp4']",robot_stimuli\L_Arm_X_For.mp4,4,,,,,,,,,,,,,0,57,57,57,,,,,,,,,,,,,,,,,1544.1780797000001,1545.2661770999998,,,,,,,,,1549.2974748000001,1549.2974748000001,1549.2974748000001,1549.2974748000001,1549.2974748000001,1549.2974748000001,1549.2974748000001,1549.2974748000001,None,None,None,,,,,,,,,,,1528.5514182000002,1528.5514182000002,None,,,,,1545.2661770999998,1545.2661770999998,1545.2661770999998,n,3.9993607999999767,1528.5514182000002,1528.5514182000002,1540.5447653,1545.2661770999998,4,001,2024-06-27_14h11.15.725,robot_sternberg_sign,2022.2.5,59.916117435570385,
"['R_Arm_X_Back', 'R_Base_X_For', 'L_Head_X_Back', 'R_Torso_Y_Back']",True,R_Base_X_For,4,robot,2,False,False,"['robot_stimuli\\R_Arm_X_Back.mp4', 'robot_stimuli\\R_Base_X_For.mp4', 'robot_stimuli\\L_Head_X_Back.mp4', 'robot_stimuli\\R_Torso_Y_Back.mp4']",robot_stimuli\R_Base_X_For.mp4,4,,,,,,,,,,,,,0,58,58,58,,,,,,,,,,,,,,,,,1565.0907435999998,1566.1819563999998,,,,,,,,,1569.7198518999999,1569.7198518999999,1569.7198518999999,1569.7198518999999,1569.7198518999999,1569.7198518999999,1569.7198518999999,1569.7198518999999,None,None,None,,,,,,,,,,,1549.2974748000001,1549.2974748000001,None,,,,,1566.1819563999998,1566.1819563999998,1566.1819563999998,c,3.363375200000064,1549.2974748000001,1549.2974748000001,1561.4609719999999,1566.1819563999998,4,001,2024-06-27_14h11.15.725,robot_sternberg_sign,2022.2.5,59.916117435570385,
"['L_Arm_X_Back', 'R_Head_Z_For', 'L_Arm_Z_Back', 'L_Head_X_Back']",True,L_Head_X_Back,4,robot,2,False,True,"['robot_stimuli\\L_Arm_X_Back.mp4', 'robot_stimuli\\R_Head_Z_For.mp4', 'robot_stimuli\\L_Arm_Z_Back.mp4', 'robot_stimuli\\L_Head_X_Back.mp4']",robot_stimuli\L_Head_X_Back.mp4,4,,,,,,,,,,,,,0,59,59,59,,,,,,,,,,,,,,,,,1585.6076877,1586.7033204999998,,,,,,,,,1595.8790021999998,1718.2165476999999,1595.8790021999998,1718.2165476999999,1595.8790021999998,1718.2165476999999,1595.8790021999998,1718.2165476999999,22.901234567901227,3.7754727000001367,space,,,122.29109530000005,,,,,,,,1569.7198518999999,1569.7198518999999,None,,,,,1586.7033204999998,1586.7033204999998,1586.7033204999998,n,9.115225500000179,1569.7198518999999,1569.7198518999999,1581.9712048000001,1586.7033204999998,4,001,2024-06-27_14h11.15.725,robot_sternberg_sign,2022.2.5,59.916117435570385,
"['Q', 'C', 'R', 'M']",True,R,4,letter,3,True,False,"['robot_stimuli\\\\filler.mp4', 'robot_stimuli\\\\filler.mp4', 'robot_stimuli\\\\filler.mp4', 'robot_stimuli\\\\filler.mp4']",robot_stimuli\\filler.mp4,4,,,,,,,,,,,,,0,60,60,60,,,,,,,,,,,,,,,,,1732.1955865,1733.2589776999998,,,,,,,,,1734.8916623,1734.8916623,1734.8916623,1734.8916623,1734.8916623,1734.8916623,1734.8916623,1734.8916623,None,None,None,,,,,,,,,,,1718.2165476999999,1718.2165476999999,space,4.009128000000146,1729.9767594,1732.1955865,1733.2589776999998,1733.2589776999998,1733.2589776999998,1733.2589776999998,c,1.5113179999998465,,,,,4,001,2024-06-27_14h11.15.725,robot_sternberg_sign,2022.2.5,59.916117435570385,
"['R', 'J', 'D', 'X']",False,S,4,letter,3,False,False,"['robot_stimuli\\\\filler.mp4', 'robot_stimuli\\\\filler.mp4', 'robot_stimuli\\\\filler.mp4', 'robot_stimuli\\\\filler.mp4']",robot_stimuli\\filler.mp4,4,,,,,,,,,,,,,0,61,61,61,,,,,,,,,,,,,,,,,1745.0137595,1746.0740575999998,,,,,,,,,1747.7056251,1747.7056251,1747.7056251,1747.7056251,1747.7056251,1747.7056251,1747.7056251,1747.7056251,None,None,None,,,,,,,,,,,1734.8916623,1734.8916623,None,,1742.806755,1745.0137595,1746.0740575999998,1746.0740575999998,1746.0740575999998,1746.0740575999998,n,1.4409445000001142,1734.8916623,1734.8916623,,,4,001,2024-06-27_14h11.15.725,robot_sternberg_sign,2022.2.5,59.916117435570385,
"['X', 'J', 'V', 'L']",True,L,4,letter,3,False,False,"['robot_stimuli\\\\filler.mp4', 'robot_stimuli\\\\filler.mp4', 'robot_stimuli\\\\filler.mp4', 'robot_stimuli\\\\filler.mp4']",robot_stimuli\\filler.mp4,4,,,,,,,,,,,,,0,62,62,62,,,,,,,,,,,,,,,,,1757.2514695,1758.3082504,,,,,,,,,1759.7381753,1759.7381753,1759.7381753,1759.7381753,1759.7381753,1759.7381753,1759.7381753,1759.7381753,None,None,None,,,,,,,,,,,1747.7056251,1747.7056251,None,,1755.0417243000002,1757.2514695,1758.3082504,1758.3082504,1758.3082504,1758.3082504,c,1.2228409000003921,1747.7056251,1747.7056251,,,4,001,2024-06-27_14h11.15.725,robot_sternberg_sign,2022.2.5,59.916117435570385,
"['F', 'H', 'W', 'J']",False,G,4,letter,3,False,False,"['robot_stimuli\\\\filler.mp4', 'robot_stimuli\\\\filler.mp4', 'robot_stimuli\\\\filler.mp4', 'robot_stimuli\\\\filler.mp4']",robot_stimuli\\filler.mp4,4,,,,,,,,,,,,,0,63,63,63,,,,,,,,,,,,,,,,,1769.271632,1770.3290137999998,,,,,,,,,1773.5565194,1773.5565194,1773.5565194,1773.5565194,1773.5565194,1773.5565194,1773.5565194,1773.5565194,None,None,None,,,,,,,,,,,1759.7381753,1759.7381753,None,,1767.2542878,1769.271632,1770.3290137999998,1770.3290137999998,1770.3290137999998,1770.3290137999998,n,3.0813554000001204,1759.7381753,1759.7381753,,,4,001,2024-06-27_14h11.15.725,robot_sternberg_sign,2022.2.5,59.916117435570385,
"['D', 'M', 'L', 'N']",True,M,4,letter,3,False,False,"['robot_stimuli\\\\filler.mp4', 'robot_stimuli\\\\filler.mp4', 'robot_stimuli\\\\filler.mp4', 'robot_stimuli\\\\filler.mp4']",robot_stimuli\\filler.mp4,4,,,,,,,,,,,,,0,64,64,64,,,,,,,,,,,,,,,,,1783.5185953,1784.5783802,,,,,,,,,1786.0005416,1786.0005416,1786.0005416,1786.0005416,1786.0005416,1786.0005416,1786.0005416,1786.0005416,None,None,None,,,,,,,,,,,1773.5565194,1773.5565194,None,,1781.3074347000002,1783.5185953,1784.5783802,1784.5783802,1784.5783802,1784.5783802,c,1.2487851000005321,1773.5565194,1773.5565194,,,4,001,2024-06-27_14h11.15.725,robot_sternberg_sign,2022.2.5,59.916117435570385,
"['F', 'P', 'L', 'N']",True,P,4,letter,3,False,False,"['robot_stimuli\\\\filler.mp4', 'robot_stimuli\\\\filler.mp4', 'robot_stimuli\\\\filler.mp4', 'robot_stimuli\\\\filler.mp4']",robot_stimuli\\filler.mp4,4,,,,,,,,,,,,,0,65,65,65,,,,,,,,,,,,,,,,,1795.918275,1796.9746587,,,,,,,,,1798.1955315,1798.1955315,1798.1955315,1798.1955315,1798.1955315,1798.1955315,1798.1955315,1798.1955315,None,None,None,,,,,,,,,,,1786.0005416,1786.0005416,None,,1793.7110582,1795.918275,1796.9746587,1796.9746587,1796.9746587,1796.9746587,c,1.083305200000268,1786.0005416,1786.0005416,,,4,001,2024-06-27_14h11.15.725,robot_sternberg_sign,2022.2.5,59.916117435570385,
"['V', 'F', 'H', 'D']",False,W,4,letter,3,False,False,"['robot_stimuli\\\\filler.mp4', 'robot_stimuli\\\\filler.mp4', 'robot_stimuli\\\\filler.mp4', 'robot_stimuli\\\\filler.mp4']",robot_stimuli\\filler.mp4,4,,,,,,,,,,,,,0,66,66,66,,,,,,,,,,,,,,,,,1807.7381661999998,1808.7933235,,,,,,,,,1810.2187149000001,1810.2187149000001,1810.2187149000001,1810.2187149000001,1810.2187149000001,1810.2187149000001,1810.2187149000001,1810.2187149000001,None,None,None,,,,,,,,,,,1798.1955315,1798.1955315,None,,1805.7142715999998,1807.7381661999998,1808.7933235,1808.7933235,1808.7933235,1808.7933235,n,1.3453119000005245,1798.1955315,1798.1955315,,,4,001,2024-06-27_14h11.15.725,robot_sternberg_sign,2022.2.5,59.916117435570385,
"['V', 'N', 'Z', 'S']",True,Z,4,letter,3,False,False,"['robot_stimuli\\\\filler.mp4', 'robot_stimuli\\\\filler.mp4', 'robot_stimuli\\\\filler.mp4', 'robot_stimuli\\\\filler.mp4']",robot_stimuli\\filler.mp4,4,,,,,,,,,,,,,0,67,67,67,,,,,,,,,,,,,,,,,1820.1397444999998,1811.2747755,,,,,,,,,1823.0308151,1823.0308151,1823.0308151,1823.0308151,1823.0308151,1823.0308151,1823.0308151,1823.0308151,None,None,None,,,,,,,,,,,1810.2187149000001,1810.2187149000001,None,,1817.9271935000002,1820.1397444999998,1821.2076981,1821.2076981,1821.2076981,1821.2076981,c,1.714140000000043,1810.2187149000001,1810.2187149000001,,,4,001,2024-06-27_14h11.15.725,robot_sternberg_sign,2022.2.5,59.916117435570385,
"['F', 'J', 'R', 'C']",False,L,4,letter,3,False,False,"['robot_stimuli\\\\filler.mp4', 'robot_stimuli\\\\filler.mp4', 'robot_stimuli\\\\filler.mp4', 'robot_stimuli\\\\filler.mp4']",robot_stimuli\\filler.mp4,4,,,,,,,,,,,,,0,68,68,68,,,,,,,,,,,,,,,,,1832.9692905000002,1834.0263635000001,,,,,,,,,1837.6538812999997,1837.6538812999997,1837.6538812999997,1837.6538812999997,1837.6538812999997,1837.6538812999997,1837.6538812999997,1837.6538812999997,None,None,None,,,,,,,,,,,1823.0308151,1823.0308151,None,,1830.7580536,1832.9692905000002,1834.0263635000001,1834.0263635000001,1834.0263635000001,1834.0263635000001,n,3.4958989000001566,1823.0308151,1823.0308151,,,4,001,2024-06-27_14h11.15.725,robot_sternberg_sign,2022.2.5,59.916117435570385,
"['M', 'B', 'C', 'W']",False,G,4,letter,3,False,True,"['robot_stimuli\\\\filler.mp4', 'robot_stimuli\\\\filler.mp4', 'robot_stimuli\\\\filler.mp4', 'robot_stimuli\\\\filler.mp4']",robot_stimuli\\filler.mp4,4,,,,,,,,,,,,,0,69,69,69,,,,,,,,,,,,,,,,,1847.5826017,1848.647434,,,,,,,,,1850.1083945,1856.5851536999999,1850.1083945,1856.5851536999999,1850.1083945,1856.5851536999999,1850.1083945,1856.5851536999999,7.006172839506167,5.706502099999852,space,,,6.437291200000345,,,,,,,,1837.6538812999997,1837.6538812999997,None,,1845.5642987,1847.5826017,1848.647434,1848.647434,1848.647434,1848.647434,n,1.3633346000001438,1837.6538812999997,1837.6538812999997,,,4,001,2024-06-27_14h11.15.725,robot_sternberg_sign,2022.2.5,59.916117435570385,
"['D', 'M']",True,D,2,letter,3,True,False,"['robot_stimuli\\\\filler.mp4', 'robot_stimuli\\\\filler.mp4']",robot_stimuli\\filler.mp4,4,,,,,,,,,,,,,0,70,70,70,,,,,,,,,,,,,,,,,1865.2294444999998,1866.2906852,,,,,,,,,1867.9145662,1867.9145662,1867.9145662,1867.9145662,1867.9145662,1867.9145662,1867.9145662,1867.9145662,None,None,None,,,,,,,,,,,1856.5851536999999,1856.5851536999999,space,3.4418884000001526,1863.2211853,1865.2294444999998,1866.2906852,1866.2906852,1866.2906852,1866.2906852,c,1.5106457000001683,,,,,4,001,2024-06-27_14h11.15.725,robot_sternberg_sign,2022.2.5,59.916117435570385,
"['V', 'P']",False,D,2,letter,3,False,False,"['robot_stimuli\\\\filler.mp4', 'robot_stimuli\\\\filler.mp4']",robot_stimuli\\filler.mp4,4,,,,,,,,,,,,,0,71,71,71,,,,,,,,,,,,,,,,,1873.4747376,1874.5388877999999,,,,,,,,,1876.1686734999998,1876.1686734999998,1876.1686734999998,1876.1686734999998,1876.1686734999998,1876.1686734999998,1876.1686734999998,1876.1686734999998,None,None,None,,,,,,,,,,,1867.9145662,1867.9145662,None,,1871.2621085,1873.4747376,1874.5388877999999,1874.5388877999999,1874.5388877999999,1874.5388877999999,n,1.5501945000000887,1867.9145662,1867.9145662,,,4,001,2024-06-27_14h11.15.725,robot_sternberg_sign,2022.2.5,59.916117435570385,
"['B', 'X']",True,B,2,letter,3,False,False,"['robot_stimuli\\\\filler.mp4', 'robot_stimuli\\\\filler.mp4']",robot_stimuli\\filler.mp4,4,,,,,,,,,,,,,0,72,72,72,,,,,,,,,,,,,,,,,1881.5332242999998,1882.5909416,,,,,,,,,1884.4223428,1884.4223428,1884.4223428,1884.4223428,1884.4223428,1884.4223428,1884.4223428,1884.4223428,None,None,None,,,,,,,,,,,1876.1686734999998,1876.1686734999998,None,,1879.5190191000002,1881.5332242999998,1882.5909416,1882.5909416,1882.5909416,1882.5909416,c,1.6754025000000183,1876.1686734999998,1876.1686734999998,,,4,001,2024-06-27_14h11.15.725,robot_sternberg_sign,2022.2.5,59.916117435570385,
"['V', 'B']",False,F,2,letter,3,False,False,"['robot_stimuli\\\\filler.mp4', 'robot_stimuli\\\\filler.mp4']",robot_stimuli\\filler.mp4,4,,,,,,,,,,,,,0,73,73,73,,,,,,,,,,,,,,,,,1890.0065954000002,,,,,,,,,,1892.3063726999999,1892.3063726999999,1892.3063726999999,1892.3063726999999,1892.3063726999999,1892.3063726999999,1892.3063726999999,1892.3063726999999,None,None,None,,,,,,,,,,,1884.4223428,1884.4223428,None,,1887.7893138999998,1890.0065954000002,1891.074791,1891.074791,1891.074791,1891.074791,n,1.014896900000167,1884.4223428,1884.4223428,,,4,001,2024-06-27_14h11.15.725,robot_sternberg_sign,2022.2.5,59.916117435570385,
"['V', 'N']",True,V,2,letter,3,False,False,"['robot_stimuli\\\\filler.mp4', 'robot_stimuli\\\\filler.mp4']",robot_stimuli\\filler.mp4,4,,,,,,,,,,,,,0,74,74,74,,,,,,,,,,,,,,,,,1897.6728831,,,,,,,,,,1900.3673015,1900.3673015,1900.3673015,1900.3673015,1900.3673015,1900.3673015,1900.3673015,1900.3673015,None,None,None,,,,,,,,,,,1892.3063726999999,1892.3063726999999,None,,1895.6646442,1897.6728831,1898.7401042000001,1898.7401042000001,1898.7401042000001,1898.7401042000001,c,1.5262115999998969,1892.3063726999999,1892.3063726999999,,,4,001,2024-06-27_14h11.15.725,robot_sternberg_sign,2022.2.5,59.916117435570385,
"['N', 'V']",False,F,2,letter,3,False,False,"['robot_stimuli\\\\filler.mp4', 'robot_stimuli\\\\filler.mp4']",robot_stimuli\\filler.mp4,4,,,,,,,,,,,,,0,75,75,75,,,,,,,,,,,,,,,,,1905.9367674,1906.9908331000001,,,,,,,,,1908.2121585999998,1908.2121585999998,1908.2121585999998,1908.2121585999998,1908.2121585999998,1908.2121585999998,1908.2121585999998,1908.2121585999998,None,None,None,,,,,,,,,,,1900.3673015,1900.3673015,None,,1903.7226697,1905.9367674,1906.9908331000001,1906.9908331000001,1906.9908331000001,1906.9908331000001,n,1.075048400000469,1900.3673015,1900.3673015,,,4,001,2024-06-27_14h11.15.725,robot_sternberg_sign,2022.2.5,59.916117435570385,
"['B', 'L']",True,L,2,letter,3,False,False,"['robot_stimuli\\\\filler.mp4', 'robot_stimuli\\\\filler.mp4']",robot_stimuli\\filler.mp4,4,,,,,,,,,,,,,0,76,76,76,,,,,,,,,,,,,,,,,1913.566737,1914.6268642,,,,,,,,,1916.0471656999998,1916.0471656999998,1916.0471656999998,1916.0471656999998,1916.0471656999998,1916.0471656999998,1916.0471656999998,1916.0471656999998,None,None,None,,,,,,,,,,,1908.2121585999998,1908.2121585999998,None,,1911.5538132000001,1913.566737,1914.6268642,1914.6268642,1914.6268642,1914.6268642,c,1.2464297000001352,1908.2121585999998,1908.2121585999998,,,4,001,2024-06-27_14h11.15.725,robot_sternberg_sign,2022.2.5,59.916117435570385,
"['Z', 'D']",False,J,2,letter,3,False,False,"['robot_stimuli\\\\filler.mp4', 'robot_stimuli\\\\filler.mp4']",robot_stimuli\\filler.mp4,4,,,,,,,,,,,,,0,77,77,77,,,,,,,,,,,,,,,,,1921.4079249000001,1922.4773709,,,,,,,,,1923.6989528,1923.6989528,1923.6989528,1923.6989528,1923.6989528,1923.6989528,1923.6989528,1923.6989528,None,None,None,,,,,,,,,,,1916.0471656999998,1916.0471656999998,None,,1919.4001675,1921.4079249000001,1922.4773709,1922.4773709,1922.4773709,1922.4773709,n,1.0854688999997961,1916.0471656999998,1916.0471656999998,,,4,001,2024-06-27_14h11.15.725,robot_sternberg_sign,2022.2.5,59.916117435570385,
"['T', 'V']",True,V,2,letter,3,False,False,"['robot_stimuli\\\\filler.mp4', 'robot_stimuli\\\\filler.mp4']",robot_stimuli\\filler.mp4,4,,,,,,,,,,,,,0,78,78,78,,,,,,,,,,,,,,,,,1929.0718041,1924.7580494,,,,,,,,,1931.7699582,1931.7699582,1931.7699582,1931.7699582,1931.7699582,1931.7699582,1931.7699582,1931.7699582,None,None,None,,,,,,,,,,,1923.6989528,1923.6989528,None,,1927.0524157999998,1929.0718041,1930.1417167,1930.1417167,1930.1417167,1930.1417167,c,1.515487700000449,1923.6989528,1923.6989528,,,4,001,2024-06-27_14h11.15.725,robot_sternberg_sign,2022.2.5,59.916117435570385,
"['Q', 'F']",False,K,2,letter,3,False,True,"['robot_stimuli\\\\filler.mp4', 'robot_stimuli\\\\filler.mp4']",robot_stimuli\\filler.mp4,4,,,,,,,,,,,,,0,79,79,79,,,,,,,,,,,,,,,,,1937.3424845999998,1938.4078369999997,,,,,,,,,1940.4688674999998,1943.5987307,1940.4688674999998,1943.5987307,1940.4688674999998,1943.5987307,1940.4688674999998,1943.5987307,3.7654320987654284,2.298979099999997,space,,,3.085020600000007,,,,,,,,1931.7699582,1931.7699582,None,,1935.1284298,1937.3424845999998,1938.4078369999997,1938.4078369999997,1938.4078369999997,1938.4078369999997,n,1.897946800000227,1931.7699582,1931.7699582,,,4,001,2024-06-27_14h11.15.725,robot_sternberg_sign,2022.2.5,59.916117435570385,
"['H', 'C', 'G', 'J', 'R', 'Q']",True,H,6,letter,3,True,False,"['robot_stimuli\\\\filler.mp4', 'robot_stimuli\\\\filler.mp4', 'robot_stimuli\\\\filler.mp4', 'robot_stimuli\\\\filler.mp4', 'robot_stimuli\\\\filler.mp4', 'robot_stimuli\\\\filler.mp4']",robot_stimuli\\filler.mp4,4,,,,,,,,,,,,,0,80,80,80,,,,,,,,,,,,,,,,,1959.8238139999999,1946.9850179999999,,,,,,,,,1962.7177299,1962.7177299,1962.7177299,1962.7177299,1962.7177299,1962.7177299,1962.7177299,1962.7177299,None,None,None,,,,,,,,,,,1943.5987307,1943.5987307,space,2.2993906000001516,1957.8079079999998,1959.8238139999999,1960.8927921999998,1960.8927921999998,1960.8927921999998,1960.8927921999998,c,1.5966426999998475,,,,,4,001,2024-06-27_14h11.15.725,robot_sternberg_sign,2022.2.5,59.916117435570385,
"['B', 'R', 'C', 'W', 'V', 'L']",True,L,6,letter,3,False,False,"['robot_stimuli\\\\filler.mp4', 'robot_stimuli\\\\filler.mp4', 'robot_stimuli\\\\filler.mp4', 'robot_stimuli\\\\filler.mp4', 'robot_stimuli\\\\filler.mp4', 'robot_stimuli\\\\filler.mp4']",robot_stimuli\\filler.mp4,4,,,,,,,,,,,,,0,81,81,81,,,,,,,,,,,,,,,,,1976.411913,1977.4746034,,,,,,,,,1979.1012486999998,1979.1012486999998,1979.1012486999998,1979.1012486999998,1979.1012486999998,1979.1012486999998,1979.1012486999998,1979.1012486999998,None,None,None,,,,,,,,,,,1962.7177299,1962.7177299,None,,1974.3931189999998,1976.411913,1977.4746034,1977.4746034,1977.4746034,1977.4746034,c,1.4149222999999438,1962.7177299,1962.7177299,,,4,001,2024-06-27_14h11.15.725,robot_sternberg_sign,2022.2.5,59.916117435570385,
"['P', 'C', 'F', 'Q', 'H', 'S']",True,S,6,letter,3,False,False,"['robot_stimuli\\\\filler.mp4', 'robot_stimuli\\\\filler.mp4', 'robot_stimuli\\\\filler.mp4', 'robot_stimuli\\\\filler.mp4', 'robot_stimuli\\\\filler.mp4', 'robot_stimuli\\\\filler.mp4']",robot_stimuli\\filler.mp4,4,,,,,,,,,,,,,0,82,82,82,,,,,,,,,,,,,,,,,1993.0040942,1994.0674196,,,,,,,,,1995.4957389,1995.4957389,1995.4957389,1995.4957389,1995.4957389,1995.4957389,1995.4957389,1995.4957389,None,None,None,,,,,,,,,,,1979.1012486999998,1979.1012486999998,None,,1990.97982,1993.0040942,1994.0674196,1994.0674196,1994.0674196,1994.0674196,c,1.3584380000002056,1979.1012486999998,1979.1012486999998,,,4,001,2024-06-27_14h11.15.725,robot_sternberg_sign,2022.2.5,59.916117435570385,
"['Q', 'H', 'G', 'R', 'S', 'W']",False,T,6,letter,3,False,False,"['robot_stimuli\\\\filler.mp4', 'robot_stimuli\\\\filler.mp4', 'robot_stimuli\\\\filler.mp4', 'robot_stimuli\\\\filler.mp4', 'robot_stimuli\\\\filler.mp4', 'robot_stimuli\\\\filler.mp4']",robot_stimuli\\filler.mp4,4,,,,,,,,,,,,,0,83,83,83,,,,,,,,,,,,,,,,,2009.4130919999998,2010.4735007999998,,,,,,,,,2011.8940326000002,2011.8940326000002,2011.8940326000002,2011.8940326000002,2011.8940326000002,2011.8940326000002,2011.8940326000002,2011.8940326000002,None,None,None,,,,,,,,,,,1995.4957389,1995.4957389,None,,2007.1931166,2009.4130919999998,2010.4735007999998,2010.4735007999998,2010.4735007999998,2010.4735007999998,n,1.2795957000003,1995.4957389,1995.4957389,,,4,001,2024-06-27_14h11.15.725,robot_sternberg_sign,2022.2.5,59.916117435570385,
"['R', 'T', 'L', 'F', 'J', 'S']",False,M,6,letter,3,False,False,"['robot_stimuli\\\\filler.mp4', 'robot_stimuli\\\\filler.mp4', 'robot_stimuli\\\\filler.mp4', 'robot_stimuli\\\\filler.mp4', 'robot_stimuli\\\\filler.mp4', 'robot_stimuli\\\\filler.mp4']",robot_stimuli\\filler.mp4,4,,,,,,,,,,,,,0,84,84,84,,,,,,,,,,,,,,,,,2025.6027662000001,2026.6579815,,,,,,,,,2028.4864377999997,2028.4864377999997,2028.4864377999997,2028.4864377999997,2028.4864377999997,2028.4864377999997,2028.4864377999997,2028.4864377999997,None,None,None,,,,,,,,,,,2011.8940326000002,2011.8940326000002,None,,2023.5831401,2025.6027662000001,2026.6579815,2026.6579815,2026.6579815,2026.6579815,n,1.671857700000146,2011.8940326000002,2011.8940326000002,,,4,001,2024-06-27_14h11.15.725,robot_sternberg_sign,2022.2.5,59.916117435570385,
"['T', 'D', 'X', 'V', 'B', 'S']",True,D,6,letter,3,False,False,"['robot_stimuli\\\\filler.mp4', 'robot_stimuli\\\\filler.mp4', 'robot_stimuli\\\\filler.mp4', 'robot_stimuli\\\\filler.mp4', 'robot_stimuli\\\\filler.mp4', 'robot_stimuli\\\\filler.mp4']",robot_stimuli\\filler.mp4,4,,,,,,,,,,,,,0,85,85,85,,,,,,,,,,,,,,,,,2042.1872847,2043.2438204999999,,,,,,,,,2046.4794100999998,2046.4794100999998,2046.4794100999998,2046.4794100999998,2046.4794100999998,2046.4794100999998,2046.4794100999998,2046.4794100999998,None,None,None,,,,,,,,,,,2028.4864377999997,2028.4864377999997,None,,2040.1673774,2042.1872847,2043.2438204999999,2043.2438204999999,2043.2438204999999,2043.2438204999999,c,3.0706946000000244,2028.4864377999997,2028.4864377999997,,,4,001,2024-06-27_14h11.15.725,robot_sternberg_sign,2022.2.5,59.916117435570385,
"['H', 'B', 'X', 'Z', 'J', 'R']",False,M,6,letter,3,False,False,"['robot_stimuli\\\\filler.mp4', 'robot_stimuli\\\\filler.mp4', 'robot_stimuli\\\\filler.mp4', 'robot_stimuli\\\\filler.mp4', 'robot_stimuli\\\\filler.mp4', 'robot_stimuli\\\\filler.mp4']",robot_stimuli\\filler.mp4,4,,,,,,,,,,,,,0,86,86,86,,,,,,,,,,,,,,,,,2060.5827974999997,2061.6417715,,,,,,,,,2064.4685203,2064.4685203,2064.4685203,2064.4685203,2064.4685203,2064.4685203,2064.4685203,2064.4685203,None,None,None,,,,,,,,,,,2046.4794100999998,2046.4794100999998,None,,2058.5683752,2060.5827974999997,2061.6417715,2061.6417715,2061.6417715,2061.6417715,n,2.6401624999998603,2046.4794100999998,2046.4794100999998,,,4,001,2024-06-27_14h11.15.725,robot_sternberg_sign,2022.2.5,59.916117435570385,
"['C', 'W', 'P', 'B', 'N', 'F']",False,G,6,letter,3,False,False,"['robot_stimuli\\\\filler.mp4', 'robot_stimuli\\\\filler.mp4', 'robot_stimuli\\\\filler.mp4', 'robot_stimuli\\\\filler.mp4', 'robot_stimuli\\\\filler.mp4', 'robot_stimuli\\\\filler.mp4']",robot_stimuli\\filler.mp4,4,,,,,,,,,,,,,0,87,87,87,,,,,,,,,,,,,,,,,2078.3821251,2079.4419202,,,,,,,,,2080.6628637,2080.6628637,2080.6628637,2080.6628637,2080.6628637,2080.6628637,2080.6628637,2080.6628637,None,None,None,,,,,,,,,,,2064.4685203,2064.4685203,None,,2076.3644021,2078.3821251,2079.4419202,2079.4419202,2079.4419202,2079.4419202,n,1.1670869000004132,2064.4685203,2064.4685203,,,4,001,2024-06-27_14h11.15.725,robot_sternberg_sign,2022.2.5,59.916117435570385,
"['S', 'N', 'J', 'G', 'K', 'R']",True,R,6,letter,3,False,False,"['robot_stimuli\\\\filler.mp4', 'robot_stimuli\\\\filler.mp4', 'robot_stimuli\\\\filler.mp4', 'robot_stimuli\\\\filler.mp4', 'robot_stimuli\\\\filler.mp4', 'robot_stimuli\\\\filler.mp4']",robot_stimuli\\filler.mp4,4,,,,,,,,,,,,,0,88,88,88,,,,,,,,,,,,,,,,,2094.7696075999997,2095.8232082,,,,,,,,,2097.2456635,2097.2456635,2097.2456635,2097.2456635,2097.2456635,2097.2456635,2097.2456635,2097.2456635,None,None,None,,,,,,,,,,,2080.6628637,2080.6628637,None,,2092.5607867999997,2094.7696075999997,2095.8232082,2095.8232082,2095.8232082,2095.8232082,c,1.3785727000004044,2080.6628637,2080.6628637,,,4,001,2024-06-27_14h11.15.725,robot_sternberg_sign,2022.2.5,59.916117435570385,
"['T', 'N', 'P', 'J', 'X', 'F']",False,W,6,letter,3,False,True,"['robot_stimuli\\\\filler.mp4', 'robot_stimuli\\\\filler.mp4', 'robot_stimuli\\\\filler.mp4', 'robot_stimuli\\\\filler.mp4', 'robot_stimuli\\\\filler.mp4', 'robot_stimuli\\\\filler.mp4']",robot_stimuli\\filler.mp4,4,,,,,,,,,,,,,0,89,89,89,,,,,,,,,,,,,,,,,2111.5642352,2112.6240512,,,,,,,,,2115.8851541999998,2125.2544145,2115.8851541999998,2125.2544145,2115.8851541999998,2125.2544145,2115.8851541999998,2125.2544145,7.777777777777772,7.399811100000079,space,,,9.308602200000223,,,,,,,,2097.2456635,2097.2456635,None,,2109.3573619,2111.5642352,2112.6240512,2112.6240512,2112.6240512,2112.6240512,n,3.098167200000262,2097.2456635,2097.2456635,,,4,001,2024-06-27_14h11.15.725,robot_sternberg_sign,2022.2.5,59.916117435570385,
"['R_Torso_Z_Back', 'R_Torso_Y_For', 'R_Head_X_Back', 'L_Torso_X_For']",True,R_Torso_Y_For,4,robot,4,True,False,"['robot_stimuli\\R_Torso_Z_Back.mp4', 'robot_stimuli\\R_Torso_Y_For.mp4', 'robot_stimuli\\R_Head_X_Back.mp4', 'robot_stimuli\\L_Torso_X_For.mp4']",robot_stimuli\R_Torso_Y_For.mp4,4,,,,,,,,,,,,,0,90,90,90,,,,,,,,,,,,,,,,,2145.5111577,2146.5995605,,,,,,,,,2150.2495117,2150.2495117,2150.2495117,2150.2495117,2150.2495117,2150.2495117,2150.2495117,2150.2495117,None,None,None,,,,,,,,,,,2125.2544145,2125.2544145,space,4.332300600000508,,,,2146.5995605,2146.5995605,2146.5995605,c,3.1472278000001097,,,2141.87914,2146.5995605,4,001,2024-06-27_14h11.15.725,robot_sternberg_sign,2022.2.5,59.916117435570385,
"['R_Torso_Z_Back', 'L_Torso_X_For', 'L_Head_Y_Back', 'L_Head_Z_Back']",True,L_Head_Z_Back,4,robot,4,False,False,"['robot_stimuli\\R_Torso_Z_Back.mp4', 'robot_stimuli\\L_Torso_X_For.mp4', 'robot_stimuli\\L_Head_Y_Back.mp4', 'robot_stimuli\\L_Head_Z_Back.mp4']",robot_stimuli\L_Head_Z_Back.mp4,4,,,,,,,,,,,,,0,91,91,91,,,,,,,,,,,,,,,,,2166.1050823,2167.1827881,,,,,,,,,2170.8106933999998,2170.8106933999998,2170.8106933999998,2170.8106933999998,2170.8106933999998,2170.8106933999998,2170.8106933999998,2170.8106933999998,None,None,None,,,,,,,,,,,2150.2495117,2150.2495117,None,,,,,2167.1827881,2167.1827881,2167.1827881,c,3.138376100000187,2150.2495117,2150.2495117,2162.4735442,2167.1827881,4,001,2024-06-27_14h11.15.725,robot_sternberg_sign,2022.2.5,59.916117435570385,
"['R_Torso_Y_Back', 'L_Arm_Z_For', 'R_Torso_X_For', 'L_Torso_X_For']",False,L_Head_Z_Back,4,robot,4,False,False,"['robot_stimuli\\R_Torso_Y_Back.mp4', 'robot_stimuli\\L_Arm_Z_For.mp4', 'robot_stimuli\\R_Torso_X_For.mp4', 'robot_stimuli\\L_Torso_X_For.mp4']",robot_stimuli\L_Head_Z_Back.mp4,4,,,,,,,,,,,,,0,92,92,92,,,,,,,,,,,,,,,,,2186.6903404,2171.893013,,,,,,,,,2191.4165397,2191.4165397,2191.4165397,2191.4165397,2191.4165397,2191.4165397,2191.4165397,2191.4165397,None,None,None,,,,,,,,,,,2170.8106933999998,2170.8106933999998,None,,,,,2187.7781155,2187.7781155,2187.7781155,n,2.783820300000116,2170.8106933999998,2170.8106933999998,2183.047944,2187.7781155,4,001,2024-06-27_14h11.15.725,robot_sternberg_sign,2022.2.5,59.916117435570385,
"['L_Head_Z_Back', 'R_Head_Y_For', 'R_Torso_Z_For', 'R_Head_X_For']",False,R_Base_Z_Back,4,robot,4,False,False,"['robot_stimuli\\L_Head_Z_Back.mp4', 'robot_stimuli\\R_Head_Y_For.mp4', 'robot_stimuli\\R_Torso_Z_For.mp4', 'robot_stimuli\\R_Head_X_For.mp4']",robot_stimuli\R_Base_Z_Back.mp4,4,,,,,,,,,,,,,0,93,93,93,,,,,,,,,,,,,,,,,2207.3281693999998,2208.4167767999998,,,,,,,,,2211.9658571,2211.9658571,2211.9658571,2211.9658571,2211.9658571,2211.9658571,2211.9658571,2211.9658571,None,None,None,,,,,,,,,,,2191.4165397,2191.4165397,None,,,,,2208.4167767999998,2208.4167767999998,2208.4167767999998,n,3.239971300000434,2191.4165397,2191.4165397,2203.6847386,2208.4167767999998,4,001,2024-06-27_14h11.15.725,robot_sternberg_sign,2022.2.5,59.916117435570385,
"['R_Head_X_Back', 'L_Base_Y_For', 'R_Torso_Z_For', 'L_Torso_Z_For']",True,L_Base_Y_For,4,robot,4,False,False,"['robot_stimuli\\R_Head_X_Back.mp4', 'robot_stimuli\\L_Base_Y_For.mp4', 'robot_stimuli\\R_Torso_Z_For.mp4', 'robot_stimuli\\L_Torso_Z_For.mp4']",robot_stimuli\L_Base_Y_For.mp4,4,,,,,,,,,,,,,0,94,94,94,,,,,,,,,,,,,,,,,2227.7433591999998,2228.8355091,,,,,,,,,2232.3827395,2232.3827395,2232.3827395,2232.3827395,2232.3827395,2232.3827395,2232.3827395,2232.3827395,None,None,None,,,,,,,,,,,2211.9658571,2211.9658571,None,,,,,2228.8355091,2228.8355091,2228.8355091,c,3.0380905000001803,2211.9658571,2211.9658571,2224.1134856999997,2228.8355091,4,001,2024-06-27_14h11.15.725,robot_sternberg_sign,2022.2.5,59.916117435570385,
"['L_Torso_Y_For', 'R_Head_Y_Back', 'L_Base_X_Back', 'R_Torso_Y_Back']",False,L_Arm_Z_For,4,robot,4,False,False,"['robot_stimuli\\L_Torso_Y_For.mp4', 'robot_stimuli\\R_Head_Y_Back.mp4', 'robot_stimuli\\L_Base_X_Back.mp4', 'robot_stimuli\\R_Torso_Y_Back.mp4']",robot_stimuli\L_Arm_Z_For.mp4,4,,,,,,,,,,,,,0,95,95,95,,,,,,,,,,,,,,,,,2248.2282568,2249.3157161999998,,,,,,,,,2252.9631005,2252.9631005,2252.9631005,2252.9631005,2252.9631005,2252.9631005,2252.9631005,2252.9631005,None,None,None,,,,,,,,,,,2232.3827395,2232.3827395,None,,,,,2249.3157161999998,2249.3157161999998,2249.3157161999998,n,3.1580471000002035,2232.3827395,2232.3827395,2244.5932321,2249.3157161999998,4,001,2024-06-27_14h11.15.725,robot_sternberg_sign,2022.2.5,59.916117435570385,
"['L_Head_Y_Back', 'L_Base_X_Back', 'R_Torso_Z_Back', 'L_Arm_Z_For']",True,L_Base_X_Back,4,robot,4,False,False,"['robot_stimuli\\L_Head_Y_Back.mp4', 'robot_stimuli\\L_Base_X_Back.mp4', 'robot_stimuli\\R_Torso_Z_Back.mp4', 'robot_stimuli\\L_Arm_Z_For.mp4']",robot_stimuli\L_Base_X_Back.mp4,4,,,,,,,,,,,,,0,96,96,96,,,,,,,,,,,,,,,,,2268.7941834,2269.8837175999997,,,,,,,,,2273.4989358,2273.4989358,2273.4989358,2273.4989358,2273.4989358,2273.4989358,2273.4989358,2273.4989358,None,None,None,,,,,,,,,,,2252.9631005,2252.9631005,None,,,,,2269.8837175999997,2269.8837175999997,2269.8837175999997,c,3.4303155000002334,2252.9631005,2252.9631005,2265.163015,2269.8837175999997,4,001,2024-06-27_14h11.15.725,robot_sternberg_sign,2022.2.5,59.916117435570385,
"['L_Torso_Y_Back', 'R_Arm_X_For', 'L_Arm_X_For', 'L_Base_X_Back']",False,R_Head_Z_For,4,robot,4,False,False,"['robot_stimuli\\L_Torso_Y_Back.mp4', 'robot_stimuli\\R_Arm_X_For.mp4', 'robot_stimuli\\L_Arm_X_For.mp4', 'robot_stimuli\\L_Base_X_Back.mp4']",robot_stimuli\R_Head_Z_For.mp4,4,,,,,,,,,,,,,0,97,97,97,,,,,,,,,,,,,,,,,2289.2069337,2274.5787149,,,,,,,,,2293.9359194999997,2293.9359194999997,2293.9359194999997,2293.9359194999997,2293.9359194999997,2293.9359194999997,2293.9359194999997,2293.9359194999997,None,None,None,,,,,,,,,,,2273.4989358,2273.4989358,None,,,,,2290.2948852,2290.2948852,2290.2948852,n,2.2421892000002117,2273.4989358,2273.4989358,2285.5989673,2290.2948852,4,001,2024-06-27_14h11.15.725,robot_sternberg_sign,2022.2.5,59.916117435570385,
"['R_Head_X_For', 'R_Head_Y_For', 'L_Arm_X_For', 'R_Head_Y_Back']",False,L_Base_X_Back,4,robot,4,False,False,"['robot_stimuli\\R_Head_X_For.mp4', 'robot_stimuli\\R_Head_Y_For.mp4', 'robot_stimuli\\L_Arm_X_For.mp4', 'robot_stimuli\\R_Head_Y_Back.mp4']",robot_stimuli\L_Base_X_Back.mp4,4,,,,,,,,,,,,,0,98,98,98,,,,,,,,,,,,,,,,,2309.8086301,2310.8996742,,,,,,,,,2317.0304639,2317.0304639,2317.0304639,2317.0304639,2317.0304639,2317.0304639,2317.0304639,2317.0304639,None,None,None,,,,,,,,,,,2293.9359194999997,2293.9359194999997,None,,,,,2310.8996742,2310.8996742,2310.8996742,n,6.094493300000067,2293.9359194999997,2293.9359194999997,2306.1639213,2310.8996742,4,001,2024-06-27_14h11.15.725,robot_sternberg_sign,2022.2.5,59.916117435570385,
"['R_Base_Z_For', 'L_Head_X_Back', 'R_Torso_Y_For', 'R_Torso_Z_Back']",True,L_Head_X_Back,4,robot,4,False,True,"['robot_stimuli\\R_Base_Z_For.mp4', 'robot_stimuli\\L_Head_X_Back.mp4', 'robot_stimuli\\R_Torso_Y_For.mp4', 'robot_stimuli\\R_Torso_Z_Back.mp4']",robot_stimuli\L_Head_X_Back.mp4,4,,,,,,,,,,,,,0,99,99,99,,,,,,,,,,,,,,,,,2332.9071761,2318.1112378,,,,,,,,,2337.6811312,2342.3047929,2337.6811312,2342.3047929,2337.6811312,2342.3047929,2337.6811312,2342.3047929,13.487654320987652,2.8741635999999744,space,,,4.5758191000004445,,,,,,,,2317.0304639,2317.0304639,None,,,,,2334.0005492,2334.0005492,2334.0005492,c,2.3362568000002284,2317.0304639,2317.0304639,2329.2665414,2334.0005492,4,001,2024-06-27_14h11.15.725,robot_sternberg_sign,2022.2.5,59.916117435570385,
"['R_Arm_Z_For', 'R_Head_Y_Back']",True,R_Arm_Z_For,2,robot,4,True,False,"['robot_stimuli\\R_Arm_Z_For.mp4', 'robot_stimuli\\R_Head_Y_Back.mp4']",robot_stimuli\R_Arm_Z_For.mp4,4,,,,,,,,,,,,,0,100,100,100,,,,,,,,,,,,,,,,,2352.7875241,2353.8673619,,,,,,,,,2357.5160626,2357.5160626,2357.5160626,2357.5160626,2357.5160626,2357.5160626,2357.5160626,2357.5160626,None,None,None,,,,,,,,,,,2342.3047929,2342.3047929,space,2.041476600000351,,,,2353.8673619,2353.8673619,2353.8673619,c,2.886417100000017,,,2349.1673299999998,2353.8673619,4,001,2024-06-27_14h11.15.725,robot_sternberg_sign,2022.2.5,59.916117435570385,
"['L_Base_Y_Back', 'R_Base_X_For']",False,R_Arm_X_For,2,robot,4,False,False,"['robot_stimuli\\L_Base_Y_Back.mp4', 'robot_stimuli\\R_Base_X_For.mp4']",robot_stimuli\R_Arm_X_For.mp4,4,,,,,,,,,,,,,0,101,101,101,,,,,,,,,,,,,,,,,2365.7899757,2358.5917968,,,,,,,,,2370.5098732,2370.5098732,2370.5098732,2370.5098732,2370.5098732,2370.5098732,2370.5098732,2370.5098732,None,None,None,,,,,,,,,,,2357.5160626,2357.5160626,None,,,,,2366.8821503,2366.8821503,2366.8821503,n,2.8546839000000546,2357.5160626,2357.5160626,2362.2609247,2366.8821503,4,001,2024-06-27_14h11.15.725,robot_sternberg_sign,2022.2.5,59.916117435570385,
"['L_Arm_X_For', 'R_Head_Z_For']",False,R_Head_Y_For,2,robot,4,False,False,"['robot_stimuli\\L_Arm_X_For.mp4', 'robot_stimuli\\R_Head_Z_For.mp4']",robot_stimuli\R_Head_Y_For.mp4,4,,,,,,,,,,,,,0,102,102,102,,,,,,,,,,,,,,,,,2378.9629243,2380.0649417,,,,,,,,,2383.7037034,2383.7037034,2383.7037034,2383.7037034,2383.7037034,2383.7037034,2383.7037034,2383.7037034,None,None,None,,,,,,,,,,,2370.5098732,2370.5098732,None,,,,,2380.0649417,2380.0649417,2380.0649417,n,2.8721393999999236,2370.5098732,2370.5098732,2375.318443,2380.0649417,4,001,2024-06-27_14h11.15.725,robot_sternberg_sign,2022.2.5,59.916117435570385,
"['L_Head_Y_For', 'L_Head_Y_Back']",False,R_Base_X_For,2,robot,4,False,False,"['robot_stimuli\\L_Head_Y_For.mp4', 'robot_stimuli\\L_Head_Y_Back.mp4']",robot_stimuli\R_Base_X_For.mp4,4,,,,,,,,,,,,,0,103,103,103,,,,,,,,,,,,,,,,,2392.1428541,2393.2326612,,,,,,,,,2397.4014462,2397.4014462,2397.4014462,2397.4014462,2397.4014462,2397.4014462,2397.4014462,2397.4014462,None,None,None,,,,,,,,,,,2383.7037034,2383.7037034,None,,,,,2393.2326612,2393.2326612,2393.2326612,n,4.128772100000333,2383.7037034,2383.7037034,2388.5146352,2393.2326612,4,001,2024-06-27_14h11.15.725,robot_sternberg_sign,2022.2.5,59.916117435570385,
"['L_Head_X_Back', 'L_Torso_Y_For']",False,R_Arm_X_For,2,robot,4,False,False,"['robot_stimuli\\L_Head_X_Back.mp4', 'robot_stimuli\\L_Torso_Y_For.mp4']",robot_stimuli\R_Arm_X_For.mp4,4,,,,,,,,,,,,,0,104,104,104,,,,,,,,,,,,,,,,,2405.8240035,2406.9154379,,,,,,,,,2410.568471,2410.568471,2410.568471,2410.568471,2410.568471,2410.568471,2410.568471,2410.568471,None,None,None,,,,,,,,,,,2397.4014462,2397.4014462,None,,,,,2406.9154379,2406.9154379,2406.9154379,n,3.2298561000002337,2397.4014462,2397.4014462,2402.1927283,2406.9154379,4,001,2024-06-27_14h11.15.725,robot_sternberg_sign,2022.2.5,59.916117435570385,
"['R_Torso_Y_For', 'L_Arm_X_Back']",True,R_Torso_Y_For,2,robot,4,False,False,"['robot_stimuli\\R_Torso_Y_For.mp4', 'robot_stimuli\\L_Arm_X_Back.mp4']",robot_stimuli\R_Torso_Y_For.mp4,4,,,,,,,,,,,,,0,105,105,105,,,,,,,,,,,,,,,,,2418.9875974,2420.0720449,,,,,,,,,2423.7203546,2423.7203546,2423.7203546,2423.7203546,2423.7203546,2423.7203546,2423.7203546,2423.7203546,None,None,None,,,,,,,,,,,2410.568471,2410.568471,None,,,,,2420.0720449,2420.0720449,2420.0720449,c,2.801091599999836,2410.568471,2410.568471,2415.3657902,2420.0720449,4,001,2024-06-27_14h11.15.725,robot_sternberg_sign,2022.2.5,59.916117435570385,
"['R_Head_Z_For', 'R_Arm_Z_For']",True,R_Head_Z_For,2,robot,4,False,False,"['robot_stimuli\\R_Head_Z_For.mp4', 'robot_stimuli\\R_Arm_Z_For.mp4']",robot_stimuli\R_Head_Z_For.mp4,4,,,,,,,,,,,,,0,106,106,106,,,,,,,,,,,,,,,,,2432.1434372,2433.2320707,,,,,,,,,2436.8616542,2436.8616542,2436.8616542,2436.8616542,2436.8616542,2436.8616542,2436.8616542,2436.8616542,None,None,None,,,,,,,,,,,2423.7203546,2423.7203546,None,,,,,2433.2320707,2433.2320707,2433.2320707,c,2.7219810999999936,2423.7203546,2423.7203546,2428.5141282,2433.2320707,4,001,2024-06-27_14h11.15.725,robot_sternberg_sign,2022.2.5,59.916117435570385,
"['L_Head_Z_Back', 'L_Head_X_For']",True,L_Head_Z_Back,2,robot,4,False,False,"['robot_stimuli\\L_Head_Z_Back.mp4', 'robot_stimuli\\L_Head_X_For.mp4']",robot_stimuli\L_Head_Z_Back.mp4,4,,,,,,,,,,,,,0,107,107,107,,,,,,,,,,,,,,,,,2445.2426543,2446.3344079,,,,,,,,,2449.9848388,2449.9848388,2449.9848388,2449.9848388,2449.9848388,2449.9848388,2449.9848388,2449.9848388,None,None,None,,,,,,,,,,,2436.8616542,2436.8616542,None,,,,,2446.3344079,2446.3344079,2446.3344079,c,3.122581099999934,2436.8616542,2436.8616542,2441.6677749,2446.3344079,4,001,2024-06-27_14h11.15.725,robot_sternberg_sign,2022.2.5,59.916117435570385,
"['L_Arm_Y_Back', 'L_Base_Y_Back']",False,L_Torso_Z_Back,2,robot,4,False,False,"['robot_stimuli\\L_Arm_Y_Back.mp4', 'robot_stimuli\\L_Base_Y_Back.mp4']",robot_stimuli\L_Torso_Z_Back.mp4,4,,,,,,,,,,,,,0,108,108,108,,,,,,,,,,,,,,,,,2458.3382136,2459.4162223,,,,,,,,,2462.9208137,2462.9208137,2462.9208137,2462.9208137,2462.9208137,2462.9208137,2462.9208137,2462.9208137,None,None,None,,,,,,,,,,,2449.9848388,2449.9848388,None,,,,,2459.4162223,2459.4162223,2459.4162223,n,2.0976129000000583,2449.9848388,2449.9848388,2454.7744218,2459.4162223,4,001,2024-06-27_14h11.15.725,robot_sternberg_sign,2022.2.5,59.916117435570385,
"['L_Arm_X_Back', 'L_Torso_Y_Back']",True,L_Arm_X_Back,2,robot,4,False,True,"['robot_stimuli\\L_Arm_X_Back.mp4', 'robot_stimuli\\L_Torso_Y_Back.mp4']",robot_stimuli\L_Arm_X_Back.mp4,4,,,,,,,,,,,,,0,109,109,109,,,,,,,,,,,,,,,,,2471.2236629,2463.9953983,,,,,,,,,2475.9822312,2492.0285072,2475.9822312,2492.0285072,2475.9822312,2492.0285072,2475.9822312,2492.0285072,11.172839506172835,15.044635000000198,space,,,16.004165600000306,,,,,,,,2462.9208137,2462.9208137,None,,,,,2472.3152271999998,2472.3152271999998,2472.3152271999998,c,2.862223200000244,2462.9208137,2462.9208137,2467.717364,2472.3152271999998,4,001,2024-06-27_14h11.15.725,robot_sternberg_sign,2022.2.5,59.916117435570385,
"['L_Torso_X_For', 'R_Head_Z_Back', 'R_Torso_Y_Back', 'R_Arm_Z_For', 'L_Arm_X_For', 'R_Torso_Z_For']",True,L_Arm_X_For,6,robot,4,True,False,"['robot_stimuli\\L_Torso_X_For.mp4', 'robot_stimuli\\R_Head_Z_Back.mp4', 'robot_stimuli\\R_Torso_Y_Back.mp4', 'robot_stimuli\\R_Arm_Z_For.mp4', 'robot_stimuli\\L_Arm_X_For.mp4', 'robot_stimuli\\R_Torso_Z_For.mp4']",robot_stimuli\L_Arm_X_For.mp4,4,,,,,,,,,,,,,0,110,110,110,,,,,,,,,,,,,,,,,2518.3903595,2496.1164780999998,,,,,,,,,2523.1329544,2523.1329544,2523.1329544,2523.1329544,2523.1329544,2523.1329544,2523.1329544,2523.1329544,None,None,None,,,,,,,,,,,2492.0285072,2492.0285072,space,2.9891732999999476,,,,2519.4838169,2519.4838169,2519.4838169,c,3.014154000000417,,,2514.7482799,2519.4838169,4,001,2024-06-27_14h11.15.725,robot_sternberg_sign,2022.2.5,59.916117435570385,
"['L_Base_X_Back', 'R_Base_Z_Back', 'R_Head_Z_Back', 'R_Head_Y_Back', 'R_Torso_X_Back', 'R_Arm_Y_Back']",True,R_Base_Z_Back,6,robot,4,False,False,"['robot_stimuli\\L_Base_X_Back.mp4', 'robot_stimuli\\R_Base_Z_Back.mp4', 'robot_stimuli\\R_Head_Z_Back.mp4', 'robot_stimuli\\R_Head_Y_Back.mp4', 'robot_stimuli\\R_Torso_X_Back.mp4', 'robot_stimuli\\R_Arm_Y_Back.mp4']",robot_stimuli\R_Base_Z_Back.mp4,4,,,,,,,,,,,,,0,111,111,111,,,,,,,,,,,,,,,,,2546.2955032,2547.3818963,,,,,,,,,2551.4182575,2551.4182575,2551.4182575,2551.4182575,2551.4182575,2551.4182575,2551.4182575,2551.4182575,None,None,None,,,,,,,,,,,2523.1329544,2523.1329544,None,,,,,2547.3818963,2547.3818963,2547.3818963,c,3.996467500000108,2523.1329544,2523.1329544,2542.663718,2547.3818963,4,001,2024-06-27_14h11.15.725,robot_sternberg_sign,2022.2.5,59.916117435570385,
"['L_Base_Y_Back', 'L_Head_X_For', 'R_Base_X_Back', 'R_Base_X_For', 'L_Base_Z_Back', 'R_Base_Y_Back']",False,R_Head_Y_Back,6,robot,4,False,False,"['robot_stimuli\\L_Base_Y_Back.mp4', 'robot_stimuli\\L_Head_X_For.mp4', 'robot_stimuli\\R_Base_X_Back.mp4', 'robot_stimuli\\R_Base_X_For.mp4', 'robot_stimuli\\L_Base_Z_Back.mp4', 'robot_stimuli\\R_Base_Y_Back.mp4']",robot_stimuli\R_Head_Y_Back.mp4,4,,,,,,,,,,,,,0,112,112,112,,,,,,,,,,,,,,,,,2574.4928196,2575.5803665,,,,,,,,,2579.2308981,2579.2308981,2579.2308981,2579.2308981,2579.2308981,2579.2308981,2579.2308981,2579.2308981,None,None,None,,,,,,,,,,,2551.4182575,2551.4182575,None,,,,,2575.5803665,2575.5803665,2575.5803665,n,2.9808041000005687,2551.4182575,2551.4182575,2570.8601979,2575.5803665,4,001,2024-06-27_14h11.15.725,robot_sternberg_sign,2022.2.5,59.916117435570385,
"['R_Base_X_Back', 'R_Base_Z_For', 'R_Base_Y_For', 'L_Base_X_Back', 'L_Torso_X_For', 'R_Torso_Y_For']",True,R_Base_Z_For,6,robot,4,False,False,"['robot_stimuli\\R_Base_X_Back.mp4', 'robot_stimuli\\R_Base_Z_For.mp4', 'robot_stimuli\\R_Base_Y_For.mp4', 'robot_stimuli\\L_Base_X_Back.mp4', 'robot_stimuli\\L_Torso_X_For.mp4', 'robot_stimuli\\R_Torso_Y_For.mp4']",robot_stimuli\R_Base_Z_For.mp4,4,,,,,,,,,,,,,0,113,113,113,,,,,,,,,,,,,,,,,2602.5241968,2603.6134186,,,,,,,,,2608.1175405999998,2608.1175405999998,2608.1175405999998,2608.1175405999998,2608.1175405999998,2608.1175405999998,2608.1175405999998,2608.1175405999998,None,None,None,,,,,,,,,,,2579.2308981,2579.2308981,None,,,,,2603.6134186,2603.6134186,2603.6134186,c,4.475541799999974,2579.2308981,2579.2308981,2598.8812411999997,2603.6134186,4,001,2024-06-27_14h11.15.725,robot_sternberg_sign,2022.2.5,59.916117435570385,
