sequence,is_true,target,condition,stimuli,block,is_block_beginning,is_block_ending,sequence_fnames,target_fname,subject,retraining.thisRepN,retraining.thisTrialN,retraining.thisN,retraining.thisIndex,training.thisRepN,training.thisTrialN,training.thisN,training.thisIndex,training_sequence_loop.thisRepN,training_sequence_loop.thisTrialN,training_sequence_loop.thisN,training_sequence_loop.thisIndex,trials.thisRepN,trials.thisTrialN,trials.thisN,trials.thisIndex,sequence_loop.thisRepN,sequence_loop.thisTrialN,sequence_loop.thisN,sequence_loop.thisIndex,langage_text.started,langage_key.started,langage_key.keys,langage_key.rt,intro_text.started,intro_key.started,intro_key.keys,intro_key.rt,training_intro_text.started,training_intro_key.started,training_intro_key.keys,training_intro_key.rt,polygon.started,polygon.stopped,training_presentation_letter.started,training_presentation_letter.stopped,training_recall_letter.started,training_recall_key.started,training_recall_question.started,training_recall_answer.started,training_recall_key.keys,training_recall_key.rt,RSME_labels.started,RSME_labels.stopped,RSME_ticks.started,RSME_ticks.stopped,RSME_text.started,RSME_text.stopped,RSME_key.started,RSME_key.stopped,RSME_ticks.response,RSME_ticks.rt,RSME_key.keys,training_intro_text.stopped,training_intro_key.stopped,RSME_key.rt,training_presentation_movie.started,training_recall_movie.started,experiment_beginning_text.started,experiment_beginning_keys.started,experiment_beginning_key.started,experiment_beginning_key.keys,experiment_beginning_key.rt,block_intro_text.started,block_intro_key.started,block_intro_key.keys,block_intro_key.rt,presentation_movie.started,recall_movie.started,recall_key.started,recall_question.started,recall_answer.started,recall_key.keys,recall_key.rt,block_intro_text.stopped,block_intro_key.stopped,presentation_letter.started,presentation_letter.stopped,recall_letter.started,participant,session,date,expName,psychopyVersion,frameRate,
,,,,,,,,,,,,,,,,,,,,,,,,,,,,,,,15.528819199999987,15.528819199999987,f,0.573623600000019,,,,,,,,,,,,,,,,,,,,,,,,,,,,,,,,,,,,,,,,,,,,,,,,,,,,,,,,11,001,2024-07-04_10h07.08.044,robot_sternberg_sign,2022.2.5,60.008233129594615,
,,,,,,,,,,,,,,,,,,,,,,,,,,,,,,,,,,,16.166830100000027,16.166830100000027,space,151.2316204,,,,,,,,,,,,,,,,,,,,,,,,,,,,,,,,,,,,,,,,,,,,,,,,,,,,11,001,2024-07-04_10h07.08.044,robot_sternberg_sign,2022.2.5,60.008233129594615,
"['L', 'M']",False,Q,2,letter,2,True,False,"['robot_stimuli\\\\filler.mp4', 'robot_stimuli\\\\filler.mp4']",robot_stimuli\\filler.mp4,11,0,0,0,0,0,0,0,0,,,,,,,,,,,,,,,,,,,,,167.4470432,167.4470432,space,25.86384899999996,199.1320323,194.81111600000003,196.91803579999998,199.1320323,200.23933449999998,200.23933449999998,200.23933449999998,200.23933449999998,n,2.198818200000005,202.76429330000002,202.76429330000002,202.76429330000002,202.76429330000002,202.76429330000002,202.76429330000002,202.76429330000002,202.76429330000002,None,None,None,,,,,,,,,,,,,,,,,,,,,,,,,,,11,001,2024-07-04_10h07.08.044,robot_sternberg_sign,2022.2.5,60.008233129594615,
"['V', 'J']",True,J,2,letter,2,False,False,"['robot_stimuli\\\\filler.mp4', 'robot_stimuli\\\\filler.mp4']",robot_stimuli\\filler.mp4,11,0,0,0,0,0,1,1,1,,,,,,,,,,,,,,,,,,,,,202.76429330000002,202.76429330000002,None,,208.37467479999998,209.4448509,206.16028330000006,208.37467479999998,209.4448509,209.4448509,209.4448509,209.4448509,c,2.2750709999999685,211.87147000000004,211.87147000000004,211.87147000000004,211.87147000000004,211.87147000000004,211.87147000000004,211.87147000000004,211.87147000000004,None,None,None,202.76429330000002,202.76429330000002,,,,,,,,,,,,,,,,,,,,,,,,,11,001,2024-07-04_10h07.08.044,robot_sternberg_sign,2022.2.5,60.008233129594615,
"['X', 'L']",True,L,2,letter,2,False,True,"['robot_stimuli\\\\filler.mp4', 'robot_stimuli\\\\filler.mp4']",robot_stimuli\\filler.mp4,11,0,0,0,0,0,2,2,2,,,,,,,,,,,,,,,,,,,,,211.87147000000004,211.87147000000004,None,,217.2740864,218.34820090000005,215.26191210000002,217.2740864,218.34820090000005,218.34820090000005,218.34820090000005,218.34820090000005,c,0.8664748000000486,219.43595359999995,240.52954390000002,219.43595359999995,240.52954390000002,219.43595359999995,240.52954390000002,219.43595359999995,240.52954390000002,39.72222222222223,18.299136900000008,space,211.87147000000004,211.87147000000004,21.03465449999993,,,,,,,,,,,,,,,,,,,,,,,,11,001,2024-07-04_10h07.08.044,robot_sternberg_sign,2022.2.5,60.008233129594615,
"['K', 'Q', 'Z', 'R']",True,Q,4,letter,2,True,False,"['robot_stimuli\\\\filler.mp4', 'robot_stimuli\\\\filler.mp4', 'robot_stimuli\\\\filler.mp4', 'robot_stimuli\\\\filler.mp4']",robot_stimuli\\filler.mp4,11,0,0,0,0,0,3,3,3,,,,,,,,,,,,,,,,,,,,,240.52954390000002,240.52954390000002,space,2.5419506999999726,252.89596949999998,253.96001720000004,250.87488829999995,252.89596949999998,253.96001720000004,253.96001720000004,253.96001720000004,253.96001720000004,c,1.2705864000000133,255.39023580000003,255.39023580000003,255.39023580000003,255.39023580000003,255.39023580000003,255.39023580000003,255.39023580000003,255.39023580000003,None,None,None,,,,,,,,,,,,,,,,,,,,,,,,,,,11,001,2024-07-04_10h07.08.044,robot_sternberg_sign,2022.2.5,60.008233129594615,
"['T', 'P', 'B', 'J']",False,M,4,letter,2,False,False,"['robot_stimuli\\\\filler.mp4', 'robot_stimuli\\\\filler.mp4', 'robot_stimuli\\\\filler.mp4', 'robot_stimuli\\\\filler.mp4']",robot_stimuli\\filler.mp4,11,0,0,0,0,0,4,4,4,,,,,,,,,,,,,,,,,,,,,255.39023580000003,255.39023580000003,None,,264.78815269999996,265.86032850000004,262.77620720000004,264.78815269999996,265.86032850000004,265.86032850000004,265.86032850000004,265.86032850000004,n,0.9069464999999468,266.88978069999996,266.88978069999996,266.88978069999996,266.88978069999996,266.88978069999996,266.88978069999996,266.88978069999996,266.88978069999996,None,None,None,255.39023580000003,255.39023580000003,,,,,,,,,,,,,,,,,,,,,,,,,11,001,2024-07-04_10h07.08.044,robot_sternberg_sign,2022.2.5,60.008233129594615,
"['F', 'T', 'P', 'M']",True,T,4,letter,2,False,True,"['robot_stimuli\\\\filler.mp4', 'robot_stimuli\\\\filler.mp4', 'robot_stimuli\\\\filler.mp4', 'robot_stimuli\\\\filler.mp4']",robot_stimuli\\filler.mp4,11,0,0,0,0,0,5,5,5,,,,,,,,,,,,,,,,,,,,,266.88978069999996,266.88978069999996,None,,276.69635289999997,277.7596525,274.67016650000005,276.69635289999997,277.7596525,277.7596525,277.7596525,277.7596525,c,2.2222671000000105,280.2229998,284.4334569,280.2229998,284.4334569,280.2229998,284.4334569,280.2229998,284.4334569,36.79012345679013,2.303510200000005,space,266.88978069999996,266.88978069999996,4.1433704000000375,,,,,,,,,,,,,,,,,,,,,,,,11,001,2024-07-04_10h07.08.044,robot_sternberg_sign,2022.2.5,60.008233129594615,
"['V', 'D', 'R', 'F', 'X', 'H']",True,D,6,letter,2,True,False,"['robot_stimuli\\\\filler.mp4', 'robot_stimuli\\\\filler.mp4', 'robot_stimuli\\\\filler.mp4', 'robot_stimuli\\\\filler.mp4', 'robot_stimuli\\\\filler.mp4', 'robot_stimuli\\\\filler.mp4']",robot_stimuli\\filler.mp4,11,0,0,0,0,0,6,6,6,,,,,,,,,,,,,,,,,,,,,284.4334569,284.4334569,space,3.2702796999998895,301.94342470000004,303.01376589999995,299.92288629999996,301.94342470000004,303.01376589999995,303.01376589999995,303.01376589999995,303.01376589999995,c,1.034012599999926,304.23520129999997,304.23520129999997,304.23520129999997,304.23520129999997,304.23520129999997,304.23520129999997,304.23520129999997,304.23520129999997,None,None,None,,,,,,,,,,,,,,,,,,,,,,,,,,,11,001,2024-07-04_10h07.08.044,robot_sternberg_sign,2022.2.5,60.008233129594615,
"['P', 'Q', 'M', 'F', 'T', 'Z']",False,H,6,letter,2,False,False,"['robot_stimuli\\\\filler.mp4', 'robot_stimuli\\\\filler.mp4', 'robot_stimuli\\\\filler.mp4', 'robot_stimuli\\\\filler.mp4', 'robot_stimuli\\\\filler.mp4', 'robot_stimuli\\\\filler.mp4']",robot_stimuli\\filler.mp4,11,0,0,0,0,0,7,7,7,,,,,,,,,,,,,,,,,,,,,304.23520129999997,304.23520129999997,None,,318.193568,319.2526374,316.17951100000005,318.193568,319.2526374,319.2526374,319.2526374,319.2526374,n,3.275009999999895,322.6793,322.6793,322.6793,322.6793,322.6793,322.6793,322.6793,322.6793,None,None,None,304.23520129999997,304.23520129999997,,,,,,,,,,,,,,,,,,,,,,,,,11,001,2024-07-04_10h07.08.044,robot_sternberg_sign,2022.2.5,60.008233129594615,
"['V', 'J', 'M', 'H', 'T', 'C']",True,H,6,letter,2,False,True,"['robot_stimuli\\\\filler.mp4', 'robot_stimuli\\\\filler.mp4', 'robot_stimuli\\\\filler.mp4', 'robot_stimuli\\\\filler.mp4', 'robot_stimuli\\\\filler.mp4', 'robot_stimuli\\\\filler.mp4']",robot_stimuli\\filler.mp4,11,0,0,0,0,0,8,8,8,,,,,,,,,,,,,,,,,,,,,322.6793,322.6793,None,,336.43784660000006,337.5118546,334.42595459999995,336.43784660000006,337.5118546,337.5118546,337.5118546,337.5118546,c,1.223992600000031,338.968084,343.47815620000006,338.968084,343.47815620000006,338.968084,343.47815620000006,338.968084,343.47815620000006,45.4320987654321,3.9972984999999426,space,322.6793,322.6793,4.438147899999933,,,,,,,,,,,,,,,,,,,,,,,,11,001,2024-07-04_10h07.08.044,robot_sternberg_sign,2022.2.5,60.008233129594615,
"['R_Torso_X_For', 'L_Torso_X_Back']",True,L_Torso_X_Back,2,robot,1,True,False,"['robot_stimuli\\R_Torso_X_For.mp4', 'robot_stimuli\\L_Torso_X_Back.mp4']",robot_stimuli\L_Torso_X_Back.mp4,11,0,0,0,0,0,9,9,9,,,,,,,,,,,,,,,,,,,,,343.47815620000006,343.47815620000006,space,1.7603289000000473,353.7192381,354.81253119999997,,,,354.81253119999997,354.81253119999997,354.81253119999997,c,4.002865500000041,358.8633859,358.8633859,358.8633859,358.8633859,358.8633859,358.8633859,358.8633859,358.8633859,None,None,None,,,,350.077676,354.81253119999997,,,,,,,,,,,,,,,,,,,,,,11,001,2024-07-04_10h07.08.044,robot_sternberg_sign,2022.2.5,60.008233129594615,
"['R_Torso_Z_Back', 'R_Base_Z_Back']",False,L_Torso_Z_For,2,robot,1,False,False,"['robot_stimuli\\R_Torso_Z_Back.mp4', 'robot_stimuli\\R_Base_Z_Back.mp4']",robot_stimuli\L_Torso_Z_For.mp4,11,0,0,0,0,0,10,10,10,,,,,,,,,,,,,,,,,,,,,358.8633859,358.8633859,None,,367.21373289999997,368.29494209999996,,,,368.29494209999996,368.29494209999996,368.29494209999996,n,2.38429780000007,371.94723239999996,371.94723239999996,371.94723239999996,371.94723239999996,371.94723239999996,371.94723239999996,371.94723239999996,371.94723239999996,None,None,None,358.8633859,358.8633859,,363.6831966,368.29494209999996,,,,,,,,,,,,,,,,,,,,,,11,001,2024-07-04_10h07.08.044,robot_sternberg_sign,2022.2.5,60.008233129594615,
"['R_Arm_X_Back', 'R_Arm_X_For']",True,R_Arm_X_Back,2,robot,1,False,True,"['robot_stimuli\\R_Arm_X_Back.mp4', 'robot_stimuli\\R_Arm_X_For.mp4']",robot_stimuli\R_Arm_X_Back.mp4,11,0,0,0,0,0,11,11,11,,,,,,,,,,,,,,,,,,,,,371.94723239999996,371.94723239999996,None,,380.42102179999995,381.51374710000005,,,,381.51374710000005,381.51374710000005,381.51374710000005,c,4.1005812999999876,385.67176370000004,388.55630010000004,385.67176370000004,388.55630010000004,385.67176370000004,388.55630010000004,385.67176370000004,388.55630010000004,37.561728395061735,2.4977680000000646,space,371.94723239999996,371.94723239999996,2.8384414999999876,376.78834370000004,381.51374710000005,,,,,,,,,,,,,,,,,,,,,,11,001,2024-07-04_10h07.08.044,robot_sternberg_sign,2022.2.5,60.008233129594615,
"['R_Base_Z_Back', 'R_Arm_Y_For', 'R_Torso_Z_Back', 'R_Base_X_Back']",True,R_Arm_Y_For,4,robot,1,True,False,"['robot_stimuli\\R_Base_Z_Back.mp4', 'robot_stimuli\\R_Arm_Y_For.mp4', 'robot_stimuli\\R_Torso_Z_Back.mp4', 'robot_stimuli\\R_Base_X_Back.mp4']",robot_stimuli\R_Arm_Y_For.mp4,11,0,0,0,0,0,12,12,12,,,,,,,,,,,,,,,,,,,,,388.55630010000004,388.55630010000004,space,1.2831960000000322,405.5370468,406.62481620000005,,,,406.62481620000005,406.62481620000005,406.62481620000005,c,4.070214700000008,410.72655110000005,410.72655110000005,410.72655110000005,410.72655110000005,410.72655110000005,410.72655110000005,410.72655110000005,410.72655110000005,None,None,None,,,,401.90580869999997,406.62481620000005,,,,,,,,,,,,,,,,,,,,,,11,001,2024-07-04_10h07.08.044,robot_sternberg_sign,2022.2.5,60.008233129594615,
"['R_Head_Z_Back', 'L_Head_X_For', 'R_Torso_Z_Back', 'R_Arm_Y_For']",True,R_Arm_Y_For,4,robot,1,False,False,"['robot_stimuli\\R_Head_Z_Back.mp4', 'robot_stimuli\\L_Head_X_For.mp4', 'robot_stimuli\\R_Torso_Z_Back.mp4', 'robot_stimuli\\R_Arm_Y_For.mp4']",robot_stimuli\R_Arm_Y_For.mp4,11,0,0,0,0,0,13,13,13,,,,,,,,,,,,,,,,,,,,,410.72655110000005,410.72655110000005,None,,426.43615609999995,427.52095929999996,,,,427.52095929999996,427.52095929999996,427.52095929999996,c,3.5024586000000113,431.0603224,431.0603224,431.0603224,431.0603224,431.0603224,431.0603224,431.0603224,431.0603224,None,None,None,410.72655110000005,410.72655110000005,,422.9279653,427.52095929999996,,,,,,,,,,,,,,,,,,,,,,11,001,2024-07-04_10h07.08.044,robot_sternberg_sign,2022.2.5,60.008233129594615,
"['R_Head_Z_Back', 'R_Torso_Y_Back', 'R_Head_X_For', 'L_Arm_X_For']",False,R_Head_Y_Back,4,robot,1,False,True,"['robot_stimuli\\R_Head_Z_Back.mp4', 'robot_stimuli\\R_Torso_Y_Back.mp4', 'robot_stimuli\\R_Head_X_For.mp4', 'robot_stimuli\\L_Arm_X_For.mp4']",robot_stimuli\R_Head_Y_Back.mp4,11,0,0,0,0,0,14,14,14,,,,,,,,,,,,,,,,,,,,,431.0603224,431.0603224,None,,446.9648756,432.13654069999995,,,,448.05983979999996,448.05983979999996,448.05983979999996,n,3.019333099999983,451.7457623,454.8597403,451.7457623,454.8597403,451.7457623,454.8597403,451.7457623,454.8597403,34.4753086419753,2.5143589000000475,space,431.0603224,431.0603224,3.044830300000001,443.32644289999996,448.05983979999996,,,,,,,,,,,,,,,,,,,,,,11,001,2024-07-04_10h07.08.044,robot_sternberg_sign,2022.2.5,60.008233129594615,
"['R_Torso_Y_Back', 'R_Base_X_For', 'L_Arm_X_Back', 'R_Base_Z_For', 'L_Base_X_For', 'R_Head_Y_For']",True,R_Base_Z_For,6,robot,1,True,False,"['robot_stimuli\\R_Torso_Y_Back.mp4', 'robot_stimuli\\R_Base_X_For.mp4', 'robot_stimuli\\L_Arm_X_Back.mp4', 'robot_stimuli\\R_Base_Z_For.mp4', 'robot_stimuli\\L_Base_X_For.mp4', 'robot_stimuli\\R_Head_Y_For.mp4']",robot_stimuli\R_Base_Z_For.mp4,11,0,0,0,0,0,15,15,15,,,,,,,,,,,,,,,,,,,,,454.8597403,454.8597403,space,1.2827325000000087,479.30030450000004,480.38826800000004,,,,480.38826800000004,480.38826800000004,480.38826800000004,c,3.7071123000000057,484.12778519999995,484.12778519999995,484.12778519999995,484.12778519999995,484.12778519999995,484.12778519999995,484.12778519999995,484.12778519999995,None,None,None,,,,475.66767100000004,480.38826800000004,,,,,,,,,,,,,,,,,,,,,,11,001,2024-07-04_10h07.08.044,robot_sternberg_sign,2022.2.5,60.008233129594615,
"['R_Head_Y_Back', 'L_Arm_Y_Back', 'R_Torso_Z_For', 'L_Base_X_Back', 'R_Arm_Z_For', 'R_Torso_X_Back']",False,R_Arm_Y_For,6,robot,1,False,False,"['robot_stimuli\\R_Head_Y_Back.mp4', 'robot_stimuli\\L_Arm_Y_Back.mp4', 'robot_stimuli\\R_Torso_Z_For.mp4', 'robot_stimuli\\L_Base_X_Back.mp4', 'robot_stimuli\\R_Arm_Z_For.mp4', 'robot_stimuli\\R_Torso_X_Back.mp4']",robot_stimuli\R_Arm_Y_For.mp4,11,0,0,0,0,0,16,16,16,,,,,,,,,,,,,,,,,,,,,484.12778519999995,484.12778519999995,None,,507.4685283,508.5629036,,,,508.5629036,508.5629036,508.5629036,n,3.3078360999999745,512.0784632,512.0784632,512.0784632,512.0784632,512.0784632,512.0784632,512.0784632,512.0784632,None,None,None,484.12778519999995,484.12778519999995,,503.82671270000003,508.5629036,,,,,,,,,,,,,,,,,,,,,,11,001,2024-07-04_10h07.08.044,robot_sternberg_sign,2022.2.5,60.008233129594615,
"['L_Torso_Z_Back', 'R_Base_X_Back', 'L_Torso_Y_For', 'L_Torso_X_Back', 'L_Base_X_For', 'R_Arm_Y_Back']",True,L_Base_X_For,6,robot,1,False,True,"['robot_stimuli\\L_Torso_Z_Back.mp4', 'robot_stimuli\\R_Base_X_Back.mp4', 'robot_stimuli\\L_Torso_Y_For.mp4', 'robot_stimuli\\L_Torso_X_Back.mp4', 'robot_stimuli\\L_Base_X_For.mp4', 'robot_stimuli\\R_Arm_Y_Back.mp4']",robot_stimuli\L_Base_X_For.mp4,11,0,0,0,0,0,17,17,17,,,,,,,,,,,,,,,,,,,,,512.0784632,512.0784632,None,,535.2206601,536.3089326,,,,536.3089326,536.3089326,536.3089326,c,3.6579384999998865,540.0427748,544.1491417,540.0427748,544.1491417,540.0427748,544.1491417,540.0427748,544.1491417,47.12962962962963,3.3605503999999655,space,512.0784632,512.0784632,4.06804139999997,531.5850033,536.3089326,,,,,,,,,,,,,,,,,,,,,,11,001,2024-07-04_10h07.08.044,robot_sternberg_sign,2022.2.5,60.008233129594615,
,,,,,,,,,,,0,0,0,0,,,,,,,,,,,,,,,,,,,,,,,,,,,,,,,,,,,,,,,,,,,,,,,,,,,,,,,544.1491417,544.1491417,544.1491417,c,2.538428100000033,,,,,,,,,,,,,,,,,11,001,2024-07-04_10h07.08.044,robot_sternberg_sign,2022.2.5,60.008233129594615,
"['L_Torso_X_For', 'L_Head_Y_Back', 'R_Arm_X_For', 'L_Base_X_Back', 'R_Head_Y_Back', 'R_Base_Z_Back']",False,R_Torso_Y_Back,6,robot,1,True,False,"['robot_stimuli\\L_Torso_X_For.mp4', 'robot_stimuli\\L_Head_Y_Back.mp4', 'robot_stimuli\\R_Arm_X_For.mp4', 'robot_stimuli\\L_Base_X_Back.mp4', 'robot_stimuli\\R_Head_Y_Back.mp4', 'robot_stimuli\\R_Base_Z_Back.mp4']",robot_stimuli\R_Torso_Y_Back.mp4,11,,,,,,,,,,,,,0,0,0,0,,,,,,,,,,,,,,,,,574.7848112,575.8750660000001,,,,,,,,,580.4110743,580.4110743,580.4110743,580.4110743,580.4110743,580.4110743,580.4110743,580.4110743,None,None,None,,,,,,,,,,,546.7279367,546.7279367,space,4.791205300000001,571.2426548,575.8750660000001,575.8750660000001,575.8750660000001,575.8750660000001,n,4.499093200000061,,,,,,11,001,2024-07-04_10h07.08.044,robot_sternberg_sign,2022.2.5,60.008233129594615,
"['R_Head_Y_For', 'L_Torso_X_For', 'R_Base_Z_Back', 'R_Torso_X_For', 'L_Arm_Z_Back', 'L_Head_Z_For']",True,R_Torso_X_For,6,robot,1,False,False,"['robot_stimuli\\R_Head_Y_For.mp4', 'robot_stimuli\\L_Torso_X_For.mp4', 'robot_stimuli\\R_Base_Z_Back.mp4', 'robot_stimuli\\R_Torso_X_For.mp4', 'robot_stimuli\\L_Arm_Z_Back.mp4', 'robot_stimuli\\L_Head_Z_For.mp4']",robot_stimuli\R_Torso_X_For.mp4,11,,,,,,,,,,,,,0,1,1,1,,,,,,,,,,,,,,,,,603.6498359,581.5038557,,,,,,,,,609.420748,609.420748,609.420748,609.420748,609.420748,609.420748,609.420748,609.420748,None,None,None,,,,,,,,,,,580.4110743,580.4110743,None,,600.0193674,604.741688,604.741688,604.741688,604.741688,c,4.649103200000013,580.4110743,580.4110743,,,,11,001,2024-07-04_10h07.08.044,robot_sternberg_sign,2022.2.5,60.008233129594615,
"['L_Base_Y_Back', 'R_Base_Y_Back', 'L_Head_Z_Back', 'L_Torso_X_Back', 'R_Head_Y_For', 'R_Head_X_Back']",True,R_Base_Y_Back,6,robot,1,False,False,"['robot_stimuli\\L_Base_Y_Back.mp4', 'robot_stimuli\\R_Base_Y_Back.mp4', 'robot_stimuli\\L_Head_Z_Back.mp4', 'robot_stimuli\\L_Torso_X_Back.mp4', 'robot_stimuli\\R_Head_Y_For.mp4', 'robot_stimuli\\R_Head_X_Back.mp4']",robot_stimuli\R_Base_Y_Back.mp4,11,,,,,,,,,,,,,0,2,2,2,,,,,,,,,,,,,,,,,632.7213108,633.8131121,,,,,,,,,639.8435117,639.8435117,639.8435117,639.8435117,639.8435117,639.8435117,639.8435117,639.8435117,None,None,None,,,,,,,,,,,609.420748,609.420748,None,,629.0792302,633.8131121,633.8131121,633.8131121,633.8131121,c,6.001650900000072,609.420748,609.420748,,,,11,001,2024-07-04_10h07.08.044,robot_sternberg_sign,2022.2.5,60.008233129594615,
"['L_Head_X_Back', 'L_Torso_Z_For', 'L_Head_X_For', 'L_Torso_Z_Back', 'R_Arm_X_For', 'L_Base_X_For']",False,R_Torso_Z_For,6,robot,1,False,False,"['robot_stimuli\\L_Head_X_Back.mp4', 'robot_stimuli\\L_Torso_Z_For.mp4', 'robot_stimuli\\L_Head_X_For.mp4', 'robot_stimuli\\L_Torso_Z_Back.mp4', 'robot_stimuli\\R_Arm_X_For.mp4', 'robot_stimuli\\L_Base_X_For.mp4']",robot_stimuli\R_Torso_Z_For.mp4,11,,,,,,,,,,,,,0,3,3,3,,,,,,,,,,,,,,,,,662.9200274,664.0080493,,,,,,,,,668.461216,668.461216,668.461216,668.461216,668.461216,668.461216,668.461216,668.461216,None,None,None,,,,,,,,,,,639.8435117,639.8435117,None,,659.3454533,664.0080493,664.0080493,664.0080493,664.0080493,n,4.414013299999965,639.8435117,639.8435117,,,,11,001,2024-07-04_10h07.08.044,robot_sternberg_sign,2022.2.5,60.008233129594615,
"['L_Arm_Y_For', 'R_Torso_Y_For', 'L_Arm_Z_Back', 'R_Torso_Z_Back', 'R_Head_Y_Back', 'R_Torso_Y_Back']",False,R_Base_X_For,6,robot,1,False,False,"['robot_stimuli\\L_Arm_Y_For.mp4', 'robot_stimuli\\R_Torso_Y_For.mp4', 'robot_stimuli\\L_Arm_Z_Back.mp4', 'robot_stimuli\\R_Torso_Z_Back.mp4', 'robot_stimuli\\R_Head_Y_Back.mp4', 'robot_stimuli\\R_Torso_Y_Back.mp4']",robot_stimuli\R_Base_X_For.mp4,11,,,,,,,,,,,,,0,4,4,4,,,,,,,,,,,,,,,,,691.8183963,692.9086194,,,,,,,,,696.6921456,696.6921456,696.6921456,696.6921456,696.6921456,696.6921456,696.6921456,696.6921456,None,None,None,,,,,,,,,,,668.461216,668.461216,None,,688.1757757,692.9086194,692.9086194,692.9086194,692.9086194,n,3.753527199999894,668.461216,668.461216,,,,11,001,2024-07-04_10h07.08.044,robot_sternberg_sign,2022.2.5,60.008233129594615,
"['R_Arm_Z_Back', 'R_Head_Z_Back', 'L_Head_Y_Back', 'R_Torso_X_For', 'L_Arm_Y_For', 'L_Torso_Y_Back']",True,L_Head_Y_Back,6,robot,1,False,False,"['robot_stimuli\\R_Arm_Z_Back.mp4', 'robot_stimuli\\R_Head_Z_Back.mp4', 'robot_stimuli\\L_Head_Y_Back.mp4', 'robot_stimuli\\R_Torso_X_For.mp4', 'robot_stimuli\\L_Arm_Y_For.mp4', 'robot_stimuli\\L_Torso_Y_Back.mp4']",robot_stimuli\L_Head_Y_Back.mp4,11,,,,,,,,,,,,,0,5,5,5,,,,,,,,,,,,,,,,,719.9026653999999,720.9919063,,,,,,,,,724.6229593999999,724.6229593999999,724.6229593999999,724.6229593999999,724.6229593999999,724.6229593999999,724.6229593999999,724.6229593999999,None,None,None,,,,,,,,,,,696.6921456,696.6921456,None,,716.3898497,720.9919063,720.9919063,720.9919063,720.9919063,c,3.0398199000001114,696.6921456,696.6921456,,,,11,001,2024-07-04_10h07.08.044,robot_sternberg_sign,2022.2.5,60.008233129594615,
"['R_Head_Y_For', 'L_Head_Z_For', 'R_Head_Z_For', 'L_Base_Z_For', 'R_Head_X_Back', 'L_Arm_X_For']",True,L_Arm_X_For,6,robot,1,False,False,"['robot_stimuli\\R_Head_Y_For.mp4', 'robot_stimuli\\L_Head_Z_For.mp4', 'robot_stimuli\\R_Head_Z_For.mp4', 'robot_stimuli\\L_Base_Z_For.mp4', 'robot_stimuli\\R_Head_X_Back.mp4', 'robot_stimuli\\L_Arm_X_For.mp4']",robot_stimuli\L_Arm_X_For.mp4,11,,,,,,,,,,,,,0,6,6,6,,,,,,,,,,,,,,,,,748.0349203999999,749.1237020000001,,,,,,,,,752.7756258,752.7756258,752.7756258,752.7756258,752.7756258,752.7756258,752.7756258,752.7756258,None,None,None,,,,,,,,,,,724.6229593999999,724.6229593999999,None,,744.3926214999999,749.1237020000001,749.1237020000001,749.1237020000001,749.1237020000001,c,3.2989646000000903,724.6229593999999,724.6229593999999,,,,11,001,2024-07-04_10h07.08.044,robot_sternberg_sign,2022.2.5,60.008233129594615,
"['R_Base_X_For', 'R_Base_Z_Back', 'L_Torso_Z_For', 'R_Torso_Z_Back', 'L_Torso_Y_Back', 'L_Base_Z_For']",True,L_Torso_Z_For,6,robot,1,False,False,"['robot_stimuli\\R_Base_X_For.mp4', 'robot_stimuli\\R_Base_Z_Back.mp4', 'robot_stimuli\\L_Torso_Z_For.mp4', 'robot_stimuli\\R_Torso_Z_Back.mp4', 'robot_stimuli\\L_Torso_Y_Back.mp4', 'robot_stimuli\\L_Base_Z_For.mp4']",robot_stimuli\L_Torso_Z_For.mp4,11,,,,,,,,,,,,,0,7,7,7,,,,,,,,,,,,,,,,,775.7653711999999,753.8561557999999,,,,,,,,,781.2082516,781.2082516,781.2082516,781.2082516,781.2082516,781.2082516,781.2082516,781.2082516,None,None,None,,,,,,,,,,,752.7756258,752.7756258,None,,772.1340319999999,776.8616299,776.8616299,776.8616299,776.8616299,n,4.3139860999999655,752.7756258,752.7756258,,,,11,001,2024-07-04_10h07.08.044,robot_sternberg_sign,2022.2.5,60.008233129594615,
"['R_Head_X_For', 'R_Torso_X_Back', 'R_Arm_Y_For', 'L_Torso_Y_Back', 'L_Base_X_For', 'R_Head_X_Back']",False,R_Arm_X_Back,6,robot,1,False,False,"['robot_stimuli\\R_Head_X_For.mp4', 'robot_stimuli\\R_Torso_X_Back.mp4', 'robot_stimuli\\R_Arm_Y_For.mp4', 'robot_stimuli\\L_Torso_Y_Back.mp4', 'robot_stimuli\\L_Base_X_For.mp4', 'robot_stimuli\\R_Head_X_Back.mp4']",robot_stimuli\R_Arm_X_Back.mp4,11,,,,,,,,,,,,,0,8,8,8,,,,,,,,,,,,,,,,,804.2038425999999,805.2937377999999,,,,,,,,,809.4288899000001,809.4288899000001,809.4288899000001,809.4288899000001,809.4288899000001,809.4288899000001,809.4288899000001,809.4288899000001,None,None,None,,,,,,,,,,,781.2082516,781.2082516,None,,800.5725838000001,805.2937377999999,805.2937377999999,805.2937377999999,805.2937377999999,n,4.090021599999773,781.2082516,781.2082516,,,,11,001,2024-07-04_10h07.08.044,robot_sternberg_sign,2022.2.5,60.008233129594615,
"['L_Torso_Y_For', 'R_Base_Y_Back', 'R_Arm_X_Back', 'L_Base_Y_Back', 'R_Torso_X_Back', 'R_Torso_Z_Back']",False,R_Head_Z_For,6,robot,1,False,True,"['robot_stimuli\\L_Torso_Y_For.mp4', 'robot_stimuli\\R_Base_Y_Back.mp4', 'robot_stimuli\\R_Arm_X_Back.mp4', 'robot_stimuli\\L_Base_Y_Back.mp4', 'robot_stimuli\\R_Torso_X_Back.mp4', 'robot_stimuli\\R_Torso_Z_Back.mp4']",robot_stimuli\R_Head_Z_For.mp4,11,,,,,,,,,,,,,0,9,9,9,,,,,,,,,,,,,,,,,832.6546449,833.7470449,,,,,,,,,837.4291685000001,841.1222158999999,837.4291685000001,841.1222158999999,837.4291685000001,841.1222158999999,837.4291685000001,841.1222158999999,56.080246913580254,2.7647446000000855,space,,,3.6330785999998625,,,,,,,,809.4288899000001,809.4288899000001,None,,829.0192552999999,833.7470449,833.7470449,833.7470449,833.7470449,n,3.1399160000000848,809.4288899000001,809.4288899000001,,,,11,001,2024-07-04_10h07.08.044,robot_sternberg_sign,2022.2.5,60.008233129594615,
"['R_Arm_Z_Back', 'L_Base_Y_Back', 'R_Torso_X_For', 'L_Arm_X_Back']",True,L_Arm_X_Back,4,robot,1,True,False,"['robot_stimuli\\R_Arm_Z_Back.mp4', 'robot_stimuli\\L_Base_Y_Back.mp4', 'robot_stimuli\\R_Torso_X_For.mp4', 'robot_stimuli\\L_Arm_X_Back.mp4']",robot_stimuli\L_Arm_X_Back.mp4,11,,,,,,,,,,,,,0,10,10,10,,,,,,,,,,,,,,,,,859.5031101,860.5907013000001,,,,,,,,,864.2296776999999,864.2296776999999,864.2296776999999,864.2296776999999,864.2296776999999,864.2296776999999,864.2296776999999,864.2296776999999,None,None,None,,,,,,,,,,,841.1222158999999,841.1222158999999,space,2.5411841999998614,855.8681589,860.5907013000001,860.5907013000001,860.5907013000001,860.5907013000001,c,2.927365400000099,,,,,,11,001,2024-07-04_10h07.08.044,robot_sternberg_sign,2022.2.5,60.008233129594615,
"['R_Arm_X_For', 'L_Torso_Y_For', 'L_Arm_Z_Back', 'R_Torso_Y_Back']",True,R_Arm_X_For,4,robot,1,False,False,"['robot_stimuli\\R_Arm_X_For.mp4', 'robot_stimuli\\L_Torso_Y_For.mp4', 'robot_stimuli\\L_Arm_Z_Back.mp4', 'robot_stimuli\\R_Torso_Y_Back.mp4']",robot_stimuli\R_Arm_X_For.mp4,11,,,,,,,,,,,,,0,11,11,11,,,,,,,,,,,,,,,,,880.1062869,881.1936228,,,,,,,,,887.1146339,887.1146339,887.1146339,887.1146339,887.1146339,887.1146339,887.1146339,887.1146339,None,None,None,,,,,,,,,,,864.2296776999999,864.2296776999999,None,,876.4740463,881.1936228,881.1936228,881.1936228,881.1936228,n,5.886237100000017,864.2296776999999,864.2296776999999,,,,11,001,2024-07-04_10h07.08.044,robot_sternberg_sign,2022.2.5,60.008233129594615,
"['R_Arm_Y_Back', 'L_Torso_Z_Back', 'L_Base_Y_Back', 'L_Torso_Y_Back']",False,L_Arm_Y_For,4,robot,1,False,False,"['robot_stimuli\\R_Arm_Y_Back.mp4', 'robot_stimuli\\L_Torso_Z_Back.mp4', 'robot_stimuli\\L_Base_Y_Back.mp4', 'robot_stimuli\\L_Torso_Y_Back.mp4']",robot_stimuli\L_Arm_Y_For.mp4,11,,,,,,,,,,,,,0,12,12,12,,,,,,,,,,,,,,,,,902.6681861,903.7592029,,,,,,,,,908.5221856000001,908.5221856000001,908.5221856000001,908.5221856000001,908.5221856000001,908.5221856000001,908.5221856000001,908.5221856000001,None,None,None,,,,,,,,,,,887.1146339,887.1146339,None,,899.1571993,903.7592029,903.7592029,903.7592029,903.7592029,n,4.728129299999864,887.1146339,887.1146339,,,,11,001,2024-07-04_10h07.08.044,robot_sternberg_sign,2022.2.5,60.008233129594615,
"['R_Base_Y_For', 'R_Torso_Z_Back', 'L_Torso_Z_Back', 'R_Base_Z_For']",False,R_Head_Z_Back,4,robot,1,False,False,"['robot_stimuli\\R_Base_Y_For.mp4', 'robot_stimuli\\R_Torso_Z_Back.mp4', 'robot_stimuli\\L_Torso_Z_Back.mp4', 'robot_stimuli\\R_Base_Z_For.mp4']",robot_stimuli\R_Head_Z_Back.mp4,11,,,,,,,,,,,,,0,13,13,13,,,,,,,,,,,,,,,,,924.3043763000001,925.3906423999999,,,,,,,,,929.0207659,929.0207659,929.0207659,929.0207659,929.0207659,929.0207659,929.0207659,929.0207659,None,None,None,,,,,,,,,,,908.5221856000001,908.5221856000001,None,,920.6718578,925.3906423999999,925.3906423999999,925.3906423999999,925.3906423999999,n,2.576557099999718,908.5221856000001,908.5221856000001,,,,11,001,2024-07-04_10h07.08.044,robot_sternberg_sign,2022.2.5,60.008233129594615,
"['R_Arm_Z_Back', 'L_Torso_Y_For', 'R_Base_X_For', 'R_Base_Y_For']",True,R_Arm_Z_Back,4,robot,1,False,False,"['robot_stimuli\\R_Arm_Z_Back.mp4', 'robot_stimuli\\L_Torso_Y_For.mp4', 'robot_stimuli\\R_Base_X_For.mp4', 'robot_stimuli\\R_Base_Y_For.mp4']",robot_stimuli\R_Arm_Z_Back.mp4,11,,,,,,,,,,,,,0,14,14,14,,,,,,,,,,,,,,,,,944.8679792,945.9600749000001,,,,,,,,,949.6066656,949.6066656,949.6066656,949.6066656,949.6066656,949.6066656,949.6066656,949.6066656,None,None,None,,,,,,,,,,,929.0207659,929.0207659,None,,941.2256913000001,945.9600749000001,945.9600749000001,945.9600749000001,945.9600749000001,c,2.1583474999999908,929.0207659,929.0207659,,,,11,001,2024-07-04_10h07.08.044,robot_sternberg_sign,2022.2.5,60.008233129594615,
"['L_Head_X_Back', 'R_Torso_X_For', 'R_Base_Z_For', 'L_Torso_X_Back']",False,R_Head_Y_For,4,robot,1,False,False,"['robot_stimuli\\L_Head_X_Back.mp4', 'robot_stimuli\\R_Torso_X_For.mp4', 'robot_stimuli\\R_Base_Z_For.mp4', 'robot_stimuli\\L_Torso_X_Back.mp4']",robot_stimuli\R_Head_Y_For.mp4,11,,,,,,,,,,,,,0,15,15,15,,,,,,,,,,,,,,,,,965.4924845999999,966.5913531000001,,,,,,,,,970.2293559,970.2293559,970.2293559,970.2293559,970.2293559,970.2293559,970.2293559,970.2293559,None,None,None,,,,,,,,,,,949.6066656,949.6066656,None,,961.8531816,966.5913531000001,966.5913531000001,966.5913531000001,966.5913531000001,n,2.2551922000000104,949.6066656,949.6066656,,,,11,001,2024-07-04_10h07.08.044,robot_sternberg_sign,2022.2.5,60.008233129594615,
"['R_Base_Y_Back', 'L_Arm_Z_Back', 'R_Torso_X_Back', 'L_Base_X_For']",False,L_Arm_Y_For,4,robot,1,False,False,"['robot_stimuli\\R_Base_Y_Back.mp4', 'robot_stimuli\\L_Arm_Z_Back.mp4', 'robot_stimuli\\R_Torso_X_Back.mp4', 'robot_stimuli\\L_Base_X_For.mp4']",robot_stimuli\L_Arm_Y_For.mp4,11,,,,,,,,,,,,,0,16,16,16,,,,,,,,,,,,,,,,,986.0495927,971.3051206,,,,,,,,,990.9275561,990.9275561,990.9275561,990.9275561,990.9275561,990.9275561,990.9275561,990.9275561,None,None,None,,,,,,,,,,,970.2293559,970.2293559,None,,982.471356,987.1380369000001,987.1380369000001,987.1380369000001,987.1380369000001,n,3.7574853999999505,970.2293559,970.2293559,,,,11,001,2024-07-04_10h07.08.044,robot_sternberg_sign,2022.2.5,60.008233129594615,
"['R_Base_Z_For', 'R_Torso_Y_For', 'R_Torso_Z_For', 'R_Arm_Z_Back']",True,R_Arm_Z_Back,4,robot,1,False,False,"['robot_stimuli\\R_Base_Z_For.mp4', 'robot_stimuli\\R_Torso_Y_For.mp4', 'robot_stimuli\\R_Torso_Z_For.mp4', 'robot_stimuli\\R_Arm_Z_Back.mp4']",robot_stimuli\R_Arm_Z_Back.mp4,11,,,,,,,,,,,,,0,17,17,17,,,,,,,,,,,,,,,,,1006.8043312,1007.8930127000001,,,,,,,,,1011.5419125000001,1011.5419125000001,1011.5419125000001,1011.5419125000001,1011.5419125000001,1011.5419125000001,1011.5419125000001,1011.5419125000001,None,None,None,,,,,,,,,,,990.9275561,990.9275561,None,,1003.1733654,1007.8930127000001,1007.8930127000001,1007.8930127000001,1007.8930127000001,c,2.217902200000026,990.9275561,990.9275561,,,,11,001,2024-07-04_10h07.08.044,robot_sternberg_sign,2022.2.5,60.008233129594615,
"['L_Arm_X_For', 'L_Torso_Y_For', 'L_Head_Y_Back', 'R_Torso_Y_For']",False,L_Base_Z_For,4,robot,1,False,False,"['robot_stimuli\\L_Arm_X_For.mp4', 'robot_stimuli\\L_Torso_Y_For.mp4', 'robot_stimuli\\L_Head_Y_Back.mp4', 'robot_stimuli\\R_Torso_Y_For.mp4']",robot_stimuli\L_Base_Z_For.mp4,11,,,,,,,,,,,,,0,18,18,18,,,,,,,,,,,,,,,,,1027.4357166,1028.5251752,,,,,,,,,1033.4237282,1033.4237282,1033.4237282,1033.4237282,1033.4237282,1033.4237282,1033.4237282,1033.4237282,None,None,None,,,,,,,,,,,1011.5419125000001,1011.5419125000001,None,,1023.7937672,1028.5251752,1028.5251752,1028.5251752,1028.5251752,n,4.865481900000077,1011.5419125000001,1011.5419125000001,,,,11,001,2024-07-04_10h07.08.044,robot_sternberg_sign,2022.2.5,60.008233129594615,
"['L_Torso_Y_Back', 'L_Head_Y_For', 'L_Base_Y_For', 'L_Arm_X_For']",True,L_Arm_X_For,4,robot,1,False,True,"['robot_stimuli\\L_Torso_Y_Back.mp4', 'robot_stimuli\\L_Head_Y_For.mp4', 'robot_stimuli\\L_Base_Y_For.mp4', 'robot_stimuli\\L_Arm_X_For.mp4']",robot_stimuli\L_Arm_X_For.mp4,11,,,,,,,,,,,,,0,19,19,19,,,,,,,,,,,,,,,,,1049.0683995,1050.1592496,,,,,,,,,1053.8409908,1057.2821937,1053.8409908,1057.2821937,1053.8409908,1057.2821937,1053.8409908,1057.2821937,50.98765432098765,2.628207599999996,space,,,3.3734915,,,,,,,,1033.4237282,1033.4237282,None,,1045.4276141,1050.1592496,1050.1592496,1050.1592496,1050.1592496,c,2.552147399999967,1033.4237282,1033.4237282,,,,11,001,2024-07-04_10h07.08.044,robot_sternberg_sign,2022.2.5,60.008233129594615,
"['R_Head_X_For', 'R_Head_Y_For']",True,R_Head_X_For,2,robot,1,True,False,"['robot_stimuli\\R_Head_X_For.mp4', 'robot_stimuli\\R_Head_Y_For.mp4']",robot_stimuli\R_Head_X_For.mp4,11,,,,,,,,,,,,,0,20,20,20,,,,,,,,,,,,,,,,,1067.0853454,1068.1749306,,,,,,,,,1071.8140773,1071.8140773,1071.8140773,1071.8140773,1071.8140773,1071.8140773,1071.8140773,1071.8140773,None,None,None,,,,,,,,,,,1057.2821937,1057.2821937,space,1.3646633000000747,1063.4566241,1068.1749306,1068.1749306,1068.1749306,1068.1749306,c,1.9051458999999795,,,,,,11,001,2024-07-04_10h07.08.044,robot_sternberg_sign,2022.2.5,60.008233129594615,
"['R_Base_Y_Back', 'R_Head_X_For']",False,R_Head_Y_For,2,robot,1,False,False,"['robot_stimuli\\R_Base_Y_Back.mp4', 'robot_stimuli\\R_Head_X_For.mp4']",robot_stimuli\R_Head_Y_For.mp4,11,,,,,,,,,,,,,0,21,21,21,,,,,,,,,,,,,,,,,1080.2696386,1081.3602099,,,,,,,,,1085.0075665,1085.0075665,1085.0075665,1085.0075665,1085.0075665,1085.0075665,1085.0075665,1085.0075665,None,None,None,,,,,,,,,,,1071.8140773,1071.8140773,None,,1076.6297378,1081.3602099,1081.3602099,1081.3602099,1081.3602099,n,2.168172200000072,1071.8140773,1071.8140773,,,,11,001,2024-07-04_10h07.08.044,robot_sternberg_sign,2022.2.5,60.008233129594615,
"['L_Arm_X_For', 'L_Torso_X_For']",False,R_Head_Z_For,2,robot,1,False,False,"['robot_stimuli\\L_Arm_X_For.mp4', 'robot_stimuli\\L_Torso_X_For.mp4']",robot_stimuli\R_Head_Z_For.mp4,11,,,,,,,,,,,,,0,22,22,22,,,,,,,,,,,,,,,,,1093.4324901,1086.0888199,,,,,,,,,1098.175412,1098.175412,1098.175412,1098.175412,1098.175412,1098.175412,1098.175412,1098.175412,None,None,None,,,,,,,,,,,1085.0075665,1085.0075665,None,,1089.8035343,1094.5266345,1094.5266345,1094.5266345,1094.5266345,n,2.5600934999999936,1085.0075665,1085.0075665,,,,11,001,2024-07-04_10h07.08.044,robot_sternberg_sign,2022.2.5,60.008233129594615,
"['R_Head_Z_For', 'L_Base_X_Back']",True,L_Base_X_Back,2,robot,1,False,False,"['robot_stimuli\\R_Head_Z_For.mp4', 'robot_stimuli\\L_Base_X_Back.mp4']",robot_stimuli\L_Base_X_Back.mp4,11,,,,,,,,,,,,,0,23,23,23,,,,,,,,,,,,,,,,,1106.5720864,1107.6593476,,,,,,,,,1111.2541715,1111.2541715,1111.2541715,1111.2541715,1111.2541715,1111.2541715,1111.2541715,1111.2541715,None,None,None,,,,,,,,,,,1098.175412,1098.175412,None,,1102.9767834,1107.6593476,1107.6593476,1107.6593476,1107.6593476,c,1.9153496000001269,1098.175412,1098.175412,,,,11,001,2024-07-04_10h07.08.044,robot_sternberg_sign,2022.2.5,60.008233129594615,
"['R_Head_Z_For', 'R_Torso_X_Back']",True,R_Head_Z_For,2,robot,1,False,False,"['robot_stimuli\\R_Head_Z_For.mp4', 'robot_stimuli\\R_Torso_X_Back.mp4']",robot_stimuli\R_Head_Z_For.mp4,11,,,,,,,,,,,,,0,24,24,24,,,,,,,,,,,,,,,,,1119.7016173,1120.7938605,,,,,,,,,1124.4428707,1124.4428707,1124.4428707,1124.4428707,1124.4428707,1124.4428707,1124.4428707,1124.4428707,None,None,None,,,,,,,,,,,1111.2541715,1111.2541715,None,,1116.0732644,1120.7938605,1120.7938605,1120.7938605,1120.7938605,c,2.3657034999998814,1111.2541715,1111.2541715,,,,11,001,2024-07-04_10h07.08.044,robot_sternberg_sign,2022.2.5,60.008233129594615,
"['R_Base_Y_For', 'L_Head_X_For']",False,R_Arm_Y_Back,2,robot,1,False,False,"['robot_stimuli\\R_Base_Y_For.mp4', 'robot_stimuli\\L_Head_X_For.mp4']",robot_stimuli\R_Arm_Y_Back.mp4,11,,,,,,,,,,,,,0,25,25,25,,,,,,,,,,,,,,,,,1132.8197191,1133.9120844,,,,,,,,,1137.5611432,1137.5611432,1137.5611432,1137.5611432,1137.5611432,1137.5611432,1137.5611432,1137.5611432,None,None,None,,,,,,,,,,,1124.4428707,1124.4428707,None,,1129.2462216,1133.9120844,1133.9120844,1133.9120844,1133.9120844,n,2.0303751999999804,1124.4428707,1124.4428707,,,,11,001,2024-07-04_10h07.08.044,robot_sternberg_sign,2022.2.5,60.008233129594615,
"['L_Torso_Y_Back', 'L_Arm_X_For']",True,L_Torso_Y_Back,2,robot,1,False,False,"['robot_stimuli\\L_Torso_Y_Back.mp4', 'robot_stimuli\\L_Arm_X_For.mp4']",robot_stimuli\L_Torso_Y_Back.mp4,11,,,,,,,,,,,,,0,26,26,26,,,,,,,,,,,,,,,,,1145.852283,1146.9418672,,,,,,,,,1150.4387784,1150.4387784,1150.4387784,1150.4387784,1150.4387784,1150.4387784,1150.4387784,1150.4387784,None,None,None,,,,,,,,,,,1137.5611432,1137.5611432,None,,1142.2209417,1146.9418672,1146.9418672,1146.9418672,1146.9418672,c,1.9696798999998464,1137.5611432,1137.5611432,,,,11,001,2024-07-04_10h07.08.044,robot_sternberg_sign,2022.2.5,60.008233129594615,
"['L_Base_Y_Back', 'L_Torso_Z_Back']",False,R_Torso_Y_For,2,robot,1,False,False,"['robot_stimuli\\L_Base_Y_Back.mp4', 'robot_stimuli\\L_Torso_Z_Back.mp4']",robot_stimuli\R_Torso_Y_For.mp4,11,,,,,,,,,,,,,0,27,27,27,,,,,,,,,,,,,,,,,1158.6856507,1159.7743882,,,,,,,,,1163.4244625,1163.4244625,1163.4244625,1163.4244625,1163.4244625,1163.4244625,1163.4244625,1163.4244625,None,None,None,,,,,,,,,,,1150.4387784,1150.4387784,None,,1155.1800596,1159.7743882,1159.7743882,1159.7743882,1159.7743882,n,1.9603901999998925,1150.4387784,1150.4387784,,,,11,001,2024-07-04_10h07.08.044,robot_sternberg_sign,2022.2.5,60.008233129594615,
"['R_Arm_Z_For', 'R_Torso_Z_For']",True,R_Arm_Z_For,2,robot,1,False,False,"['robot_stimuli\\R_Arm_Z_For.mp4', 'robot_stimuli\\R_Torso_Z_For.mp4']",robot_stimuli\R_Arm_Z_For.mp4,11,,,,,,,,,,,,,0,28,28,28,,,,,,,,,,,,,,,,,1171.8478246,1172.9260452,,,,,,,,,1176.5745013,1176.5745013,1176.5745013,1176.5745013,1176.5745013,1176.5745013,1176.5745013,1176.5745013,None,None,None,,,,,,,,,,,1163.4244625,1163.4244625,None,,1168.2268008,1172.9260452,1172.9260452,1172.9260452,1172.9260452,c,2.3536168000000544,1163.4244625,1163.4244625,,,,11,001,2024-07-04_10h07.08.044,robot_sternberg_sign,2022.2.5,60.008233129594615,
"['R_Torso_Y_Back', 'L_Torso_Y_Back']",False,R_Head_Z_For,2,robot,1,False,True,"['robot_stimuli\\R_Torso_Y_Back.mp4', 'robot_stimuli\\L_Torso_Y_Back.mp4']",robot_stimuli\R_Head_Z_For.mp4,11,,,,,,,,,,,,,0,29,29,29,,,,,,,,,,,,,,,,,1184.8704639,1185.9614028,,,,,,,,,1189.6425229,1194.6775196,1189.6425229,1194.6775196,1189.6425229,1194.6775196,1189.6425229,1194.6775196,32.46913580246913,4.190821800000094,space,,,4.988689000000022,,,,,,,,1176.5745013,1176.5745013,None,,1181.3740517,1185.9614028,1185.9614028,1185.9614028,1185.9614028,n,1.7829214999999294,1176.5745013,1176.5745013,,,,11,001,2024-07-04_10h07.08.044,robot_sternberg_sign,2022.2.5,60.008233129594615,
"['C', 'D', 'B', 'T', 'N', 'Z']",True,T,6,letter,2,True,False,"['robot_stimuli\\\\filler.mp4', 'robot_stimuli\\\\filler.mp4', 'robot_stimuli\\\\filler.mp4', 'robot_stimuli\\\\filler.mp4', 'robot_stimuli\\\\filler.mp4', 'robot_stimuli\\\\filler.mp4']",robot_stimuli\\filler.mp4,11,,,,,,,,,,,,,0,30,30,30,,,,,,,,,,,,,,,,,1226.8322793,1227.8852097,,,,,,,,,1233.7172434,1233.7172434,1233.7172434,1233.7172434,1233.7172434,1233.7172434,1233.7172434,1233.7172434,None,None,None,,,,,,,,,,,1194.6775196,1194.6775196,space,17.994011900000032,,,1227.8852097,1227.8852097,1227.8852097,c,5.698209799999859,,,1224.8148285,1226.8322793,1227.8852097,11,001,2024-07-04_10h07.08.044,robot_sternberg_sign,2022.2.5,60.008233129594615,
"['Z', 'C', 'N', 'G', 'R', 'K']",False,M,6,letter,2,False,False,"['robot_stimuli\\\\filler.mp4', 'robot_stimuli\\\\filler.mp4', 'robot_stimuli\\\\filler.mp4', 'robot_stimuli\\\\filler.mp4', 'robot_stimuli\\\\filler.mp4', 'robot_stimuli\\\\filler.mp4']",robot_stimuli\\filler.mp4,11,,,,,,,,,,,,,0,31,31,31,,,,,,,,,,,,,,,,,1247.6299404,1248.6869629,,,,,,,,,1250.1116233,1250.1116233,1250.1116233,1250.1116233,1250.1116233,1250.1116233,1250.1116233,1250.1116233,None,None,None,,,,,,,,,,,1233.7172434,1233.7172434,None,,,,1248.6869629,1248.6869629,1248.6869629,n,1.3284644999998818,1233.7172434,1233.7172434,1245.416411,1247.6299404,1248.6869629,11,001,2024-07-04_10h07.08.044,robot_sternberg_sign,2022.2.5,60.008233129594615,
"['D', 'Z', 'S', 'V', 'M', 'J']",False,G,6,letter,2,False,False,"['robot_stimuli\\\\filler.mp4', 'robot_stimuli\\\\filler.mp4', 'robot_stimuli\\\\filler.mp4', 'robot_stimuli\\\\filler.mp4', 'robot_stimuli\\\\filler.mp4', 'robot_stimuli\\\\filler.mp4']",robot_stimuli\\filler.mp4,11,,,,,,,,,,,,,0,32,32,32,,,,,,,,,,,,,,,,,1264.2033179,1265.2682668,,,,,,,,,1267.0926038,1267.0926038,1267.0926038,1267.0926038,1267.0926038,1267.0926038,1267.0926038,1267.0926038,None,None,None,,,,,,,,,,,1250.1116233,1250.1116233,None,,,,1265.2682668,1265.2682668,1265.2682668,c,1.7225831999999173,1250.1116233,1250.1116233,1262.1926097,1264.2033179,1265.2682668,11,001,2024-07-04_10h07.08.044,robot_sternberg_sign,2022.2.5,60.008233129594615,
"['S', 'H', 'C', 'W', 'Q', 'R']",False,Z,6,letter,2,False,False,"['robot_stimuli\\\\filler.mp4', 'robot_stimuli\\\\filler.mp4', 'robot_stimuli\\\\filler.mp4', 'robot_stimuli\\\\filler.mp4', 'robot_stimuli\\\\filler.mp4', 'robot_stimuli\\\\filler.mp4']",robot_stimuli\\filler.mp4,11,,,,,,,,,,,,,0,33,33,33,,,,,,,,,,,,,,,,,1281.4195093,1282.4848516,,,,,,,,,1289.3196137,1289.3196137,1289.3196137,1289.3196137,1289.3196137,1289.3196137,1289.3196137,1289.3196137,None,None,None,,,,,,,,,,,1267.0926038,1267.0926038,None,,,,1282.4848516,1282.4848516,1282.4848516,n,6.659371700000065,1267.0926038,1267.0926038,1279.2069542,1281.4195093,1282.4848516,11,001,2024-07-04_10h07.08.044,robot_sternberg_sign,2022.2.5,60.008233129594615,
"['G', 'R', 'W', 'V', 'L', 'X']",False,J,6,letter,2,False,False,"['robot_stimuli\\\\filler.mp4', 'robot_stimuli\\\\filler.mp4', 'robot_stimuli\\\\filler.mp4', 'robot_stimuli\\\\filler.mp4', 'robot_stimuli\\\\filler.mp4', 'robot_stimuli\\\\filler.mp4']",robot_stimuli\\filler.mp4,11,,,,,,,,,,,,,0,34,34,34,,,,,,,,,,,,,,,,,1303.6542172,1304.7334515,,,,,,,,,1306.9524218,1306.9524218,1306.9524218,1306.9524218,1306.9524218,1306.9524218,1306.9524218,1306.9524218,None,None,None,,,,,,,,,,,1289.3196137,1289.3196137,None,,,,1304.7334515,1304.7334515,1304.7334515,n,2.17843670000002,1289.3196137,1289.3196137,1301.4378882,1303.6542172,1304.7334515,11,001,2024-07-04_10h07.08.044,robot_sternberg_sign,2022.2.5,60.008233129594615,
"['H', 'W', 'G', 'Q', 'R', 'C']",True,G,6,letter,2,False,False,"['robot_stimuli\\\\filler.mp4', 'robot_stimuli\\\\filler.mp4', 'robot_stimuli\\\\filler.mp4', 'robot_stimuli\\\\filler.mp4', 'robot_stimuli\\\\filler.mp4', 'robot_stimuli\\\\filler.mp4']",robot_stimuli\\filler.mp4,11,,,,,,,,,,,,,0,35,35,35,,,,,,,,,,,,,,,,,1321.4640253,1322.5183275,,,,,,,,,1324.3462178,1324.3462178,1324.3462178,1324.3462178,1324.3462178,1324.3462178,1324.3462178,1324.3462178,None,None,None,,,,,,,,,,,1306.9524218,1306.9524218,None,,,,1322.5183275,1322.5183275,1322.5183275,c,1.5932803999999123,1306.9524218,1306.9524218,1319.2495215,1321.4640253,1322.5183275,11,001,2024-07-04_10h07.08.044,robot_sternberg_sign,2022.2.5,60.008233129594615,
"['W', 'R', 'D', 'Z', 'L', 'X']",True,D,6,letter,2,False,False,"['robot_stimuli\\\\filler.mp4', 'robot_stimuli\\\\filler.mp4', 'robot_stimuli\\\\filler.mp4', 'robot_stimuli\\\\filler.mp4', 'robot_stimuli\\\\filler.mp4', 'robot_stimuli\\\\filler.mp4']",robot_stimuli\\filler.mp4,11,,,,,,,,,,,,,0,36,36,36,,,,,,,,,,,,,,,,,1338.8578261,1339.9187424,,,,,,,,,1343.7582777,1343.7582777,1343.7582777,1343.7582777,1343.7582777,1343.7582777,1343.7582777,1343.7582777,None,None,None,,,,,,,,,,,1324.3462178,1324.3462178,None,,,,1339.9187424,1339.9187424,1339.9187424,c,3.6011019000000033,1324.3462178,1324.3462178,1336.6406982,1338.8578261,1339.9187424,11,001,2024-07-04_10h07.08.044,robot_sternberg_sign,2022.2.5,60.008233129594615,
"['D', 'G', 'N', 'T', 'V', 'P']",True,T,6,letter,2,False,False,"['robot_stimuli\\\\filler.mp4', 'robot_stimuli\\\\filler.mp4', 'robot_stimuli\\\\filler.mp4', 'robot_stimuli\\\\filler.mp4', 'robot_stimuli\\\\filler.mp4', 'robot_stimuli\\\\filler.mp4']",robot_stimuli\\filler.mp4,11,,,,,,,,,,,,,0,37,37,37,,,,,,,,,,,,,,,,,1358.0834043,1344.8184093,,,,,,,,,1361.1790315,1361.1790315,1361.1790315,1361.1790315,1361.1790315,1361.1790315,1361.1790315,1361.1790315,None,None,None,,,,,,,,,,,1343.7582777,1343.7582777,None,,,,1359.1522026,1359.1522026,1359.1522026,c,1.7910142999999152,1343.7582777,1343.7582777,1356.0757642,1358.0834043,1359.1522026,11,001,2024-07-04_10h07.08.044,robot_sternberg_sign,2022.2.5,60.008233129594615,
"['F', 'J', 'V', 'S', 'L', 'T']",False,K,6,letter,2,False,False,"['robot_stimuli\\\\filler.mp4', 'robot_stimuli\\\\filler.mp4', 'robot_stimuli\\\\filler.mp4', 'robot_stimuli\\\\filler.mp4', 'robot_stimuli\\\\filler.mp4', 'robot_stimuli\\\\filler.mp4']",robot_stimuli\\filler.mp4,11,,,,,,,,,,,,,0,38,38,38,,,,,,,,,,,,,,,,,1375.2839211,1362.2365437,,,,,,,,,1377.7735123,1377.7735123,1377.7735123,1377.7735123,1377.7735123,1377.7735123,1377.7735123,1377.7735123,None,None,None,,,,,,,,,,,1361.1790315,1361.1790315,None,,,,1376.3537732,1376.3537732,1376.3537732,n,1.293460800000048,1361.1790315,1361.1790315,1373.2805617,1375.2839211,1376.3537732,11,001,2024-07-04_10h07.08.044,robot_sternberg_sign,2022.2.5,60.008233129594615,
"['S', 'R', 'H', 'B', 'G', 'N']",True,N,6,letter,2,False,True,"['robot_stimuli\\\\filler.mp4', 'robot_stimuli\\\\filler.mp4', 'robot_stimuli\\\\filler.mp4', 'robot_stimuli\\\\filler.mp4', 'robot_stimuli\\\\filler.mp4', 'robot_stimuli\\\\filler.mp4']",robot_stimuli\\filler.mp4,11,,,,,,,,,,,,,0,39,39,39,,,,,,,,,,,,,,,,,1391.7109647,1392.7746436,,,,,,,,,1394.0253950000001,1399.074504,1394.0253950000001,1399.074504,1394.0253950000001,1399.074504,1394.0253950000001,1399.074504,40.18518518518519,3.4885678000000553,space,,,4.997646799999984,,,,,,,,1377.7735123,1377.7735123,None,,,,1392.7746436,1392.7746436,1392.7746436,c,1.048653800000011,1377.7735123,1377.7735123,1389.6962723,1391.7109647,1392.7746436,11,001,2024-07-04_10h07.08.044,robot_sternberg_sign,2022.2.5,60.008233129594615,
"['M', 'F']",True,M,2,letter,2,True,False,"['robot_stimuli\\\\filler.mp4', 'robot_stimuli\\\\filler.mp4']",robot_stimuli\\filler.mp4,11,,,,,,,,,,,,,0,40,40,40,,,,,,,,,,,,,,,,,1406.8463108,1407.9024526,,,,,,,,,1409.1290053,1409.1290053,1409.1290053,1409.1290053,1409.1290053,1409.1290053,1409.1290053,1409.1290053,None,None,None,,,,,,,,,,,1399.074504,1399.074504,space,2.389517199999773,,,1407.9024526,1407.9024526,1407.9024526,c,1.0891633999999613,,,1404.8207564,1406.8463108,1407.9024526,11,001,2024-07-04_10h07.08.044,robot_sternberg_sign,2022.2.5,60.008233129594615,
"['D', 'Q']",False,B,2,letter,2,False,False,"['robot_stimuli\\\\filler.mp4', 'robot_stimuli\\\\filler.mp4']",robot_stimuli\\filler.mp4,11,,,,,,,,,,,,,0,41,41,41,,,,,,,,,,,,,,,,,1414.4909937,1415.5530893,,,,,,,,,1416.3737466,1416.3737466,1416.3737466,1416.3737466,1416.3737466,1416.3737466,1416.3737466,1416.3737466,None,None,None,,,,,,,,,,,1409.1290053,1409.1290053,None,,,,1415.5530893,1415.5530893,1415.5530893,n,0.7022514000000228,1409.1290053,1409.1290053,1412.4735086,1414.4909937,1415.5530893,11,001,2024-07-04_10h07.08.044,robot_sternberg_sign,2022.2.5,60.008233129594615,
"['D', 'F']",False,Q,2,letter,2,False,False,"['robot_stimuli\\\\filler.mp4', 'robot_stimuli\\\\filler.mp4']",robot_stimuli\\filler.mp4,11,,,,,,,,,,,,,0,42,42,42,,,,,,,,,,,,,,,,,1421.7397714,1422.8029685,,,,,,,,,1423.82302,1423.82302,1423.82302,1423.82302,1423.82302,1423.82302,1423.82302,1423.82302,None,None,None,,,,,,,,,,,1416.3737466,1416.3737466,None,,,,1422.8029685,1422.8029685,1422.8029685,n,0.8763782999999421,1416.3737466,1416.3737466,1419.7246213,1421.7397714,1422.8029685,11,001,2024-07-04_10h07.08.044,robot_sternberg_sign,2022.2.5,60.008233129594615,
"['H', 'C']",False,J,2,letter,2,False,False,"['robot_stimuli\\\\filler.mp4', 'robot_stimuli\\\\filler.mp4']",robot_stimuli\\filler.mp4,11,,,,,,,,,,,,,0,43,43,43,,,,,,,,,,,,,,,,,1429.189152,1430.2529647,,,,,,,,,1431.0782283,1431.0782283,1431.0782283,1431.0782283,1431.0782283,1431.0782283,1431.0782283,1431.0782283,None,None,None,,,,,,,,,,,1423.82302,1423.82302,None,,,,1430.2529647,1430.2529647,1430.2529647,n,0.7300986000000194,1423.82302,1423.82302,1427.1780182,1429.189152,1430.2529647,11,001,2024-07-04_10h07.08.044,robot_sternberg_sign,2022.2.5,60.008233129594615,
"['W', 'H']",False,C,2,letter,2,False,False,"['robot_stimuli\\\\filler.mp4', 'robot_stimuli\\\\filler.mp4']",robot_stimuli\\filler.mp4,11,,,,,,,,,,,,,0,44,44,44,,,,,,,,,,,,,,,,,1436.4413728,1437.5026893,,,,,,,,,1438.3261326,1438.3261326,1438.3261326,1438.3261326,1438.3261326,1438.3261326,1438.3261326,1438.3261326,None,None,None,,,,,,,,,,,1431.0782283,1431.0782283,None,,,,1437.5026893,1437.5026893,1437.5026893,n,0.7372230000000854,1431.0782283,1431.0782283,1434.4313682,1436.4413728,1437.5026893,11,001,2024-07-04_10h07.08.044,robot_sternberg_sign,2022.2.5,60.008233129594615,
"['N', 'J']",True,N,2,letter,2,False,False,"['robot_stimuli\\\\filler.mp4', 'robot_stimuli\\\\filler.mp4']",robot_stimuli\\filler.mp4,11,,,,,,,,,,,,,0,45,45,45,,,,,,,,,,,,,,,,,1443.6999266,1439.3852288,,,,,,,,,1445.7926099000001,1445.7926099000001,1445.7926099000001,1445.7926099000001,1445.7926099000001,1445.7926099000001,1445.7926099000001,1445.7926099000001,None,None,None,,,,,,,,,,,1438.3261326,1438.3261326,None,,,,1444.7682855,1444.7682855,1444.7682855,c,0.9109055999999782,1438.3261326,1438.3261326,1441.678114,1443.6999266,1444.7682855,11,001,2024-07-04_10h07.08.044,robot_sternberg_sign,2022.2.5,60.008233129594615,
"['L', 'Z']",False,H,2,letter,2,False,False,"['robot_stimuli\\\\filler.mp4', 'robot_stimuli\\\\filler.mp4']",robot_stimuli\\filler.mp4,11,,,,,,,,,,,,,0,46,46,46,,,,,,,,,,,,,,,,,1451.3610116,1452.4199421,,,,,,,,,1453.2468134,1453.2468134,1453.2468134,1453.2468134,1453.2468134,1453.2468134,1453.2468134,1453.2468134,None,None,None,,,,,,,,,,,1445.7926099000001,1445.7926099000001,None,,,,1452.4199421,1452.4199421,1452.4199421,n,0.6038699999999153,1445.7926099000001,1445.7926099000001,1449.1504416,1451.3610116,1452.4199421,11,001,2024-07-04_10h07.08.044,robot_sternberg_sign,2022.2.5,60.008233129594615,
"['M', 'X']",True,X,2,letter,2,False,False,"['robot_stimuli\\\\filler.mp4', 'robot_stimuli\\\\filler.mp4']",robot_stimuli\\filler.mp4,11,,,,,,,,,,,,,0,47,47,47,,,,,,,,,,,,,,,,,1458.798111,1459.8504244,,,,,,,,,1460.8754705,1460.8754705,1460.8754705,1460.8754705,1460.8754705,1460.8754705,1460.8754705,1460.8754705,None,None,None,,,,,,,,,,,1453.2468134,1453.2468134,None,,,,1459.8504244,1459.8504244,1459.8504244,c,0.7967642999999498,1453.2468134,1453.2468134,1456.5877589,1458.798111,1459.8504244,11,001,2024-07-04_10h07.08.044,robot_sternberg_sign,2022.2.5,60.008233129594615,
"['F', 'C']",True,F,2,letter,2,False,False,"['robot_stimuli\\\\filler.mp4', 'robot_stimuli\\\\filler.mp4']",robot_stimuli\\filler.mp4,11,,,,,,,,,,,,,0,48,48,48,,,,,,,,,,,,,,,,,1466.4528977,1467.5235479,,,,,,,,,1468.748212,1468.748212,1468.748212,1468.748212,1468.748212,1468.748212,1468.748212,1468.748212,None,None,None,,,,,,,,,,,1460.8754705,1460.8754705,None,,,,1467.5235479,1467.5235479,1467.5235479,c,0.996262999999999,1460.8754705,1460.8754705,1464.2347328,1466.4528977,1467.5235479,11,001,2024-07-04_10h07.08.044,robot_sternberg_sign,2022.2.5,60.008233129594615,
"['W', 'F']",True,F,2,letter,2,False,True,"['robot_stimuli\\\\filler.mp4', 'robot_stimuli\\\\filler.mp4']",robot_stimuli\\filler.mp4,11,,,,,,,,,,,,,0,49,49,49,,,,,,,,,,,,,,,,,1474.3100788,1475.3681812,,,,,,,,,1476.0253797,1485.0614301,1476.0253797,1485.0614301,1476.0253797,1485.0614301,1476.0253797,1485.0614301,22.901234567901227,5.562902200000053,space,,,8.965939299999718,,,,,,,,1468.748212,1468.748212,None,,,,1475.3681812,1475.3681812,1475.3681812,c,0.49503039999990506,1468.748212,1468.748212,1472.1013911,1474.3100788,1475.3681812,11,001,2024-07-04_10h07.08.044,robot_sternberg_sign,2022.2.5,60.008233129594615,
"['D', 'K', 'J', 'M']",True,D,4,letter,2,True,False,"['robot_stimuli\\\\filler.mp4', 'robot_stimuli\\\\filler.mp4', 'robot_stimuli\\\\filler.mp4', 'robot_stimuli\\\\filler.mp4']",robot_stimuli\\filler.mp4,11,,,,,,,,,,,,,0,50,50,50,,,,,,,,,,,,,,,,,1499.8835179,1491.2226264,,,,,,,,,1501.9722216,1501.9722216,1501.9722216,1501.9722216,1501.9722216,1501.9722216,1501.9722216,1501.9722216,None,None,None,,,,,,,,,,,1485.0614301,1485.0614301,space,5.065199800000073,,,1500.9535749,1500.9535749,1500.9535749,c,0.7899287000000186,,,1497.8698651,1499.8835179,1500.9535749,11,001,2024-07-04_10h07.08.044,robot_sternberg_sign,2022.2.5,60.008233129594615,
"['S', 'Q', 'B', 'K']",True,K,4,letter,2,False,False,"['robot_stimuli\\\\filler.mp4', 'robot_stimuli\\\\filler.mp4', 'robot_stimuli\\\\filler.mp4', 'robot_stimuli\\\\filler.mp4']",robot_stimuli\\filler.mp4,11,,,,,,,,,,,,,0,51,51,51,,,,,,,,,,,,,,,,,1511.5205932,1512.5919484,,,,,,,,,1513.4143172,1513.4143172,1513.4143172,1513.4143172,1513.4143172,1513.4143172,1513.4143172,1513.4143172,None,None,None,,,,,,,,,,,1501.9722216,1501.9722216,None,,,,1512.5919484,1512.5919484,1512.5919484,c,0.6392592999998215,1501.9722216,1501.9722216,1509.5112563,1511.5205932,1512.5919484,11,001,2024-07-04_10h07.08.044,robot_sternberg_sign,2022.2.5,60.008233129594615,
"['K', 'X', 'C', 'D']",False,Q,4,letter,2,False,False,"['robot_stimuli\\\\filler.mp4', 'robot_stimuli\\\\filler.mp4', 'robot_stimuli\\\\filler.mp4', 'robot_stimuli\\\\filler.mp4']",robot_stimuli\\filler.mp4,11,,,,,,,,,,,,,0,52,52,52,,,,,,,,,,,,,,,,,1523.1594905,1524.2246738,,,,,,,,,1525.450791,1525.450791,1525.450791,1525.450791,1525.450791,1525.450791,1525.450791,1525.450791,None,None,None,,,,,,,,,,,1513.4143172,1513.4143172,None,,,,1524.2246738,1524.2246738,1524.2246738,n,1.1743355000000975,1513.4143172,1513.4143172,1520.936338,1523.1594905,1524.2246738,11,001,2024-07-04_10h07.08.044,robot_sternberg_sign,2022.2.5,60.008233129594615,
"['C', 'G', 'Q', 'M']",True,M,4,letter,2,False,False,"['robot_stimuli\\\\filler.mp4', 'robot_stimuli\\\\filler.mp4', 'robot_stimuli\\\\filler.mp4', 'robot_stimuli\\\\filler.mp4']",robot_stimuli\\filler.mp4,11,,,,,,,,,,,,,0,53,53,53,,,,,,,,,,,,,,,,,1534.79038,1535.8557083,,,,,,,,,1536.6804254,1536.6804254,1536.6804254,1536.6804254,1536.6804254,1536.6804254,1536.6804254,1536.6804254,None,None,None,,,,,,,,,,,1525.450791,1525.450791,None,,,,1535.8557083,1535.8557083,1535.8557083,c,0.7522594999998091,1525.450791,1525.450791,1532.7769735,1534.79038,1535.8557083,11,001,2024-07-04_10h07.08.044,robot_sternberg_sign,2022.2.5,60.008233129594615,
"['N', 'B', 'Z', 'M']",False,H,4,letter,2,False,False,"['robot_stimuli\\\\filler.mp4', 'robot_stimuli\\\\filler.mp4', 'robot_stimuli\\\\filler.mp4', 'robot_stimuli\\\\filler.mp4']",robot_stimuli\\filler.mp4,11,,,,,,,,,,,,,0,54,54,54,,,,,,,,,,,,,,,,,1546.4136946,1547.4697361,,,,,,,,,1548.2913197,1548.2913197,1548.2913197,1548.2913197,1548.2913197,1548.2913197,1548.2913197,1548.2913197,None,None,None,,,,,,,,,,,1536.6804254,1536.6804254,None,,,,1547.4697361,1547.4697361,1547.4697361,n,0.7216204000001198,1536.6804254,1536.6804254,1544.2007733,1546.4136946,1547.4697361,11,001,2024-07-04_10h07.08.044,robot_sternberg_sign,2022.2.5,60.008233129594615,
"['B', 'V', 'J', 'Z']",False,M,4,letter,2,False,False,"['robot_stimuli\\\\filler.mp4', 'robot_stimuli\\\\filler.mp4', 'robot_stimuli\\\\filler.mp4', 'robot_stimuli\\\\filler.mp4']",robot_stimuli\\filler.mp4,11,,,,,,,,,,,,,0,55,55,55,,,,,,,,,,,,,,,,,1557.8406427,1558.9013095,,,,,,,,,1559.7229637,1559.7229637,1559.7229637,1559.7229637,1559.7229637,1559.7229637,1559.7229637,1559.7229637,None,None,None,,,,,,,,,,,1548.2913197,1548.2913197,None,,,,1558.9013095,1558.9013095,1558.9013095,n,0.6652384000001348,1548.2913197,1548.2913197,1555.8188146,1557.8406427,1558.9013095,11,001,2024-07-04_10h07.08.044,robot_sternberg_sign,2022.2.5,60.008233129594615,
"['Z', 'M', 'H', 'R']",True,R,4,letter,2,False,False,"['robot_stimuli\\\\filler.mp4', 'robot_stimuli\\\\filler.mp4', 'robot_stimuli\\\\filler.mp4', 'robot_stimuli\\\\filler.mp4']",robot_stimuli\\filler.mp4,11,,,,,,,,,,,,,0,56,56,56,,,,,,,,,,,,,,,,,1569.0690730000001,1570.1457403,,,,,,,,,1570.97335,1570.97335,1570.97335,1570.97335,1570.97335,1570.97335,1570.97335,1570.97335,None,None,None,,,,,,,,,,,1559.7229637,1559.7229637,None,,,,1570.1457403,1570.1457403,1570.1457403,c,0.701752899999974,1559.7229637,1559.7229637,1567.0481157,1569.0690730000001,1570.1457403,11,001,2024-07-04_10h07.08.044,robot_sternberg_sign,2022.2.5,60.008233129594615,
"['H', 'Z', 'X', 'R']",False,D,4,letter,2,False,False,"['robot_stimuli\\\\filler.mp4', 'robot_stimuli\\\\filler.mp4', 'robot_stimuli\\\\filler.mp4', 'robot_stimuli\\\\filler.mp4']",robot_stimuli\\filler.mp4,11,,,,,,,,,,,,,0,57,57,57,,,,,,,,,,,,,,,,,1580.9167583,1572.0401996,,,,,,,,,1582.8122906,1582.8122906,1582.8122906,1582.8122906,1582.8122906,1582.8122906,1582.8122906,1582.8122906,None,None,None,,,,,,,,,,,1570.97335,1570.97335,None,,,,1581.9852696,1581.9852696,1581.9852696,n,0.6138052999999672,1570.97335,1570.97335,1578.7011692,1580.9167583,1581.9852696,11,001,2024-07-04_10h07.08.044,robot_sternberg_sign,2022.2.5,60.008233129594615,
"['C', 'R', 'H', 'J']",True,R,4,letter,2,False,False,"['robot_stimuli\\\\filler.mp4', 'robot_stimuli\\\\filler.mp4', 'robot_stimuli\\\\filler.mp4', 'robot_stimuli\\\\filler.mp4']",robot_stimuli\\filler.mp4,11,,,,,,,,,,,,,0,58,58,58,,,,,,,,,,,,,,,,,1592.3448978,1593.4023309,,,,,,,,,1594.4319801,1594.4319801,1594.4319801,1594.4319801,1594.4319801,1594.4319801,1594.4319801,1594.4319801,None,None,None,,,,,,,,,,,1582.8122906,1582.8122906,None,,,,1593.4023309,1593.4023309,1593.4023309,c,0.9577613999997538,1582.8122906,1582.8122906,1590.331064,1592.3448978,1593.4023309,11,001,2024-07-04_10h07.08.044,robot_sternberg_sign,2022.2.5,60.008233129594615,
"['B', 'D', 'C', 'H']",False,P,4,letter,2,False,True,"['robot_stimuli\\\\filler.mp4', 'robot_stimuli\\\\filler.mp4', 'robot_stimuli\\\\filler.mp4', 'robot_stimuli\\\\filler.mp4']",robot_stimuli\\filler.mp4,11,,,,,,,,,,,,,0,59,59,59,,,,,,,,,,,,,,,,,1604.3706714,1605.435986,,,,,,,,,1606.2911956,1610.0816883,1606.2911956,1610.0816883,1606.2911956,1610.0816883,1606.2911956,1610.0816883,19.814814814814813,2.7300920000000133,space,,,3.740016799999921,,,,,,,,1594.4319801,1594.4319801,None,,,,1605.435986,1605.435986,1605.435986,n,0.7717776999998023,1594.4319801,1594.4319801,1602.152981,1604.3706714,1605.435986,11,001,2024-07-04_10h07.08.044,robot_sternberg_sign,2022.2.5,60.008233129594615,
"['R_Head_X_For', 'R_Torso_Z_Back']",False,R_Base_X_For,2,robot,3,True,False,"['robot_stimuli\\R_Head_X_For.mp4', 'robot_stimuli\\R_Torso_Z_Back.mp4']",robot_stimuli\R_Base_X_For.mp4,11,,,,,,,,,,,,,0,60,60,60,,,,,,,,,,,,,,,,,1623.5384367,1624.6428703,,,,,,,,,1628.1733087,1628.1733087,1628.1733087,1628.1733087,1628.1733087,1628.1733087,1628.1733087,1628.1733087,None,None,None,,,,,,,,,,,1610.0816883,1610.0816883,space,4.957966799999895,1619.8927319,1624.6428703,1624.6428703,1624.6428703,1624.6428703,n,2.5174460999999155,,,,,,11,001,2024-07-04_10h07.08.044,robot_sternberg_sign,2022.2.5,60.008233129594615,
"['L_Arm_Y_For', 'L_Head_Y_For']",True,L_Arm_Y_For,2,robot,3,False,False,"['robot_stimuli\\L_Arm_Y_For.mp4', 'robot_stimuli\\L_Head_Y_For.mp4']",robot_stimuli\L_Arm_Y_For.mp4,11,,,,,,,,,,,,,0,61,61,61,,,,,,,,,,,,,,,,,1636.6204926,1637.7088339,,,,,,,,,1641.3482706,1641.3482706,1641.3482706,1641.3482706,1641.3482706,1641.3482706,1641.3482706,1641.3482706,None,None,None,,,,,,,,,,,1628.1733087,1628.1733087,None,,1632.9802597,1637.7088339,1637.7088339,1637.7088339,1637.7088339,c,1.9862451999999848,1628.1733087,1628.1733087,,,,11,001,2024-07-04_10h07.08.044,robot_sternberg_sign,2022.2.5,60.008233129594615,
"['R_Torso_Y_For', 'R_Arm_X_Back']",False,R_Base_Z_For,2,robot,3,False,False,"['robot_stimuli\\R_Torso_Y_For.mp4', 'robot_stimuli\\R_Arm_X_Back.mp4']",robot_stimuli\R_Base_Z_For.mp4,11,,,,,,,,,,,,,0,62,62,62,,,,,,,,,,,,,,,,,1649.7724719,1650.8666757,,,,,,,,,1654.5125739,1654.5125739,1654.5125739,1654.5125739,1654.5125739,1654.5125739,1654.5125739,1654.5125739,None,None,None,,,,,,,,,,,1641.3482706,1641.3482706,None,,1646.1455958,1650.8666757,1650.8666757,1650.8666757,1650.8666757,n,1.8765889999999672,1641.3482706,1641.3482706,,,,11,001,2024-07-04_10h07.08.044,robot_sternberg_sign,2022.2.5,60.008233129594615,
"['R_Head_Z_Back', 'L_Head_X_Back']",True,R_Head_Z_Back,2,robot,3,False,False,"['robot_stimuli\\R_Head_Z_Back.mp4', 'robot_stimuli\\L_Head_X_Back.mp4']",robot_stimuli\R_Head_Z_Back.mp4,11,,,,,,,,,,,,,0,63,63,63,,,,,,,,,,,,,,,,,1662.9378609,1664.0227623,,,,,,,,,1667.6782633,1667.6782633,1667.6782633,1667.6782633,1667.6782633,1667.6782633,1667.6782633,1667.6782633,None,None,None,,,,,,,,,,,1654.5125739,1654.5125739,None,,1659.3065159,1664.0227623,1664.0227623,1664.0227623,1664.0227623,c,3.065682299999935,1654.5125739,1654.5125739,,,,11,001,2024-07-04_10h07.08.044,robot_sternberg_sign,2022.2.5,60.008233129594615,
"['L_Arm_Z_For', 'L_Arm_X_For']",False,L_Base_Y_Back,2,robot,3,False,False,"['robot_stimuli\\L_Arm_Z_For.mp4', 'robot_stimuli\\L_Arm_X_For.mp4']",robot_stimuli\L_Base_Y_Back.mp4,11,,,,,,,,,,,,,0,64,64,64,,,,,,,,,,,,,,,,,1676.1237648000001,1677.2079345,,,,,,,,,1680.7923132,1680.7923132,1680.7923132,1680.7923132,1680.7923132,1680.7923132,1680.7923132,1680.7923132,None,None,None,,,,,,,,,,,1667.6782633,1667.6782633,None,,1672.4917383,1677.2079345,1677.2079345,1677.2079345,1677.2079345,n,2.0793293999997786,1667.6782633,1667.6782633,,,,11,001,2024-07-04_10h07.08.044,robot_sternberg_sign,2022.2.5,60.008233129594615,
"['L_Arm_Z_For', 'R_Head_Y_For']",False,R_Base_Z_For,2,robot,3,False,False,"['robot_stimuli\\L_Arm_Z_For.mp4', 'robot_stimuli\\R_Head_Y_For.mp4']",robot_stimuli\R_Base_Z_For.mp4,11,,,,,,,,,,,,,0,65,65,65,,,,,,,,,,,,,,,,,1689.2151225,1690.2932887,,,,,,,,,1693.9316754,1693.9316754,1693.9316754,1693.9316754,1693.9316754,1693.9316754,1693.9316754,1693.9316754,None,None,None,,,,,,,,,,,1680.7923132,1680.7923132,None,,1685.5921874,1690.2932887,1690.2932887,1690.2932887,1690.2932887,n,1.817468799999915,1680.7923132,1680.7923132,,,,11,001,2024-07-04_10h07.08.044,robot_sternberg_sign,2022.2.5,60.008233129594615,
"['L_Torso_Y_Back', 'R_Torso_Y_Back']",True,L_Torso_Y_Back,2,robot,3,False,False,"['robot_stimuli\\L_Torso_Y_Back.mp4', 'robot_stimuli\\R_Torso_Y_Back.mp4']",robot_stimuli\L_Torso_Y_Back.mp4,11,,,,,,,,,,,,,0,66,66,66,,,,,,,,,,,,,,,,,1702.2153451,1703.2918296,,,,,,,,,1706.8118529,1706.8118529,1706.8118529,1706.8118529,1706.8118529,1706.8118529,1706.8118529,1706.8118529,None,None,None,,,,,,,,,,,1693.9316754,1693.9316754,None,,1698.5918052,1703.2918296,1703.2918296,1703.2918296,1703.2918296,c,1.8435437999999067,1693.9316754,1693.9316754,,,,11,001,2024-07-04_10h07.08.044,robot_sternberg_sign,2022.2.5,60.008233129594615,
"['L_Base_X_For', 'L_Arm_X_For']",True,L_Arm_X_For,2,robot,3,False,False,"['robot_stimuli\\L_Base_X_For.mp4', 'robot_stimuli\\L_Arm_X_For.mp4']",robot_stimuli\L_Arm_X_For.mp4,11,,,,,,,,,,,,,0,67,67,67,,,,,,,,,,,,,,,,,1715.1653094,1716.2436849,,,,,,,,,1719.882111,1719.882111,1719.882111,1719.882111,1719.882111,1719.882111,1719.882111,1719.882111,None,None,None,,,,,,,,,,,1706.8118529,1706.8118529,None,,1711.5455411,1716.2436849,1716.2436849,1716.2436849,1716.2436849,c,1.8275432000000364,1706.8118529,1706.8118529,,,,11,001,2024-07-04_10h07.08.044,robot_sternberg_sign,2022.2.5,60.008233129594615,
"['L_Base_Z_Back', 'R_Base_Z_Back']",False,L_Base_Y_Back,2,robot,3,False,False,"['robot_stimuli\\L_Base_Z_Back.mp4', 'robot_stimuli\\R_Base_Z_Back.mp4']",robot_stimuli\L_Base_Y_Back.mp4,11,,,,,,,,,,,,,0,68,68,68,,,,,,,,,,,,,,,,,1728.2185657,1720.9577666,,,,,,,,,1732.8928135,1732.8928135,1732.8928135,1732.8928135,1732.8928135,1732.8928135,1732.8928135,1732.8928135,None,None,None,,,,,,,,,,,1719.882111,1719.882111,None,,1724.6802381,1729.3079473,1729.3079473,1729.3079473,1729.3079473,n,2.5237546999999267,1719.882111,1719.882111,,,,11,001,2024-07-04_10h07.08.044,robot_sternberg_sign,2022.2.5,60.008233129594615,
"['L_Base_X_Back', 'L_Head_Z_Back']",True,L_Head_Z_Back,2,robot,3,False,True,"['robot_stimuli\\L_Base_X_Back.mp4', 'robot_stimuli\\L_Head_Z_Back.mp4']",robot_stimuli\L_Head_Z_Back.mp4,11,,,,,,,,,,,,,0,69,69,69,,,,,,,,,,,,,,,,,1741.3036212000002,1742.3960683,,,,,,,,,1746.0747935,1749.6631427000002,1746.0747935,1749.6631427000002,1746.0747935,1749.6631427000002,1746.0747935,1749.6631427000002,32.160493827160494,2.7769084999999905,space,,,3.548328999999967,,,,,,,,1732.8928135,1732.8928135,None,,1737.6627962,1742.3960683,1742.3960683,1742.3960683,1742.3960683,c,2.187941799999635,1732.8928135,1732.8928135,,,,11,001,2024-07-04_10h07.08.044,robot_sternberg_sign,2022.2.5,60.008233129594615,
"['L_Torso_Z_Back', 'L_Torso_Y_Back', 'L_Arm_X_For', 'R_Torso_Y_Back']",True,R_Torso_Y_Back,4,robot,3,True,False,"['robot_stimuli\\L_Torso_Z_Back.mp4', 'robot_stimuli\\L_Torso_Y_Back.mp4', 'robot_stimuli\\L_Arm_X_For.mp4', 'robot_stimuli\\R_Torso_Y_Back.mp4']",robot_stimuli\R_Torso_Y_Back.mp4,11,,,,,,,,,,,,,0,70,70,70,,,,,,,,,,,,,,,,,1771.5182661,1756.9746934999998,,,,,,,,,1776.2478969,1776.2478969,1776.2478969,1776.2478969,1776.2478969,1776.2478969,1776.2478969,1776.2478969,None,None,None,,,,,,,,,,,1749.6631427000002,1749.6631427000002,space,6.208474899999828,1767.8772204000002,1772.6078465,1772.6078465,1772.6078465,1772.6078465,c,2.183274499999925,,,,,,11,001,2024-07-04_10h07.08.044,robot_sternberg_sign,2022.2.5,60.008233129594615,
"['L_Torso_Z_Back', 'L_Arm_Z_For', 'R_Torso_Z_Back', 'L_Base_X_Back']",False,L_Base_Z_Back,4,robot,3,False,False,"['robot_stimuli\\L_Torso_Z_Back.mp4', 'robot_stimuli\\L_Arm_Z_For.mp4', 'robot_stimuli\\R_Torso_Z_Back.mp4', 'robot_stimuli\\L_Base_X_Back.mp4']",robot_stimuli\L_Base_Z_Back.mp4,11,,,,,,,,,,,,,0,71,71,71,,,,,,,,,,,,,,,,,1791.9878365999998,1793.0781207,,,,,,,,,1796.7259353,1796.7259353,1796.7259353,1796.7259353,1796.7259353,1796.7259353,1796.7259353,1796.7259353,None,None,None,,,,,,,,,,,1776.2478969,1776.2478969,None,,1788.3787324,1793.0781207,1793.0781207,1793.0781207,1793.0781207,n,3.121384100000114,1776.2478969,1776.2478969,,,,11,001,2024-07-04_10h07.08.044,robot_sternberg_sign,2022.2.5,60.008233129594615,
"['R_Arm_Y_For', 'L_Head_X_Back', 'R_Torso_X_Back', 'R_Arm_X_For']",True,R_Arm_X_For,4,robot,3,False,False,"['robot_stimuli\\R_Arm_Y_For.mp4', 'robot_stimuli\\L_Head_X_Back.mp4', 'robot_stimuli\\R_Torso_X_Back.mp4', 'robot_stimuli\\R_Arm_X_For.mp4']",robot_stimuli\R_Arm_X_For.mp4,11,,,,,,,,,,,,,0,72,72,72,,,,,,,,,,,,,,,,,1812.4744091000002,1813.5600875999999,,,,,,,,,1817.1893832,1817.1893832,1817.1893832,1817.1893832,1817.1893832,1817.1893832,1817.1893832,1817.1893832,None,None,None,,,,,,,,,,,1796.7259353,1796.7259353,None,,1808.8422271999998,1813.5600875999999,1813.5600875999999,1813.5600875999999,1813.5600875999999,c,2.2234603999997944,1796.7259353,1796.7259353,,,,11,001,2024-07-04_10h07.08.044,robot_sternberg_sign,2022.2.5,60.008233129594615,
"['L_Head_Y_Back', 'R_Arm_X_For', 'R_Head_Y_For', 'L_Torso_X_Back']",True,R_Arm_X_For,4,robot,3,False,False,"['robot_stimuli\\L_Head_Y_Back.mp4', 'robot_stimuli\\R_Arm_X_For.mp4', 'robot_stimuli\\R_Head_Y_For.mp4', 'robot_stimuli\\L_Torso_X_Back.mp4']",robot_stimuli\R_Arm_X_For.mp4,11,,,,,,,,,,,,,0,73,73,73,,,,,,,,,,,,,,,,,1833.0891459999998,1834.1756873999998,,,,,,,,,1837.8134135,1837.8134135,1837.8134135,1837.8134135,1837.8134135,1837.8134135,1837.8134135,1837.8134135,None,None,None,,,,,,,,,,,1817.1893832,1817.1893832,None,,1829.4469669999999,1834.1756873999998,1834.1756873999998,1834.1756873999998,1834.1756873999998,c,2.3766689999999926,1817.1893832,1817.1893832,,,,11,001,2024-07-04_10h07.08.044,robot_sternberg_sign,2022.2.5,60.008233129594615,
"['R_Base_Y_Back', 'L_Torso_Z_Back', 'L_Torso_Y_Back', 'R_Torso_Z_For']",False,R_Base_Z_For,4,robot,3,False,False,"['robot_stimuli\\R_Base_Y_Back.mp4', 'robot_stimuli\\L_Torso_Z_Back.mp4', 'robot_stimuli\\L_Torso_Y_Back.mp4', 'robot_stimuli\\R_Torso_Z_For.mp4']",robot_stimuli\R_Base_Z_For.mp4,11,,,,,,,,,,,,,0,74,74,74,,,,,,,,,,,,,,,,,1853.4425812,1854.5419941,,,,,,,,,1858.1715878999998,1858.1715878999998,1858.1715878999998,1858.1715878999998,1858.1715878999998,1858.1715878999998,1858.1715878999998,1858.1715878999998,None,None,None,,,,,,,,,,,1837.8134135,1837.8134135,None,,1849.8062869999999,1854.5419941,1854.5419941,1854.5419941,1854.5419941,n,2.5770782000001873,1837.8134135,1837.8134135,,,,11,001,2024-07-04_10h07.08.044,robot_sternberg_sign,2022.2.5,60.008233129594615,
"['L_Head_X_For', 'L_Torso_X_Back', 'R_Arm_X_Back', 'R_Base_Z_For']",False,R_Arm_Y_Back,4,robot,3,False,False,"['robot_stimuli\\L_Head_X_For.mp4', 'robot_stimuli\\L_Torso_X_Back.mp4', 'robot_stimuli\\R_Arm_X_Back.mp4', 'robot_stimuli\\R_Base_Z_For.mp4']",robot_stimuli\R_Arm_Y_Back.mp4,11,,,,,,,,,,,,,0,75,75,75,,,,,,,,,,,,,,,,,1874.0024561999999,1875.0935343,,,,,,,,,1878.7420333999999,1878.7420333999999,1878.7420333999999,1878.7420333999999,1878.7420333999999,1878.7420333999999,1878.7420333999999,1878.7420333999999,None,None,None,,,,,,,,,,,1858.1715878999998,1858.1715878999998,None,,1870.3713469,1875.0935343,1875.0935343,1875.0935343,1875.0935343,c,3.6187287000000197,1858.1715878999998,1858.1715878999998,,,,11,001,2024-07-04_10h07.08.044,robot_sternberg_sign,2022.2.5,60.008233129594615,
"['L_Torso_Z_For', 'R_Arm_X_Back', 'L_Base_X_For', 'R_Base_Y_Back']",False,R_Head_Z_Back,4,robot,3,False,False,"['robot_stimuli\\L_Torso_Z_For.mp4', 'robot_stimuli\\R_Arm_X_Back.mp4', 'robot_stimuli\\L_Base_X_For.mp4', 'robot_stimuli\\R_Base_Y_Back.mp4']",robot_stimuli\R_Head_Z_Back.mp4,11,,,,,,,,,,,,,0,76,76,76,,,,,,,,,,,,,,,,,1894.5372598,1895.6292420999998,,,,,,,,,1899.2774370000002,1899.2774370000002,1899.2774370000002,1899.2774370000002,1899.2774370000002,1899.2774370000002,1899.2774370000002,1899.2774370000002,None,None,None,,,,,,,,,,,1878.7420333999999,1878.7420333999999,None,,1890.9076095,1895.6292420999998,1895.6292420999998,1895.6292420999998,1895.6292420999998,n,1.6913320000001022,1878.7420333999999,1878.7420333999999,,,,11,001,2024-07-04_10h07.08.044,robot_sternberg_sign,2022.2.5,60.008233129594615,
"['L_Base_Z_For', 'R_Base_Y_Back', 'L_Head_Y_For', 'R_Base_X_For']",True,R_Base_X_For,4,robot,3,False,False,"['robot_stimuli\\L_Base_Z_For.mp4', 'robot_stimuli\\R_Base_Y_Back.mp4', 'robot_stimuli\\L_Head_Y_For.mp4', 'robot_stimuli\\R_Base_X_For.mp4']",robot_stimuli\R_Base_X_For.mp4,11,,,,,,,,,,,,,0,77,77,77,,,,,,,,,,,,,,,,,1915.0873178000002,1916.1774584,,,,,,,,,1919.7063778000002,1919.7063778000002,1919.7063778000002,1919.7063778000002,1919.7063778000002,1919.7063778000002,1919.7063778000002,1919.7063778000002,None,None,None,,,,,,,,,,,1899.2774370000002,1899.2774370000002,None,,1911.5481366,1916.1774584,1916.1774584,1916.1774584,1916.1774584,c,3.2467799000003197,1899.2774370000002,1899.2774370000002,,,,11,001,2024-07-04_10h07.08.044,robot_sternberg_sign,2022.2.5,60.008233129594615,
"['L_Torso_Y_For', 'R_Head_Z_For', 'R_Torso_Z_Back', 'L_Arm_Y_Back']",False,R_Arm_X_For,4,robot,3,False,False,"['robot_stimuli\\L_Torso_Y_For.mp4', 'robot_stimuli\\R_Head_Z_For.mp4', 'robot_stimuli\\R_Torso_Z_Back.mp4', 'robot_stimuli\\L_Arm_Y_Back.mp4']",robot_stimuli\R_Arm_X_For.mp4,11,,,,,,,,,,,,,0,78,78,78,,,,,,,,,,,,,,,,,1935.5823865000002,1936.6567045000002,,,,,,,,,1940.2986901999998,1940.2986901999998,1940.2986901999998,1940.2986901999998,1940.2986901999998,1940.2986901999998,1940.2986901999998,1940.2986901999998,None,None,None,,,,,,,,,,,1919.7063778000002,1919.7063778000002,None,,1931.9597595,1936.6567045000002,1936.6567045000002,1936.6567045000002,1936.6567045000002,n,1.9590623999995387,1919.7063778000002,1919.7063778000002,,,,11,001,2024-07-04_10h07.08.044,robot_sternberg_sign,2022.2.5,60.008233129594615,
"['L_Head_Z_For', 'L_Torso_Z_Back', 'L_Base_X_Back', 'R_Arm_Z_For']",True,L_Base_X_Back,4,robot,3,False,True,"['robot_stimuli\\L_Head_Z_For.mp4', 'robot_stimuli\\L_Torso_Z_Back.mp4', 'robot_stimuli\\L_Base_X_Back.mp4', 'robot_stimuli\\R_Arm_Z_For.mp4']",robot_stimuli\L_Base_X_Back.mp4,11,,,,,,,,,,,,,0,79,79,79,,,,,,,,,,,,,,,,,1956.0561252000002,1957.1459018,,,,,,,,,1960.7955769999999,1964.0735724,1960.7955769999999,1964.0735724,1960.7955769999999,1964.0735724,1960.7955769999999,1964.0735724,44.35185185185186,2.4393487000002096,space,,,3.2192913999999746,,,,,,,,1940.2986901999998,1940.2986901999998,None,,1952.4146987,1957.1459018,1957.1459018,1957.1459018,1957.1459018,c,3.0942772999999306,1940.2986901999998,1940.2986901999998,,,,11,001,2024-07-04_10h07.08.044,robot_sternberg_sign,2022.2.5,60.008233129594615,
"['R_Base_X_For', 'R_Head_Y_Back', 'L_Base_X_For', 'R_Arm_Y_For', 'L_Base_Z_Back', 'R_Torso_Z_For']",False,L_Torso_Y_Back,6,robot,3,True,False,"['robot_stimuli\\R_Base_X_For.mp4', 'robot_stimuli\\R_Head_Y_Back.mp4', 'robot_stimuli\\L_Base_X_For.mp4', 'robot_stimuli\\R_Arm_Y_For.mp4', 'robot_stimuli\\L_Base_Z_Back.mp4', 'robot_stimuli\\R_Torso_Z_For.mp4']",robot_stimuli\L_Torso_Y_Back.mp4,11,,,,,,,,,,,,,0,80,80,80,,,,,,,,,,,,,,,,,1999.0385154,2000.128772,,,,,,,,,2003.6444968,2003.6444968,2003.6444968,2003.6444968,2003.6444968,2003.6444968,2003.6444968,2003.6444968,None,None,None,,,,,,,,,,,1964.0735724,1964.0735724,space,11.871389000000136,1995.3956447,2000.128772,2000.128772,2000.128772,2000.128772,n,2.7101546999999755,,,,,,11,001,2024-07-04_10h07.08.044,robot_sternberg_sign,2022.2.5,60.008233129594615,
"['L_Torso_Y_For', 'R_Torso_Y_For', 'L_Head_Z_Back', 'L_Torso_Z_Back', 'L_Base_Z_For', 'R_Arm_X_For']",True,L_Torso_Y_For,6,robot,3,False,False,"['robot_stimuli\\L_Torso_Y_For.mp4', 'robot_stimuli\\R_Torso_Y_For.mp4', 'robot_stimuli\\L_Head_Z_Back.mp4', 'robot_stimuli\\L_Torso_Z_Back.mp4', 'robot_stimuli\\L_Base_Z_For.mp4', 'robot_stimuli\\R_Arm_X_For.mp4']",robot_stimuli\L_Torso_Y_For.mp4,11,,,,,,,,,,,,,0,81,81,81,,,,,,,,,,,,,,,,,2026.8158604999999,2027.8943439999998,,,,,,,,,2031.5429,2031.5429,2031.5429,2031.5429,2031.5429,2031.5429,2031.5429,2031.5429,None,None,None,,,,,,,,,,,2003.6444968,2003.6444968,None,,2023.1927399,2027.8943439999998,2027.8943439999998,2027.8943439999998,2027.8943439999998,c,2.8406876999999895,2003.6444968,2003.6444968,,,,11,001,2024-07-04_10h07.08.044,robot_sternberg_sign,2022.2.5,60.008233129594615,
"['L_Head_Y_For', 'L_Arm_Y_Back', 'R_Arm_X_Back', 'R_Head_X_Back', 'L_Head_X_Back', 'R_Head_Z_For']",False,R_Torso_X_Back,6,robot,3,False,False,"['robot_stimuli\\L_Head_Y_For.mp4', 'robot_stimuli\\L_Arm_Y_Back.mp4', 'robot_stimuli\\R_Arm_X_Back.mp4', 'robot_stimuli\\R_Head_X_Back.mp4', 'robot_stimuli\\L_Head_X_Back.mp4', 'robot_stimuli\\R_Head_Z_For.mp4']",robot_stimuli\R_Torso_X_Back.mp4,11,,,,,,,,,,,,,0,82,82,82,,,,,,,,,,,,,,,,,2054.8866818,2055.9770706,,,,,,,,,2059.6068384,2059.6068384,2059.6068384,2059.6068384,2059.6068384,2059.6068384,2059.6068384,2059.6068384,None,None,None,,,,,,,,,,,2031.5429,2031.5429,None,,2051.2456268,2055.9770706,2055.9770706,2055.9770706,2055.9770706,n,2.703143000000182,2031.5429,2031.5429,,,,11,001,2024-07-04_10h07.08.044,robot_sternberg_sign,2022.2.5,60.008233129594615,
"['R_Head_X_Back', 'L_Torso_X_Back', 'R_Torso_Z_Back', 'R_Head_Z_For', 'L_Base_Z_Back', 'L_Base_X_Back']",True,R_Torso_Z_Back,6,robot,3,False,False,"['robot_stimuli\\R_Head_X_Back.mp4', 'robot_stimuli\\L_Torso_X_Back.mp4', 'robot_stimuli\\R_Torso_Z_Back.mp4', 'robot_stimuli\\R_Head_Z_For.mp4', 'robot_stimuli\\L_Base_Z_Back.mp4', 'robot_stimuli\\L_Base_X_Back.mp4']",robot_stimuli\R_Torso_Z_Back.mp4,11,,,,,,,,,,,,,0,83,83,83,,,,,,,,,,,,,,,,,2082.9207198,2084.0075192,,,,,,,,,2087.6392621,2087.6392621,2087.6392621,2087.6392621,2087.6392621,2087.6392621,2087.6392621,2087.6392621,None,None,None,,,,,,,,,,,2059.6068384,2059.6068384,None,,2079.3131283,2084.0075192,2084.0075192,2084.0075192,2084.0075192,c,2.8076608999999735,2059.6068384,2059.6068384,,,,11,001,2024-07-04_10h07.08.044,robot_sternberg_sign,2022.2.5,60.008233129594615,
"['R_Base_Y_Back', 'R_Base_Z_Back', 'R_Head_X_Back', 'L_Head_Y_For', 'L_Arm_Z_Back', 'L_Head_X_For']",True,R_Base_Z_Back,6,robot,3,False,False,"['robot_stimuli\\R_Base_Y_Back.mp4', 'robot_stimuli\\R_Base_Z_Back.mp4', 'robot_stimuli\\R_Head_X_Back.mp4', 'robot_stimuli\\L_Head_Y_For.mp4', 'robot_stimuli\\L_Arm_Z_Back.mp4', 'robot_stimuli\\L_Head_X_For.mp4']",robot_stimuli\R_Base_Z_Back.mp4,11,,,,,,,,,,,,,0,84,84,84,,,,,,,,,,,,,,,,,2110.8221782,2111.9094802,,,,,,,,,2115.4658473,2115.4658473,2115.4658473,2115.4658473,2115.4658473,2115.4658473,2115.4658473,2115.4658473,None,None,None,,,,,,,,,,,2087.6392621,2087.6392621,None,,2107.2467076,2111.9094802,2111.9094802,2111.9094802,2111.9094802,c,2.6025533000001815,2087.6392621,2087.6392621,,,,11,001,2024-07-04_10h07.08.044,robot_sternberg_sign,2022.2.5,60.008233129594615,
"['R_Arm_Y_Back', 'L_Base_X_Back', 'R_Torso_X_For', 'R_Head_Z_For', 'R_Torso_X_Back', 'L_Base_Y_Back']",False,L_Base_Z_Back,6,robot,3,False,False,"['robot_stimuli\\R_Arm_Y_Back.mp4', 'robot_stimuli\\L_Base_X_Back.mp4', 'robot_stimuli\\R_Torso_X_For.mp4', 'robot_stimuli\\R_Head_Z_For.mp4', 'robot_stimuli\\R_Torso_X_Back.mp4', 'robot_stimuli\\L_Base_Y_Back.mp4']",robot_stimuli\L_Base_Z_Back.mp4,11,,,,,,,,,,,,,0,85,85,85,,,,,,,,,,,,,,,,,2138.7544823,2139.8439121,,,,,,,,,2143.4729638,2143.4729638,2143.4729638,2143.4729638,2143.4729638,2143.4729638,2143.4729638,2143.4729638,None,None,None,,,,,,,,,,,2115.4658473,2115.4658473,None,,2135.1780978,2139.8439121,2139.8439121,2139.8439121,2139.8439121,n,3.2531410000001415,2115.4658473,2115.4658473,,,,11,001,2024-07-04_10h07.08.044,robot_sternberg_sign,2022.2.5,60.008233129594615,
"['L_Head_X_For', 'R_Torso_X_Back', 'R_Arm_X_Back', 'L_Base_Y_For', 'L_Torso_Z_Back', 'R_Torso_Z_For']",False,L_Arm_X_Back,6,robot,3,False,False,"['robot_stimuli\\L_Head_X_For.mp4', 'robot_stimuli\\R_Torso_X_Back.mp4', 'robot_stimuli\\R_Arm_X_Back.mp4', 'robot_stimuli\\L_Base_Y_For.mp4', 'robot_stimuli\\L_Torso_Z_Back.mp4', 'robot_stimuli\\R_Torso_Z_For.mp4']",robot_stimuli\L_Arm_X_Back.mp4,11,,,,,,,,,,,,,0,86,86,86,,,,,,,,,,,,,,,,,2166.5030393,2167.5990267,,,,,,,,,2171.2468807,2171.2468807,2171.2468807,2171.2468807,2171.2468807,2171.2468807,2171.2468807,2171.2468807,None,None,None,,,,,,,,,,,2143.4729638,2143.4729638,None,,2162.8714926,2167.5990267,2167.5990267,2167.5990267,2167.5990267,n,2.849865200000295,2143.4729638,2143.4729638,,,,11,001,2024-07-04_10h07.08.044,robot_sternberg_sign,2022.2.5,60.008233129594615,
"['R_Head_Y_Back', 'R_Base_Y_Back', 'L_Base_Y_Back', 'L_Base_X_Back', 'L_Head_Z_Back', 'L_Arm_Z_Back']",False,L_Arm_Y_For,6,robot,3,False,False,"['robot_stimuli\\R_Head_Y_Back.mp4', 'robot_stimuli\\R_Base_Y_Back.mp4', 'robot_stimuli\\L_Base_Y_Back.mp4', 'robot_stimuli\\L_Base_X_Back.mp4', 'robot_stimuli\\L_Head_Z_Back.mp4', 'robot_stimuli\\L_Arm_Z_Back.mp4']",robot_stimuli\L_Arm_Y_For.mp4,11,,,,,,,,,,,,,0,87,87,87,,,,,,,,,,,,,,,,,2194.4829304,2195.5577676,,,,,,,,,2199.1908718,2199.1908718,2199.1908718,2199.1908718,2199.1908718,2199.1908718,2199.1908718,2199.1908718,None,None,None,,,,,,,,,,,2171.2468807,2171.2468807,None,,2190.8590915,2195.5577676,2195.5577676,2195.5577676,2195.5577676,n,2.48192040000049,2171.2468807,2171.2468807,,,,11,001,2024-07-04_10h07.08.044,robot_sternberg_sign,2022.2.5,60.008233129594615,
"['L_Arm_Y_For', 'L_Torso_Z_For', 'R_Head_Y_For', 'R_Base_Y_Back', 'L_Head_X_For', 'L_Arm_Y_Back']",True,L_Arm_Y_Back,6,robot,3,False,False,"['robot_stimuli\\L_Arm_Y_For.mp4', 'robot_stimuli\\L_Torso_Z_For.mp4', 'robot_stimuli\\R_Head_Y_For.mp4', 'robot_stimuli\\R_Base_Y_Back.mp4', 'robot_stimuli\\L_Head_X_For.mp4', 'robot_stimuli\\L_Arm_Y_Back.mp4']",robot_stimuli\L_Arm_Y_Back.mp4,11,,,,,,,,,,,,,0,88,88,88,,,,,,,,,,,,,,,,,2222.4869595,2223.5772462,,,,,,,,,2227.215707,2227.215707,2227.215707,2227.215707,2227.215707,2227.215707,2227.215707,2227.215707,None,None,None,,,,,,,,,,,2199.1908718,2199.1908718,None,,2218.8563009,2223.5772462,2223.5772462,2223.5772462,2223.5772462,c,2.590473799999927,2199.1908718,2199.1908718,,,,11,001,2024-07-04_10h07.08.044,robot_sternberg_sign,2022.2.5,60.008233129594615,
"['R_Head_Y_Back', 'R_Base_Z_For', 'L_Head_Z_For', 'R_Base_Y_For', 'R_Head_Z_For', 'L_Head_X_Back']",True,R_Base_Z_For,6,robot,3,False,True,"['robot_stimuli\\R_Head_Y_Back.mp4', 'robot_stimuli\\R_Base_Z_For.mp4', 'robot_stimuli\\L_Head_Z_For.mp4', 'robot_stimuli\\R_Base_Y_For.mp4', 'robot_stimuli\\R_Head_Z_For.mp4', 'robot_stimuli\\L_Head_X_Back.mp4']",robot_stimuli\R_Base_Z_For.mp4,11,,,,,,,,,,,,,0,89,89,89,,,,,,,,,,,,,,,,,2250.5524987,2228.2908223,,,,,,,,,2255.3335358,2258.5413857,2255.3335358,2258.5413857,2255.3335358,2258.5413857,2255.3335358,2258.5413857,51.75925925925927,2.40789390000009,space,,,3.1394743000000744,,,,,,,,2227.215707,2227.215707,None,,2246.9120944,2251.6421026,2251.6421026,2251.6421026,2251.6421026,c,3.556954300000143,2227.215707,2227.215707,,,,11,001,2024-07-04_10h07.08.044,robot_sternberg_sign,2022.2.5,60.008233129594615,
"['D', 'L', 'J', 'Z']",False,W,4,letter,4,True,False,"['robot_stimuli\\\\filler.mp4', 'robot_stimuli\\\\filler.mp4', 'robot_stimuli\\\\filler.mp4', 'robot_stimuli\\\\filler.mp4']",robot_stimuli\\filler.mp4,11,,,,,,,,,,,,,0,90,90,90,,,,,,,,,,,,,,,,,2271.9582032,2273.0219318,,,,,,,,,2274.0467442,2274.0467442,2274.0467442,2274.0467442,2274.0467442,2274.0467442,2274.0467442,2274.0467442,None,None,None,,,,,,,,,,,2258.5413857,2258.5413857,space,3.6668807000000925,,,2273.0219318,2273.0219318,2273.0219318,n,0.9775202000000718,,,2269.9408155,2271.9582032,2273.0219318,11,001,2024-07-04_10h07.08.044,robot_sternberg_sign,2022.2.5,60.008233129594615,
"['S', 'D', 'W', 'C']",True,S,4,letter,4,False,False,"['robot_stimuli\\\\filler.mp4', 'robot_stimuli\\\\filler.mp4', 'robot_stimuli\\\\filler.mp4', 'robot_stimuli\\\\filler.mp4']",robot_stimuli\\filler.mp4,11,,,,,,,,,,,,,0,91,91,91,,,,,,,,,,,,,,,,,2283.992832,2285.0539524,,,,,,,,,2286.0745903,2286.0745903,2286.0745903,2286.0745903,2286.0745903,2286.0745903,2286.0745903,2286.0745903,None,None,None,,,,,,,,,,,2274.0467442,2274.0467442,None,,,,2285.0539524,2285.0539524,2285.0539524,c,0.9783609000000979,2274.0467442,2274.0467442,2281.787527,2283.992832,2285.0539524,11,001,2024-07-04_10h07.08.044,robot_sternberg_sign,2022.2.5,60.008233129594615,
"['F', 'R', 'T', 'C']",False,H,4,letter,4,False,False,"['robot_stimuli\\\\filler.mp4', 'robot_stimuli\\\\filler.mp4', 'robot_stimuli\\\\filler.mp4', 'robot_stimuli\\\\filler.mp4']",robot_stimuli\\filler.mp4,11,,,,,,,,,,,,,0,92,92,92,,,,,,,,,,,,,,,,,2295.844885,2296.9132655,,,,,,,,,2297.9373678,2297.9373678,2297.9373678,2297.9373678,2297.9373678,2297.9373678,2297.9373678,2297.9373678,None,None,None,,,,,,,,,,,2286.0745903,2286.0745903,None,,,,2296.9132655,2296.9132655,2296.9132655,n,0.870777800000269,2286.0745903,2286.0745903,2293.8263415,2295.844885,2296.9132655,11,001,2024-07-04_10h07.08.044,robot_sternberg_sign,2022.2.5,60.008233129594615,
"['B', 'V', 'T', 'K']",False,F,4,letter,4,False,False,"['robot_stimuli\\\\filler.mp4', 'robot_stimuli\\\\filler.mp4', 'robot_stimuli\\\\filler.mp4', 'robot_stimuli\\\\filler.mp4']",robot_stimuli\\filler.mp4,11,,,,,,,,,,,,,0,93,93,93,,,,,,,,,,,,,,,,,2307.8874313,2308.9552959,,,,,,,,,2311.5817065,2311.5817065,2311.5817065,2311.5817065,2311.5817065,2311.5817065,2311.5817065,2311.5817065,None,None,None,,,,,,,,,,,2297.9373678,2297.9373678,None,,,,2308.9552959,2308.9552959,2308.9552959,n,2.5405515000002197,2297.9373678,2297.9373678,2305.6696139,2307.8874313,2308.9552959,11,001,2024-07-04_10h07.08.044,robot_sternberg_sign,2022.2.5,60.008233129594615,
"['Z', 'S', 'H', 'M']",True,Z,4,letter,4,False,False,"['robot_stimuli\\\\filler.mp4', 'robot_stimuli\\\\filler.mp4', 'robot_stimuli\\\\filler.mp4', 'robot_stimuli\\\\filler.mp4']",robot_stimuli\\filler.mp4,11,,,,,,,,,,,,,0,94,94,94,,,,,,,,,,,,,,,,,2321.735879,2312.6375062,,,,,,,,,2324.0265007,2324.0265007,2324.0265007,2324.0265007,2324.0265007,2324.0265007,2324.0265007,2324.0265007,None,None,None,,,,,,,,,,,2311.5817065,2311.5817065,None,,,,2322.8036756,2322.8036756,2322.8036756,c,1.0525494000003164,2311.5817065,2311.5817065,2319.5185504,2321.735879,2322.8036756,11,001,2024-07-04_10h07.08.044,robot_sternberg_sign,2022.2.5,60.008233129594615,
"['F', 'M', 'W', 'G']",True,F,4,letter,4,False,False,"['robot_stimuli\\\\filler.mp4', 'robot_stimuli\\\\filler.mp4', 'robot_stimuli\\\\filler.mp4', 'robot_stimuli\\\\filler.mp4']",robot_stimuli\\filler.mp4,11,,,,,,,,,,,,,0,95,95,95,,,,,,,,,,,,,,,,,2333.5685397,2325.0879899,,,,,,,,,2335.8596354,2335.8596354,2335.8596354,2335.8596354,2335.8596354,2335.8596354,2335.8596354,2335.8596354,None,None,None,,,,,,,,,,,2324.0265007,2324.0265007,None,,,,2334.6385956,2334.6385956,2334.6385956,c,1.0807389999999941,2324.0265007,2324.0265007,2331.5495034,2333.5685397,2334.6385956,11,001,2024-07-04_10h07.08.044,robot_sternberg_sign,2022.2.5,60.008233129594615,
"['Q', 'B', 'K', 'X']",True,X,4,letter,4,False,False,"['robot_stimuli\\\\filler.mp4', 'robot_stimuli\\\\filler.mp4', 'robot_stimuli\\\\filler.mp4', 'robot_stimuli\\\\filler.mp4']",robot_stimuli\\filler.mp4,11,,,,,,,,,,,,,0,96,96,96,,,,,,,,,,,,,,,,,2345.4081931,2346.4726174,,,,,,,,,2347.7021603,2347.7021603,2347.7021603,2347.7021603,2347.7021603,2347.7021603,2347.7021603,2347.7021603,None,None,None,,,,,,,,,,,2335.8596354,2335.8596354,None,,,,2346.4726174,2346.4726174,2346.4726174,c,1.0240042000000358,2335.8596354,2335.8596354,2343.3909006,2345.4081931,2346.4726174,11,001,2024-07-04_10h07.08.044,robot_sternberg_sign,2022.2.5,60.008233129594615,
"['W', 'Q', 'S', 'F']",False,Z,4,letter,4,False,False,"['robot_stimuli\\\\filler.mp4', 'robot_stimuli\\\\filler.mp4', 'robot_stimuli\\\\filler.mp4', 'robot_stimuli\\\\filler.mp4']",robot_stimuli\\filler.mp4,11,,,,,,,,,,,,,0,97,97,97,,,,,,,,,,,,,,,,,2357.4573043,2358.5203037,,,,,,,,,2359.3442846,2359.3442846,2359.3442846,2359.3442846,2359.3442846,2359.3442846,2359.3442846,2359.3442846,None,None,None,,,,,,,,,,,2347.7021603,2347.7021603,None,,,,2358.5203037,2358.5203037,2358.5203037,n,0.5996195000002444,2347.7021603,2347.7021603,2355.2356564,2357.4573043,2358.5203037,11,001,2024-07-04_10h07.08.044,robot_sternberg_sign,2022.2.5,60.008233129594615,
"['C', 'R', 'F', 'K']",False,M,4,letter,4,False,False,"['robot_stimuli\\\\filler.mp4', 'robot_stimuli\\\\filler.mp4', 'robot_stimuli\\\\filler.mp4', 'robot_stimuli\\\\filler.mp4']",robot_stimuli\\filler.mp4,11,,,,,,,,,,,,,0,98,98,98,,,,,,,,,,,,,,,,,2368.8791429,2369.9375438,,,,,,,,,2370.7668239,2370.7668239,2370.7668239,2370.7668239,2370.7668239,2370.7668239,2370.7668239,2370.7668239,None,None,None,,,,,,,,,,,2359.3442846,2359.3442846,None,,,,2369.9375438,2369.9375438,2369.9375438,n,0.5914065000001756,2359.3442846,2359.3442846,2366.8663161,2368.8791429,2369.9375438,11,001,2024-07-04_10h07.08.044,robot_sternberg_sign,2022.2.5,60.008233129594615,
"['Q', 'B', 'J', 'X']",True,B,4,letter,4,False,True,"['robot_stimuli\\\\filler.mp4', 'robot_stimuli\\\\filler.mp4', 'robot_stimuli\\\\filler.mp4', 'robot_stimuli\\\\filler.mp4']",robot_stimuli\\filler.mp4,11,,,,,,,,,,,,,0,99,99,99,,,,,,,,,,,,,,,,,2380.5044154,2381.5709109,,,,,,,,,2383.4237982,2387.2084418,2383.4237982,2387.2084418,2383.4237982,2387.2084418,2383.4237982,2387.2084418,36.635802469135804,2.5196281000003182,space,,,3.719500000000153,,,,,,,,2370.7668239,2370.7668239,None,,,,2381.5709109,2381.5709109,2381.5709109,c,1.622129500000483,2370.7668239,2370.7668239,2378.2891824,2380.5044154,2381.5709109,11,001,2024-07-04_10h07.08.044,robot_sternberg_sign,2022.2.5,60.008233129594615,
"['W', 'G', 'J', 'X', 'Z', 'N']",False,K,6,letter,4,True,False,"['robot_stimuli\\\\filler.mp4', 'robot_stimuli\\\\filler.mp4', 'robot_stimuli\\\\filler.mp4', 'robot_stimuli\\\\filler.mp4', 'robot_stimuli\\\\filler.mp4', 'robot_stimuli\\\\filler.mp4']",robot_stimuli\\filler.mp4,11,,,,,,,,,,,,,0,100,100,100,,,,,,,,,,,,,,,,,2403.6039167,2404.6731325,,,,,,,,,2405.8980088,2405.8980088,2405.8980088,2405.8980088,2405.8980088,2405.8980088,2405.8980088,2405.8980088,None,None,None,,,,,,,,,,,2387.2084418,2387.2084418,space,2.05494280000039,,,2404.6731325,2404.6731325,2404.6731325,n,1.015545100000054,,,2401.3871294,2403.6039167,2404.6731325,11,001,2024-07-04_10h07.08.044,robot_sternberg_sign,2022.2.5,60.008233129594615,
"['V', 'C', 'K', 'G', 'F', 'Q']",True,G,6,letter,4,False,False,"['robot_stimuli\\\\filler.mp4', 'robot_stimuli\\\\filler.mp4', 'robot_stimuli\\\\filler.mp4', 'robot_stimuli\\\\filler.mp4', 'robot_stimuli\\\\filler.mp4', 'robot_stimuli\\\\filler.mp4']",robot_stimuli\\filler.mp4,11,,,,,,,,,,,,,0,101,101,101,,,,,,,,,,,,,,,,,2420.0022117,2406.9536911,,,,,,,,,2422.0998408,2422.0998408,2422.0998408,2422.0998408,2422.0998408,2422.0998408,2422.0998408,2422.0998408,None,None,None,,,,,,,,,,,2405.8980088,2405.8980088,None,,,,2421.0806437,2421.0806437,2421.0806437,c,0.870524800000112,2405.8980088,2405.8980088,2417.7857578,2420.0022117,2421.0806437,11,001,2024-07-04_10h07.08.044,robot_sternberg_sign,2022.2.5,60.008233129594615,
"['R', 'P', 'V', 'J', 'W', 'H']",True,V,6,letter,4,False,False,"['robot_stimuli\\\\filler.mp4', 'robot_stimuli\\\\filler.mp4', 'robot_stimuli\\\\filler.mp4', 'robot_stimuli\\\\filler.mp4', 'robot_stimuli\\\\filler.mp4', 'robot_stimuli\\\\filler.mp4']",robot_stimuli\\filler.mp4,11,,,,,,,,,,,,,0,102,102,102,,,,,,,,,,,,,,,,,2436.4466039,2437.5033216,,,,,,,,,2438.525115,2438.525115,2438.525115,2438.525115,2438.525115,2438.525115,2438.525115,2438.525115,None,None,None,,,,,,,,,,,2422.0998408,2422.0998408,None,,,,2437.5033216,2437.5033216,2437.5033216,c,0.8413481000002321,2422.0998408,2422.0998408,2434.4327477,2436.4466039,2437.5033216,11,001,2024-07-04_10h07.08.044,robot_sternberg_sign,2022.2.5,60.008233129594615,
"['Q', 'D', 'C', 'R', 'J', 'T']",True,J,6,letter,4,False,False,"['robot_stimuli\\\\filler.mp4', 'robot_stimuli\\\\filler.mp4', 'robot_stimuli\\\\filler.mp4', 'robot_stimuli\\\\filler.mp4', 'robot_stimuli\\\\filler.mp4', 'robot_stimuli\\\\filler.mp4']",robot_stimuli\\filler.mp4,11,,,,,,,,,,,,,0,103,103,103,,,,,,,,,,,,,,,,,2452.8575519,2453.9204356,,,,,,,,,2454.7472734,2454.7472734,2454.7472734,2454.7472734,2454.7472734,2454.7472734,2454.7472734,2454.7472734,None,None,None,,,,,,,,,,,2438.525115,2438.525115,None,,,,2453.9204356,2453.9204356,2453.9204356,c,0.6636272000000645,2438.525115,2438.525115,2450.6426282,2452.8575519,2453.9204356,11,001,2024-07-04_10h07.08.044,robot_sternberg_sign,2022.2.5,60.008233129594615,
"['X', 'C', 'K', 'D', 'V', 'W']",False,P,6,letter,4,False,False,"['robot_stimuli\\\\filler.mp4', 'robot_stimuli\\\\filler.mp4', 'robot_stimuli\\\\filler.mp4', 'robot_stimuli\\\\filler.mp4', 'robot_stimuli\\\\filler.mp4', 'robot_stimuli\\\\filler.mp4']",robot_stimuli\\filler.mp4,11,,,,,,,,,,,,,0,104,104,104,,,,,,,,,,,,,,,,,2468.8760475,2469.9400516,,,,,,,,,2470.9656956,2470.9656956,2470.9656956,2470.9656956,2470.9656956,2470.9656956,2470.9656956,2470.9656956,None,None,None,,,,,,,,,,,2454.7472734,2454.7472734,None,,,,2469.9400516,2469.9400516,2469.9400516,n,0.8050186000004942,2454.7472734,2454.7472734,2466.6550941,2468.8760475,2469.9400516,11,001,2024-07-04_10h07.08.044,robot_sternberg_sign,2022.2.5,60.008233129594615,
"['L', 'J', 'M', 'T', 'X', 'R']",False,D,6,letter,4,False,False,"['robot_stimuli\\\\filler.mp4', 'robot_stimuli\\\\filler.mp4', 'robot_stimuli\\\\filler.mp4', 'robot_stimuli\\\\filler.mp4', 'robot_stimuli\\\\filler.mp4', 'robot_stimuli\\\\filler.mp4']",robot_stimuli\\filler.mp4,11,,,,,,,,,,,,,0,105,105,105,,,,,,,,,,,,,,,,,2484.8799706,2485.9378342,,,,,,,,,2486.7597239,2486.7597239,2486.7597239,2486.7597239,2486.7597239,2486.7597239,2486.7597239,2486.7597239,None,None,None,,,,,,,,,,,2470.9656956,2470.9656956,None,,,,2485.9378342,2485.9378342,2485.9378342,n,0.6550012000002425,2470.9656956,2470.9656956,2482.6692579,2484.8799706,2485.9378342,11,001,2024-07-04_10h07.08.044,robot_sternberg_sign,2022.2.5,60.008233129594615,
"['M', 'G', 'P', 'C', 'Z', 'R']",False,H,6,letter,4,False,False,"['robot_stimuli\\\\filler.mp4', 'robot_stimuli\\\\filler.mp4', 'robot_stimuli\\\\filler.mp4', 'robot_stimuli\\\\filler.mp4', 'robot_stimuli\\\\filler.mp4', 'robot_stimuli\\\\filler.mp4']",robot_stimuli\\filler.mp4,11,,,,,,,,,,,,,0,106,106,106,,,,,,,,,,,,,,,,,2500.8753188,2501.9378011,,,,,,,,,2502.9595144,2502.9595144,2502.9595144,2502.9595144,2502.9595144,2502.9595144,2502.9595144,2502.9595144,None,None,None,,,,,,,,,,,2486.7597239,2486.7597239,None,,,,2501.9378011,2501.9378011,2501.9378011,n,0.7824068999998417,2486.7597239,2486.7597239,2498.8604148,2500.8753188,2501.9378011,11,001,2024-07-04_10h07.08.044,robot_sternberg_sign,2022.2.5,60.008233129594615,
"['B', 'M', 'K', 'Q', 'V', 'C']",True,M,6,letter,4,False,False,"['robot_stimuli\\\\filler.mp4', 'robot_stimuli\\\\filler.mp4', 'robot_stimuli\\\\filler.mp4', 'robot_stimuli\\\\filler.mp4', 'robot_stimuli\\\\filler.mp4', 'robot_stimuli\\\\filler.mp4']",robot_stimuli\\filler.mp4,11,,,,,,,,,,,,,0,107,107,107,,,,,,,,,,,,,,,,,2516.8663821,2517.9206107,,,,,,,,,2519.3502181,2519.3502181,2519.3502181,2519.3502181,2519.3502181,2519.3502181,2519.3502181,2519.3502181,None,None,None,,,,,,,,,,,2502.9595144,2502.9595144,None,,,,2517.9206107,2517.9206107,2517.9206107,c,1.182741800000258,2502.9595144,2502.9595144,2514.8507434,2516.8663821,2517.9206107,11,001,2024-07-04_10h07.08.044,robot_sternberg_sign,2022.2.5,60.008233129594615,
"['M', 'G', 'R', 'X', 'D', 'K']",True,R,6,letter,4,False,False,"['robot_stimuli\\\\filler.mp4', 'robot_stimuli\\\\filler.mp4', 'robot_stimuli\\\\filler.mp4', 'robot_stimuli\\\\filler.mp4', 'robot_stimuli\\\\filler.mp4', 'robot_stimuli\\\\filler.mp4']",robot_stimuli\\filler.mp4,11,,,,,,,,,,,,,0,108,108,108,,,,,,,,,,,,,,,,,2533.8722922,2534.9374369,,,,,,,,,2536.160396,2536.160396,2536.160396,2536.160396,2536.160396,2536.160396,2536.160396,2536.160396,None,None,None,,,,,,,,,,,2519.3502181,2519.3502181,None,,,,2534.9374369,2534.9374369,2534.9374369,c,1.0078395999998975,2519.3502181,2519.3502181,2531.6553096,2533.8722922,2534.9374369,11,001,2024-07-04_10h07.08.044,robot_sternberg_sign,2022.2.5,60.008233129594615,
"['Q', 'D', 'T', 'Z', 'N', 'R']",False,B,6,letter,4,False,True,"['robot_stimuli\\\\filler.mp4', 'robot_stimuli\\\\filler.mp4', 'robot_stimuli\\\\filler.mp4', 'robot_stimuli\\\\filler.mp4', 'robot_stimuli\\\\filler.mp4', 'robot_stimuli\\\\filler.mp4']",robot_stimuli\\filler.mp4,11,,,,,,,,,,,,,0,109,109,109,,,,,,,,,,,,,,,,,2550.1158996,2551.173606,,,,,,,,,2552.0216773,2556.2006695,2552.0216773,2556.2006695,2552.0216773,2556.2006695,2552.0216773,2556.2006695,37.561728395061735,3.0910187999998016,space,,,4.131295900000168,,,,,,,,2536.160396,2536.160396,None,,,,2551.173606,2551.173606,2551.173606,n,0.6576924000000872,2536.160396,2536.160396,2548.0960345,2550.1158996,2551.173606,11,001,2024-07-04_10h07.08.044,robot_sternberg_sign,2022.2.5,60.008233129594615,
"['S', 'W']",False,N,2,letter,4,True,False,"['robot_stimuli\\\\filler.mp4', 'robot_stimuli\\\\filler.mp4']",robot_stimuli\\filler.mp4,11,,,,,,,,,,,,,0,110,110,110,,,,,,,,,,,,,,,,,2566.2738734,2567.3395029,,,,,,,,,2567.964036,2567.964036,2567.964036,2567.964036,2567.964036,2567.964036,2567.964036,2567.964036,None,None,None,,,,,,,,,,,2556.2006695,2556.2006695,space,4.6865827999999965,,,2567.3395029,2567.3395029,2567.3395029,n,0.5012495000005401,,,2564.2619413,2566.2738734,2567.3395029,11,001,2024-07-04_10h07.08.044,robot_sternberg_sign,2022.2.5,60.008233129594615,
"['X', 'P']",True,P,2,letter,4,False,False,"['robot_stimuli\\\\filler.mp4', 'robot_stimuli\\\\filler.mp4']",robot_stimuli\\filler.mp4,11,,,,,,,,,,,,,0,111,111,111,,,,,,,,,,,,,,,,,2573.5386724,2574.6046655,,,,,,,,,2575.230617,2575.230617,2575.230617,2575.230617,2575.230617,2575.230617,2575.230617,2575.230617,None,None,None,,,,,,,,,,,2567.964036,2567.964036,None,,,,2574.6046655,2574.6046655,2574.6046655,c,0.4348907000003237,2567.964036,2567.964036,2571.3187302,2573.5386724,2574.6046655,11,001,2024-07-04_10h07.08.044,robot_sternberg_sign,2022.2.5,60.008233129594615,
"['V', 'P']",True,V,2,letter,4,False,False,"['robot_stimuli\\\\filler.mp4', 'robot_stimuli\\\\filler.mp4']",robot_stimuli\\filler.mp4,11,,,,,,,,,,,,,0,112,112,112,,,,,,,,,,,,,,,,,2580.3904849,2581.4531888,,,,,,,,,2582.2786499,2582.2786499,2582.2786499,2582.2786499,2582.2786499,2582.2786499,2582.2786499,2582.2786499,None,None,None,,,,,,,,,,,2575.230617,2575.230617,None,,,,2581.4531888,2581.4531888,2581.4531888,c,0.7560217000000193,2575.230617,2575.230617,2578.3806166,2580.3904849,2581.4531888,11,001,2024-07-04_10h07.08.044,robot_sternberg_sign,2022.2.5,60.008233129594615,
"['C', 'M']",True,C,2,letter,4,False,False,"['robot_stimuli\\\\filler.mp4', 'robot_stimuli\\\\filler.mp4']",robot_stimuli\\filler.mp4,11,,,,,,,,,,,,,0,113,113,113,,,,,,,,,,,,,,,,,2587.8387857,2588.9084967,,,,,,,,,2589.5312212,2589.5312212,2589.5312212,2589.5312212,2589.5312212,2589.5312212,2589.5312212,2589.5312212,None,None,None,,,,,,,,,,,2582.2786499,2582.2786499,None,,,,2588.9084967,2588.9084967,2588.9084967,c,0.41998330000024,2582.2786499,2582.2786499,2585.626058,2587.8387857,2588.9084967,11,001,2024-07-04_10h07.08.044,robot_sternberg_sign,2022.2.5,60.008233129594615,
"['H', 'V']",False,J,2,letter,4,False,False,"['robot_stimuli\\\\filler.mp4', 'robot_stimuli\\\\filler.mp4']",robot_stimuli\\filler.mp4,11,,,,,,,,,,,,,0,114,114,114,,,,,,,,,,,,,,,,,2595.1036014,2590.5879451,,,,,,,,,2596.7916282,2596.7916282,2596.7916282,2596.7916282,2596.7916282,2596.7916282,2596.7916282,2596.7916282,None,None,None,,,,,,,,,,,2589.5312212,2589.5312212,None,,,,2596.1703812,2596.1703812,2596.1703812,n,0.45281840000006923,2589.5312212,2589.5312212,2592.8867185,2595.1036014,2596.1703812,11,001,2024-07-04_10h07.08.044,robot_sternberg_sign,2022.2.5,60.008233129594615,
"['F', 'D']",False,H,2,letter,4,False,False,"['robot_stimuli\\\\filler.mp4', 'robot_stimuli\\\\filler.mp4']",robot_stimuli\\filler.mp4,11,,,,,,,,,,,,,0,115,115,115,,,,,,,,,,,,,,,,,2602.1685413,2597.8554422,,,,,,,,,2603.8660327,2603.8660327,2603.8660327,2603.8660327,2603.8660327,2603.8660327,2603.8660327,2603.8660327,None,None,None,,,,,,,,,,,2596.7916282,2596.7916282,None,,,,2603.2372877,2603.2372877,2603.2372877,n,0.5220336000002135,2596.7916282,2596.7916282,2600.1490691,2602.1685413,2603.2372877,11,001,2024-07-04_10h07.08.044,robot_sternberg_sign,2022.2.5,60.008233129594615,
"['P', 'R']",True,R,2,letter,4,False,False,"['robot_stimuli\\\\filler.mp4', 'robot_stimuli\\\\filler.mp4']",robot_stimuli\\filler.mp4,11,,,,,,,,,,,,,0,116,116,116,,,,,,,,,,,,,,,,,2609.2359482,2604.9227172,,,,,,,,,2610.7284512,2610.7284512,2610.7284512,2610.7284512,2610.7284512,2610.7284512,2610.7284512,2610.7284512,None,None,None,,,,,,,,,,,2603.8660327,2603.8660327,None,,,,2610.3040485,2610.3040485,2610.3040485,c,0.36091420000047947,2603.8660327,2603.8660327,2607.2183295,2609.2359482,2610.3040485,11,001,2024-07-04_10h07.08.044,robot_sternberg_sign,2022.2.5,60.008233129594615,
"['D', 'K']",False,J,2,letter,4,False,False,"['robot_stimuli\\\\filler.mp4', 'robot_stimuli\\\\filler.mp4']",robot_stimuli\\filler.mp4,11,,,,,,,,,,,,,0,117,117,117,,,,,,,,,,,,,,,,,2616.1047282,2617.1703325,,,,,,,,,2618.001927,2618.001927,2618.001927,2618.001927,2618.001927,2618.001927,2618.001927,2618.001927,None,None,None,,,,,,,,,,,2610.7284512,2610.7284512,None,,,,2617.1703325,2617.1703325,2617.1703325,n,0.6621391000003314,2610.7284512,2610.7284512,2614.0828151,2616.1047282,2617.1703325,11,001,2024-07-04_10h07.08.044,robot_sternberg_sign,2022.2.5,60.008233129594615,
"['F', 'G']",True,G,2,letter,4,False,False,"['robot_stimuli\\\\filler.mp4', 'robot_stimuli\\\\filler.mp4']",robot_stimuli\\filler.mp4,11,,,,,,,,,,,,,0,118,118,118,,,,,,,,,,,,,,,,,2623.1901893,2624.2541953,,,,,,,,,2625.0834213,2625.0834213,2625.0834213,2625.0834213,2625.0834213,2625.0834213,2625.0834213,2625.0834213,None,None,None,,,,,,,,,,,2618.001927,2618.001927,None,,,,2624.2541953,2624.2541953,2624.2541953,c,0.7066721000001053,2618.001927,2618.001927,2621.1798911,2623.1901893,2624.2541953,11,001,2024-07-04_10h07.08.044,robot_sternberg_sign,2022.2.5,60.008233129594615,
