sequence,is_target,condition,stimuli,block,is_block_beginning,is_block_ending,fname,subject,retraining.thisRepN,retraining.thisTrialN,retraining.thisN,retraining.thisIndex,training.thisRepN,training.thisTrialN,training.thisN,training.thisIndex,trials.thisRepN,trials.thisTrialN,trials.thisN,trials.thisIndex,langage_text.started,langage_key.started,langage_key.keys,langage_key.rt,intro_text.started,intro_key.started,intro_key.keys,intro_key.rt,training_robot_intro_text.started,training_robot_intro_key.started,training_robot_intro_key.keys,training_robot_intro_key.rt,cross.started,cross.stopped,training_letter.started,training_robot_key.started,training_robot_question.started,training_robot_keys.started,training_letter.stopped,training_robot_key.keys,RSME_labels.started,RSME_labels.stopped,RSME_ticks.started,RSME_ticks.stopped,RSME_text.started,RSME_text.stopped,RSME_key.started,RSME_key.stopped,RSME_ticks.response,RSME_ticks.rt,RSME_key.keys,training_robot_intro_text.stopped,training_robot_intro_key.stopped,training_robot_key.rt,RSME_key.rt,training_robot_movie.started,experiment_beginning_text.started,experiment_beginning_keys.started,experiment_beginning_key.started,experiment_beginning_key.keys,experiment_beginning_key.rt,block_intro_text.started,block_intro_key.started,block_intro_key.keys,block_intro_key.rt,movie.started,key.started,key.keys,block_intro_text.stopped,block_intro_key.stopped,key.rt,letter.started,letter.stopped,participant,session,date,expName,psychopyVersion,frameRate,
,,,,,,,,,,,,,,,,,,,,,11.669825299999957,11.669825299999957,f,3.5718646000000263,,,,,,,,,,,,,,,,,,,,,,,,,,,,,,,,,,,,,,,,,,,,,,,,,,13,001,2024-06-19_08h04.18.089,robot_nback_sign,2022.2.5,59.93382107474965,
,,,,,,,,,,,,,,,,,,,,,,,,,15.300391600000012,15.300391600000012,space,48.37363370000003,,,,,,,,,,,,,,,,,,,,,,,,,,,,,,,,,,,,,,,,,,,,,,13,001,2024-06-19_08h04.18.089,robot_nback_sign,2022.2.5,59.93382107474965,
P,False,1,letter,2,True,False,robot_stimuli\\filler.mp4,13,0,0,0,0,0,0,0,0,,,,,,,,,,,,,63.72730939999997,63.72730939999997,space,3.002486200000021,66.74647029999994,68.06363429999999,68.06363429999999,68.06363429999999,68.06363429999999,68.06363429999999,70.37796659999992,None,70.37796659999992,70.37796659999992,70.37796659999992,70.37796659999992,70.37796659999992,70.37796659999992,70.37796659999992,70.37796659999992,None,None,None,,,,,,,,,,,,,,,,,,,,,,,13,001,2024-06-19_08h04.18.089,robot_nback_sign,2022.2.5,59.93382107474965,
X,False,1,letter,2,False,False,robot_stimuli\\filler.mp4,13,0,0,0,0,0,1,1,1,,,,,,,,,,,,,70.37796659999992,70.37796659999992,None,,70.37796659999992,71.4481839,71.4481839,71.4481839,71.4481839,71.4481839,73.68098049999992,None,73.68098049999992,73.68098049999992,73.68098049999992,73.68098049999992,73.68098049999992,73.68098049999992,73.68098049999992,73.68098049999992,None,None,None,70.37796659999992,70.37796659999992,,,,,,,,,,,,,,,,,,,,,13,001,2024-06-19_08h04.18.089,robot_nback_sign,2022.2.5,59.93382107474965,
X,True,1,letter,2,False,False,robot_stimuli\\filler.mp4,13,0,0,0,0,0,2,2,2,,,,,,,,,,,,,73.68098049999992,73.68098049999992,None,,73.68098049999992,,74.7643137,74.7643137,74.7643137,74.7643137,76.99398289999999,c,76.99398289999999,76.99398289999999,76.99398289999999,76.99398289999999,76.99398289999999,76.99398289999999,76.99398289999999,76.99398289999999,None,None,None,73.68098049999992,73.68098049999992,1.2941602000000785,,,,,,,,,,,,,,,,,,,,13,001,2024-06-19_08h04.18.089,robot_nback_sign,2022.2.5,59.93382107474965,
D,False,1,letter,2,False,False,robot_stimuli\\filler.mp4,13,0,0,0,0,0,3,3,3,,,,,,,,,,,,,76.99398289999999,76.99398289999999,None,,76.99398289999999,78.06390779999992,78.06390779999992,78.06390779999992,78.06390779999992,78.06390779999992,80.09514979999994,None,80.09514979999994,80.09514979999994,80.09514979999994,80.09514979999994,80.09514979999994,80.09514979999994,80.09514979999994,80.09514979999994,None,None,None,76.99398289999999,76.99398289999999,,,,,,,,,,,,,,,,,,,,,13,001,2024-06-19_08h04.18.089,robot_nback_sign,2022.2.5,59.93382107474965,
X,False,1,letter,2,False,False,robot_stimuli\\filler.mp4,13,0,0,0,0,0,4,4,4,,,,,,,,,,,,,80.09514979999994,80.09514979999994,None,,80.09514979999994,81.16398749999996,81.16398749999996,81.16398749999996,81.16398749999996,81.16398749999996,83.19523579999998,None,83.19523579999998,83.19523579999998,83.19523579999998,83.19523579999998,83.19523579999998,83.19523579999998,83.19523579999998,83.19523579999998,None,None,None,80.09514979999994,80.09514979999994,,,,,,,,,,,,,,,,,,,,,13,001,2024-06-19_08h04.18.089,robot_nback_sign,2022.2.5,59.93382107474965,
X,True,1,letter,2,False,True,robot_stimuli\\filler.mp4,13,0,0,0,0,0,5,5,5,,,,,,,,,,,,,83.19523579999998,83.19523579999998,None,,83.19523579999998,84.2605519,84.2605519,84.2605519,84.2605519,84.2605519,86.3502469,None,86.3502469,99.45334959999991,86.3502469,99.45334959999991,86.3502469,99.45334959999991,86.3502469,99.45334959999991,57.46913580246914,11.595022699999959,space,83.19523579999998,83.19523579999998,,13.036471500000061,,,,,,,,,,,,,,,,,,,13,001,2024-06-19_08h04.18.089,robot_nback_sign,2022.2.5,59.93382107474965,
J,False,2,letter,2,True,False,robot_stimuli\\filler.mp4,13,0,0,0,0,0,6,6,6,,,,,,,,,,,,,99.45334959999991,99.45334959999991,space,3.4778034000000844,102.9631233,104.0455283,104.0455283,104.0455283,104.0455283,104.0455283,106.06956100000002,None,106.06956100000002,106.06956100000002,106.06956100000002,106.06956100000002,106.06956100000002,106.06956100000002,106.06956100000002,106.06956100000002,None,None,None,,,,,,,,,,,,,,,,,,,,,,,13,001,2024-06-19_08h04.18.089,robot_nback_sign,2022.2.5,59.93382107474965,
T,False,2,letter,2,False,False,robot_stimuli\\filler.mp4,13,0,0,0,0,0,7,7,7,,,,,,,,,,,,,106.06956100000002,106.06956100000002,None,,106.06956100000002,107.14781749999997,107.14781749999997,107.14781749999997,107.14781749999997,107.14781749999997,109.379185,None,109.379185,109.379185,109.379185,109.379185,109.379185,109.379185,109.379185,109.379185,None,None,None,106.06956100000002,106.06956100000002,,,,,,,,,,,,,,,,,,,,,13,001,2024-06-19_08h04.18.089,robot_nback_sign,2022.2.5,59.93382107474965,
J,True,2,letter,2,False,False,robot_stimuli\\filler.mp4,13,0,0,0,0,0,8,8,8,,,,,,,,,,,,,109.379185,109.379185,None,,109.379185,110.44522129999996,110.44522129999996,110.44522129999996,110.44522129999996,110.44522129999996,112.47515319999991,c,112.47515319999991,112.47515319999991,112.47515319999991,112.47515319999991,112.47515319999991,112.47515319999991,112.47515319999991,112.47515319999991,None,None,None,109.379185,109.379185,1.388546500000075,,,,,,,,,,,,,,,,,,,,13,001,2024-06-19_08h04.18.089,robot_nback_sign,2022.2.5,59.93382107474965,
P,False,2,letter,2,False,False,robot_stimuli\\filler.mp4,13,0,0,0,0,0,9,9,9,,,,,,,,,,,,,112.47515319999991,112.47515319999991,None,,112.47515319999991,113.54378159999999,113.54378159999999,113.54378159999999,113.54378159999999,113.54378159999999,115.58008499999994,n,115.58008499999994,115.58008499999994,115.58008499999994,115.58008499999994,115.58008499999994,115.58008499999994,115.58008499999994,115.58008499999994,None,None,None,112.47515319999991,112.47515319999991,1.6503227000000606,,,,,,,,,,,,,,,,,,,,13,001,2024-06-19_08h04.18.089,robot_nback_sign,2022.2.5,59.93382107474965,
S,False,2,letter,2,False,False,robot_stimuli\\filler.mp4,13,0,0,0,0,0,10,10,10,,,,,,,,,,,,,115.58008499999994,115.58008499999994,None,,115.58008499999994,116.6480219,116.6480219,116.6480219,116.6480219,116.6480219,118.87917169999992,n,118.87917169999992,118.87917169999992,118.87917169999992,118.87917169999992,118.87917169999992,118.87917169999992,118.87917169999992,118.87917169999992,None,None,None,115.58008499999994,115.58008499999994,1.0026718000001438,,,,,,,,,,,,,,,,,,,,13,001,2024-06-19_08h04.18.089,robot_nback_sign,2022.2.5,59.93382107474965,
P,True,2,letter,2,False,True,robot_stimuli\\filler.mp4,13,0,0,0,0,0,11,11,11,,,,,,,,,,,,,118.87917169999992,118.87917169999992,None,,118.87917169999992,119.94536999999991,119.94536999999991,119.94536999999991,119.94536999999991,119.94536999999991,122.00289309999994,c,122.00289309999994,128.1317643,122.00289309999994,128.1317643,122.00289309999994,128.1317643,122.00289309999994,128.1317643,37.561728395061735,4.753595899999937,space,118.87917169999992,118.87917169999992,1.0649709000000485,6.062677200000053,,,,,,,,,,,,,,,,,,,13,001,2024-06-19_08h04.18.089,robot_nback_sign,2022.2.5,59.93382107474965,
Q,False,3,letter,2,True,False,robot_stimuli\\filler.mp4,13,0,0,0,0,0,12,12,12,,,,,,,,,,,,,128.1317643,128.1317643,space,8.605806200000075,136.76305579999996,137.834788,137.834788,137.834788,137.834788,137.834788,140.06527699999992,None,140.06527699999992,140.06527699999992,140.06527699999992,140.06527699999992,140.06527699999992,140.06527699999992,140.06527699999992,140.06527699999992,None,None,None,,,,,,,,,,,,,,,,,,,,,,,13,001,2024-06-19_08h04.18.089,robot_nback_sign,2022.2.5,59.93382107474965,
P,False,3,letter,2,False,False,robot_stimuli\\filler.mp4,13,0,0,0,0,0,13,13,13,,,,,,,,,,,,,140.06527699999992,140.06527699999992,None,,140.06527699999992,,141.14951309999992,141.14951309999992,141.14951309999992,141.14951309999992,143.3807435,None,143.3807435,143.3807435,143.3807435,143.3807435,143.3807435,143.3807435,143.3807435,143.3807435,None,None,None,140.06527699999992,140.06527699999992,,,,,,,,,,,,,,,,,,,,,13,001,2024-06-19_08h04.18.089,robot_nback_sign,2022.2.5,59.93382107474965,
D,False,3,letter,2,False,False,robot_stimuli\\filler.mp4,13,0,0,0,0,0,14,14,14,,,,,,,,,,,,,143.3807435,143.3807435,None,,143.3807435,,144.46119199999998,144.46119199999998,144.46119199999998,144.46119199999998,146.49660069999993,None,146.49660069999993,146.49660069999993,146.49660069999993,146.49660069999993,146.49660069999993,146.49660069999993,146.49660069999993,146.49660069999993,None,None,None,143.3807435,143.3807435,,,,,,,,,,,,,,,,,,,,,13,001,2024-06-19_08h04.18.089,robot_nback_sign,2022.2.5,59.93382107474965,
X,False,3,letter,2,False,False,robot_stimuli\\filler.mp4,13,0,0,0,0,0,15,15,15,,,,,,,,,,,,,146.49660069999993,146.49660069999993,None,,146.49660069999993,147.5601921,147.5601921,147.5601921,147.5601921,147.5601921,149.59034250000002,n,149.59034250000002,149.59034250000002,149.59034250000002,149.59034250000002,149.59034250000002,149.59034250000002,149.59034250000002,149.59034250000002,None,None,None,146.49660069999993,146.49660069999993,0.7455872000000454,,,,,,,,,,,,,,,,,,,,13,001,2024-06-19_08h04.18.089,robot_nback_sign,2022.2.5,59.93382107474965,
P,True,3,letter,2,False,False,robot_stimuli\\filler.mp4,13,0,0,0,0,0,16,16,16,,,,,,,,,,,,,149.59034250000002,149.59034250000002,None,,149.59034250000002,150.66564970000002,150.66564970000002,150.66564970000002,150.66564970000002,150.66564970000002,152.8944586,n,152.8944586,152.8944586,152.8944586,152.8944586,152.8944586,152.8944586,152.8944586,152.8944586,None,None,None,149.59034250000002,149.59034250000002,1.6004259000001184,,,,,,,,,,,,,,,,,,,,13,001,2024-06-19_08h04.18.089,robot_nback_sign,2022.2.5,59.93382107474965,
D,True,3,letter,2,False,True,robot_stimuli\\filler.mp4,13,0,0,0,0,0,17,17,17,,,,,,,,,,,,,152.8944586,152.8944586,None,,152.8944586,153.96169309999993,153.96169309999993,153.96169309999993,153.96169309999993,153.96169309999993,156.02563039999995,n,156.02563039999995,161.57676519999995,156.02563039999995,161.57676519999995,156.02563039999995,161.57676519999995,156.02563039999995,161.57676519999995,71.66666666666667,3.849784999999997,space,152.8944586,152.8944586,1.0803710000001274,5.4954508000000715,,,,,,,,,,,,,,,,,,,13,001,2024-06-19_08h04.18.089,robot_nback_sign,2022.2.5,59.93382107474965,
R_Torso_Y_For,False,1,robot,1,True,False,robot_stimuli\R_Torso_Y_For.mp4,13,0,0,0,0,0,18,18,18,,,,,,,,,,,,,161.57676519999995,161.57676519999995,space,3.297057000000109,164.8962322,166.0176272,,166.0176272,166.0176272,166.0176272,,None,169.64758339999992,169.64758339999992,169.64758339999992,169.64758339999992,169.64758339999992,169.64758339999992,169.64758339999992,169.64758339999992,None,None,None,,,,,166.0176272,,,,,,,,,,,,,,,,,,13,001,2024-06-19_08h04.18.089,robot_nback_sign,2022.2.5,59.93382107474965,
R_Base_Y_For,False,1,robot,1,False,False,robot_stimuli\R_Base_Y_For.mp4,13,0,0,0,0,0,19,19,19,,,,,,,,,,,,,169.64758339999992,169.64758339999992,None,,169.64758339999992,,,170.7642508,170.7642508,170.7642508,,None,174.41523169999994,174.41523169999994,174.41523169999994,174.41523169999994,174.41523169999994,174.41523169999994,174.41523169999994,174.41523169999994,None,None,None,169.64758339999992,169.64758339999992,,,170.7642508,,,,,,,,,,,,,,,,,,13,001,2024-06-19_08h04.18.089,robot_nback_sign,2022.2.5,59.93382107474965,
R_Torso_Z_For,False,1,robot,1,False,False,robot_stimuli\R_Torso_Z_For.mp4,13,0,0,0,0,0,20,20,20,,,,,,,,,,,,,174.41523169999994,174.41523169999994,None,,174.41523169999994,,,175.52550799999995,175.52550799999995,175.52550799999995,,None,179.1853097999999,179.1853097999999,179.1853097999999,179.1853097999999,179.1853097999999,179.1853097999999,179.1853097999999,179.1853097999999,None,None,None,174.41523169999994,174.41523169999994,,,175.52550799999995,,,,,,,,,,,,,,,,,,13,001,2024-06-19_08h04.18.089,robot_nback_sign,2022.2.5,59.93382107474965,
R_Torso_Z_For,True,1,robot,1,False,False,robot_stimuli\R_Torso_Z_For.mp4,13,0,0,0,0,0,21,21,21,,,,,,,,,,,,,179.1853097999999,179.1853097999999,None,,179.1853097999999,180.28426579999996,,180.28426579999996,180.28426579999996,180.28426579999996,,None,183.93010119999997,183.93010119999997,183.93010119999997,183.93010119999997,183.93010119999997,183.93010119999997,183.93010119999997,183.93010119999997,None,None,None,179.1853097999999,179.1853097999999,,,180.28426579999996,,,,,,,,,,,,,,,,,,13,001,2024-06-19_08h04.18.089,robot_nback_sign,2022.2.5,59.93382107474965,
L_Torso_Y_Back,False,1,robot,1,False,False,robot_stimuli\L_Torso_Y_Back.mp4,13,0,0,0,0,0,22,22,22,,,,,,,,,,,,,183.93010119999997,183.93010119999997,None,,183.93010119999997,185.03070400000001,,185.03070400000001,185.03070400000001,185.03070400000001,,None,188.54862749999995,188.54862749999995,188.54862749999995,188.54862749999995,188.54862749999995,188.54862749999995,188.54862749999995,188.54862749999995,None,None,None,183.93010119999997,183.93010119999997,,,185.03070400000001,,,,,,,,,,,,,,,,,,13,001,2024-06-19_08h04.18.089,robot_nback_sign,2022.2.5,59.93382107474965,
L_Torso_Y_Back,True,1,robot,1,False,True,robot_stimuli\L_Torso_Y_Back.mp4,13,0,0,0,0,0,23,23,23,,,,,,,,,,,,,188.54862749999995,188.54862749999995,None,,188.54862749999995,,,189.66452749999996,189.66452749999996,189.66452749999996,,c,193.2150947,198.52869069999997,193.2150947,198.52869069999997,193.2150947,198.52869069999997,193.2150947,198.52869069999997,37.098765432098766,4.318797100000097,space,188.54862749999995,188.54862749999995,1.6332031000000597,5.258065600000009,189.66452749999996,,,,,,,,,,,,,,,,,,13,001,2024-06-19_08h04.18.089,robot_nback_sign,2022.2.5,59.93382107474965,
R_Base_X_For,False,2,robot,1,True,False,robot_stimuli\R_Base_X_For.mp4,13,0,0,0,0,0,24,24,24,,,,,,,,,,,,,198.52869069999997,198.52869069999997,space,2.2013750000000982,200.74632039999995,201.84457049999992,,201.84457049999992,201.84457049999992,201.84457049999992,,None,205.39465229999996,205.39465229999996,205.39465229999996,205.39465229999996,205.39465229999996,205.39465229999996,205.39465229999996,205.39465229999996,None,None,None,,,,,201.84457049999992,,,,,,,,,,,,,,,,,,13,001,2024-06-19_08h04.18.089,robot_nback_sign,2022.2.5,59.93382107474965,
R_Torso_X_For,False,2,robot,1,False,False,robot_stimuli\R_Torso_X_For.mp4,13,0,0,0,0,0,25,25,25,,,,,,,,,,,,,205.39465229999996,205.39465229999996,None,,205.39465229999996,206.4931921,,206.4931921,206.4931921,206.4931921,,None,210.14414079999995,210.14414079999995,210.14414079999995,210.14414079999995,210.14414079999995,210.14414079999995,210.14414079999995,210.14414079999995,None,None,None,205.39465229999996,205.39465229999996,,,206.4931921,,,,,,,,,,,,,,,,,,13,001,2024-06-19_08h04.18.089,robot_nback_sign,2022.2.5,59.93382107474965,
L_Arm_Z_Back,False,2,robot,1,False,False,robot_stimuli\L_Arm_Z_Back.mp4,13,0,0,0,0,0,26,26,26,,,,,,,,,,,,,210.14414079999995,210.14414079999995,None,,210.14414079999995,211.2438115,,211.2438115,211.2438115,211.2438115,,n,214.89903189999995,214.89903189999995,214.89903189999995,214.89903189999995,214.89903189999995,214.89903189999995,214.89903189999995,214.89903189999995,None,None,None,210.14414079999995,210.14414079999995,1.765957100000037,,211.2438115,,,,,,,,,,,,,,,,,,13,001,2024-06-19_08h04.18.089,robot_nback_sign,2022.2.5,59.93382107474965,
R_Torso_X_For,True,2,robot,1,False,False,robot_stimuli\R_Torso_X_For.mp4,13,0,0,0,0,0,27,27,27,,,,,,,,,,,,,214.89903189999995,214.89903189999995,None,,214.89903189999995,,,216.0095005999999,216.0095005999999,216.0095005999999,,c,219.6603083,219.6603083,219.6603083,219.6603083,219.6603083,219.6603083,219.6603083,219.6603083,None,None,None,214.89903189999995,214.89903189999995,2.720430800000031,,216.0095005999999,,,,,,,,,,,,,,,,,,13,001,2024-06-19_08h04.18.089,robot_nback_sign,2022.2.5,59.93382107474965,
L_Arm_Z_Back,True,2,robot,1,False,False,robot_stimuli\L_Arm_Z_Back.mp4,13,0,0,0,0,0,28,28,28,,,,,,,,,,,,,219.6603083,219.6603083,None,,219.6603083,220.7572818,,220.7572818,220.7572818,220.7572818,,c,224.40379169999994,224.40379169999994,224.40379169999994,224.40379169999994,224.40379169999994,224.40379169999994,224.40379169999994,224.40379169999994,None,None,None,219.6603083,219.6603083,1.7880473000000165,,220.7572818,,,,,,,,,,,,,,,,,,13,001,2024-06-19_08h04.18.089,robot_nback_sign,2022.2.5,59.93382107474965,
L_Arm_Y_Back,False,2,robot,1,False,True,robot_stimuli\L_Arm_Y_Back.mp4,13,0,0,0,0,0,29,29,29,,,,,,,,,,,,,224.40379169999994,224.40379169999994,None,,224.40379169999994,225.50644160000002,,225.50644160000002,225.50644160000002,225.50644160000002,,None,229.1754305999999,233.57529369999997,229.1754305999999,233.57529369999997,229.1754305999999,233.57529369999997,229.1754305999999,233.57529369999997,49.13580246913581,2.5814307000000554,space,224.40379169999994,224.40379169999994,,4.338074600000027,225.50644160000002,,,,,,,,,,,,,,,,,,13,001,2024-06-19_08h04.18.089,robot_nback_sign,2022.2.5,59.93382107474965,
R_Arm_Y_For,False,3,robot,1,True,False,robot_stimuli\R_Arm_Y_For.mp4,13,0,0,0,0,0,30,30,30,,,,,,,,,,,,,233.57529369999997,233.57529369999997,space,1.859551700000111,235.4630990999999,236.56091989999993,,236.56091989999993,236.56091989999993,236.56091989999993,,None,240.07523859999992,240.07523859999992,240.07523859999992,240.07523859999992,240.07523859999992,240.07523859999992,240.07523859999992,240.07523859999992,None,None,None,,,,,236.56091989999993,,,,,,,,,,,,,,,,,,13,001,2024-06-19_08h04.18.089,robot_nback_sign,2022.2.5,59.93382107474965,
L_Arm_Y_Back,False,3,robot,1,False,False,robot_stimuli\L_Arm_Y_Back.mp4,13,0,0,0,0,0,31,31,31,,,,,,,,,,,,,240.07523859999992,240.07523859999992,None,,240.07523859999992,241.163322,,241.163322,241.163322,241.163322,,None,244.81307879999997,244.81307879999997,244.81307879999997,244.81307879999997,244.81307879999997,244.81307879999997,244.81307879999997,244.81307879999997,None,None,None,240.07523859999992,240.07523859999992,,,241.163322,,,,,,,,,,,,,,,,,,13,001,2024-06-19_08h04.18.089,robot_nback_sign,2022.2.5,59.93382107474965,
R_Base_Y_For,False,3,robot,1,False,False,robot_stimuli\R_Base_Y_For.mp4,13,0,0,0,0,0,32,32,32,,,,,,,,,,,,,244.81307879999997,244.81307879999997,None,,244.81307879999997,245.90879159999997,,245.90879159999997,245.90879159999997,245.90879159999997,,n,249.5580278,249.5580278,249.5580278,249.5580278,249.5580278,249.5580278,249.5580278,249.5580278,None,None,None,244.81307879999997,244.81307879999997,2.173443300000031,,245.90879159999997,,,,,,,,,,,,,,,,,,13,001,2024-06-19_08h04.18.089,robot_nback_sign,2022.2.5,59.93382107474965,
R_Arm_Y_For,True,3,robot,1,False,False,robot_stimuli\R_Arm_Y_For.mp4,13,0,0,0,0,0,33,33,33,,,,,,,,,,,,,249.5580278,249.5580278,None,,249.5580278,250.6459254,,250.6459254,250.6459254,250.6459254,,c,254.16298469999992,254.16298469999992,254.16298469999992,254.16298469999992,254.16298469999992,254.16298469999992,254.16298469999992,254.16298469999992,None,None,None,249.5580278,249.5580278,1.6198002000000997,,250.6459254,,,,,,,,,,,,,,,,,,13,001,2024-06-19_08h04.18.089,robot_nback_sign,2022.2.5,59.93382107474965,
L_Torso_Y_For,False,3,robot,1,False,False,robot_stimuli\L_Torso_Y_For.mp4,13,0,0,0,0,0,34,34,34,,,,,,,,,,,,,254.16298469999992,254.16298469999992,None,,254.16298469999992,255.25650929999995,,255.25650929999995,255.25650929999995,255.25650929999995,,c,258.8968159,258.8968159,258.8968159,258.8968159,258.8968159,258.8968159,258.8968159,258.8968159,None,None,None,254.16298469999992,254.16298469999992,3.5451678000000584,,255.25650929999995,,,,,,,,,,,,,,,,,,13,001,2024-06-19_08h04.18.089,robot_nback_sign,2022.2.5,59.93382107474965,
R_Base_Y_For,True,3,robot,1,False,True,robot_stimuli\R_Base_Y_For.mp4,13,0,0,0,0,0,35,35,35,,,,,,,,,,,,,258.8968159,258.8968159,None,,258.8968159,259.98966859999996,,259.98966859999996,259.98966859999996,259.98966859999996,,c,263.6567718,267.4161806999999,263.6567718,267.4161806999999,263.6567718,267.4161806999999,263.6567718,267.4161806999999,72.43827160493828,3.3900601999999935,space,258.8968159,258.8968159,3.3406332000000702,3.7047324000000117,259.98966859999996,,,,,,,,,,,,,,,,,,13,001,2024-06-19_08h04.18.089,robot_nback_sign,2022.2.5,59.93382107474965,
,,,,,,,,,0,0,0,0,,,,,,,,,,,,,,,,,,,,,,,,,,,,,,,,,,,,,,,,,,,,,267.4161806999999,267.4161806999999,267.4161806999999,c,78.84901850000006,,,,,,,,,,,,,13,001,2024-06-19_08h04.18.089,robot_nback_sign,2022.2.5,59.93382107474965,
L_Arm_Z_Back,False,1,robot,1,True,False,robot_stimuli\L_Arm_Z_Back.mp4,13,,,,,,,,,0,0,0,0,,,,,,,,,,,,,352.6133668,353.6976184,,,,,,,357.3491755,357.3491755,357.3491755,357.3491755,357.3491755,357.3491755,357.3491755,357.3491755,None,None,None,,,,,,,,,,,346.3370107999999,346.3370107999999,space,6.256893999999988,353.6976184,353.6976184,None,,,,,,13,001,2024-06-19_08h04.18.089,robot_nback_sign,2022.2.5,59.93382107474965,
L_Head_X_For,False,1,robot,1,False,False,robot_stimuli\L_Head_X_For.mp4,13,,,,,,,,,0,1,1,1,,,,,,,,,,,,,357.3491755,,,,,,,,362.0233933999999,362.0233933999999,362.0233933999999,362.0233933999999,362.0233933999999,362.0233933999999,362.0233933999999,362.0233933999999,None,None,None,,,,,,,,,,,357.3491755,357.3491755,None,,358.45043469999996,358.45043469999996,n,357.3491755,357.3491755,1.8954574000000548,,,13,001,2024-06-19_08h04.18.089,robot_nback_sign,2022.2.5,59.93382107474965,
R_Torso_Y_Back,False,1,robot,1,False,False,robot_stimuli\R_Torso_Y_Back.mp4,13,,,,,,,,,0,2,2,2,,,,,,,,,,,,,362.0233933999999,363.1119613999999,,,,,,,366.76369239999997,366.76369239999997,366.76369239999997,366.76369239999997,366.76369239999997,366.76369239999997,366.76369239999997,366.76369239999997,None,None,None,,,,,,,,,,,362.0233933999999,362.0233933999999,None,,363.1119613999999,363.1119613999999,n,362.0233933999999,362.0233933999999,1.2332709000000932,,,13,001,2024-06-19_08h04.18.089,robot_nback_sign,2022.2.5,59.93382107474965,
L_Base_Z_For,False,1,robot,1,False,False,robot_stimuli\L_Base_Z_For.mp4,13,,,,,,,,,0,3,3,3,,,,,,,,,,,,,366.76369239999997,367.85583539999993,,,,,,,371.4919232,371.4919232,371.4919232,371.4919232,371.4919232,371.4919232,371.4919232,371.4919232,None,None,None,,,,,,,,,,,366.76369239999997,366.76369239999997,None,,367.85583539999993,367.85583539999993,n,366.76369239999997,366.76369239999997,1.8984891000001198,,,13,001,2024-06-19_08h04.18.089,robot_nback_sign,2022.2.5,59.93382107474965,
L_Base_Z_For,True,1,robot,1,False,False,robot_stimuli\L_Base_Z_For.mp4,13,,,,,,,,,0,4,4,4,,,,,,,,,,,,,371.4919232,372.5729829999999,,,,,,,376.2150588999999,376.2150588999999,376.2150588999999,376.2150588999999,376.2150588999999,376.2150588999999,376.2150588999999,376.2150588999999,None,None,None,,,,,,,,,,,371.4919232,371.4919232,None,,372.5729829999999,372.5729829999999,c,371.4919232,371.4919232,1.613446900000099,,,13,001,2024-06-19_08h04.18.089,robot_nback_sign,2022.2.5,59.93382107474965,
R_Torso_Y_Back,False,1,robot,1,False,False,robot_stimuli\R_Torso_Y_Back.mp4,13,,,,,,,,,0,5,5,5,,,,,,,,,,,,,376.2150588999999,,,,,,,,380.9634954999999,380.9634954999999,380.9634954999999,380.9634954999999,380.9634954999999,380.9634954999999,380.9634954999999,380.9634954999999,None,None,None,,,,,,,,,,,376.2150588999999,376.2150588999999,None,,377.3238946,377.3238946,n,376.2150588999999,376.2150588999999,1.5738147000000708,,,13,001,2024-06-19_08h04.18.089,robot_nback_sign,2022.2.5,59.93382107474965,
L_Torso_Z_Back,False,1,robot,1,False,False,robot_stimuli\L_Torso_Z_Back.mp4,13,,,,,,,,,0,6,6,6,,,,,,,,,,,,,380.9634954999999,382.04599799999994,,,,,,,385.565917,385.565917,385.565917,385.565917,385.565917,385.565917,385.565917,385.565917,None,None,None,,,,,,,,,,,380.9634954999999,380.9634954999999,None,,382.04599799999994,382.04599799999994,n,380.9634954999999,380.9634954999999,0.9870401000000584,,,13,001,2024-06-19_08h04.18.089,robot_nback_sign,2022.2.5,59.93382107474965,
R_Arm_Y_For,False,1,robot,1,False,False,robot_stimuli\R_Arm_Y_For.mp4,13,,,,,,,,,0,7,7,7,,,,,,,,,,,,,385.565917,,,,,,,,390.17918729999997,390.17918729999997,390.17918729999997,390.17918729999997,390.17918729999997,390.17918729999997,390.17918729999997,390.17918729999997,None,None,None,,,,,,,,,,,385.565917,385.565917,None,,386.67249689999994,386.67249689999994,n,385.565917,385.565917,1.3367801000000554,,,13,001,2024-06-19_08h04.18.089,robot_nback_sign,2022.2.5,59.93382107474965,
R_Torso_Y_Back,False,1,robot,1,False,False,robot_stimuli\R_Torso_Y_Back.mp4,13,,,,,,,,,0,8,8,8,,,,,,,,,,,,,390.17918729999997,391.2581011,,,,,,,394.9082907999999,394.9082907999999,394.9082907999999,394.9082907999999,394.9082907999999,394.9082907999999,394.9082907999999,394.9082907999999,None,None,None,,,,,,,,,,,390.17918729999997,390.17918729999997,None,,391.2581011,391.2581011,n,390.17918729999997,390.17918729999997,2.1195973000000095,,,13,001,2024-06-19_08h04.18.089,robot_nback_sign,2022.2.5,59.93382107474965,
L_Base_Z_For,False,1,robot,1,False,False,robot_stimuli\L_Base_Z_For.mp4,13,,,,,,,,,0,9,9,9,,,,,,,,,,,,,394.9082907999999,395.9901899,,,,,,,399.62789999999995,399.62789999999995,399.62789999999995,399.62789999999995,399.62789999999995,399.62789999999995,399.62789999999995,399.62789999999995,None,None,None,,,,,,,,,,,394.9082907999999,394.9082907999999,None,,395.9901899,395.9901899,n,394.9082907999999,394.9082907999999,3.323532000000114,,,13,001,2024-06-19_08h04.18.089,robot_nback_sign,2022.2.5,59.93382107474965,
R_Base_Y_For,False,1,robot,1,False,False,robot_stimuli\R_Base_Y_For.mp4,13,,,,,,,,,0,10,10,10,,,,,,,,,,,,,399.62789999999995,400.70701329999997,,,,,,,404.3468965999999,404.3468965999999,404.3468965999999,404.3468965999999,404.3468965999999,404.3468965999999,404.3468965999999,404.3468965999999,None,None,None,,,,,,,,,,,399.62789999999995,399.62789999999995,None,,400.70701329999997,400.70701329999997,n,399.62789999999995,399.62789999999995,1.2228526000001239,,,13,001,2024-06-19_08h04.18.089,robot_nback_sign,2022.2.5,59.93382107474965,
L_Torso_Y_For,False,1,robot,1,False,False,robot_stimuli\L_Torso_Y_For.mp4,13,,,,,,,,,0,11,11,11,,,,,,,,,,,,,404.3468965999999,405.43255679999993,,,,,,,409.0804023999999,409.0804023999999,409.0804023999999,409.0804023999999,409.0804023999999,409.0804023999999,409.0804023999999,409.0804023999999,None,None,None,,,,,,,,,,,404.3468965999999,404.3468965999999,None,,405.43255679999993,405.43255679999993,n,404.3468965999999,404.3468965999999,1.9214765000000398,,,13,001,2024-06-19_08h04.18.089,robot_nback_sign,2022.2.5,59.93382107474965,
R_Head_Z_For,False,1,robot,1,False,False,robot_stimuli\R_Head_Z_For.mp4,13,,,,,,,,,0,12,12,12,,,,,,,,,,,,,409.0804023999999,410.16242079999995,,,,,,,413.80872909999994,413.80872909999994,413.80872909999994,413.80872909999994,413.80872909999994,413.80872909999994,413.80872909999994,413.80872909999994,None,None,None,,,,,,,,,,,409.0804023999999,409.0804023999999,None,,410.16242079999995,410.16242079999995,n,409.0804023999999,409.0804023999999,0.9356249999999591,,,13,001,2024-06-19_08h04.18.089,robot_nback_sign,2022.2.5,59.93382107474965,
R_Head_Z_For,True,1,robot,1,False,False,robot_stimuli\R_Head_Z_For.mp4,13,,,,,,,,,0,13,13,13,,,,,,,,,,,,,413.80872909999994,414.8931781,,,,,,,418.5401850999999,418.5401850999999,418.5401850999999,418.5401850999999,418.5401850999999,418.5401850999999,418.5401850999999,418.5401850999999,None,None,None,,,,,,,,,,,413.80872909999994,413.80872909999994,None,,414.8931781,414.8931781,c,413.80872909999994,413.80872909999994,1.2610380000000987,,,13,001,2024-06-19_08h04.18.089,robot_nback_sign,2022.2.5,59.93382107474965,
R_Head_X_Back,False,1,robot,1,False,False,robot_stimuli\R_Head_X_Back.mp4,13,,,,,,,,,0,14,14,14,,,,,,,,,,,,,418.5401850999999,419.6305899,,,,,,,423.27172069999995,423.27172069999995,423.27172069999995,423.27172069999995,423.27172069999995,423.27172069999995,423.27172069999995,423.27172069999995,None,None,None,,,,,,,,,,,418.5401850999999,418.5401850999999,None,,419.6305899,419.6305899,n,418.5401850999999,418.5401850999999,1.5871554000000287,,,13,001,2024-06-19_08h04.18.089,robot_nback_sign,2022.2.5,59.93382107474965,
R_Head_Z_For,False,1,robot,1,False,False,robot_stimuli\R_Head_Z_For.mp4,13,,,,,,,,,0,15,15,15,,,,,,,,,,,,,423.27172069999995,424.3584986999999,,,,,,,428.0072407,428.0072407,428.0072407,428.0072407,428.0072407,428.0072407,428.0072407,428.0072407,None,None,None,,,,,,,,,,,423.27172069999995,423.27172069999995,None,,424.3584986999999,424.3584986999999,n,423.27172069999995,423.27172069999995,1.4271003000001201,,,13,001,2024-06-19_08h04.18.089,robot_nback_sign,2022.2.5,59.93382107474965,
L_Arm_X_For,False,1,robot,1,False,False,robot_stimuli\L_Arm_X_For.mp4,13,,,,,,,,,0,16,16,16,,,,,,,,,,,,,428.0072407,429.0952613999999,,,,,,,432.7438161,432.7438161,432.7438161,432.7438161,432.7438161,432.7438161,432.7438161,432.7438161,None,None,None,,,,,,,,,,,428.0072407,428.0072407,None,,429.0952613999999,429.0952613999999,n,428.0072407,428.0072407,1.730107700000076,,,13,001,2024-06-19_08h04.18.089,robot_nback_sign,2022.2.5,59.93382107474965,
R_Torso_Y_For,False,1,robot,1,False,False,robot_stimuli\R_Torso_Y_For.mp4,13,,,,,,,,,0,17,17,17,,,,,,,,,,,,,432.7438161,433.8290963999999,,,,,,,437.47561929999995,437.47561929999995,437.47561929999995,437.47561929999995,437.47561929999995,437.47561929999995,437.47561929999995,437.47561929999995,None,None,None,,,,,,,,,,,432.7438161,432.7438161,None,,433.8290963999999,433.8290963999999,n,432.7438161,432.7438161,1.324976500000048,,,13,001,2024-06-19_08h04.18.089,robot_nback_sign,2022.2.5,59.93382107474965,
R_Base_X_For,False,1,robot,1,False,False,robot_stimuli\R_Base_X_For.mp4,13,,,,,,,,,0,18,18,18,,,,,,,,,,,,,437.47561929999995,438.56356519999997,,,,,,,442.1122091,442.1122091,442.1122091,442.1122091,442.1122091,442.1122091,442.1122091,442.1122091,None,None,None,,,,,,,,,,,437.47561929999995,437.47561929999995,None,,438.56356519999997,438.56356519999997,c,437.47561929999995,437.47561929999995,3.190698700000098,,,13,001,2024-06-19_08h04.18.089,robot_nback_sign,2022.2.5,59.93382107474965,
R_Head_Y_For,False,1,robot,1,False,False,robot_stimuli\R_Head_Y_For.mp4,13,,,,,,,,,0,19,19,19,,,,,,,,,,,,,442.1122091,443.19479739999997,,,,,,,446.8427406999999,446.8427406999999,446.8427406999999,446.8427406999999,446.8427406999999,446.8427406999999,446.8427406999999,446.8427406999999,None,None,None,,,,,,,,,,,442.1122091,442.1122091,None,,443.19479739999997,443.19479739999997,n,442.1122091,442.1122091,2.030832000000032,,,13,001,2024-06-19_08h04.18.089,robot_nback_sign,2022.2.5,59.93382107474965,
R_Head_Y_For,True,1,robot,1,False,False,robot_stimuli\R_Head_Y_For.mp4,13,,,,,,,,,0,20,20,20,,,,,,,,,,,,,446.8427406999999,447.92197739999995,,,,,,,451.5598289999999,451.5598289999999,451.5598289999999,451.5598289999999,451.5598289999999,451.5598289999999,451.5598289999999,451.5598289999999,None,None,None,,,,,,,,,,,446.8427406999999,446.8427406999999,None,,447.92197739999995,447.92197739999995,n,446.8427406999999,446.8427406999999,1.9755128000000468,,,13,001,2024-06-19_08h04.18.089,robot_nback_sign,2022.2.5,59.93382107474965,
R_Arm_X_Back,False,1,robot,1,False,False,robot_stimuli\R_Arm_X_Back.mp4,13,,,,,,,,,0,21,21,21,,,,,,,,,,,,,451.5598289999999,452.6417503,,,,,,,456.29146949999995,456.29146949999995,456.29146949999995,456.29146949999995,456.29146949999995,456.29146949999995,456.29146949999995,456.29146949999995,None,None,None,,,,,,,,,,,451.5598289999999,451.5598289999999,None,,452.6417503,452.6417503,n,451.5598289999999,451.5598289999999,2.5676191000000017,,,13,001,2024-06-19_08h04.18.089,robot_nback_sign,2022.2.5,59.93382107474965,
L_Torso_Y_Back,False,1,robot,1,False,False,robot_stimuli\L_Torso_Y_Back.mp4,13,,,,,,,,,0,22,22,22,,,,,,,,,,,,,456.29146949999995,457.37900379999996,,,,,,,460.89650949999987,460.89650949999987,460.89650949999987,460.89650949999987,460.89650949999987,460.89650949999987,460.89650949999987,460.89650949999987,None,None,None,,,,,,,,,,,456.29146949999995,456.29146949999995,None,,457.37900379999996,457.37900379999996,n,456.29146949999995,456.29146949999995,1.567244300000084,,,13,001,2024-06-19_08h04.18.089,robot_nback_sign,2022.2.5,59.93382107474965,
L_Torso_Y_For,False,1,robot,1,False,False,robot_stimuli\L_Torso_Y_For.mp4,13,,,,,,,,,0,23,23,23,,,,,,,,,,,,,460.89650949999987,461.972853,,,,,,,465.6090380999999,465.6090380999999,465.6090380999999,465.6090380999999,465.6090380999999,465.6090380999999,465.6090380999999,465.6090380999999,None,None,None,,,,,,,,,,,460.89650949999987,460.89650949999987,None,,461.972853,461.972853,c,460.89650949999987,460.89650949999987,1.7899238000002242,,,13,001,2024-06-19_08h04.18.089,robot_nback_sign,2022.2.5,59.93382107474965,
L_Base_Y_Back,False,1,robot,1,False,False,robot_stimuli\L_Base_Y_Back.mp4,13,,,,,,,,,0,24,24,24,,,,,,,,,,,,,465.6090380999999,466.69792469999993,,,,,,,470.27770409999994,470.27770409999994,470.27770409999994,470.27770409999994,470.27770409999994,470.27770409999994,470.27770409999994,470.27770409999994,None,None,None,,,,,,,,,,,465.6090380999999,465.6090380999999,None,,466.69792469999993,466.69792469999993,n,465.6090380999999,465.6090380999999,3.3442615999999816,,,13,001,2024-06-19_08h04.18.089,robot_nback_sign,2022.2.5,59.93382107474965,
L_Arm_Y_For,False,1,robot,1,False,False,robot_stimuli\L_Arm_Y_For.mp4,13,,,,,,,,,0,25,25,25,,,,,,,,,,,,,470.27770409999994,471.3576897999999,,,,,,,474.9966996999999,474.9966996999999,474.9966996999999,474.9966996999999,474.9966996999999,474.9966996999999,474.9966996999999,474.9966996999999,None,None,None,,,,,,,,,,,470.27770409999994,470.27770409999994,None,,471.3576897999999,471.3576897999999,n,470.27770409999994,470.27770409999994,1.5326365999999325,,,13,001,2024-06-19_08h04.18.089,robot_nback_sign,2022.2.5,59.93382107474965,
L_Torso_Z_Back,False,1,robot,1,False,False,robot_stimuli\L_Torso_Z_Back.mp4,13,,,,,,,,,0,26,26,26,,,,,,,,,,,,,474.9966996999999,476.0791233,,,,,,,479.59938250000005,479.59938250000005,479.59938250000005,479.59938250000005,479.59938250000005,479.59938250000005,479.59938250000005,479.59938250000005,None,None,None,,,,,,,,,,,474.9966996999999,474.9966996999999,None,,476.0791233,476.0791233,n,474.9966996999999,474.9966996999999,2.410990200000242,,,13,001,2024-06-19_08h04.18.089,robot_nback_sign,2022.2.5,59.93382107474965,
L_Base_X_Back,False,1,robot,1,False,False,robot_stimuli\L_Base_X_Back.mp4,13,,,,,,,,,0,27,27,27,,,,,,,,,,,,,479.59938250000005,,,,,,,,484.31097309999996,484.31097309999996,484.31097309999996,484.31097309999996,484.31097309999996,484.31097309999996,484.31097309999996,484.31097309999996,None,None,None,,,,,,,,,,,479.59938250000005,479.59938250000005,None,,480.706543,480.706543,c,479.59938250000005,479.59938250000005,2.6955273000000943,,,13,001,2024-06-19_08h04.18.089,robot_nback_sign,2022.2.5,59.93382107474965,
L_Head_Y_For,False,1,robot,1,False,False,robot_stimuli\L_Head_Y_For.mp4,13,,,,,,,,,0,28,28,28,,,,,,,,,,,,,484.31097309999996,485.3951915,,,,,,,489.04259049999996,489.04259049999996,489.04259049999996,489.04259049999996,489.04259049999996,489.04259049999996,489.04259049999996,489.04259049999996,None,None,None,,,,,,,,,,,484.31097309999996,484.31097309999996,None,,485.3951915,485.3951915,n,484.31097309999996,484.31097309999996,1.5911166999999296,,,13,001,2024-06-19_08h04.18.089,robot_nback_sign,2022.2.5,59.93382107474965,
L_Head_Y_For,True,1,robot,1,False,False,robot_stimuli\L_Head_Y_For.mp4,13,,,,,,,,,0,29,29,29,,,,,,,,,,,,,489.04259049999996,490.12611029999994,,,,,,,493.77638439999987,493.77638439999987,493.77638439999987,493.77638439999987,493.77638439999987,493.77638439999987,493.77638439999987,493.77638439999987,None,None,None,,,,,,,,,,,489.04259049999996,489.04259049999996,None,,490.12611029999994,490.12611029999994,n,489.04259049999996,489.04259049999996,1.7633072000000993,,,13,001,2024-06-19_08h04.18.089,robot_nback_sign,2022.2.5,59.93382107474965,
R_Arm_Y_Back,False,1,robot,1,False,False,robot_stimuli\R_Arm_Y_Back.mp4,13,,,,,,,,,0,30,30,30,,,,,,,,,,,,,493.77638439999987,494.86212479999995,,,,,,,498.5108688,498.5108688,498.5108688,498.5108688,498.5108688,498.5108688,498.5108688,498.5108688,None,None,None,,,,,,,,,,,493.77638439999987,493.77638439999987,None,,494.86212479999995,494.86212479999995,n,493.77638439999987,493.77638439999987,3.083234599999969,,,13,001,2024-06-19_08h04.18.089,robot_nback_sign,2022.2.5,59.93382107474965,
L_Head_X_Back,False,1,robot,1,False,False,robot_stimuli\L_Head_X_Back.mp4,13,,,,,,,,,0,31,31,31,,,,,,,,,,,,,498.5108688,499.59235160000003,,,,,,,503.2430678999999,503.2430678999999,503.2430678999999,503.2430678999999,503.2430678999999,503.2430678999999,503.2430678999999,503.2430678999999,None,None,None,,,,,,,,,,,498.5108688,498.5108688,None,,499.59235160000003,499.59235160000003,n,498.5108688,498.5108688,1.6904966000001878,,,13,001,2024-06-19_08h04.18.089,robot_nback_sign,2022.2.5,59.93382107474965,
R_Head_X_For,False,1,robot,1,False,False,robot_stimuli\R_Head_X_For.mp4,13,,,,,,,,,0,32,32,32,,,,,,,,,,,,,503.2430678999999,504.32985869999993,,,,,,,507.9784256999999,507.9784256999999,507.9784256999999,507.9784256999999,507.9784256999999,507.9784256999999,507.9784256999999,507.9784256999999,None,None,None,,,,,,,,,,,503.2430678999999,503.2430678999999,None,,504.32985869999993,504.32985869999993,n,503.2430678999999,503.2430678999999,1.5284715000000233,,,13,001,2024-06-19_08h04.18.089,robot_nback_sign,2022.2.5,59.93382107474965,
R_Head_X_For,True,1,robot,1,False,False,robot_stimuli\R_Head_X_For.mp4,13,,,,,,,,,0,33,33,33,,,,,,,,,,,,,507.9784256999999,509.0589686999999,,,,,,,512.7052415,512.7052415,512.7052415,512.7052415,512.7052415,512.7052415,512.7052415,512.7052415,None,None,None,,,,,,,,,,,507.9784256999999,507.9784256999999,None,,509.0589686999999,509.0589686999999,c,507.9784256999999,507.9784256999999,1.190794200000255,,,13,001,2024-06-19_08h04.18.089,robot_nback_sign,2022.2.5,59.93382107474965,
L_Head_X_For,False,1,robot,1,False,False,robot_stimuli\L_Head_X_For.mp4,13,,,,,,,,,0,34,34,34,,,,,,,,,,,,,512.7052415,513.7911477999999,,,,,,,517.3608635999999,517.3608635999999,517.3608635999999,517.3608635999999,517.3608635999999,517.3608635999999,517.3608635999999,517.3608635999999,None,None,None,,,,,,,,,,,512.7052415,512.7052415,None,,513.7911477999999,513.7911477999999,n,512.7052415,512.7052415,1.5942999000001237,,,13,001,2024-06-19_08h04.18.089,robot_nback_sign,2022.2.5,59.93382107474965,
R_Base_X_Back,False,1,robot,1,False,False,robot_stimuli\R_Base_X_Back.mp4,13,,,,,,,,,0,35,35,35,,,,,,,,,,,,,517.3608635999999,518.4461881,,,,,,,522.0945282999999,522.0945282999999,522.0945282999999,522.0945282999999,522.0945282999999,522.0945282999999,522.0945282999999,522.0945282999999,None,None,None,,,,,,,,,,,517.3608635999999,517.3608635999999,None,,518.4461881,518.4461881,n,517.3608635999999,517.3608635999999,1.7314618999998856,,,13,001,2024-06-19_08h04.18.089,robot_nback_sign,2022.2.5,59.93382107474965,
R_Head_Z_For,False,1,robot,1,False,False,robot_stimuli\R_Head_Z_For.mp4,13,,,,,,,,,0,36,36,36,,,,,,,,,,,,,522.0945282999999,523.1806709,,,,,,,526.8278571000001,526.8278571000001,526.8278571000001,526.8278571000001,526.8278571000001,526.8278571000001,526.8278571000001,526.8278571000001,None,None,None,,,,,,,,,,,522.0945282999999,522.0945282999999,None,,523.1806709,523.1806709,n,522.0945282999999,522.0945282999999,3.5732006999999157,,,13,001,2024-06-19_08h04.18.089,robot_nback_sign,2022.2.5,59.93382107474965,
L_Arm_Z_For,False,1,robot,1,False,False,robot_stimuli\L_Arm_Z_For.mp4,13,,,,,,,,,0,37,37,37,,,,,,,,,,,,,526.8278571000001,527.9053738,,,,,,,531.5442364,531.5442364,531.5442364,531.5442364,531.5442364,531.5442364,531.5442364,531.5442364,None,None,None,,,,,,,,,,,526.8278571000001,526.8278571000001,None,,527.9053738,527.9053738,n,526.8278571000001,526.8278571000001,2.2336138000000574,,,13,001,2024-06-19_08h04.18.089,robot_nback_sign,2022.2.5,59.93382107474965,
L_Base_X_Back,False,1,robot,1,False,False,robot_stimuli\L_Base_X_Back.mp4,13,,,,,,,,,0,38,38,38,,,,,,,,,,,,,531.5442364,532.6314321,,,,,,,536.2472341999999,536.2472341999999,536.2472341999999,536.2472341999999,536.2472341999999,536.2472341999999,536.2472341999999,536.2472341999999,None,None,None,,,,,,,,,,,531.5442364,531.5442364,None,,532.6314321,532.6314321,n,531.5442364,531.5442364,2.8577272999998513,,,13,001,2024-06-19_08h04.18.089,robot_nback_sign,2022.2.5,59.93382107474965,
L_Torso_X_For,False,1,robot,1,False,False,robot_stimuli\L_Torso_X_For.mp4,13,,,,,,,,,0,39,39,39,,,,,,,,,,,,,536.2472341999999,537.3300442,,,,,,,540.9798049999999,540.9798049999999,540.9798049999999,540.9798049999999,540.9798049999999,540.9798049999999,540.9798049999999,540.9798049999999,None,None,None,,,,,,,,,,,536.2472341999999,536.2472341999999,None,,537.3300442,537.3300442,c,536.2472341999999,536.2472341999999,2.911512299999913,,,13,001,2024-06-19_08h04.18.089,robot_nback_sign,2022.2.5,59.93382107474965,
L_Torso_X_For,True,1,robot,1,False,False,robot_stimuli\L_Torso_X_For.mp4,13,,,,,,,,,0,40,40,40,,,,,,,,,,,,,540.9798049999999,542.0571141999999,,,,,,,545.6974375,545.6974375,545.6974375,545.6974375,545.6974375,545.6974375,545.6974375,545.6974375,None,None,None,,,,,,,,,,,540.9798049999999,540.9798049999999,None,,542.0571141999999,542.0571141999999,c,540.9798049999999,540.9798049999999,2.760419899999988,,,13,001,2024-06-19_08h04.18.089,robot_nback_sign,2022.2.5,59.93382107474965,
L_Head_X_Back,False,1,robot,1,False,False,robot_stimuli\L_Head_X_Back.mp4,13,,,,,,,,,0,41,41,41,,,,,,,,,,,,,545.6974375,546.7773669999999,,,,,,,550.4254231,550.4254231,550.4254231,550.4254231,550.4254231,550.4254231,550.4254231,550.4254231,None,None,None,,,,,,,,,,,545.6974375,545.6974375,None,,546.7773669999999,546.7773669999999,n,545.6974375,545.6974375,1.8241047999999864,,,13,001,2024-06-19_08h04.18.089,robot_nback_sign,2022.2.5,59.93382107474965,
L_Head_X_Back,True,1,robot,1,False,False,robot_stimuli\L_Head_X_Back.mp4,13,,,,,,,,,0,42,42,42,,,,,,,,,,,,,550.4254231,551.5028611999999,,,,,,,555.1409366,555.1409366,555.1409366,555.1409366,555.1409366,555.1409366,555.1409366,555.1409366,None,None,None,,,,,,,,,,,550.4254231,550.4254231,None,,551.5028611999999,551.5028611999999,c,550.4254231,550.4254231,1.4506571000001713,,,13,001,2024-06-19_08h04.18.089,robot_nback_sign,2022.2.5,59.93382107474965,
R_Base_Z_For,False,1,robot,1,False,False,robot_stimuli\R_Base_Z_For.mp4,13,,,,,,,,,0,43,43,43,,,,,,,,,,,,,555.1409366,556.2279914000001,,,,,,,559.8747690999999,559.8747690999999,559.8747690999999,559.8747690999999,559.8747690999999,559.8747690999999,559.8747690999999,559.8747690999999,None,None,None,,,,,,,,,,,555.1409366,555.1409366,None,,556.2279914000001,556.2279914000001,n,555.1409366,555.1409366,1.7814304000000902,,,13,001,2024-06-19_08h04.18.089,robot_nback_sign,2022.2.5,59.93382107474965,
R_Base_Z_For,True,1,robot,1,False,False,robot_stimuli\R_Base_Z_For.mp4,13,,,,,,,,,0,44,44,44,,,,,,,,,,,,,559.8747690999999,560.9545681,,,,,,,564.5924405000001,564.5924405000001,564.5924405000001,564.5924405000001,564.5924405000001,564.5924405000001,564.5924405000001,564.5924405000001,None,None,None,,,,,,,,,,,559.8747690999999,559.8747690999999,None,,560.9545681,560.9545681,n,559.8747690999999,559.8747690999999,1.934508199999982,,,13,001,2024-06-19_08h04.18.089,robot_nback_sign,2022.2.5,59.93382107474965,
L_Arm_X_Back,False,1,robot,1,False,False,robot_stimuli\L_Arm_X_Back.mp4,13,,,,,,,,,0,45,45,45,,,,,,,,,,,,,564.5924405000001,565.677586,,,,,,,569.3277261999999,569.3277261999999,569.3277261999999,569.3277261999999,569.3277261999999,569.3277261999999,569.3277261999999,569.3277261999999,None,None,None,,,,,,,,,,,564.5924405000001,564.5924405000001,None,,565.677586,565.677586,n,564.5924405000001,564.5924405000001,1.651506500000096,,,13,001,2024-06-19_08h04.18.089,robot_nback_sign,2022.2.5,59.93382107474965,
L_Arm_X_Back,True,1,robot,1,False,False,robot_stimuli\L_Arm_X_Back.mp4,13,,,,,,,,,0,46,46,46,,,,,,,,,,,,,569.3277261999999,570.4106813999999,,,,,,,574.0596450999999,574.0596450999999,574.0596450999999,574.0596450999999,574.0596450999999,574.0596450999999,574.0596450999999,574.0596450999999,None,None,None,,,,,,,,,,,569.3277261999999,569.3277261999999,None,,570.4106813999999,570.4106813999999,c,569.3277261999999,569.3277261999999,1.4311617000000751,,,13,001,2024-06-19_08h04.18.089,robot_nback_sign,2022.2.5,59.93382107474965,
L_Arm_Y_Back,False,1,robot,1,False,False,robot_stimuli\L_Arm_Y_Back.mp4,13,,,,,,,,,0,47,47,47,,,,,,,,,,,,,574.0596450999999,575.1447077,,,,,,,578.7924613,578.7924613,578.7924613,578.7924613,578.7924613,578.7924613,578.7924613,578.7924613,None,None,None,,,,,,,,,,,574.0596450999999,574.0596450999999,None,,575.1447077,575.1447077,c,574.0596450999999,574.0596450999999,1.6405566000000817,,,13,001,2024-06-19_08h04.18.089,robot_nback_sign,2022.2.5,59.93382107474965,
R_Head_Y_Back,False,1,robot,1,False,False,robot_stimuli\R_Head_Y_Back.mp4,13,,,,,,,,,0,48,48,48,,,,,,,,,,,,,578.7924613,579.8780517999999,,,,,,,583.5247608,583.5247608,583.5247608,583.5247608,583.5247608,583.5247608,583.5247608,583.5247608,None,None,None,,,,,,,,,,,578.7924613,578.7924613,None,,579.8780517999999,579.8780517999999,n,578.7924613,578.7924613,1.051044999999931,,,13,001,2024-06-19_08h04.18.089,robot_nback_sign,2022.2.5,59.93382107474965,
R_Head_Y_Back,True,1,robot,1,False,True,robot_stimuli\R_Head_Y_Back.mp4,13,,,,,,,,,0,49,49,49,,,,,,,,,,,,,583.5247608,584.6116038,,,,,,,588.2930414,597.6140751,588.2930414,597.6140751,588.2930414,597.6140751,588.2930414,597.6140751,50.370370370370374,7.429038499999933,space,,,,9.25242060000005,,,,,,,583.5247608,583.5247608,None,,584.6116038,584.6116038,n,583.5247608,583.5247608,0.8620780000001105,,,13,001,2024-06-19_08h04.18.089,robot_nback_sign,2022.2.5,59.93382107474965,
R_Base_Z_For,False,2,robot,1,True,False,robot_stimuli\R_Base_Z_For.mp4,13,,,,,,,,,0,50,50,50,,,,,,,,,,,,,604.5301445999999,605.6102570999999,,,,,,,609.2472717,609.2472717,609.2472717,609.2472717,609.2472717,609.2472717,609.2472717,609.2472717,None,None,None,,,,,,,,,,,597.6140751,597.6140751,space,6.88484080000012,605.6102570999999,605.6102570999999,n,,,2.6636151000000154,,,13,001,2024-06-19_08h04.18.089,robot_nback_sign,2022.2.5,59.93382107474965,
L_Arm_X_For,False,2,robot,1,False,False,robot_stimuli\L_Arm_X_For.mp4,13,,,,,,,,,0,51,51,51,,,,,,,,,,,,,609.2472717,610.3246050999999,,,,,,,613.9611539999999,613.9611539999999,613.9611539999999,613.9611539999999,613.9611539999999,613.9611539999999,613.9611539999999,613.9611539999999,None,None,None,,,,,,,,,,,609.2472717,609.2472717,None,,610.3246050999999,610.3246050999999,n,609.2472717,609.2472717,2.84489520000011,,,13,001,2024-06-19_08h04.18.089,robot_nback_sign,2022.2.5,59.93382107474965,
L_Base_X_For,False,2,robot,1,False,False,robot_stimuli\L_Base_X_For.mp4,13,,,,,,,,,0,52,52,52,,,,,,,,,,,,,613.9611539999999,615.0495252999999,,,,,,,618.6235902999999,618.6235902999999,618.6235902999999,618.6235902999999,618.6235902999999,618.6235902999999,618.6235902999999,618.6235902999999,None,None,None,,,,,,,,,,,613.9611539999999,613.9611539999999,None,,615.0495252999999,615.0495252999999,n,613.9611539999999,613.9611539999999,1.6798251000000164,,,13,001,2024-06-19_08h04.18.089,robot_nback_sign,2022.2.5,59.93382107474965,
L_Torso_Y_For,False,2,robot,1,False,False,robot_stimuli\L_Torso_Y_For.mp4,13,,,,,,,,,0,53,53,53,,,,,,,,,,,,,618.6235902999999,619.709744,,,,,,,623.3614949999999,623.3614949999999,623.3614949999999,623.3614949999999,623.3614949999999,623.3614949999999,623.3614949999999,623.3614949999999,None,None,None,,,,,,,,,,,618.6235902999999,618.6235902999999,None,,619.709744,619.709744,n,618.6235902999999,618.6235902999999,1.9957495999999537,,,13,001,2024-06-19_08h04.18.089,robot_nback_sign,2022.2.5,59.93382107474965,
R_Torso_Z_Back,False,2,robot,1,False,False,robot_stimuli\R_Torso_Z_Back.mp4,13,,,,,,,,,0,54,54,54,,,,,,,,,,,,,623.3614949999999,624.4462567,,,,,,,628.0884859,628.0884859,628.0884859,628.0884859,628.0884859,628.0884859,628.0884859,628.0884859,None,None,None,,,,,,,,,,,623.3614949999999,623.3614949999999,None,,624.4462567,624.4462567,n,623.3614949999999,623.3614949999999,1.5548038000001725,,,13,001,2024-06-19_08h04.18.089,robot_nback_sign,2022.2.5,59.93382107474965,
L_Head_X_For,False,2,robot,1,False,False,robot_stimuli\L_Head_X_For.mp4,13,,,,,,,,,0,55,55,55,,,,,,,,,,,,,628.0884859,629.1744355000001,,,,,,,632.7477382,632.7477382,632.7477382,632.7477382,632.7477382,632.7477382,632.7477382,632.7477382,None,None,None,,,,,,,,,,,628.0884859,628.0884859,None,,629.1744355000001,629.1744355000001,n,628.0884859,628.0884859,1.4195256999998946,,,13,001,2024-06-19_08h04.18.089,robot_nback_sign,2022.2.5,59.93382107474965,
R_Torso_X_For,False,2,robot,1,False,False,robot_stimuli\R_Torso_X_For.mp4,13,,,,,,,,,0,56,56,56,,,,,,,,,,,,,632.7477382,633.8315071,,,,,,,637.4803838999999,637.4803838999999,637.4803838999999,637.4803838999999,637.4803838999999,637.4803838999999,637.4803838999999,637.4803838999999,None,None,None,,,,,,,,,,,632.7477382,632.7477382,None,,633.8315071,633.8315071,c,632.7477382,632.7477382,2.20948199999998,,,13,001,2024-06-19_08h04.18.089,robot_nback_sign,2022.2.5,59.93382107474965,
L_Head_X_For,True,2,robot,1,False,False,robot_stimuli\L_Head_X_For.mp4,13,,,,,,,,,0,57,57,57,,,,,,,,,,,,,637.4803838999999,638.5641183,,,,,,,642.1412932999999,642.1412932999999,642.1412932999999,642.1412932999999,642.1412932999999,642.1412932999999,642.1412932999999,642.1412932999999,None,None,None,,,,,,,,,,,637.4803838999999,637.4803838999999,None,,638.5641183,638.5641183,c,637.4803838999999,637.4803838999999,1.9585806000002322,,,13,001,2024-06-19_08h04.18.089,robot_nback_sign,2022.2.5,59.93382107474965,
R_Base_Y_Back,False,2,robot,1,False,False,robot_stimuli\R_Base_Y_Back.mp4,13,,,,,,,,,0,58,58,58,,,,,,,,,,,,,642.1412932999999,643.2272504,,,,,,,646.8762807,646.8762807,646.8762807,646.8762807,646.8762807,646.8762807,646.8762807,646.8762807,None,None,None,,,,,,,,,,,642.1412932999999,642.1412932999999,None,,643.2272504,643.2272504,c,642.1412932999999,642.1412932999999,3.4790664000001925,,,13,001,2024-06-19_08h04.18.089,robot_nback_sign,2022.2.5,59.93382107474965,
R_Arm_X_Back,False,2,robot,1,False,False,robot_stimuli\R_Arm_X_Back.mp4,13,,,,,,,,,0,59,59,59,,,,,,,,,,,,,646.8762807,647.9639549999999,,,,,,,651.6109409000001,651.6109409000001,651.6109409000001,651.6109409000001,651.6109409000001,651.6109409000001,651.6109409000001,651.6109409000001,None,None,None,,,,,,,,,,,646.8762807,646.8762807,None,,647.9639549999999,647.9639549999999,n,646.8762807,646.8762807,1.8130720999999994,,,13,001,2024-06-19_08h04.18.089,robot_nback_sign,2022.2.5,59.93382107474965,
R_Base_Y_Back,True,2,robot,1,False,False,robot_stimuli\R_Base_Y_Back.mp4,13,,,,,,,,,0,60,60,60,,,,,,,,,,,,,651.6109409000001,652.6908332999999,,,,,,,656.3281462,656.3281462,656.3281462,656.3281462,656.3281462,656.3281462,656.3281462,656.3281462,None,None,None,,,,,,,,,,,651.6109409000001,651.6109409000001,None,,652.6908332999999,652.6908332999999,c,651.6109409000001,651.6109409000001,1.7748942999999144,,,13,001,2024-06-19_08h04.18.089,robot_nback_sign,2022.2.5,59.93382107474965,
R_Arm_Z_Back,False,2,robot,1,False,False,robot_stimuli\R_Arm_Z_Back.mp4,13,,,,,,,,,0,61,61,61,,,,,,,,,,,,,656.3281462,657.4103382000001,,,,,,,661.0574313,661.0574313,661.0574313,661.0574313,661.0574313,661.0574313,661.0574313,661.0574313,None,None,None,,,,,,,,,,,656.3281462,656.3281462,None,,657.4103382000001,657.4103382000001,c,656.3281462,656.3281462,2.543141900000137,,,13,001,2024-06-19_08h04.18.089,robot_nback_sign,2022.2.5,59.93382107474965,
R_Head_Z_Back,False,2,robot,1,False,False,robot_stimuli\R_Head_Z_Back.mp4,13,,,,,,,,,0,62,62,62,,,,,,,,,,,,,661.0574313,662.1456355999999,,,,,,,665.7934321,665.7934321,665.7934321,665.7934321,665.7934321,665.7934321,665.7934321,665.7934321,None,None,None,,,,,,,,,,,661.0574313,661.0574313,None,,662.1456355999999,662.1456355999999,n,661.0574313,661.0574313,1.4713905000000977,,,13,001,2024-06-19_08h04.18.089,robot_nback_sign,2022.2.5,59.93382107474965,
L_Base_X_Back,False,2,robot,1,False,False,robot_stimuli\L_Base_X_Back.mp4,13,,,,,,,,,0,63,63,63,,,,,,,,,,,,,665.7934321,666.8790888999999,,,,,,,670.4960461000001,670.4960461000001,670.4960461000001,670.4960461000001,670.4960461000001,670.4960461000001,670.4960461000001,670.4960461000001,None,None,None,,,,,,,,,,,665.7934321,665.7934321,None,,666.8790888999999,666.8790888999999,n,665.7934321,665.7934321,2.3312861000001703,,,13,001,2024-06-19_08h04.18.089,robot_nback_sign,2022.2.5,59.93382107474965,
L_Arm_X_Back,False,2,robot,1,False,False,robot_stimuli\L_Arm_X_Back.mp4,13,,,,,,,,,0,64,64,64,,,,,,,,,,,,,670.4960461000001,671.5727881999999,,,,,,,675.2110138999999,675.2110138999999,675.2110138999999,675.2110138999999,675.2110138999999,675.2110138999999,675.2110138999999,675.2110138999999,None,None,None,,,,,,,,,,,670.4960461000001,670.4960461000001,None,,671.5727881999999,671.5727881999999,n,670.4960461000001,670.4960461000001,1.3650069000000258,,,13,001,2024-06-19_08h04.18.089,robot_nback_sign,2022.2.5,59.93382107474965,
L_Base_X_Back,True,2,robot,1,False,False,robot_stimuli\L_Base_X_Back.mp4,13,,,,,,,,,0,65,65,65,,,,,,,,,,,,,675.2110138999999,676.2961416,,,,,,,679.9140365999999,679.9140365999999,679.9140365999999,679.9140365999999,679.9140365999999,679.9140365999999,679.9140365999999,679.9140365999999,None,None,None,,,,,,,,,,,675.2110138999999,675.2110138999999,None,,676.2961416,676.2961416,c,675.2110138999999,675.2110138999999,1.2499848000002203,,,13,001,2024-06-19_08h04.18.089,robot_nback_sign,2022.2.5,59.93382107474965,
L_Base_Z_For,False,2,robot,1,False,False,robot_stimuli\L_Base_Z_For.mp4,13,,,,,,,,,0,66,66,66,,,,,,,,,,,,,679.9140365999999,680.9928932999999,,,,,,,684.6402062,684.6402062,684.6402062,684.6402062,684.6402062,684.6402062,684.6402062,684.6402062,None,None,None,,,,,,,,,,,679.9140365999999,679.9140365999999,None,,680.9928932999999,680.9928932999999,n,679.9140365999999,679.9140365999999,1.2250171000000591,,,13,001,2024-06-19_08h04.18.089,robot_nback_sign,2022.2.5,59.93382107474965,
L_Base_Z_For,False,2,robot,1,False,False,robot_stimuli\L_Base_Z_For.mp4,13,,,,,,,,,0,67,67,67,,,,,,,,,,,,,684.6402062,685.7212368,,,,,,,689.3572116999999,689.3572116999999,689.3572116999999,689.3572116999999,689.3572116999999,689.3572116999999,689.3572116999999,689.3572116999999,None,None,None,,,,,,,,,,,684.6402062,684.6402062,None,,685.7212368,685.7212368,c,684.6402062,684.6402062,1.3202136000002156,,,13,001,2024-06-19_08h04.18.089,robot_nback_sign,2022.2.5,59.93382107474965,
R_Torso_Y_For,False,2,robot,1,False,False,robot_stimuli\R_Torso_Y_For.mp4,13,,,,,,,,,0,68,68,68,,,,,,,,,,,,,689.3572116999999,690.4462263999999,,,,,,,694.0953259999999,694.0953259999999,694.0953259999999,694.0953259999999,694.0953259999999,694.0953259999999,694.0953259999999,694.0953259999999,None,None,None,,,,,,,,,,,689.3572116999999,689.3572116999999,None,,690.4462263999999,690.4462263999999,n,689.3572116999999,689.3572116999999,1.7394145000000663,,,13,001,2024-06-19_08h04.18.089,robot_nback_sign,2022.2.5,59.93382107474965,
L_Torso_X_For,False,2,robot,1,False,False,robot_stimuli\L_Torso_X_For.mp4,13,,,,,,,,,0,69,69,69,,,,,,,,,,,,,694.0953259999999,695.1734099999999,,,,,,,698.8101763,698.8101763,698.8101763,698.8101763,698.8101763,698.8101763,698.8101763,698.8101763,None,None,None,,,,,,,,,,,694.0953259999999,694.0953259999999,None,,695.1734099999999,695.1734099999999,c,694.0953259999999,694.0953259999999,2.2924895000001015,,,13,001,2024-06-19_08h04.18.089,robot_nback_sign,2022.2.5,59.93382107474965,
R_Head_Z_Back,False,2,robot,1,False,False,robot_stimuli\R_Head_Z_Back.mp4,13,,,,,,,,,0,70,70,70,,,,,,,,,,,,,698.8101763,699.8907173,,,,,,,703.5285824,703.5285824,703.5285824,703.5285824,703.5285824,703.5285824,703.5285824,703.5285824,None,None,None,,,,,,,,,,,698.8101763,698.8101763,None,,699.8907173,699.8907173,n,698.8101763,698.8101763,1.4222522000000026,,,13,001,2024-06-19_08h04.18.089,robot_nback_sign,2022.2.5,59.93382107474965,
L_Head_Z_Back,False,2,robot,1,False,False,robot_stimuli\L_Head_Z_Back.mp4,13,,,,,,,,,0,71,71,71,,,,,,,,,,,,,703.5285824,704.6068894999999,,,,,,,708.2445728999999,708.2445728999999,708.2445728999999,708.2445728999999,708.2445728999999,708.2445728999999,708.2445728999999,708.2445728999999,None,None,None,,,,,,,,,,,703.5285824,703.5285824,None,,704.6068894999999,704.6068894999999,n,703.5285824,703.5285824,1.2430830000000697,,,13,001,2024-06-19_08h04.18.089,robot_nback_sign,2022.2.5,59.93382107474965,
R_Head_Z_For,False,2,robot,1,False,False,robot_stimuli\R_Head_Z_For.mp4,13,,,,,,,,,0,72,72,72,,,,,,,,,,,,,708.2445728999999,709.3255787999999,,,,,,,712.9731526999999,712.9731526999999,712.9731526999999,712.9731526999999,712.9731526999999,712.9731526999999,712.9731526999999,712.9731526999999,None,None,None,,,,,,,,,,,708.2445728999999,708.2445728999999,None,,709.3255787999999,709.3255787999999,c,708.2445728999999,708.2445728999999,1.4593466000001172,,,13,001,2024-06-19_08h04.18.089,robot_nback_sign,2022.2.5,59.93382107474965,
L_Base_Z_For,False,2,robot,1,False,False,robot_stimuli\L_Base_Z_For.mp4,13,,,,,,,,,0,73,73,73,,,,,,,,,,,,,712.9731526999999,714.0601167,,,,,,,717.7151056,717.7151056,717.7151056,717.7151056,717.7151056,717.7151056,717.7151056,717.7151056,None,None,None,,,,,,,,,,,712.9731526999999,712.9731526999999,None,,714.0601167,714.0601167,n,712.9731526999999,712.9731526999999,1.6695204000000103,,,13,001,2024-06-19_08h04.18.089,robot_nback_sign,2022.2.5,59.93382107474965,
R_Head_Z_For,True,2,robot,1,False,False,robot_stimuli\R_Head_Z_For.mp4,13,,,,,,,,,0,74,74,74,,,,,,,,,,,,,717.7151056,,,,,,,,722.4602482,722.4602482,722.4602482,722.4602482,722.4602482,722.4602482,722.4602482,722.4602482,None,None,None,,,,,,,,,,,717.7151056,717.7151056,None,,718.821682,718.821682,c,717.7151056,717.7151056,1.4115752000000157,,,13,001,2024-06-19_08h04.18.089,robot_nback_sign,2022.2.5,59.93382107474965,
R_Head_X_Back,False,2,robot,1,False,False,robot_stimuli\R_Head_X_Back.mp4,13,,,,,,,,,0,75,75,75,,,,,,,,,,,,,722.4602482,723.5409073000001,,,,,,,727.1825426,727.1825426,727.1825426,727.1825426,727.1825426,727.1825426,727.1825426,727.1825426,None,None,None,,,,,,,,,,,722.4602482,722.4602482,None,,723.5409073000001,723.5409073000001,n,722.4602482,722.4602482,1.156809800000019,,,13,001,2024-06-19_08h04.18.089,robot_nback_sign,2022.2.5,59.93382107474965,
L_Head_Y_For,False,2,robot,1,False,False,robot_stimuli\L_Head_Y_For.mp4,13,,,,,,,,,0,76,76,76,,,,,,,,,,,,,727.1825426,,,,,,,,731.9266364999999,731.9266364999999,731.9266364999999,731.9266364999999,731.9266364999999,731.9266364999999,731.9266364999999,731.9266364999999,None,None,None,,,,,,,,,,,727.1825426,727.1825426,None,,728.2881835999999,728.2881835999999,n,727.1825426,727.1825426,1.27394060000006,,,13,001,2024-06-19_08h04.18.089,robot_nback_sign,2022.2.5,59.93382107474965,
L_Arm_Y_Back,False,2,robot,1,False,False,robot_stimuli\L_Arm_Y_Back.mp4,13,,,,,,,,,0,77,77,77,,,,,,,,,,,,,731.9266364999999,733.0129433,,,,,,,736.6651006,736.6651006,736.6651006,736.6651006,736.6651006,736.6651006,736.6651006,736.6651006,None,None,None,,,,,,,,,,,731.9266364999999,731.9266364999999,None,,733.0129433,733.0129433,n,731.9266364999999,731.9266364999999,1.069495599999982,,,13,001,2024-06-19_08h04.18.089,robot_nback_sign,2022.2.5,59.93382107474965,
R_Head_X_Back,False,2,robot,1,False,False,robot_stimuli\R_Head_X_Back.mp4,13,,,,,,,,,0,78,78,78,,,,,,,,,,,,,736.6651006,,,,,,,,741.4108305,741.4108305,741.4108305,741.4108305,741.4108305,741.4108305,741.4108305,741.4108305,None,None,None,,,,,,,,,,,736.6651006,736.6651006,None,,737.7612093999999,737.7612093999999,n,736.6651006,736.6651006,1.065076900000122,,,13,001,2024-06-19_08h04.18.089,robot_nback_sign,2022.2.5,59.93382107474965,
L_Arm_Y_Back,True,2,robot,1,False,False,robot_stimuli\L_Arm_Y_Back.mp4,13,,,,,,,,,0,79,79,79,,,,,,,,,,,,,741.4108305,742.4906598,,,,,,,746.1270571,746.1270571,746.1270571,746.1270571,746.1270571,746.1270571,746.1270571,746.1270571,None,None,None,,,,,,,,,,,741.4108305,741.4108305,None,,742.4906598,742.4906598,c,741.4108305,741.4108305,1.5508084000000508,,,13,001,2024-06-19_08h04.18.089,robot_nback_sign,2022.2.5,59.93382107474965,
R_Head_Y_Back,False,2,robot,1,False,False,robot_stimuli\R_Head_Y_Back.mp4,13,,,,,,,,,0,80,80,80,,,,,,,,,,,,,746.1270571,747.2093173999999,,,,,,,750.8570898999999,750.8570898999999,750.8570898999999,750.8570898999999,750.8570898999999,750.8570898999999,750.8570898999999,750.8570898999999,None,None,None,,,,,,,,,,,746.1270571,746.1270571,None,,747.2093173999999,747.2093173999999,n,746.1270571,746.1270571,2.3037413000001834,,,13,001,2024-06-19_08h04.18.089,robot_nback_sign,2022.2.5,59.93382107474965,
L_Arm_Y_Back,True,2,robot,1,False,False,robot_stimuli\L_Arm_Y_Back.mp4,13,,,,,,,,,0,81,81,81,,,,,,,,,,,,,750.8570898999999,751.9402952999999,,,,,,,755.5808546999999,755.5808546999999,755.5808546999999,755.5808546999999,755.5808546999999,755.5808546999999,755.5808546999999,755.5808546999999,None,None,None,,,,,,,,,,,750.8570898999999,750.8570898999999,None,,751.9402952999999,751.9402952999999,c,750.8570898999999,750.8570898999999,1.1094003999999131,,,13,001,2024-06-19_08h04.18.089,robot_nback_sign,2022.2.5,59.93382107474965,
R_Arm_Y_Back,False,2,robot,1,False,False,robot_stimuli\R_Arm_Y_Back.mp4,13,,,,,,,,,0,82,82,82,,,,,,,,,,,,,755.5808546999999,756.6567863999999,,,,,,,760.2952745,760.2952745,760.2952745,760.2952745,760.2952745,760.2952745,760.2952745,760.2952745,None,None,None,,,,,,,,,,,755.5808546999999,755.5808546999999,None,,756.6567863999999,756.6567863999999,n,755.5808546999999,755.5808546999999,1.7366641999999501,,,13,001,2024-06-19_08h04.18.089,robot_nback_sign,2022.2.5,59.93382107474965,
L_Torso_X_For,False,2,robot,1,False,False,robot_stimuli\L_Torso_X_For.mp4,13,,,,,,,,,0,83,83,83,,,,,,,,,,,,,760.2952745,761.3759799,,,,,,,765.0257836999999,765.0257836999999,765.0257836999999,765.0257836999999,765.0257836999999,765.0257836999999,765.0257836999999,765.0257836999999,None,None,None,,,,,,,,,,,760.2952745,760.2952745,None,,761.3759799,761.3759799,n,760.2952745,760.2952745,1.7374070000000756,,,13,001,2024-06-19_08h04.18.089,robot_nback_sign,2022.2.5,59.93382107474965,
R_Base_X_For,False,2,robot,1,False,False,robot_stimuli\R_Base_X_For.mp4,13,,,,,,,,,0,84,84,84,,,,,,,,,,,,,765.0257836999999,766.1127084,,,,,,,769.6602895999999,769.6602895999999,769.6602895999999,769.6602895999999,769.6602895999999,769.6602895999999,769.6602895999999,769.6602895999999,None,None,None,,,,,,,,,,,765.0257836999999,765.0257836999999,None,,766.1127084,766.1127084,n,765.0257836999999,765.0257836999999,2.2811053000000356,,,13,001,2024-06-19_08h04.18.089,robot_nback_sign,2022.2.5,59.93382107474965,
L_Torso_Z_For,False,2,robot,1,False,False,robot_stimuli\L_Torso_Z_For.mp4,13,,,,,,,,,0,85,85,85,,,,,,,,,,,,,769.6602895999999,770.7440503999999,,,,,,,774.3921277,774.3921277,774.3921277,774.3921277,774.3921277,774.3921277,774.3921277,774.3921277,None,None,None,,,,,,,,,,,769.6602895999999,769.6602895999999,None,,770.7440503999999,770.7440503999999,c,769.6602895999999,769.6602895999999,2.0734414000000925,,,13,001,2024-06-19_08h04.18.089,robot_nback_sign,2022.2.5,59.93382107474965,
R_Base_X_For,True,2,robot,1,False,False,robot_stimuli\R_Base_X_For.mp4,13,,,,,,,,,0,86,86,86,,,,,,,,,,,,,774.3921277,775.474831,,,,,,,779.0124068999999,779.0124068999999,779.0124068999999,779.0124068999999,779.0124068999999,779.0124068999999,779.0124068999999,779.0124068999999,None,None,None,,,,,,,,,,,774.3921277,774.3921277,None,,775.474831,775.474831,c,774.3921277,774.3921277,1.3346583000002283,,,13,001,2024-06-19_08h04.18.089,robot_nback_sign,2022.2.5,59.93382107474965,
R_Arm_Z_For,False,2,robot,1,False,False,robot_stimuli\R_Arm_Z_For.mp4,13,,,,,,,,,0,87,87,87,,,,,,,,,,,,,779.0124068999999,780.0967243999999,,,,,,,783.7462912999999,783.7462912999999,783.7462912999999,783.7462912999999,783.7462912999999,783.7462912999999,783.7462912999999,783.7462912999999,None,None,None,,,,,,,,,,,779.0124068999999,779.0124068999999,None,,780.0967243999999,780.0967243999999,n,779.0124068999999,779.0124068999999,1.8245127000000139,,,13,001,2024-06-19_08h04.18.089,robot_nback_sign,2022.2.5,59.93382107474965,
R_Base_Y_Back,False,2,robot,1,False,False,robot_stimuli\R_Base_Y_Back.mp4,13,,,,,,,,,0,88,88,88,,,,,,,,,,,,,783.7462912999999,784.8243488999999,,,,,,,788.4613523999999,788.4613523999999,788.4613523999999,788.4613523999999,788.4613523999999,788.4613523999999,788.4613523999999,788.4613523999999,None,None,None,,,,,,,,,,,783.7462912999999,783.7462912999999,None,,784.8243488999999,784.8243488999999,n,783.7462912999999,783.7462912999999,2.392841100000169,,,13,001,2024-06-19_08h04.18.089,robot_nback_sign,2022.2.5,59.93382107474965,
R_Arm_Y_For,False,2,robot,1,False,False,robot_stimuli\R_Arm_Y_For.mp4,13,,,,,,,,,0,89,89,89,,,,,,,,,,,,,788.4613523999999,789.5467116,,,,,,,793.0621699000001,793.0621699000001,793.0621699000001,793.0621699000001,793.0621699000001,793.0621699000001,793.0621699000001,793.0621699000001,None,None,None,,,,,,,,,,,788.4613523999999,788.4613523999999,None,,789.5467116,789.5467116,c,788.4613523999999,788.4613523999999,1.1823715000000448,,,13,001,2024-06-19_08h04.18.089,robot_nback_sign,2022.2.5,59.93382107474965,
R_Base_Y_Back,True,2,robot,1,False,False,robot_stimuli\R_Base_Y_Back.mp4,13,,,,,,,,,0,90,90,90,,,,,,,,,,,,,793.0621699000001,794.1417486999999,,,,,,,797.7807920999999,797.7807920999999,797.7807920999999,797.7807920999999,797.7807920999999,797.7807920999999,797.7807920999999,797.7807920999999,None,None,None,,,,,,,,,,,793.0621699000001,793.0621699000001,None,,794.1417486999999,794.1417486999999,c,793.0621699000001,793.0621699000001,1.3158501999998862,,,13,001,2024-06-19_08h04.18.089,robot_nback_sign,2022.2.5,59.93382107474965,
L_Head_Z_For,False,2,robot,1,False,False,robot_stimuli\L_Head_Z_For.mp4,13,,,,,,,,,0,91,91,91,,,,,,,,,,,,,797.7807920999999,798.8572208999999,,,,,,,802.4955327,802.4955327,802.4955327,802.4955327,802.4955327,802.4955327,802.4955327,802.4955327,None,None,None,,,,,,,,,,,797.7807920999999,797.7807920999999,None,,798.8572208999999,798.8572208999999,n,797.7807920999999,797.7807920999999,1.4008824000000004,,,13,001,2024-06-19_08h04.18.089,robot_nback_sign,2022.2.5,59.93382107474965,
R_Base_Y_Back,True,2,robot,1,False,False,robot_stimuli\R_Base_Y_Back.mp4,13,,,,,,,,,0,92,92,92,,,,,,,,,,,,,802.4955327,803.5785057999999,,,,,,,807.2268485,807.2268485,807.2268485,807.2268485,807.2268485,807.2268485,807.2268485,807.2268485,None,None,None,,,,,,,,,,,802.4955327,802.4955327,None,,803.5785057999999,803.5785057999999,n,802.4955327,802.4955327,2.3432560000001104,,,13,001,2024-06-19_08h04.18.089,robot_nback_sign,2022.2.5,59.93382107474965,
L_Head_Z_For,True,2,robot,1,False,False,robot_stimuli\L_Head_Z_For.mp4,13,,,,,,,,,0,93,93,93,,,,,,,,,,,,,807.2268485,808.30727,,,,,,,811.9422732,811.9422732,811.9422732,811.9422732,811.9422732,811.9422732,811.9422732,811.9422732,None,None,None,,,,,,,,,,,807.2268485,807.2268485,None,,808.30727,808.30727,c,807.2268485,807.2268485,1.3183510000001206,,,13,001,2024-06-19_08h04.18.089,robot_nback_sign,2022.2.5,59.93382107474965,
R_Arm_X_For,False,2,robot,1,False,False,robot_stimuli\R_Arm_X_For.mp4,13,,,,,,,,,0,94,94,94,,,,,,,,,,,,,811.9422732,813.0256136,,,,,,,816.6642832,816.6642832,816.6642832,816.6642832,816.6642832,816.6642832,816.6642832,816.6642832,None,None,None,,,,,,,,,,,811.9422732,811.9422732,None,,813.0256136,813.0256136,n,811.9422732,811.9422732,2.752057200000081,,,13,001,2024-06-19_08h04.18.089,robot_nback_sign,2022.2.5,59.93382107474965,
L_Base_Z_Back,False,2,robot,1,False,False,robot_stimuli\L_Base_Z_Back.mp4,13,,,,,,,,,0,95,95,95,,,,,,,,,,,,,816.6642832,817.7454628999999,,,,,,,821.3920418,821.3920418,821.3920418,821.3920418,821.3920418,821.3920418,821.3920418,821.3920418,None,None,None,,,,,,,,,,,816.6642832,816.6642832,None,,817.7454628999999,817.7454628999999,n,816.6642832,816.6642832,1.3284226000000672,,,13,001,2024-06-19_08h04.18.089,robot_nback_sign,2022.2.5,59.93382107474965,
R_Base_X_Back,False,2,robot,1,False,False,robot_stimuli\R_Base_X_Back.mp4,13,,,,,,,,,0,96,96,96,,,,,,,,,,,,,821.3920418,822.4754538,,,,,,,826.1236415999999,826.1236415999999,826.1236415999999,826.1236415999999,826.1236415999999,826.1236415999999,826.1236415999999,826.1236415999999,None,None,None,,,,,,,,,,,821.3920418,821.3920418,None,,822.4754538,822.4754538,n,821.3920418,821.3920418,1.1416532999999163,,,13,001,2024-06-19_08h04.18.089,robot_nback_sign,2022.2.5,59.93382107474965,
R_Head_Z_Back,False,2,robot,1,False,False,robot_stimuli\R_Head_Z_Back.mp4,13,,,,,,,,,0,97,97,97,,,,,,,,,,,,,826.1236415999999,827.2078237000001,,,,,,,830.8462617999999,830.8462617999999,830.8462617999999,830.8462617999999,830.8462617999999,830.8462617999999,830.8462617999999,830.8462617999999,None,None,None,,,,,,,,,,,826.1236415999999,826.1236415999999,None,,827.2078237000001,827.2078237000001,n,826.1236415999999,826.1236415999999,1.1292897000000721,,,13,001,2024-06-19_08h04.18.089,robot_nback_sign,2022.2.5,59.93382107474965,
R_Head_Y_For,False,2,robot,1,False,False,robot_stimuli\R_Head_Y_For.mp4,13,,,,,,,,,0,98,98,98,,,,,,,,,,,,,830.8462617999999,831.9242184,,,,,,,835.5612882999999,835.5612882999999,835.5612882999999,835.5612882999999,835.5612882999999,835.5612882999999,835.5612882999999,835.5612882999999,None,None,None,,,,,,,,,,,830.8462617999999,830.8462617999999,None,,831.9242184,831.9242184,n,830.8462617999999,830.8462617999999,0.9887948000000506,,,13,001,2024-06-19_08h04.18.089,robot_nback_sign,2022.2.5,59.93382107474965,
L_Torso_Y_For,False,2,robot,1,False,True,robot_stimuli\L_Torso_Y_For.mp4,13,,,,,,,,,0,99,99,99,,,,,,,,,,,,,835.5612882999999,836.6462371,,,,,,,840.3256465,845.4629269,840.3256465,845.4629269,840.3256465,845.4629269,840.3256465,845.4629269,71.04938271604938,3.4134414000000106,space,,,,5.091526000000158,,,,,,,835.5612882999999,835.5612882999999,None,,836.6462371,836.6462371,n,835.5612882999999,835.5612882999999,1.9314354000000549,,,13,001,2024-06-19_08h04.18.089,robot_nback_sign,2022.2.5,59.93382107474965,
R_Head_Z_Back,False,3,robot,1,True,False,robot_stimuli\R_Head_Z_Back.mp4,13,,,,,,,,,0,100,100,100,,,,,,,,,,,,,854.7302602,855.8103323,,,,,,,859.4641348,859.4641348,859.4641348,859.4641348,859.4641348,859.4641348,859.4641348,859.4641348,None,None,None,,,,,,,,,,,845.4629269,845.4629269,space,9.250806399999874,855.8103323,855.8103323,None,,,,,,13,001,2024-06-19_08h04.18.089,robot_nback_sign,2022.2.5,59.93382107474965,
R_Head_Z_Back,False,3,robot,1,False,False,robot_stimuli\R_Head_Z_Back.mp4,13,,,,,,,,,0,101,101,101,,,,,,,,,,,,,859.4641348,860.5523481999999,,,,,,,864.1968892,864.1968892,864.1968892,864.1968892,864.1968892,864.1968892,864.1968892,864.1968892,None,None,None,,,,,,,,,,,859.4641348,859.4641348,None,,860.5523481999999,860.5523481999999,n,859.4641348,859.4641348,1.5943174999999883,,,13,001,2024-06-19_08h04.18.089,robot_nback_sign,2022.2.5,59.93382107474965,
R_Torso_Y_For,False,3,robot,1,False,False,robot_stimuli\R_Torso_Y_For.mp4,13,,,,,,,,,0,102,102,102,,,,,,,,,,,,,864.1968892,865.2745305999999,,,,,,,868.9129266,868.9129266,868.9129266,868.9129266,868.9129266,868.9129266,868.9129266,868.9129266,None,None,None,,,,,,,,,,,864.1968892,864.1968892,None,,865.2745305999999,865.2745305999999,n,864.1968892,864.1968892,3.215261999999939,,,13,001,2024-06-19_08h04.18.089,robot_nback_sign,2022.2.5,59.93382107474965,
R_Head_Z_Back,True,3,robot,1,False,False,robot_stimuli\R_Head_Z_Back.mp4,13,,,,,,,,,0,103,103,103,,,,,,,,,,,,,868.9129266,869.9904025999999,,,,,,,873.6218951999999,873.6218951999999,873.6218951999999,873.6218951999999,873.6218951999999,873.6218951999999,873.6218951999999,873.6218951999999,None,None,None,,,,,,,,,,,868.9129266,868.9129266,None,,869.9904025999999,869.9904025999999,c,868.9129266,868.9129266,1.2265879999999925,,,13,001,2024-06-19_08h04.18.089,robot_nback_sign,2022.2.5,59.93382107474965,
L_Base_X_Back,False,3,robot,1,False,False,robot_stimuli\L_Base_X_Back.mp4,13,,,,,,,,,0,104,104,104,,,,,,,,,,,,,873.6218951999999,874.7079913999999,,,,,,,878.3126144,878.3126144,878.3126144,878.3126144,878.3126144,878.3126144,878.3126144,878.3126144,None,None,None,,,,,,,,,,,873.6218951999999,873.6218951999999,None,,874.7079913999999,874.7079913999999,n,873.6218951999999,873.6218951999999,1.3173357999999098,,,13,001,2024-06-19_08h04.18.089,robot_nback_sign,2022.2.5,59.93382107474965,
R_Torso_Z_Back,False,3,robot,1,False,False,robot_stimuli\R_Torso_Z_Back.mp4,13,,,,,,,,,0,105,105,105,,,,,,,,,,,,,878.3126144,879.3910523,,,,,,,883.0287682000001,883.0287682000001,883.0287682000001,883.0287682000001,883.0287682000001,883.0287682000001,883.0287682000001,883.0287682000001,None,None,None,,,,,,,,,,,878.3126144,878.3126144,None,,879.3910523,879.3910523,c,878.3126144,878.3126144,2.571265799999992,,,13,001,2024-06-19_08h04.18.089,robot_nback_sign,2022.2.5,59.93382107474965,
L_Torso_X_Back,False,3,robot,1,False,False,robot_stimuli\L_Torso_X_Back.mp4,13,,,,,,,,,0,106,106,106,,,,,,,,,,,,,883.0287682000001,884.114169,,,,,,,887.7580805999999,887.7580805999999,887.7580805999999,887.7580805999999,887.7580805999999,887.7580805999999,887.7580805999999,887.7580805999999,None,None,None,,,,,,,,,,,883.0287682000001,883.0287682000001,None,,884.114169,884.114169,n,883.0287682000001,883.0287682000001,2.9271307999999863,,,13,001,2024-06-19_08h04.18.089,robot_nback_sign,2022.2.5,59.93382107474965,
L_Base_Z_For,False,3,robot,1,False,False,robot_stimuli\L_Base_Z_For.mp4,13,,,,,,,,,0,107,107,107,,,,,,,,,,,,,887.7580805999999,888.8410905999999,,,,,,,892.4919302999999,892.4919302999999,892.4919302999999,892.4919302999999,892.4919302999999,892.4919302999999,892.4919302999999,892.4919302999999,None,None,None,,,,,,,,,,,887.7580805999999,887.7580805999999,None,,888.8410905999999,888.8410905999999,c,887.7580805999999,887.7580805999999,2.033435999999938,,,13,001,2024-06-19_08h04.18.089,robot_nback_sign,2022.2.5,59.93382107474965,
R_Torso_Y_Back,False,3,robot,1,False,False,robot_stimuli\R_Torso_Y_Back.mp4,13,,,,,,,,,0,108,108,108,,,,,,,,,,,,,892.4919302999999,893.5803558,,,,,,,897.2278415999999,897.2278415999999,897.2278415999999,897.2278415999999,897.2278415999999,897.2278415999999,897.2278415999999,897.2278415999999,None,None,None,,,,,,,,,,,892.4919302999999,892.4919302999999,None,,893.5803558,893.5803558,n,892.4919302999999,892.4919302999999,1.3486113999999816,,,13,001,2024-06-19_08h04.18.089,robot_nback_sign,2022.2.5,59.93382107474965,
R_Arm_Y_Back,False,3,robot,1,False,False,robot_stimuli\R_Arm_Y_Back.mp4,13,,,,,,,,,0,109,109,109,,,,,,,,,,,,,897.2278415999999,898.3133593999999,,,,,,,901.9601284999999,901.9601284999999,901.9601284999999,901.9601284999999,901.9601284999999,901.9601284999999,901.9601284999999,901.9601284999999,None,None,None,,,,,,,,,,,897.2278415999999,897.2278415999999,None,,898.3133593999999,898.3133593999999,n,897.2278415999999,897.2278415999999,1.4717917000000398,,,13,001,2024-06-19_08h04.18.089,robot_nback_sign,2022.2.5,59.93382107474965,
L_Base_Z_For,True,3,robot,1,False,False,robot_stimuli\L_Base_Z_For.mp4,13,,,,,,,,,0,110,110,110,,,,,,,,,,,,,901.9601284999999,903.0424532,,,,,,,906.6904198,906.6904198,906.6904198,906.6904198,906.6904198,906.6904198,906.6904198,906.6904198,None,None,None,,,,,,,,,,,901.9601284999999,901.9601284999999,None,,903.0424532,903.0424532,c,901.9601284999999,901.9601284999999,2.359012200000052,,,13,001,2024-06-19_08h04.18.089,robot_nback_sign,2022.2.5,59.93382107474965,
R_Head_Z_For,False,3,robot,1,False,False,robot_stimuli\R_Head_Z_For.mp4,13,,,,,,,,,0,111,111,111,,,,,,,,,,,,,906.6904198,907.7798699,,,,,,,911.4265923,911.4265923,911.4265923,911.4265923,911.4265923,911.4265923,911.4265923,911.4265923,None,None,None,,,,,,,,,,,906.6904198,906.6904198,None,,907.7798699,907.7798699,n,906.6904198,906.6904198,1.31799860000001,,,13,001,2024-06-19_08h04.18.089,robot_nback_sign,2022.2.5,59.93382107474965,
L_Arm_Z_Back,False,3,robot,1,False,False,robot_stimuli\L_Arm_Z_Back.mp4,13,,,,,,,,,0,112,112,112,,,,,,,,,,,,,911.4265923,912.5077346,,,,,,,916.1463160999999,916.1463160999999,916.1463160999999,916.1463160999999,916.1463160999999,916.1463160999999,916.1463160999999,916.1463160999999,None,None,None,,,,,,,,,,,911.4265923,911.4265923,None,,912.5077346,912.5077346,n,911.4265923,911.4265923,2.5412194999998974,,,13,001,2024-06-19_08h04.18.089,robot_nback_sign,2022.2.5,59.93382107474965,
L_Base_Y_For,False,3,robot,1,False,False,robot_stimuli\L_Base_Y_For.mp4,13,,,,,,,,,0,113,113,113,,,,,,,,,,,,,916.1463160999999,917.2324174,,,,,,,920.7801921,920.7801921,920.7801921,920.7801921,920.7801921,920.7801921,920.7801921,920.7801921,None,None,None,,,,,,,,,,,916.1463160999999,916.1463160999999,None,,917.2324174,917.2324174,n,916.1463160999999,916.1463160999999,2.8012568999999985,,,13,001,2024-06-19_08h04.18.089,robot_nback_sign,2022.2.5,59.93382107474965,
L_Head_Z_Back,False,3,robot,1,False,False,robot_stimuli\L_Head_Z_Back.mp4,13,,,,,,,,,0,114,114,114,,,,,,,,,,,,,920.7801921,921.8580119999999,,,,,,,925.4961103999999,925.4961103999999,925.4961103999999,925.4961103999999,925.4961103999999,925.4961103999999,925.4961103999999,925.4961103999999,None,None,None,,,,,,,,,,,920.7801921,920.7801921,None,,921.8580119999999,921.8580119999999,n,920.7801921,920.7801921,3.392003400000249,,,13,001,2024-06-19_08h04.18.089,robot_nback_sign,2022.2.5,59.93382107474965,
L_Head_X_Back,False,3,robot,1,False,False,robot_stimuli\L_Head_X_Back.mp4,13,,,,,,,,,0,115,115,115,,,,,,,,,,,,,925.4961103999999,926.5754093999999,,,,,,,930.2236759,930.2236759,930.2236759,930.2236759,930.2236759,930.2236759,930.2236759,930.2236759,None,None,None,,,,,,,,,,,925.4961103999999,925.4961103999999,None,,926.5754093999999,926.5754093999999,n,925.4961103999999,925.4961103999999,2.6256928000000244,,,13,001,2024-06-19_08h04.18.089,robot_nback_sign,2022.2.5,59.93382107474965,
L_Arm_X_For,False,3,robot,1,False,False,robot_stimuli\L_Arm_X_For.mp4,13,,,,,,,,,0,116,116,116,,,,,,,,,,,,,930.2236759,931.307953,,,,,,,934.9453252000001,934.9453252000001,934.9453252000001,934.9453252000001,934.9453252000001,934.9453252000001,934.9453252000001,934.9453252000001,None,None,None,,,,,,,,,,,930.2236759,930.2236759,None,,931.307953,931.307953,n,930.2236759,930.2236759,2.517579699999942,,,13,001,2024-06-19_08h04.18.089,robot_nback_sign,2022.2.5,59.93382107474965,
L_Head_Y_Back,False,3,robot,1,False,False,robot_stimuli\L_Head_Y_Back.mp4,13,,,,,,,,,0,117,117,117,,,,,,,,,,,,,934.9453252000001,936.0276223999999,,,,,,,939.6765264000001,939.6765264000001,939.6765264000001,939.6765264000001,939.6765264000001,939.6765264000001,939.6765264000001,939.6765264000001,None,None,None,,,,,,,,,,,934.9453252000001,934.9453252000001,None,,936.0276223999999,936.0276223999999,n,934.9453252000001,934.9453252000001,2.9172762000000603,,,13,001,2024-06-19_08h04.18.089,robot_nback_sign,2022.2.5,59.93382107474965,
R_Arm_X_For,False,3,robot,1,False,False,robot_stimuli\R_Arm_X_For.mp4,13,,,,,,,,,0,118,118,118,,,,,,,,,,,,,939.6765264000001,940.7631689,,,,,,,944.4109447000001,944.4109447000001,944.4109447000001,944.4109447000001,944.4109447000001,944.4109447000001,944.4109447000001,944.4109447000001,None,None,None,,,,,,,,,,,939.6765264000001,939.6765264000001,None,,940.7631689,940.7631689,n,939.6765264000001,939.6765264000001,3.214435000000094,,,13,001,2024-06-19_08h04.18.089,robot_nback_sign,2022.2.5,59.93382107474965,
L_Base_Z_Back,False,3,robot,1,False,False,robot_stimuli\L_Base_Z_Back.mp4,13,,,,,,,,,0,119,119,119,,,,,,,,,,,,,944.4109447000001,945.4958749,,,,,,,949.1452798,949.1452798,949.1452798,949.1452798,949.1452798,949.1452798,949.1452798,949.1452798,None,None,None,,,,,,,,,,,944.4109447000001,944.4109447000001,None,,945.4958749,945.4958749,c,944.4109447000001,944.4109447000001,2.281627999999955,,,13,001,2024-06-19_08h04.18.089,robot_nback_sign,2022.2.5,59.93382107474965,
L_Head_Z_Back,False,3,robot,1,False,False,robot_stimuli\L_Head_Z_Back.mp4,13,,,,,,,,,0,120,120,120,,,,,,,,,,,,,949.1452798,950.2290189,,,,,,,953.8753603999999,953.8753603999999,953.8753603999999,953.8753603999999,953.8753603999999,953.8753603999999,953.8753603999999,953.8753603999999,None,None,None,,,,,,,,,,,949.1452798,949.1452798,None,,950.2290189,950.2290189,c,949.1452798,949.1452798,2.0042303000000175,,,13,001,2024-06-19_08h04.18.089,robot_nback_sign,2022.2.5,59.93382107474965,
R_Arm_X_For,True,3,robot,1,False,False,robot_stimuli\R_Arm_X_For.mp4,13,,,,,,,,,0,121,121,121,,,,,,,,,,,,,953.8753603999999,954.9603278,,,,,,,958.6083564,958.6083564,958.6083564,958.6083564,958.6083564,958.6083564,958.6083564,958.6083564,None,None,None,,,,,,,,,,,953.8753603999999,953.8753603999999,None,,954.9603278,954.9603278,n,953.8753603999999,953.8753603999999,2.8252314999999726,,,13,001,2024-06-19_08h04.18.089,robot_nback_sign,2022.2.5,59.93382107474965,
R_Arm_Z_For,False,3,robot,1,False,False,robot_stimuli\R_Arm_Z_For.mp4,13,,,,,,,,,0,122,122,122,,,,,,,,,,,,,958.6083564,959.6960231,,,,,,,963.3439103000001,963.3439103000001,963.3439103000001,963.3439103000001,963.3439103000001,963.3439103000001,963.3439103000001,963.3439103000001,None,None,None,,,,,,,,,,,958.6083564,958.6083564,None,,959.6960231,959.6960231,n,958.6083564,958.6083564,3.0576952999999776,,,13,001,2024-06-19_08h04.18.089,robot_nback_sign,2022.2.5,59.93382107474965,
L_Arm_Z_Back,False,3,robot,1,False,False,robot_stimuli\L_Arm_Z_Back.mp4,13,,,,,,,,,0,123,123,123,,,,,,,,,,,,,963.3439103000001,964.4247662999999,,,,,,,968.0596734999999,968.0596734999999,968.0596734999999,968.0596734999999,968.0596734999999,968.0596734999999,968.0596734999999,968.0596734999999,None,None,None,,,,,,,,,,,963.3439103000001,963.3439103000001,None,,964.4247662999999,964.4247662999999,n,963.3439103000001,963.3439103000001,2.801022299999886,,,13,001,2024-06-19_08h04.18.089,robot_nback_sign,2022.2.5,59.93382107474965,
L_Torso_X_Back,False,3,robot,1,False,False,robot_stimuli\L_Torso_X_Back.mp4,13,,,,,,,,,0,124,124,124,,,,,,,,,,,,,968.0596734999999,969.1467376,,,,,,,972.7977326,972.7977326,972.7977326,972.7977326,972.7977326,972.7977326,972.7977326,972.7977326,None,None,None,,,,,,,,,,,968.0596734999999,968.0596734999999,None,,969.1467376,969.1467376,n,968.0596734999999,968.0596734999999,2.6067811000000347,,,13,001,2024-06-19_08h04.18.089,robot_nback_sign,2022.2.5,59.93382107474965,
L_Arm_X_For,False,3,robot,1,False,False,robot_stimuli\L_Arm_X_For.mp4,13,,,,,,,,,0,125,125,125,,,,,,,,,,,,,972.7977326,973.8937813999999,,,,,,,977.5424624,977.5424624,977.5424624,977.5424624,977.5424624,977.5424624,977.5424624,977.5424624,None,None,None,,,,,,,,,,,972.7977326,972.7977326,None,,973.8937813999999,973.8937813999999,c,972.7977326,972.7977326,1.3392699000000903,,,13,001,2024-06-19_08h04.18.089,robot_nback_sign,2022.2.5,59.93382107474965,
L_Arm_Z_Back,True,3,robot,1,False,False,robot_stimuli\L_Arm_Z_Back.mp4,13,,,,,,,,,0,126,126,126,,,,,,,,,,,,,977.5424624,978.6291893,,,,,,,982.2793930999999,982.2793930999999,982.2793930999999,982.2793930999999,982.2793930999999,982.2793930999999,982.2793930999999,982.2793930999999,None,None,None,,,,,,,,,,,977.5424624,977.5424624,None,,978.6291893,978.6291893,n,977.5424624,977.5424624,3.3252899000001435,,,13,001,2024-06-19_08h04.18.089,robot_nback_sign,2022.2.5,59.93382107474965,
L_Arm_Y_Back,False,3,robot,1,False,False,robot_stimuli\L_Arm_Y_Back.mp4,13,,,,,,,,,0,127,127,127,,,,,,,,,,,,,982.2793930999999,983.3573942,,,,,,,987.0024286,987.0024286,987.0024286,987.0024286,987.0024286,987.0024286,987.0024286,987.0024286,None,None,None,,,,,,,,,,,982.2793930999999,982.2793930999999,None,,983.3573942,983.3573942,n,982.2793930999999,982.2793930999999,2.643880999999965,,,13,001,2024-06-19_08h04.18.089,robot_nback_sign,2022.2.5,59.93382107474965,
L_Head_Y_For,False,3,robot,1,False,False,robot_stimuli\L_Head_Y_For.mp4,13,,,,,,,,,0,128,128,128,,,,,,,,,,,,,987.0024286,988.1027202999999,,,,,,,991.7425653,991.7425653,991.7425653,991.7425653,991.7425653,991.7425653,991.7425653,991.7425653,None,None,None,,,,,,,,,,,987.0024286,987.0024286,None,,988.1027202999999,988.1027202999999,n,987.0024286,987.0024286,1.6028685000001133,,,13,001,2024-06-19_08h04.18.089,robot_nback_sign,2022.2.5,59.93382107474965,
R_Torso_Z_For,False,3,robot,1,False,False,robot_stimuli\R_Torso_Z_For.mp4,13,,,,,,,,,0,129,129,129,,,,,,,,,,,,,991.7425653,992.8236744999999,,,,,,,996.4597018,996.4597018,996.4597018,996.4597018,996.4597018,996.4597018,996.4597018,996.4597018,None,None,None,,,,,,,,,,,991.7425653,991.7425653,None,,992.8236744999999,992.8236744999999,n,991.7425653,991.7425653,1.129836899999873,,,13,001,2024-06-19_08h04.18.089,robot_nback_sign,2022.2.5,59.93382107474965,
R_Torso_X_Back,False,3,robot,1,False,False,robot_stimuli\R_Torso_X_Back.mp4,13,,,,,,,,,0,130,130,130,,,,,,,,,,,,,996.4597018,997.5460639999999,,,,,,,1001.1948178,1001.1948178,1001.1948178,1001.1948178,1001.1948178,1001.1948178,1001.1948178,1001.1948178,None,None,None,,,,,,,,,,,996.4597018,996.4597018,None,,997.5460639999999,997.5460639999999,n,996.4597018,996.4597018,1.4476927000000614,,,13,001,2024-06-19_08h04.18.089,robot_nback_sign,2022.2.5,59.93382107474965,
R_Head_Y_For,False,3,robot,1,False,False,robot_stimuli\R_Head_Y_For.mp4,13,,,,,,,,,0,131,131,131,,,,,,,,,,,,,1001.1948178,1002.2789401999999,,,,,,,1005.9265819,1005.9265819,1005.9265819,1005.9265819,1005.9265819,1005.9265819,1005.9265819,1005.9265819,None,None,None,,,,,,,,,,,1001.1948178,1001.1948178,None,,1002.2789401999999,1002.2789401999999,n,1001.1948178,1001.1948178,1.4743235000000823,,,13,001,2024-06-19_08h04.18.089,robot_nback_sign,2022.2.5,59.93382107474965,
R_Torso_Z_For,True,3,robot,1,False,False,robot_stimuli\R_Torso_Z_For.mp4,13,,,,,,,,,0,132,132,132,,,,,,,,,,,,,1005.9265819,1007.0083735000001,,,,,,,1010.6556458999999,1010.6556458999999,1010.6556458999999,1010.6556458999999,1010.6556458999999,1010.6556458999999,1010.6556458999999,1010.6556458999999,None,None,None,,,,,,,,,,,1005.9265819,1005.9265819,None,,1007.0083735000001,1007.0083735000001,c,1005.9265819,1005.9265819,1.5286313999999948,,,13,001,2024-06-19_08h04.18.089,robot_nback_sign,2022.2.5,59.93382107474965,
R_Arm_Y_For,False,3,robot,1,False,False,robot_stimuli\R_Arm_Y_For.mp4,13,,,,,,,,,0,133,133,133,,,,,,,,,,,,,1010.6556458999999,1011.7475629999999,,,,,,,1015.2645442999999,1015.2645442999999,1015.2645442999999,1015.2645442999999,1015.2645442999999,1015.2645442999999,1015.2645442999999,1015.2645442999999,None,None,None,,,,,,,,,,,1010.6556458999999,1010.6556458999999,None,,1011.7475629999999,1011.7475629999999,n,1010.6556458999999,1010.6556458999999,1.2152462000001378,,,13,001,2024-06-19_08h04.18.089,robot_nback_sign,2022.2.5,59.93382107474965,
L_Base_Y_Back,False,3,robot,1,False,False,robot_stimuli\L_Base_Y_Back.mp4,13,,,,,,,,,0,134,134,134,,,,,,,,,,,,,1015.2645442999999,1016.3460943999999,,,,,,,1019.9285024999999,1019.9285024999999,1019.9285024999999,1019.9285024999999,1019.9285024999999,1019.9285024999999,1019.9285024999999,1019.9285024999999,None,None,None,,,,,,,,,,,1015.2645442999999,1015.2645442999999,None,,1016.3460943999999,1016.3460943999999,n,1015.2645442999999,1015.2645442999999,1.0559272999998939,,,13,001,2024-06-19_08h04.18.089,robot_nback_sign,2022.2.5,59.93382107474965,
L_Base_Z_Back,False,3,robot,1,False,False,robot_stimuli\L_Base_Z_Back.mp4,13,,,,,,,,,0,135,135,135,,,,,,,,,,,,,1019.9285024999999,1021.0070393999999,,,,,,,1024.6475331,1024.6475331,1024.6475331,1024.6475331,1024.6475331,1024.6475331,1024.6475331,1024.6475331,None,None,None,,,,,,,,,,,1019.9285024999999,1019.9285024999999,None,,1021.0070393999999,1021.0070393999999,n,1019.9285024999999,1019.9285024999999,1.1702874000000065,,,13,001,2024-06-19_08h04.18.089,robot_nback_sign,2022.2.5,59.93382107474965,
L_Arm_X_Back,False,3,robot,1,False,False,robot_stimuli\L_Arm_X_Back.mp4,13,,,,,,,,,0,136,136,136,,,,,,,,,,,,,1024.6475331,1025.7237234,,,,,,,1029.3625298,1029.3625298,1029.3625298,1029.3625298,1029.3625298,1029.3625298,1029.3625298,1029.3625298,None,None,None,,,,,,,,,,,1024.6475331,1024.6475331,None,,1025.7237234,1025.7237234,n,1024.6475331,1024.6475331,2.469951499999979,,,13,001,2024-06-19_08h04.18.089,robot_nback_sign,2022.2.5,59.93382107474965,
L_Base_Y_Back,True,3,robot,1,False,False,robot_stimuli\L_Base_Y_Back.mp4,13,,,,,,,,,0,137,137,137,,,,,,,,,,,,,1029.3625298,1030.444352,,,,,,,1034.0268925,1034.0268925,1034.0268925,1034.0268925,1034.0268925,1034.0268925,1034.0268925,1034.0268925,None,None,None,,,,,,,,,,,1029.3625298,1029.3625298,None,,1030.444352,1030.444352,c,1029.3625298,1029.3625298,1.5971876999999495,,,13,001,2024-06-19_08h04.18.089,robot_nback_sign,2022.2.5,59.93382107474965,
L_Base_Z_Back,True,3,robot,1,False,False,robot_stimuli\L_Base_Z_Back.mp4,13,,,,,,,,,0,138,138,138,,,,,,,,,,,,,1034.0268925,1035.1071909,,,,,,,1038.745828,1038.745828,1038.745828,1038.745828,1038.745828,1038.745828,1038.745828,1038.745828,None,None,None,,,,,,,,,,,1034.0268925,1034.0268925,None,,1035.1071909,1035.1071909,c,1034.0268925,1034.0268925,0.8300211999999192,,,13,001,2024-06-19_08h04.18.089,robot_nback_sign,2022.2.5,59.93382107474965,
R_Torso_Z_Back,False,3,robot,1,False,False,robot_stimuli\R_Torso_Z_Back.mp4,13,,,,,,,,,0,139,139,139,,,,,,,,,,,,,1038.745828,1039.8261461,,,,,,,1043.4746619999999,1043.4746619999999,1043.4746619999999,1043.4746619999999,1043.4746619999999,1043.4746619999999,1043.4746619999999,1043.4746619999999,None,None,None,,,,,,,,,,,1038.745828,1038.745828,None,,1039.8261461,1039.8261461,n,1038.745828,1038.745828,1.807614500000227,,,13,001,2024-06-19_08h04.18.089,robot_nback_sign,2022.2.5,59.93382107474965,
L_Head_X_For,False,3,robot,1,False,False,robot_stimuli\L_Head_X_For.mp4,13,,,,,,,,,0,140,140,140,,,,,,,,,,,,,1043.4746619999999,1044.5600164,,,,,,,1048.1396513,1048.1396513,1048.1396513,1048.1396513,1048.1396513,1048.1396513,1048.1396513,1048.1396513,None,None,None,,,,,,,,,,,1043.4746619999999,1043.4746619999999,None,,1044.5600164,1044.5600164,n,1043.4746619999999,1043.4746619999999,1.5145486999999775,,,13,001,2024-06-19_08h04.18.089,robot_nback_sign,2022.2.5,59.93382107474965,
R_Torso_Y_For,False,3,robot,1,False,False,robot_stimuli\R_Torso_Y_For.mp4,13,,,,,,,,,0,141,141,141,,,,,,,,,,,,,1048.1396513,1049.2290795,,,,,,,1052.8772406,1052.8772406,1052.8772406,1052.8772406,1052.8772406,1052.8772406,1052.8772406,1052.8772406,None,None,None,,,,,,,,,,,1048.1396513,1048.1396513,None,,1049.2290795,1049.2290795,n,1048.1396513,1048.1396513,2.500463300000092,,,13,001,2024-06-19_08h04.18.089,robot_nback_sign,2022.2.5,59.93382107474965,
R_Torso_Z_Back,True,3,robot,1,False,False,robot_stimuli\R_Torso_Z_Back.mp4,13,,,,,,,,,0,142,142,142,,,,,,,,,,,,,1052.8772406,1053.9646907,,,,,,,1057.604722,1057.604722,1057.604722,1057.604722,1057.604722,1057.604722,1057.604722,1057.604722,None,None,None,,,,,,,,,,,1052.8772406,1052.8772406,None,,1053.9646907,1053.9646907,c,1052.8772406,1052.8772406,2.9172576000000845,,,13,001,2024-06-19_08h04.18.089,robot_nback_sign,2022.2.5,59.93382107474965,
R_Base_Z_For,False,3,robot,1,False,False,robot_stimuli\R_Base_Z_For.mp4,13,,,,,,,,,0,143,143,143,,,,,,,,,,,,,1057.604722,1058.6974562,,,,,,,1062.3455988,1062.3455988,1062.3455988,1062.3455988,1062.3455988,1062.3455988,1062.3455988,1062.3455988,None,None,None,,,,,,,,,,,1057.604722,1057.604722,None,,1058.6974562,1058.6974562,c,1057.604722,1057.604722,1.74385970000003,,,13,001,2024-06-19_08h04.18.089,robot_nback_sign,2022.2.5,59.93382107474965,
R_Arm_Z_For,False,3,robot,1,False,False,robot_stimuli\R_Arm_Z_For.mp4,13,,,,,,,,,0,144,144,144,,,,,,,,,,,,,1062.3455988,1063.4247231,,,,,,,1067.0804372999999,1067.0804372999999,1067.0804372999999,1067.0804372999999,1067.0804372999999,1067.0804372999999,1067.0804372999999,1067.0804372999999,None,None,None,,,,,,,,,,,1062.3455988,1062.3455988,None,,1063.4247231,1063.4247231,n,1062.3455988,1062.3455988,1.2965911999999662,,,13,001,2024-06-19_08h04.18.089,robot_nback_sign,2022.2.5,59.93382107474965,
L_Head_Y_Back,False,3,robot,1,False,False,robot_stimuli\L_Head_Y_Back.mp4,13,,,,,,,,,0,145,145,145,,,,,,,,,,,,,1067.0804372999999,1068.1593069,,,,,,,1071.7924737,1071.7924737,1071.7924737,1071.7924737,1071.7924737,1071.7924737,1071.7924737,1071.7924737,None,None,None,,,,,,,,,,,1067.0804372999999,1067.0804372999999,None,,1068.1593069,1068.1593069,n,1067.0804372999999,1067.0804372999999,2.0500514000000294,,,13,001,2024-06-19_08h04.18.089,robot_nback_sign,2022.2.5,59.93382107474965,
R_Base_Z_For,True,3,robot,1,False,False,robot_stimuli\R_Base_Z_For.mp4,13,,,,,,,,,0,146,146,146,,,,,,,,,,,,,1071.7924737,1072.8752261,,,,,,,1076.5221179,1076.5221179,1076.5221179,1076.5221179,1076.5221179,1076.5221179,1076.5221179,1076.5221179,None,None,None,,,,,,,,,,,1071.7924737,1071.7924737,None,,1072.8752261,1072.8752261,c,1071.7924737,1071.7924737,1.4221334000001207,,,13,001,2024-06-19_08h04.18.089,robot_nback_sign,2022.2.5,59.93382107474965,
R_Arm_Z_Back,False,3,robot,1,False,False,robot_stimuli\R_Arm_Z_Back.mp4,13,,,,,,,,,0,147,147,147,,,,,,,,,,,,,1076.5221179,1077.6104661,,,,,,,1081.2580768999999,1081.2580768999999,1081.2580768999999,1081.2580768999999,1081.2580768999999,1081.2580768999999,1081.2580768999999,1081.2580768999999,None,None,None,,,,,,,,,,,1076.5221179,1076.5221179,None,,1077.6104661,1077.6104661,c,1076.5221179,1076.5221179,1.3265148000000409,,,13,001,2024-06-19_08h04.18.089,robot_nback_sign,2022.2.5,59.93382107474965,
L_Head_Y_Back,True,3,robot,1,False,False,robot_stimuli\L_Head_Y_Back.mp4,13,,,,,,,,,0,148,148,148,,,,,,,,,,,,,1081.2580768999999,1082.342067,,,,,,,1085.9789344,1085.9789344,1085.9789344,1085.9789344,1085.9789344,1085.9789344,1085.9789344,1085.9789344,None,None,None,,,,,,,,,,,1081.2580768999999,1081.2580768999999,None,,1082.342067,1082.342067,c,1081.2580768999999,1081.2580768999999,1.3629748000000745,,,13,001,2024-06-19_08h04.18.089,robot_nback_sign,2022.2.5,59.93382107474965,
R_Arm_Z_For,False,3,robot,1,False,True,robot_stimuli\R_Arm_Z_For.mp4,13,,,,,,,,,0,149,149,149,,,,,,,,,,,,,1085.9789344,1087.0644306,,,,,,,1090.7371982,1098.9594473,1090.7371982,1098.9594473,1090.7371982,1098.9594473,1090.7371982,1098.9594473,109.47530864197532,7.411564400000088,space,,,,8.15260770000009,,,,,,,1085.9789344,1085.9789344,None,,1087.0644306,1087.0644306,n,1085.9789344,1085.9789344,1.4415372999999363,,,13,001,2024-06-19_08h04.18.089,robot_nback_sign,2022.2.5,59.93382107474965,
D,False,3,letter,2,True,False,robot_stimuli\\filler.mp4,13,,,,,,,,,0,150,150,150,,,,,,,,,,,,,1116.6636377,1117.7256653,,,,,,,1119.7469942,1119.7469942,1119.7469942,1119.7469942,1119.7469942,1119.7469942,1119.7469942,1119.7469942,None,None,None,,,,,,,,,,,1098.9594473,1098.9594473,space,17.682356300000038,,1117.7256653,None,,,,1117.7256653,1119.7469942,13,001,2024-06-19_08h04.18.089,robot_nback_sign,2022.2.5,59.93382107474965,
M,False,3,letter,2,False,False,robot_stimuli\\filler.mp4,13,,,,,,,,,0,151,151,151,,,,,,,,,,,,,1119.7469942,1120.8066155,,,,,,,1122.8351568,1122.8351568,1122.8351568,1122.8351568,1122.8351568,1122.8351568,1122.8351568,1122.8351568,None,None,None,,,,,,,,,,,1119.7469942,1119.7469942,None,,,1120.8066155,n,1119.7469942,1119.7469942,0.5709318000001531,1120.8066155,1122.8351568,13,001,2024-06-19_08h04.18.089,robot_nback_sign,2022.2.5,59.93382107474965,
J,False,3,letter,2,False,False,robot_stimuli\\filler.mp4,13,,,,,,,,,0,152,152,152,,,,,,,,,,,,,1122.8351568,1123.9037203,,,,,,,1126.1271818,1126.1271818,1126.1271818,1126.1271818,1126.1271818,1126.1271818,1126.1271818,1126.1271818,None,None,None,,,,,,,,,,,1122.8351568,1122.8351568,None,,,1123.9037203,n,1122.8351568,1122.8351568,0.6814442000002146,1123.9037203,1126.1271818,13,001,2024-06-19_08h04.18.089,robot_nback_sign,2022.2.5,59.93382107474965,
K,False,3,letter,2,False,False,robot_stimuli\\filler.mp4,13,,,,,,,,,0,153,153,153,,,,,,,,,,,,,1126.1271818,1127.1902203,,,,,,,1129.2164303,1129.2164303,1129.2164303,1129.2164303,1129.2164303,1129.2164303,1129.2164303,1129.2164303,None,None,None,,,,,,,,,,,1126.1271818,1126.1271818,None,,,1127.1902203,n,1126.1271818,1126.1271818,0.49899770000024546,1127.1902203,1129.2164303,13,001,2024-06-19_08h04.18.089,robot_nback_sign,2022.2.5,59.93382107474965,
B,False,3,letter,2,False,False,robot_stimuli\\filler.mp4,13,,,,,,,,,0,154,154,154,,,,,,,,,,,,,1129.2164303,,,,,,,,1132.5063172999999,1132.5063172999999,1132.5063172999999,1132.5063172999999,1132.5063172999999,1132.5063172999999,1132.5063172999999,1132.5063172999999,None,None,None,,,,,,,,,,,1129.2164303,1129.2164303,None,,,1130.2873365,n,1129.2164303,1129.2164303,0.617929100000083,1130.2873365,1132.5063172999999,13,001,2024-06-19_08h04.18.089,robot_nback_sign,2022.2.5,59.93382107474965,
T,False,3,letter,2,False,False,robot_stimuli\\filler.mp4,13,,,,,,,,,0,155,155,155,,,,,,,,,,,,,1132.5063172999999,1133.567353,,,,,,,1135.5978369,1135.5978369,1135.5978369,1135.5978369,1135.5978369,1135.5978369,1135.5978369,1135.5978369,None,None,None,,,,,,,,,,,1132.5063172999999,1132.5063172999999,None,,,1133.567353,n,1132.5063172999999,1132.5063172999999,0.5225550000000112,1133.567353,1135.5978369,13,001,2024-06-19_08h04.18.089,robot_nback_sign,2022.2.5,59.93382107474965,
W,False,3,letter,2,False,False,robot_stimuli\\filler.mp4,13,,,,,,,,,0,156,156,156,,,,,,,,,,,,,1135.5978369,1136.6578998,,,,,,,1138.6815818999999,1138.6815818999999,1138.6815818999999,1138.6815818999999,1138.6815818999999,1138.6815818999999,1138.6815818999999,1138.6815818999999,None,None,None,,,,,,,,,,,1135.5978369,1135.5978369,None,,,1136.6578998,n,1135.5978369,1135.5978369,0.49539439999989554,1136.6578998,1138.6815818999999,13,001,2024-06-19_08h04.18.089,robot_nback_sign,2022.2.5,59.93382107474965,
D,False,3,letter,2,False,False,robot_stimuli\\filler.mp4,13,,,,,,,,,0,157,157,157,,,,,,,,,,,,,1138.6815818999999,,,,,,,,1141.7765777,1141.7765777,1141.7765777,1141.7765777,1141.7765777,1141.7765777,1141.7765777,1141.7765777,None,None,None,,,,,,,,,,,1138.6815818999999,1138.6815818999999,None,,,1139.7503192,n,1138.6815818999999,1138.6815818999999,0.9711105999999745,1139.7503192,1141.7765777,13,001,2024-06-19_08h04.18.089,robot_nback_sign,2022.2.5,59.93382107474965,
T,True,3,letter,2,False,False,robot_stimuli\\filler.mp4,13,,,,,,,,,0,158,158,158,,,,,,,,,,,,,1141.7765777,1142.8339487,,,,,,,1144.8644379,1144.8644379,1144.8644379,1144.8644379,1144.8644379,1144.8644379,1144.8644379,1144.8644379,None,None,None,,,,,,,,,,,1141.7765777,1141.7765777,None,,,1142.8339487,c,1141.7765777,1141.7765777,0.9599087999999938,1142.8339487,1144.8644379,13,001,2024-06-19_08h04.18.089,robot_nback_sign,2022.2.5,59.93382107474965,
H,False,3,letter,2,False,False,robot_stimuli\\filler.mp4,13,,,,,,,,,0,159,159,159,,,,,,,,,,,,,1144.8644379,1145.9173938,,,,,,,1147.9483897,1147.9483897,1147.9483897,1147.9483897,1147.9483897,1147.9483897,1147.9483897,1147.9483897,None,None,None,,,,,,,,,,,1144.8644379,1144.8644379,None,,,1145.9173938,n,1144.8644379,1144.8644379,0.6522173999999268,1145.9173938,1147.9483897,13,001,2024-06-19_08h04.18.089,robot_nback_sign,2022.2.5,59.93382107474965,
