sequence,odd_ones,parameter,choices,target,target_idx,condition,stimuli,block,is_block_beginning,is_block_ending,sequence_fnames,target_fname,subject,retraining.thisRepN,retraining.thisTrialN,retraining.thisN,retraining.thisIndex,training.thisRepN,training.thisTrialN,training.thisN,training.thisIndex,training_sequence_loop.thisRepN,training_sequence_loop.thisTrialN,training_sequence_loop.thisN,training_sequence_loop.thisIndex,trials.thisRepN,trials.thisTrialN,trials.thisN,trials.thisIndex,sequence_loop.thisRepN,sequence_loop.thisTrialN,sequence_loop.thisN,sequence_loop.thisIndex,langage_text.started,langage_key.started,langage_key.keys,langage_key.rt,intro_text.started,intro_key.started,intro_key.keys,intro_key.rt,training_intro_text.started,training_intro_key.started,training_intro_key.keys,training_intro_key.rt,polygon.started,cue_before_text.started,training_presentation_letter.started,training_presentation_letter.stopped,recall_key.started,recall_question.started,recall_answer.started,recall_key.keys,recall_key.rt,RSME_labels.started,RSME_labels.stopped,RSME_ticks.started,RSME_ticks.stopped,RSME_text.started,RSME_text.stopped,RSME_key.started,RSME_key.stopped,RSME_ticks.response,RSME_ticks.rt,RSME_key.keys,training_intro_text.stopped,training_intro_key.stopped,polygon.stopped,cue_before_text.stopped,RSME_key.rt,training_presentation_movie.started,experiment_beginning_text.started,experiment_beginning_keys.started,experiment_beginning_key.started,experiment_beginning_key.keys,experiment_beginning_key.rt,block_intro_text.started,block_intro_key.started,block_intro_key.keys,block_intro_key.rt,presentation_movie.started,block_intro_text.stopped,block_intro_key.stopped,presentation_letter.started,presentation_letter.stopped,participant,session,date,expName,psychopyVersion,frameRate,
,,,,,,,,,,,,,,,,,,,,,,,,,,,,,,,,,,12.305435799993575,12.305435799993575,f,42.32260499987751,,,,,,,,,,,,,,,,,,,,,,,,,,,,,,,,,,,,,,,,,,,,,,,,,21,001,2024-09-24_17h43.06.174,robot_cogshifting_sign,2022.2.5,59.85773034537992,
,,,,,,,,,,,,,,,,,,,,,,,,,,,,,,,,,,,,,,54.687915300019085,54.687915300019085,space,75.97304269950837,,,,,,,,,,,,,,,,,,,,,,,,,,,,,,,,,,,,,,,,,,,,,21,001,2024-09-24_17h43.06.174,robot_cogshifting_sign,2022.2.5,59.85773034537992,
"['blue_top_H_45', 'blue_top_L_0', 'blue_left_R_0', 'red_top_R_0']","{'color': 'red_top_R_0', 'position': 'blue_left_R_0', 'orientation': 'blue_top_H_45'}",orientation,['orientation'],blue_top_H_45,0,1,letter,2,True,False,"['robot_stimuli\\\\filler.mp4', 'robot_stimuli\\\\filler.mp4', 'robot_stimuli\\\\filler.mp4', 'robot_stimuli\\\\filler.mp4']",robot_stimuli\\filler.mp4,21,0,0,0,0,0,0,0,0,,,,,,,,,,,,,,,,,,,,,130.72086490038782,130.72086490038782,space,3.1312394998967648,133.87705610040575,134.87902939971536,144.64892400056124,146.70232050027698,146.70232050027698,146.70232050027698,146.70232050027698,1,0.5821223994717002,147.33688220009208,147.33688220009208,147.33688220009208,147.33688220009208,147.33688220009208,147.33688220009208,147.33688220009208,147.33688220009208,None,None,None,,,,,,,,,,,,,,,,,,,,,21,001,2024-09-24_17h43.06.174,robot_cogshifting_sign,2022.2.5,59.85773034537992,
"['red_left_N_45', 'blue_left_H_45', 'red_right_W_45', 'red_left_J_0']","{'color': 'blue_left_H_45', 'position': 'red_right_W_45', 'orientation': 'red_left_J_0'}",position,['position'],red_right_W_45,2,1,letter,2,False,False,"['robot_stimuli\\\\filler.mp4', 'robot_stimuli\\\\filler.mp4', 'robot_stimuli\\\\filler.mp4', 'robot_stimuli\\\\filler.mp4']",robot_stimuli\\filler.mp4,21,0,0,0,0,0,1,1,1,,,,,,,,,,,,,,,,,,,,,147.33688220009208,147.33688220009208,None,,147.33688220009208,148.3388371001929,157.12281460035592,159.3438662001863,159.3438662001863,159.3438662001863,159.3438662001863,3,0.20427979994565248,159.57761000003666,159.57761000003666,159.57761000003666,159.57761000003666,159.57761000003666,159.57761000003666,159.57761000003666,159.57761000003666,None,None,None,147.33688220009208,147.33688220009208,148.3388371001929,150.40956060029566,,,,,,,,,,,,,,,,,21,001,2024-09-24_17h43.06.174,robot_cogshifting_sign,2022.2.5,59.85773034537992,
"['red_right_H_0', 'red_right_N_45', 'blue_right_T_0', 'red_left_V_0']","{'color': 'blue_right_T_0', 'position': 'red_left_V_0', 'orientation': 'red_right_N_45'}",color,['color'],blue_right_T_0,2,1,letter,2,False,True,"['robot_stimuli\\\\filler.mp4', 'robot_stimuli\\\\filler.mp4', 'robot_stimuli\\\\filler.mp4', 'robot_stimuli\\\\filler.mp4']",robot_stimuli\\filler.mp4,21,0,0,0,0,0,2,2,2,,,,,,,,,,,,,,,,,,,,,159.57761000003666,159.57761000003666,None,,159.57761000003666,160.57962459977716,169.14645239990205,171.16715119965374,171.16715119965374,171.16715119965374,171.16715119965374,3,0.32490389980375767,171.5679352004081,191.0061590000987,171.5679352004081,191.0061590000987,171.5679352004081,191.0061590000987,171.5679352004081,191.0061590000987,4.68253968253968,16.75933870021254,space,159.57761000003666,159.57761000003666,160.57962459977716,162.65041009988636,19.380388700403273,,,,,,,,,,,,,,,,21,001,2024-09-24_17h43.06.174,robot_cogshifting_sign,2022.2.5,59.85773034537992,
"['red_left_P_0', 'red_top_G_0', 'blue_left_Q_0', 'red_left_V_45']","{'color': 'blue_left_Q_0', 'position': 'red_top_G_0', 'orientation': 'red_left_V_45'}",orientation,"['orientation', 'position']",red_left_V_45,3,2,letter,2,True,False,"['robot_stimuli\\\\filler.mp4', 'robot_stimuli\\\\filler.mp4', 'robot_stimuli\\\\filler.mp4', 'robot_stimuli\\\\filler.mp4']",robot_stimuli\\filler.mp4,21,0,0,0,0,0,3,3,3,,,,,,,,,,,,,,,,,,,,,191.0061590000987,191.0061590000987,space,8.381552600301802,199.4060046998784,200.40799160022289,208.99159760028124,211.21260670013726,211.21260670013726,211.21260670013726,211.21260670013726,4,4.743953499943018,215.98860060051084,215.98860060051084,215.98860060051084,215.98860060051084,215.98860060051084,215.98860060051084,215.98860060051084,215.98860060051084,None,None,None,,,,,,,,,,,,,,,,,,,,,21,001,2024-09-24_17h43.06.174,robot_cogshifting_sign,2022.2.5,59.85773034537992,
"['blue_left_X_0', 'blue_left_L_45', 'red_left_L_45', 'blue_top_B_45']","{'color': 'red_left_L_45', 'position': 'blue_top_B_45', 'orientation': 'blue_left_X_0'}",color,"['color', 'position']",red_left_L_45,2,2,letter,2,False,False,"['robot_stimuli\\\\filler.mp4', 'robot_stimuli\\\\filler.mp4', 'robot_stimuli\\\\filler.mp4', 'robot_stimuli\\\\filler.mp4']",robot_stimuli\\filler.mp4,21,0,0,0,0,0,4,4,4,,,,,,,,,,,,,,,,,,,,,215.98860060051084,215.98860060051084,None,,215.98860060051084,216.99063870031387,225.37392510008067,227.39444280043244,227.39444280043244,227.39444280043244,227.39444280043244,3,1.505392700433731,228.93083219975233,228.93083219975233,228.93083219975233,228.93083219975233,228.93083219975233,228.93083219975233,228.93083219975233,228.93083219975233,None,None,None,215.98860060051084,215.98860060051084,216.99063870031387,219.06136849988252,,,,,,,,,,,,,,,,,21,001,2024-09-24_17h43.06.174,robot_cogshifting_sign,2022.2.5,59.85773034537992,
"['blue_left_B_45', 'blue_bottom_X_0', 'red_left_L_0', 'blue_left_H_0']","{'color': 'red_left_L_0', 'position': 'blue_bottom_X_0', 'orientation': 'blue_left_B_45'}",position,"['orientation', 'position']",blue_bottom_X_0,1,2,letter,2,False,True,"['robot_stimuli\\\\filler.mp4', 'robot_stimuli\\\\filler.mp4', 'robot_stimuli\\\\filler.mp4', 'robot_stimuli\\\\filler.mp4']",robot_stimuli\\filler.mp4,21,0,0,0,0,0,5,5,5,,,,,,,,,,,,,,,,,,,,,228.93083219975233,228.93083219975233,None,,228.93083219975233,229.93277239985764,238.71678160037845,240.93777840025723,240.93777840025723,240.93777840025723,240.93777840025723,2,1.1461081998422742,242.14011280052364,251.89266770053655,242.14011280052364,251.89266770053655,242.14011280052364,251.89266770053655,242.14011280052364,251.89266770053655,29.444444444444446,3.8169168001040816,space,228.93083219975233,228.93083219975233,229.93277239985764,232.00358160026371,9.679737799800932,,,,,,,,,,,,,,,,21,001,2024-09-24_17h43.06.174,robot_cogshifting_sign,2022.2.5,59.85773034537992,
"['red_top_W_0', 'red_left_H_0', 'red_left_J_45', 'blue_left_P_0']","{'color': 'blue_left_P_0', 'position': 'red_top_W_0', 'orientation': 'red_left_J_45'}",position,"['color', 'orientation', 'position']",red_top_W_0,0,3,letter,2,True,False,"['robot_stimuli\\\\filler.mp4', 'robot_stimuli\\\\filler.mp4', 'robot_stimuli\\\\filler.mp4', 'robot_stimuli\\\\filler.mp4']",robot_stimuli\\filler.mp4,21,0,0,0,0,0,6,6,6,,,,,,,,,,,,,,,,,,,,,251.89266770053655,251.89266770053655,space,14.230906399898231,266.1540590003133,267.1560543999076,275.53926070034504,277.5598269002512,277.5598269002512,277.5598269002512,277.5598269002512,1,2.4847222995013,280.0647790003568,280.0647790003568,280.0647790003568,280.0647790003568,280.0647790003568,280.0647790003568,280.0647790003568,280.0647790003568,None,None,None,,,,,,,,,,,,,,,,,,,,,21,001,2024-09-24_17h43.06.174,robot_cogshifting_sign,2022.2.5,59.85773034537992,
"['blue_top_S_0', 'blue_left_L_45', 'blue_left_R_0', 'red_left_V_0']","{'color': 'red_left_V_0', 'position': 'blue_top_S_0', 'orientation': 'blue_left_L_45'}",color,"['color', 'orientation', 'position']",red_left_V_0,3,3,letter,2,False,False,"['robot_stimuli\\\\filler.mp4', 'robot_stimuli\\\\filler.mp4', 'robot_stimuli\\\\filler.mp4', 'robot_stimuli\\\\filler.mp4']",robot_stimuli\\filler.mp4,21,0,0,0,0,0,7,7,7,,,,,,,,,,,,,,,,,,,,,280.0647790003568,280.0647790003568,None,,280.0647790003568,281.066744199954,289.8340624999255,292.055020400323,292.055020400323,292.055020400323,292.055020400323,4,4.260942899622023,296.3468243004754,296.3468243004754,296.3468243004754,296.3468243004754,296.3468243004754,296.3468243004754,296.3468243004754,296.3468243004754,None,None,None,280.0647790003568,280.0647790003568,281.066744199954,283.13761860039085,,,,,,,,,,,,,,,,,21,001,2024-09-24_17h43.06.174,robot_cogshifting_sign,2022.2.5,59.85773034537992,
"['red_top_W_0', 'red_right_K_0', 'blue_right_T_0', 'red_right_K_45']","{'color': 'blue_right_T_0', 'position': 'red_top_W_0', 'orientation': 'red_right_K_45'}",orientation,"['color', 'orientation', 'position']",red_right_K_45,3,3,letter,2,False,True,"['robot_stimuli\\\\filler.mp4', 'robot_stimuli\\\\filler.mp4', 'robot_stimuli\\\\filler.mp4', 'robot_stimuli\\\\filler.mp4']",robot_stimuli\\filler.mp4,21,0,0,0,0,0,8,8,8,,,,,,,,,,,,,,,,,,,,,296.3468243004754,296.3468243004754,None,,296.3468243004754,297.3487777998671,305.8989605996758,308.1200341004878,308.1200341004878,308.1200341004878,308.1200341004878,4,1.459417199715972,309.63967240042984,315.9186466000974,309.63967240042984,315.9186466000974,309.63967240042984,315.9186466000974,309.63967240042984,315.9186466000974,34.84126984126984,5.0528451995924115,space,296.3468243004754,296.3468243004754,297.3487777998671,299.41950879991055,6.212168399244547,,,,,,,,,,,,,,,,21,001,2024-09-24_17h43.06.174,robot_cogshifting_sign,2022.2.5,59.85773034537992,
"['R_Head_Y_For', 'R_Head_Z_For', 'R_Base_Y_For', 'L_Head_Y_For']","{'laterality': 'L_Head_Y_For', 'localisation': 'R_Base_Y_For', 'movement': 'R_Head_Z_For'}",movement,['movement'],R_Head_Z_For,1,1,robot,1,True,False,"['robot_stimuli\\R_Head_Y_For.mp4', 'robot_stimuli\\R_Head_Z_For.mp4', 'robot_stimuli\\R_Base_Y_For.mp4', 'robot_stimuli\\L_Head_Y_For.mp4']",robot_stimuli\R_Head_Z_For.mp4,21,0,0,0,0,0,9,9,9,,,,,,,,,,,,,,,,,,,,,315.9186466000974,315.9186466000974,space,8.612864299677312,324.5523119997233,325.554277099669,,,342.4549928000197,342.4549928000197,342.4549928000197,3,22.03688200004399,364.5142914997414,364.5142914997414,364.5142914997414,364.5142914997414,364.5142914997414,364.5142914997414,364.5142914997414,364.5142914997414,None,None,None,,,,,,338.8137753000483,,,,,,,,,,,,,,,21,001,2024-09-24_17h43.06.174,robot_cogshifting_sign,2022.2.5,59.85773034537992,
"['R_Head_Y_Back', 'R_Head_Z_For', 'R_Base_Y_Back', 'L_Head_Y_Back']","{'laterality': 'L_Head_Y_Back', 'localisation': 'R_Base_Y_Back', 'movement': 'R_Head_Z_For'}",localisation,['localisation'],R_Base_Y_Back,2,1,robot,1,False,False,"['robot_stimuli\\R_Head_Y_Back.mp4', 'robot_stimuli\\R_Head_Z_For.mp4', 'robot_stimuli\\R_Base_Y_Back.mp4', 'robot_stimuli\\L_Head_Y_Back.mp4']",robot_stimuli\R_Base_Y_Back.mp4,21,0,0,0,0,0,10,10,10,,,,,,,,,,,,,,,,,,,,,364.5142914997414,364.5142914997414,None,,364.5142914997414,365.5162725998089,,,382.4162245001644,382.4162245001644,382.4162245001644,3,2.7235494991764426,385.171624599956,385.171624599956,385.171624599956,385.171624599956,385.171624599956,385.171624599956,385.171624599956,385.171624599956,None,None,None,364.5142914997414,364.5142914997414,365.5162725998089,367.60371090006083,,378.7756930999458,,,,,,,,,,,,,,,21,001,2024-09-24_17h43.06.174,robot_cogshifting_sign,2022.2.5,59.85773034537992,
"['L_Head_Y_For', 'R_Arm_Y_Back', 'L_Arm_Z_For', 'L_Arm_Y_For']","{'laterality': 'R_Arm_Y_Back', 'localisation': 'L_Head_Y_For', 'movement': 'L_Arm_Z_For'}",laterality,['laterality'],R_Arm_Y_Back,1,1,robot,1,False,True,"['robot_stimuli\\L_Head_Y_For.mp4', 'robot_stimuli\\R_Arm_Y_Back.mp4', 'robot_stimuli\\L_Arm_Z_For.mp4', 'robot_stimuli\\L_Arm_Y_For.mp4']",robot_stimuli\R_Arm_Y_Back.mp4,21,0,0,0,0,0,11,11,11,,,,,,,,,,,,,,,,,,,,,385.171624599956,385.171624599956,None,,385.171624599956,386.1735829003155,,,403.07357920054346,403.07357920054346,403.07357920054346,2,10.347171099856496,413.47731909994036,420.0068597001955,413.47731909994036,420.0068597001955,413.47731909994036,420.0068597001955,413.47731909994036,420.0068597001955,48.17460317460317,5.403367700055242,space,385.171624599956,385.171624599956,386.1735829003155,388.2610748996958,6.454236499965191,399.4330262001604,,,,,,,,,,,,,,,21,001,2024-09-24_17h43.06.174,robot_cogshifting_sign,2022.2.5,59.85773034537992,
"['L_Arm_Y_Back', 'R_Arm_Y_Back', 'R_Head_Y_For', 'R_Arm_X_For']","{'laterality': 'L_Arm_Y_Back', 'localisation': 'R_Head_Y_For', 'movement': 'R_Arm_X_For'}",movement,"['laterality', 'movement']",R_Arm_X_For,3,2,robot,1,True,False,"['robot_stimuli\\L_Arm_Y_Back.mp4', 'robot_stimuli\\R_Arm_Y_Back.mp4', 'robot_stimuli\\R_Head_Y_For.mp4', 'robot_stimuli\\R_Arm_X_For.mp4']",robot_stimuli\R_Arm_X_For.mp4,21,0,0,0,0,0,12,12,12,,,,,,,,,,,,,,,,,,,,,420.0068597001955,420.0068597001955,space,23.932527099736035,443.97068290039897,444.9726943997666,,,461.9059888003394,461.9059888003394,461.9059888003394,3,11.161628699861467,473.0947102000937,473.0947102000937,473.0947102000937,473.0947102000937,473.0947102000937,473.0947102000937,473.0947102000937,473.0947102000937,None,None,None,,,,,,458.2655306002125,,,,,,,,,,,,,,,21,001,2024-09-24_17h43.06.174,robot_cogshifting_sign,2022.2.5,59.85773034537992,
"['L_Arm_Y_For', 'R_Arm_Y_Back', 'L_Arm_Z_Back', 'L_Base_Y_For']","{'laterality': 'R_Arm_Y_Back', 'localisation': 'L_Base_Y_For', 'movement': 'L_Arm_Z_Back'}",localisation,"['localisation', 'movement']",L_Base_Y_For,3,2,robot,1,False,False,"['robot_stimuli\\L_Arm_Y_For.mp4', 'robot_stimuli\\R_Arm_Y_Back.mp4', 'robot_stimuli\\L_Arm_Z_Back.mp4', 'robot_stimuli\\L_Base_Y_For.mp4']",robot_stimuli\L_Base_Y_For.mp4,21,0,0,0,0,0,13,13,13,,,,,,,,,,,,,,,,,,,,,473.0947102000937,473.0947102000937,None,,473.0947102000937,474.0966261001304,,,490.8963969005272,490.8963969005272,490.8963969005272,4,4.699633399955928,495.62232830002904,495.62232830002904,495.62232830002904,495.62232830002904,495.62232830002904,495.62232830002904,495.62232830002904,495.62232830002904,None,None,None,473.0947102000937,473.0947102000937,474.0966261001304,476.1841766005382,,487.35608190018684,,,,,,,,,,,,,,,21,001,2024-09-24_17h43.06.174,robot_cogshifting_sign,2022.2.5,59.85773034537992,
"['R_Torso_Y_For', 'L_Torso_X_Back', 'L_Torso_Y_For', 'L_Base_Y_For']","{'laterality': 'R_Torso_Y_For', 'localisation': 'L_Base_Y_For', 'movement': 'L_Torso_X_Back'}",laterality,"['laterality', 'localisation']",R_Torso_Y_For,0,2,robot,1,False,True,"['robot_stimuli\\R_Torso_Y_For.mp4', 'robot_stimuli\\L_Torso_X_Back.mp4', 'robot_stimuli\\L_Torso_Y_For.mp4', 'robot_stimuli\\L_Base_Y_For.mp4']",robot_stimuli\R_Torso_Y_For.mp4,21,0,0,0,0,0,14,14,14,,,,,,,,,,,,,,,,,,,,,495.62232830002904,495.62232830002904,None,,495.62232830002904,496.6243276000023,,,513.4574523000047,513.4574523000047,513.4574523000047,1,3.762632000260055,517.2816468002275,522.5753950998187,517.2816468002275,522.5753950998187,517.2816468002275,522.5753950998187,517.2816468002275,522.5753950998187,45.0,3.1995222000405192,space,495.62232830002904,495.62232830002904,496.6243276000023,498.7117904005572,5.2432917999103665,509.91715910006315,,,,,,,,,,,,,,,21,001,2024-09-24_17h43.06.174,robot_cogshifting_sign,2022.2.5,59.85773034537992,
"['R_Base_Z_Back', 'L_Base_Y_Back', 'L_Torso_Z_For', 'L_Base_Z_Back']","{'laterality': 'R_Base_Z_Back', 'localisation': 'L_Torso_Z_For', 'movement': 'L_Base_Y_Back'}",localisation,"['laterality', 'localisation', 'movement']",L_Torso_Z_For,2,3,robot,1,True,False,"['robot_stimuli\\R_Base_Z_Back.mp4', 'robot_stimuli\\L_Base_Y_Back.mp4', 'robot_stimuli\\L_Torso_Z_For.mp4', 'robot_stimuli\\L_Base_Z_Back.mp4']",robot_stimuli\L_Torso_Z_For.mp4,21,0,0,0,0,0,15,15,15,,,,,,,,,,,,,,,,,,,,,522.5753950998187,522.5753950998187,space,4.995977600105107,527.6019689999521,528.6039546998218,,,545.3535868003964,545.3535868003964,545.3535868003964,2,11.13789280038327,556.5088555002585,556.5088555002585,556.5088555002585,556.5088555002585,556.5088555002585,556.5088555002585,556.5088555002585,556.5088555002585,None,None,None,,,,,,541.7130863005295,,,,,,,,,,,,,,,21,001,2024-09-24_17h43.06.174,robot_cogshifting_sign,2022.2.5,59.85773034537992,
"['R_Head_Y_For', 'R_Base_X_For', 'L_Head_X_Back', 'R_Head_X_Back']","{'laterality': 'L_Head_X_Back', 'localisation': 'R_Base_X_For', 'movement': 'R_Head_Y_For'}",laterality,"['laterality', 'localisation', 'movement']",L_Head_X_Back,2,3,robot,1,False,False,"['robot_stimuli\\R_Head_Y_For.mp4', 'robot_stimuli\\R_Base_X_For.mp4', 'robot_stimuli\\L_Head_X_Back.mp4', 'robot_stimuli\\R_Head_X_Back.mp4']",robot_stimuli\L_Head_X_Back.mp4,21,0,0,0,0,0,16,16,16,,,,,,,,,,,,,,,,,,,,,556.5088555002585,556.5088555002585,None,,556.5088555002585,557.5108550004661,,,574.3272441998124,574.3272441998124,574.3272441998124,3,3.1165233002975583,577.4667744999751,577.4667744999751,577.4667744999751,577.4667744999751,577.4667744999751,577.4667744999751,577.4667744999751,577.4667744999751,None,None,None,556.5088555002585,556.5088555002585,557.5108550004661,559.5983124002814,,570.6867609005421,,,,,,,,,,,,,,,21,001,2024-09-24_17h43.06.174,robot_cogshifting_sign,2022.2.5,59.85773034537992,
"['R_Base_X_For', 'R_Head_X_Back', 'R_Base_Y_For', 'L_Base_X_Back']","{'laterality': 'L_Base_X_Back', 'localisation': 'R_Head_X_Back', 'movement': 'R_Base_Y_For'}",movement,"['laterality', 'localisation', 'movement']",R_Base_Y_For,2,3,robot,1,False,True,"['robot_stimuli\\R_Base_X_For.mp4', 'robot_stimuli\\R_Head_X_Back.mp4', 'robot_stimuli\\R_Base_Y_For.mp4', 'robot_stimuli\\L_Base_X_Back.mp4']",robot_stimuli\R_Base_Y_For.mp4,21,0,0,0,0,0,17,17,17,,,,,,,,,,,,,,,,,,,,,577.4667744999751,577.4667744999751,None,,577.4667744999751,578.4687222996727,,,595.2183774001896,595.2183774001896,595.2183774001896,3,14.082768000662327,609.3628981001675,614.2391710001975,609.3628981001675,614.2391710001975,609.3628981001675,614.2391710001975,609.3628981001675,614.2391710001975,56.74603174603175,4.000384100712836,space,577.4667744999751,577.4667744999751,578.4687222996727,580.5561950001866,4.809224899858236,591.6113344002515,,,,,,,,,,,,,,,21,001,2024-09-24_17h43.06.174,robot_cogshifting_sign,2022.2.5,59.85773034537992,
,,,,,,,,,,,,,,0,0,0,0,,,,,,,,,,,,,,,,,,,,,,,,,,,,,,,,,,,,,,,,,,,,,,,,,,,,,,,614.2391710001975,614.2391710001975,614.2391710001975,c,76.04407639987767,,,,,,,,,,21,001,2024-09-24_17h43.06.174,robot_cogshifting_sign,2022.2.5,59.85773034537992,
"['L_Head_Y_For', 'R_Head_Z_Back', 'L_Arm_Z_For', 'L_Head_Z_Back']","{'laterality': 'R_Head_Z_Back', 'localisation': 'L_Arm_Z_For', 'movement': 'L_Head_Y_For'}",movement,"['laterality', 'localisation', 'movement']",L_Head_Y_For,0,3,robot,1,True,False,"['robot_stimuli\\L_Head_Y_For.mp4', 'robot_stimuli\\R_Head_Z_Back.mp4', 'robot_stimuli\\L_Arm_Z_For.mp4', 'robot_stimuli\\L_Head_Z_Back.mp4']",robot_stimuli\L_Head_Y_For.mp4,21,,,,,,,,,,,,,0,0,0,0,,,,,,,,,,,,,,,,,,704.6504359999672,,,721.5336484005675,721.5336484005675,721.5336484005675,4,22.710280099883676,744.2617378998548,744.2617378998548,744.2617378998548,744.2617378998548,744.2617378998548,744.2617378998548,744.2617378998548,744.2617378998548,None,None,None,,,,,,,,,,,,690.3389208000153,690.3389208000153,space,14.28197729960084,717.9098559999838,,,,,21,001,2024-09-24_17h43.06.174,robot_cogshifting_sign,2022.2.5,59.85773034537992,
"['R_Torso_Y_For', 'L_Base_Y_Back', 'L_Torso_Y_For', 'L_Torso_X_For']","{'laterality': 'R_Torso_Y_For', 'localisation': 'L_Base_Y_Back', 'movement': 'L_Torso_X_For'}",laterality,"['laterality', 'localisation', 'movement']",R_Torso_Y_For,0,3,robot,1,False,False,"['robot_stimuli\\R_Torso_Y_For.mp4', 'robot_stimuli\\L_Base_Y_Back.mp4', 'robot_stimuli\\L_Torso_Y_For.mp4', 'robot_stimuli\\L_Torso_X_For.mp4']",robot_stimuli\R_Torso_Y_For.mp4,21,,,,,,,,,,,,,0,1,1,1,,,,,,,,,,,,,,,,,,744.2617378998548,,,761.1115822996944,761.1115822996944,761.1115822996944,2,10.828141500242054,771.9662488000467,771.9662488000467,771.9662488000467,771.9662488000467,771.9662488000467,771.9662488000467,771.9662488000467,771.9662488000467,None,None,None,,,,746.3491601999849,,,,,,,,744.2617378998548,744.2617378998548,None,,757.4711076002568,744.2617378998548,744.2617378998548,,,21,001,2024-09-24_17h43.06.174,robot_cogshifting_sign,2022.2.5,59.85773034537992,
"['L_Arm_Z_Back', 'R_Head_Z_Back', 'L_Head_Z_Back', 'L_Head_Y_Back']","{'laterality': 'R_Head_Z_Back', 'localisation': 'L_Arm_Z_Back', 'movement': 'L_Head_Y_Back'}",localisation,"['laterality', 'localisation', 'movement']",L_Arm_Z_Back,0,3,robot,1,False,False,"['robot_stimuli\\L_Arm_Z_Back.mp4', 'robot_stimuli\\R_Head_Z_Back.mp4', 'robot_stimuli\\L_Head_Z_Back.mp4', 'robot_stimuli\\L_Head_Y_Back.mp4']",robot_stimuli\L_Arm_Z_Back.mp4,21,,,,,,,,,,,,,0,2,2,2,,,,,,,,,,,,,,,,,,771.9662488000467,,,788.8829041998833,788.8829041998833,788.8829041998833,1,5.912540999241173,794.8279042998329,794.8279042998329,794.8279042998329,794.8279042998329,794.8279042998329,794.8279042998329,794.8279042998329,794.8279042998329,None,None,None,,,,774.0704482002184,,,,,,,,771.9662488000467,771.9662488000467,None,,785.2257173005491,771.9662488000467,771.9662488000467,,,21,001,2024-09-24_17h43.06.174,robot_cogshifting_sign,2022.2.5,59.85773034537992,
"['L_Base_Z_Back', 'R_Base_Y_Back', 'R_Base_Z_For', 'R_Head_Z_For']","{'laterality': 'L_Base_Z_Back', 'localisation': 'R_Head_Z_For', 'movement': 'R_Base_Y_Back'}",movement,"['laterality', 'localisation', 'movement']",R_Base_Y_Back,1,3,robot,1,False,False,"['robot_stimuli\\L_Base_Z_Back.mp4', 'robot_stimuli\\R_Base_Y_Back.mp4', 'robot_stimuli\\R_Base_Z_For.mp4', 'robot_stimuli\\R_Head_Z_For.mp4']",robot_stimuli\R_Base_Y_Back.mp4,21,,,,,,,,,,,,,0,3,3,3,,,,,,,,,,,,,,,,,,794.8279042998329,,,811.7278596004471,811.7278596004471,811.7278596004471,2,7.89202200062573,819.6434252001345,819.6434252001345,819.6434252001345,819.6434252001345,819.6434252001345,819.6434252001345,819.6434252001345,819.6434252001345,None,None,None,,,,796.9153740005568,,,,,,,,794.8279042998329,794.8279042998329,None,,808.0706727001816,794.8279042998329,794.8279042998329,,,21,001,2024-09-24_17h43.06.174,robot_cogshifting_sign,2022.2.5,59.85773034537992,
"['R_Torso_Y_Back', 'L_Torso_Y_For', 'R_Torso_Z_For', 'R_Base_Y_Back']","{'laterality': 'L_Torso_Y_For', 'localisation': 'R_Base_Y_Back', 'movement': 'R_Torso_Z_For'}",localisation,"['laterality', 'localisation', 'movement']",R_Base_Y_Back,3,3,robot,1,False,False,"['robot_stimuli\\R_Torso_Y_Back.mp4', 'robot_stimuli\\L_Torso_Y_For.mp4', 'robot_stimuli\\R_Torso_Z_For.mp4', 'robot_stimuli\\R_Base_Y_Back.mp4']",robot_stimuli\R_Base_Y_Back.mp4,21,,,,,,,,,,,,,0,4,4,4,,,,,,,,,,,,,,,,,,819.6434252001345,,,836.543387000449,836.543387000449,836.543387000449,4,2.292669899761677,838.864591400139,838.864591400139,838.864591400139,838.864591400139,838.864591400139,838.864591400139,838.864591400139,838.864591400139,None,None,None,,,,821.7308878004551,,,,,,,,819.6434252001345,819.6434252001345,None,,832.8862025002018,819.6434252001345,819.6434252001345,,,21,001,2024-09-24_17h43.06.174,robot_cogshifting_sign,2022.2.5,59.85773034537992,
"['R_Base_Y_For', 'R_Head_Y_For', 'L_Base_Y_For', 'R_Base_X_Back']","{'laterality': 'L_Base_Y_For', 'localisation': 'R_Head_Y_For', 'movement': 'R_Base_X_Back'}",localisation,"['laterality', 'localisation', 'movement']",R_Head_Y_For,1,3,robot,1,False,False,"['robot_stimuli\\R_Base_Y_For.mp4', 'robot_stimuli\\R_Head_Y_For.mp4', 'robot_stimuli\\L_Base_Y_For.mp4', 'robot_stimuli\\R_Base_X_Back.mp4']",robot_stimuli\R_Head_Y_For.mp4,21,,,,,,,,,,,,,0,5,5,5,,,,,,,,,,,,,,,,,,838.864591400139,,,855.647637099959,855.647637099959,855.647637099959,2,2.3077720999717712,857.9855746002868,857.9855746002868,857.9855746002868,857.9855746002868,857.9855746002868,857.9855746002868,857.9855746002868,857.9855746002868,None,None,None,,,,840.9520431002602,,,,,,,,838.864591400139,838.864591400139,None,,852.0238891998306,838.864591400139,838.864591400139,,,21,001,2024-09-24_17h43.06.174,robot_cogshifting_sign,2022.2.5,59.85773034537992,
"['L_Torso_X_For', 'L_Head_Z_For', 'L_Torso_Z_For', 'R_Torso_Z_For']","{'laterality': 'R_Torso_Z_For', 'localisation': 'L_Head_Z_For', 'movement': 'L_Torso_X_For'}",laterality,"['laterality', 'localisation', 'movement']",R_Torso_Z_For,3,3,robot,1,False,False,"['robot_stimuli\\L_Torso_X_For.mp4', 'robot_stimuli\\L_Head_Z_For.mp4', 'robot_stimuli\\L_Torso_Z_For.mp4', 'robot_stimuli\\R_Torso_Z_For.mp4']",robot_stimuli\R_Torso_Z_For.mp4,21,,,,,,,,,,,,,0,6,6,6,,,,,,,,,,,,,,,,,,857.9855746002868,,,874.8855071999133,874.8855071999133,874.8855071999133,4,2.8465826995670795,877.7578028002754,877.7578028002754,877.7578028002754,877.7578028002754,877.7578028002754,877.7578028002754,877.7578028002754,877.7578028002754,None,None,None,,,,860.0730550996959,,,,,,,,857.9855746002868,857.9855746002868,None,,871.2283022003248,857.9855746002868,857.9855746002868,,,21,001,2024-09-24_17h43.06.174,robot_cogshifting_sign,2022.2.5,59.85773034537992,
"['L_Base_Z_For', 'L_Arm_Y_Back', 'R_Base_Y_For', 'L_Base_Y_Back']","{'laterality': 'R_Base_Y_For', 'localisation': 'L_Arm_Y_Back', 'movement': 'L_Base_Z_For'}",laterality,"['laterality', 'localisation', 'movement']",R_Base_Y_For,2,3,robot,1,False,False,"['robot_stimuli\\L_Base_Z_For.mp4', 'robot_stimuli\\L_Arm_Y_Back.mp4', 'robot_stimuli\\R_Base_Y_For.mp4', 'robot_stimuli\\L_Base_Y_Back.mp4']",robot_stimuli\R_Base_Y_For.mp4,21,,,,,,,,,,,,,0,7,7,7,,,,,,,,,,,,,,,,,,877.7578028002754,,,894.6076344000176,894.6076344000176,894.6076344000176,3,2.5882198000326753,897.2127636000514,897.2127636000514,897.2127636000514,897.2127636000514,897.2127636000514,897.2127636000514,897.2127636000514,897.2127636000514,None,None,None,,,,879.8452634001151,,,,,,,,877.7578028002754,877.7578028002754,None,,891.05065140035,877.7578028002754,877.7578028002754,,,21,001,2024-09-24_17h43.06.174,robot_cogshifting_sign,2022.2.5,59.85773034537992,
"['L_Torso_Y_For', 'R_Torso_X_For', 'R_Head_Y_Back', 'R_Torso_Y_Back']","{'laterality': 'L_Torso_Y_For', 'localisation': 'R_Head_Y_Back', 'movement': 'R_Torso_X_For'}",movement,"['laterality', 'localisation', 'movement']",R_Torso_X_For,1,3,robot,1,False,True,"['robot_stimuli\\L_Torso_Y_For.mp4', 'robot_stimuli\\R_Torso_X_For.mp4', 'robot_stimuli\\R_Head_Y_Back.mp4', 'robot_stimuli\\R_Torso_Y_Back.mp4']",robot_stimuli\R_Torso_X_For.mp4,21,,,,,,,,,,,,,0,8,8,8,,,,,,,,,,,,,,,,,,897.2127636000514,,,914.1127198003232,914.1127198003232,914.1127198003232,4,11.186425800435245,925.3515069000423,935.4380141999573,925.3515069000423,935.4380141999573,925.3515069000423,935.4380141999573,925.3515069000423,935.4380141999573,66.11111111111111,9.278396900743246,space,,,,899.3001958001405,10.028122699819505,,,,,,,897.2127636000514,897.2127636000514,None,,910.4555259998888,897.2127636000514,897.2127636000514,,,21,001,2024-09-24_17h43.06.174,robot_cogshifting_sign,2022.2.5,59.85773034537992,
"['R_Head_Y_For', 'L_Head_Y_For', 'L_Torso_Y_Back', 'L_Head_Z_Back']","{'laterality': 'R_Head_Y_For', 'localisation': 'L_Torso_Y_Back', 'movement': 'L_Head_Z_Back'}",localisation,"['localisation', 'movement']",L_Torso_Y_Back,2,2,robot,1,True,False,"['robot_stimuli\\R_Head_Y_For.mp4', 'robot_stimuli\\L_Head_Y_For.mp4', 'robot_stimuli\\L_Torso_Y_Back.mp4', 'robot_stimuli\\L_Head_Z_Back.mp4']",robot_stimuli\L_Torso_Y_Back.mp4,21,,,,,,,,,,,,,0,9,9,9,,,,,,,,,,,,,,,,,,943.0529837999493,,,959.8026545001194,959.8026545001194,959.8026545001194,3,2.7367420997470617,962.5580364996567,962.5580364996567,962.5580364996567,962.5580364996567,962.5580364996567,962.5580364996567,962.5580364996567,962.5580364996567,None,None,None,,,,,,,,,,,,935.4380141999573,935.4380141999573,space,7.597093800082803,956.1621455997229,,,,,21,001,2024-09-24_17h43.06.174,robot_cogshifting_sign,2022.2.5,59.85773034537992,
"['L_Base_X_For', 'L_Base_Y_For', 'R_Base_X_For', 'L_Arm_X_Back']","{'laterality': 'R_Base_X_For', 'localisation': 'L_Arm_X_Back', 'movement': 'L_Base_Y_For'}",movement,"['localisation', 'movement']",L_Base_Y_For,1,2,robot,1,False,False,"['robot_stimuli\\L_Base_X_For.mp4', 'robot_stimuli\\L_Base_Y_For.mp4', 'robot_stimuli\\R_Base_X_For.mp4', 'robot_stimuli\\L_Arm_X_Back.mp4']",robot_stimuli\L_Base_Y_For.mp4,21,,,,,,,,,,,,,0,10,10,10,,,,,,,,,,,,,,,,,,962.5580364996567,,,979.1907769003883,979.1907769003883,979.1907769003883,3,11.604453200474381,990.8136771004647,990.8136771004647,990.8136771004647,990.8136771004647,990.8136771004647,990.8136771004647,990.8136771004647,990.8136771004647,None,None,None,,,,964.6455116001889,,,,,,,,962.5580364996567,962.5580364996567,None,,975.550335300155,962.5580364996567,962.5580364996567,,,21,001,2024-09-24_17h43.06.174,robot_cogshifting_sign,2022.2.5,59.85773034537992,
"['R_Arm_Z_For', 'R_Base_Z_For', 'R_Base_X_Back', 'L_Base_Z_Back']","{'laterality': 'L_Base_Z_Back', 'localisation': 'R_Arm_Z_For', 'movement': 'R_Base_X_Back'}",laterality,"['laterality', 'movement']",L_Base_Z_Back,3,2,robot,1,False,False,"['robot_stimuli\\R_Arm_Z_For.mp4', 'robot_stimuli\\R_Base_Z_For.mp4', 'robot_stimuli\\R_Base_X_Back.mp4', 'robot_stimuli\\L_Base_Z_Back.mp4']",robot_stimuli\L_Base_Z_Back.mp4,21,,,,,,,,,,,,,0,11,11,11,,,,,,,,,,,,,,,,,,990.8136771004647,,,1007.7136041997001,1007.7136041997001,1007.7136041997001,4,4.466268800199032,1012.2057637004182,1012.2057637004182,1012.2057637004182,1012.2057637004182,1012.2057637004182,1012.2057637004182,1012.2057637004182,1012.2057637004182,None,None,None,,,,992.901116900146,,,,,,,,990.8136771004647,990.8136771004647,None,,1004.0564075997099,990.8136771004647,990.8136771004647,,,21,001,2024-09-24_17h43.06.174,robot_cogshifting_sign,2022.2.5,59.85773034537992,
"['R_Arm_Y_Back', 'R_Arm_X_For', 'R_Head_Y_For', 'L_Arm_Y_Back']","{'laterality': 'L_Arm_Y_Back', 'localisation': 'R_Head_Y_For', 'movement': 'R_Arm_X_For'}",movement,"['localisation', 'movement']",R_Arm_X_For,1,2,robot,1,False,False,"['robot_stimuli\\R_Arm_Y_Back.mp4', 'robot_stimuli\\R_Arm_X_For.mp4', 'robot_stimuli\\R_Head_Y_For.mp4', 'robot_stimuli\\L_Arm_Y_Back.mp4']",robot_stimuli\R_Arm_X_For.mp4,21,,,,,,,,,,,,,0,12,12,12,,,,,,,,,,,,,,,,,,1012.2057637004182,,,1029.0890282001346,1029.0890282001346,1029.0890282001346,2,5.987692700698972,1035.1007880996913,1035.1007880996913,1035.1007880996913,1035.1007880996913,1035.1007880996913,1035.1007880996913,1035.1007880996913,1035.1007880996913,None,None,None,,,,1014.309980600141,,,,,,,,1012.2057637004182,1012.2057637004182,None,,1025.448546600528,1012.2057637004182,1012.2057637004182,,,21,001,2024-09-24_17h43.06.174,robot_cogshifting_sign,2022.2.5,59.85773034537992,
"['R_Torso_X_Back', 'L_Base_X_Back', 'R_Base_Y_Back', 'R_Base_X_For']","{'laterality': 'L_Base_X_Back', 'localisation': 'R_Torso_X_Back', 'movement': 'R_Base_Y_Back'}",laterality,"['laterality', 'movement']",L_Base_X_Back,1,2,robot,1,False,False,"['robot_stimuli\\R_Torso_X_Back.mp4', 'robot_stimuli\\L_Base_X_Back.mp4', 'robot_stimuli\\R_Base_Y_Back.mp4', 'robot_stimuli\\R_Base_X_For.mp4']",robot_stimuli\L_Base_X_Back.mp4,21,,,,,,,,,,,,,0,13,13,13,,,,,,,,,,,,,,,,,,1035.1007880996913,,,1051.8671514997259,1051.8671514997259,1051.8671514997259,2,2.4644718999043107,1054.3554004998878,1054.3554004998878,1054.3554004998878,1054.3554004998878,1054.3554004998878,1054.3554004998878,1054.3554004998878,1054.3554004998878,None,None,None,,,,1037.1882781004533,,,,,,,,1035.1007880996913,1035.1007880996913,None,,1048.3268940998241,1035.1007880996913,1035.1007880996913,,,21,001,2024-09-24_17h43.06.174,robot_cogshifting_sign,2022.2.5,59.85773034537992,
"['L_Arm_X_Back', 'R_Base_X_For', 'L_Base_Z_For', 'L_Base_X_For']","{'laterality': 'R_Base_X_For', 'localisation': 'L_Arm_X_Back', 'movement': 'L_Base_Z_For'}",localisation,"['laterality', 'localisation']",L_Arm_X_Back,0,2,robot,1,False,False,"['robot_stimuli\\L_Arm_X_Back.mp4', 'robot_stimuli\\R_Base_X_For.mp4', 'robot_stimuli\\L_Base_Z_For.mp4', 'robot_stimuli\\L_Base_X_For.mp4']",robot_stimuli\L_Arm_X_Back.mp4,21,,,,,,,,,,,,,0,14,14,14,,,,,,,,,,,,,,,,,,1054.3554004998878,,,1071.0883488003165,1071.0883488003165,1071.0883488003165,1,3.4597378000617027,1074.5785459997132,1074.5785459997132,1074.5785459997132,1074.5785459997132,1074.5785459997132,1074.5785459997132,1074.5785459997132,1074.5785459997132,None,None,None,,,,1056.4429011996835,,,,,,,,1054.3554004998878,1054.3554004998878,None,,1067.5146529003978,1054.3554004998878,1054.3554004998878,,,21,001,2024-09-24_17h43.06.174,robot_cogshifting_sign,2022.2.5,59.85773034537992,
"['R_Arm_Y_Back', 'R_Arm_X_Back', 'L_Arm_Y_For', 'R_Head_Y_Back']","{'laterality': 'L_Arm_Y_For', 'localisation': 'R_Head_Y_Back', 'movement': 'R_Arm_X_Back'}",localisation,"['localisation', 'movement']",R_Head_Y_Back,3,2,robot,1,False,False,"['robot_stimuli\\R_Arm_Y_Back.mp4', 'robot_stimuli\\R_Arm_X_Back.mp4', 'robot_stimuli\\L_Arm_Y_For.mp4', 'robot_stimuli\\R_Head_Y_Back.mp4']",robot_stimuli\R_Head_Y_Back.mp4,21,,,,,,,,,,,,,0,15,15,15,,,,,,,,,,,,,,,,,,1074.5785459997132,,,1091.4784605996683,1091.4784605996683,1091.4784605996683,4,0.8368882006034255,1092.346825200133,1092.346825200133,1092.346825200133,1092.346825200133,1092.346825200133,1092.346825200133,1092.346825200133,1092.346825200133,None,None,None,,,,1076.6660786997527,,,,,,,,1074.5785459997132,1074.5785459997132,None,,1087.8380970004946,1074.5785459997132,1074.5785459997132,,,21,001,2024-09-24_17h43.06.174,robot_cogshifting_sign,2022.2.5,59.85773034537992,
"['L_Torso_Y_For', 'R_Torso_Y_Back', 'L_Torso_Z_Back', 'L_Arm_Y_Back']","{'laterality': 'R_Torso_Y_Back', 'localisation': 'L_Arm_Y_Back', 'movement': 'L_Torso_Z_Back'}",movement,"['laterality', 'movement']",L_Torso_Z_Back,2,2,robot,1,False,False,"['robot_stimuli\\L_Torso_Y_For.mp4', 'robot_stimuli\\R_Torso_Y_Back.mp4', 'robot_stimuli\\L_Torso_Z_Back.mp4', 'robot_stimuli\\L_Arm_Y_Back.mp4']",robot_stimuli\L_Torso_Z_Back.mp4,21,,,,,,,,,,,,,0,16,16,16,,,,,,,,,,,,,,,,,,1092.346825200133,,,1109.113197799772,1109.113197799772,1109.113197799772,3,1.9067962998524308,1111.050339399837,1111.050339399837,1111.050339399837,1111.050339399837,1111.050339399837,1111.050339399837,1111.050339399837,1111.050339399837,None,None,None,,,,1094.434325300157,,,,,,,,1092.346825200133,1092.346825200133,None,,1105.4564086999744,1092.346825200133,1092.346825200133,,,21,001,2024-09-24_17h43.06.174,robot_cogshifting_sign,2022.2.5,59.85773034537992,
"['L_Head_Y_For', 'R_Head_Z_Back', 'R_Base_Y_Back', 'R_Head_Y_For']","{'laterality': 'L_Head_Y_For', 'localisation': 'R_Base_Y_Back', 'movement': 'R_Head_Z_Back'}",laterality,"['laterality', 'localisation']",L_Head_Y_For,0,2,robot,1,False,True,"['robot_stimuli\\L_Head_Y_For.mp4', 'robot_stimuli\\R_Head_Z_Back.mp4', 'robot_stimuli\\R_Base_Y_Back.mp4', 'robot_stimuli\\R_Head_Y_For.mp4']",robot_stimuli\L_Head_Y_For.mp4,21,,,,,,,,,,,,,0,17,17,17,,,,,,,,,,,,,,,,,,1111.050339399837,,,1127.9502359004691,1127.9502359004691,1127.9502359004691,2,5.348886399529874,1133.3608961002901,1136.6339969998226,1133.3608961002901,1136.6339969998226,1133.3608961002901,1136.6339969998226,1133.3608961002901,1136.6339969998226,69.76190476190476,2.4145147996023297,space,,,,1113.1378001002595,3.218436699360609,,,,,,,1111.050339399837,1111.050339399837,None,,1124.3097965996712,1111.050339399837,1111.050339399837,,,21,001,2024-09-24_17h43.06.174,robot_cogshifting_sign,2022.2.5,59.85773034537992,
"['R_Base_X_Back', 'L_Base_Y_For', 'R_Torso_Y_Back', 'R_Base_Y_For']","{'laterality': 'L_Base_Y_For', 'localisation': 'R_Torso_Y_Back', 'movement': 'R_Base_X_Back'}",laterality,['laterality'],L_Base_Y_For,1,1,robot,1,True,False,"['robot_stimuli\\R_Base_X_Back.mp4', 'robot_stimuli\\L_Base_Y_For.mp4', 'robot_stimuli\\R_Torso_Y_Back.mp4', 'robot_stimuli\\R_Base_Y_For.mp4']",robot_stimuli\L_Base_Y_For.mp4,21,,,,,,,,,,,,,0,18,18,18,,,,,,,,,,,,,,,,,,1138.15364999976,,,1154.9534253003076,1154.9534253003076,1154.9534253003076,2,0.4182227998971939,1155.4043025001884,1155.4043025001884,1155.4043025001884,1155.4043025001884,1155.4043025001884,1155.4043025001884,1155.4043025001884,1155.4043025001884,None,None,None,,,,,,,,,,,,1136.6339969998226,1136.6339969998226,space,1.4971600994467735,1151.2961945999414,,,,,21,001,2024-09-24_17h43.06.174,robot_cogshifting_sign,2022.2.5,59.85773034537992,
"['L_Torso_Y_For', 'L_Base_X_Back', 'R_Base_Y_Back', 'L_Base_Y_For']","{'laterality': 'R_Base_Y_Back', 'localisation': 'L_Torso_Y_For', 'movement': 'L_Base_X_Back'}",localisation,['localisation'],L_Torso_Y_For,0,1,robot,1,False,False,"['robot_stimuli\\L_Torso_Y_For.mp4', 'robot_stimuli\\L_Base_X_Back.mp4', 'robot_stimuli\\R_Base_Y_Back.mp4', 'robot_stimuli\\L_Base_Y_For.mp4']",robot_stimuli\L_Torso_Y_For.mp4,21,,,,,,,,,,,,,0,19,19,19,,,,,,,,,,,,,,,,,,1155.4043025001884,,,1172.1873057996854,1172.1873057996854,1172.1873057996854,2,0.3602715004235506,1172.5714111002162,1172.5714111002162,1172.5714111002162,1172.5714111002162,1172.5714111002162,1172.5714111002162,1172.5714111002162,1172.5714111002162,None,None,None,,,,1157.4917424004525,,,,,,,,1155.4043025001884,1155.4043025001884,None,,1168.6303658001125,1155.4043025001884,1155.4043025001884,,,21,001,2024-09-24_17h43.06.174,robot_cogshifting_sign,2022.2.5,59.85773034537992,
"['L_Base_Y_For', 'R_Base_Y_For', 'L_Torso_Y_Back', 'L_Base_Z_Back']","{'laterality': 'R_Base_Y_For', 'localisation': 'L_Torso_Y_Back', 'movement': 'L_Base_Z_Back'}",movement,['movement'],L_Base_Z_Back,3,1,robot,1,False,False,"['robot_stimuli\\L_Base_Y_For.mp4', 'robot_stimuli\\R_Base_Y_For.mp4', 'robot_stimuli\\L_Torso_Y_Back.mp4', 'robot_stimuli\\L_Base_Z_Back.mp4']",robot_stimuli\L_Base_Z_Back.mp4,21,,,,,,,,,,,,,0,20,20,20,,,,,,,,,,,,,,,,,,1172.5714111002162,,,1189.2542420998216,1189.2542420998216,1189.2542420998216,4,0.3729101000353694,1189.655047999695,1189.655047999695,1189.655047999695,1189.655047999695,1189.655047999695,1189.655047999695,1189.655047999695,1189.655047999695,None,None,None,,,,1174.6589281000197,,,,,,,,1172.5714111002162,1172.5714111002162,None,,1185.597023899667,1172.5714111002162,1172.5714111002162,,,21,001,2024-09-24_17h43.06.174,robot_cogshifting_sign,2022.2.5,59.85773034537992,
"['R_Base_Z_Back', 'L_Base_Z_Back', 'R_Head_Z_For', 'R_Base_X_For']","{'laterality': 'L_Base_Z_Back', 'localisation': 'R_Head_Z_For', 'movement': 'R_Base_X_For'}",laterality,['laterality'],L_Base_Z_Back,1,1,robot,1,False,False,"['robot_stimuli\\R_Base_Z_Back.mp4', 'robot_stimuli\\L_Base_Z_Back.mp4', 'robot_stimuli\\R_Head_Z_For.mp4', 'robot_stimuli\\R_Base_X_For.mp4']",robot_stimuli\L_Base_Z_Back.mp4,21,,,,,,,,,,,,,0,21,21,21,,,,,,,,,,,,,,,,,,1189.655047999695,,,1206.3879803000018,1206.3879803000018,1206.3879803000018,2,0.4633923005312681,1206.8722408004105,1206.8722408004105,1206.8722408004105,1206.8722408004105,1206.8722408004105,1206.8722408004105,1206.8722408004105,1206.8722408004105,None,None,None,,,,1191.7425210997462,,,,,,,,1189.655047999695,1189.655047999695,None,,1202.8476961003616,1189.655047999695,1189.655047999695,,,21,001,2024-09-24_17h43.06.174,robot_cogshifting_sign,2022.2.5,59.85773034537992,
"['R_Head_Y_Back', 'R_Base_Y_Back', 'L_Head_Y_For', 'R_Head_X_Back']","{'laterality': 'L_Head_Y_For', 'localisation': 'R_Base_Y_Back', 'movement': 'R_Head_X_Back'}",localisation,['localisation'],R_Base_Y_Back,1,1,robot,1,False,False,"['robot_stimuli\\R_Head_Y_Back.mp4', 'robot_stimuli\\R_Base_Y_Back.mp4', 'robot_stimuli\\L_Head_Y_For.mp4', 'robot_stimuli\\R_Head_X_Back.mp4']",robot_stimuli\R_Base_Y_Back.mp4,21,,,,,,,,,,,,,0,22,22,22,,,,,,,,,,,,,,,,,,1206.8722408004105,,,1223.7554879002273,1223.7554879002273,1223.7554879002273,2,0.48738009948283434,1224.2731828996912,1224.2731828996912,1224.2731828996912,1224.2731828996912,1224.2731828996912,1224.2731828996912,1224.2731828996912,1224.2731828996912,None,None,None,,,,1208.9597666999325,,,,,,,,1206.8722408004105,1206.8722408004105,None,,1220.11504110042,1206.8722408004105,1206.8722408004105,,,21,001,2024-09-24_17h43.06.174,robot_cogshifting_sign,2022.2.5,59.85773034537992,
"['R_Head_X_For', 'R_Head_Y_Back', 'L_Head_Y_For', 'R_Arm_Y_For']","{'laterality': 'L_Head_Y_For', 'localisation': 'R_Arm_Y_For', 'movement': 'R_Head_X_For'}",laterality,['laterality'],L_Head_Y_For,2,1,robot,1,False,False,"['robot_stimuli\\R_Head_X_For.mp4', 'robot_stimuli\\R_Head_Y_Back.mp4', 'robot_stimuli\\L_Head_Y_For.mp4', 'robot_stimuli\\R_Arm_Y_For.mp4']",robot_stimuli\L_Head_Y_For.mp4,21,,,,,,,,,,,,,0,23,23,23,,,,,,,,,,,,,,,,,,1224.2731828996912,,,1241.03948879987,1241.03948879987,1241.03948879987,3,0.3963561998680234,1241.4569974001497,1241.4569974001497,1241.4569974001497,1241.4569974001497,1241.4569974001497,1241.4569974001497,1241.4569974001497,1241.4569974001497,None,None,None,,,,1226.3605965003371,,,,,,,,1224.2731828996912,1224.2731828996912,None,,1237.5160258999094,1224.2731828996912,1224.2731828996912,,,21,001,2024-09-24_17h43.06.174,robot_cogshifting_sign,2022.2.5,59.85773034537992,
"['R_Arm_Y_Back', 'R_Arm_Z_Back', 'L_Arm_Z_Back', 'R_Torso_Z_For']","{'laterality': 'L_Arm_Z_Back', 'localisation': 'R_Torso_Z_For', 'movement': 'R_Arm_Y_Back'}",movement,['movement'],R_Arm_Y_Back,0,1,robot,1,False,False,"['robot_stimuli\\R_Arm_Y_Back.mp4', 'robot_stimuli\\R_Arm_Z_Back.mp4', 'robot_stimuli\\L_Arm_Z_Back.mp4', 'robot_stimuli\\R_Torso_Z_For.mp4']",robot_stimuli\R_Arm_Y_Back.mp4,21,,,,,,,,,,,,,0,24,24,24,,,,,,,,,,,,,,,,,,1241.4569974001497,,,1258.3569275001064,1258.3569275001064,1258.3569275001064,1,0.7347548995167017,1259.108423399739,1259.108423399739,1259.108423399739,1259.108423399739,1259.108423399739,1259.108423399739,1259.108423399739,1259.108423399739,None,None,None,,,,1243.54448639974,,,,,,,,1241.4569974001497,1241.4569974001497,None,,1254.699757100083,1241.4569974001497,1241.4569974001497,,,21,001,2024-09-24_17h43.06.174,robot_cogshifting_sign,2022.2.5,59.85773034537992,
"['R_Base_X_For', 'R_Torso_X_Back', 'R_Base_Y_Back', 'L_Base_X_Back']","{'laterality': 'L_Base_X_Back', 'localisation': 'R_Torso_X_Back', 'movement': 'R_Base_Y_Back'}",localisation,['localisation'],R_Torso_X_Back,1,1,robot,1,False,False,"['robot_stimuli\\R_Base_X_For.mp4', 'robot_stimuli\\R_Torso_X_Back.mp4', 'robot_stimuli\\R_Base_Y_Back.mp4', 'robot_stimuli\\L_Base_X_Back.mp4']",robot_stimuli\R_Torso_X_Back.mp4,21,,,,,,,,,,,,,0,25,25,25,,,,,,,,,,,,,,,,,,1259.108423399739,,,1275.8747370997444,1275.8747370997444,1275.8747370997444,2,0.7447421997785568,1276.6429318003356,1276.6429318003356,1276.6429318003356,1276.6429318003356,1276.6429318003356,1276.6429318003356,1276.6429318003356,1276.6429318003356,None,None,None,,,,1261.1958474004641,,,,,,,,1259.108423399739,1259.108423399739,None,,1272.2676656004041,1259.108423399739,1259.108423399739,,,21,001,2024-09-24_17h43.06.174,robot_cogshifting_sign,2022.2.5,59.85773034537992,
"['R_Torso_X_For', 'R_Base_Z_Back', 'L_Torso_Z_For', 'R_Torso_Z_Back']","{'laterality': 'L_Torso_Z_For', 'localisation': 'R_Base_Z_Back', 'movement': 'R_Torso_X_For'}",movement,['movement'],R_Torso_X_For,0,1,robot,1,False,True,"['robot_stimuli\\R_Torso_X_For.mp4', 'robot_stimuli\\R_Base_Z_Back.mp4', 'robot_stimuli\\L_Torso_Z_For.mp4', 'robot_stimuli\\R_Torso_Z_Back.mp4']",robot_stimuli\R_Torso_X_For.mp4,21,,,,,,,,,,,,,0,26,26,26,,,,,,,,,,,,,,,,,,1276.6429318003356,,,1293.4426423003897,1293.4426423003897,1293.4426423003897,1,0.4483699994161725,1293.9436210999265,1298.5026411004364,1293.9436210999265,1298.5026411004364,1293.9436210999265,1298.5026411004364,1293.9436210999265,1298.5026411004364,35.0,3.2667757999151945,space,,,,1278.7303518997505,4.507586999796331,,,,,,,1276.6429318003356,1276.6429318003356,None,,1289.7854343997315,1276.6429318003356,1276.6429318003356,,,21,001,2024-09-24_17h43.06.174,robot_cogshifting_sign,2022.2.5,59.85773034537992,
"['blue_left_V_45', 'red_left_M_45', 'blue_left_T_0', 'blue_right_K_45']","{'color': 'red_left_M_45', 'position': 'blue_right_K_45', 'orientation': 'blue_left_T_0'}",position,"['color', 'position']",blue_right_K_45,3,2,letter,2,True,False,"['robot_stimuli\\\\filler.mp4', 'robot_stimuli\\\\filler.mp4', 'robot_stimuli\\\\filler.mp4', 'robot_stimuli\\\\filler.mp4']",robot_stimuli\\filler.mp4,21,,,,,,,,,,,,,0,27,27,27,,,,,,,,,,,,,,,,,,1313.799397200346,,,1324.553878299892,1324.553878299892,1324.553878299892,4,1.401379399932921,1325.9733736002818,1325.9733736002818,1325.9733736002818,1325.9733736002818,1325.9733736002818,1325.9733736002818,1325.9733736002818,1325.9733736002818,None,None,None,,,,,,,,,,,,1298.5026411004364,1298.5026411004364,space,15.277184099890292,,,,1322.3328954000026,1324.553878299892,21,001,2024-09-24_17h43.06.174,robot_cogshifting_sign,2022.2.5,59.85773034537992,
"['blue_top_D_0', 'blue_right_H_0', 'red_right_B_0', 'blue_right_F_45']","{'color': 'red_right_B_0', 'position': 'blue_top_D_0', 'orientation': 'blue_right_F_45'}",color,"['color', 'orientation']",red_right_B_0,2,2,letter,2,False,False,"['robot_stimuli\\\\filler.mp4', 'robot_stimuli\\\\filler.mp4', 'robot_stimuli\\\\filler.mp4', 'robot_stimuli\\\\filler.mp4']",robot_stimuli\\filler.mp4,21,,,,,,,,,,,,,0,28,28,28,,,,,,,,,,,,,,,,,,1325.9733736002818,,,1336.911542300135,1336.911542300135,1336.911542300135,3,1.132010799832642,1338.0638162000105,1338.0638162000105,1338.0638162000105,1338.0638162000105,1338.0638162000105,1338.0638162000105,1338.0638162000105,1338.0638162000105,None,None,None,,,,1328.0441447002813,,,,,,,,1325.9733736002818,1325.9733736002818,None,,,1325.9733736002818,1325.9733736002818,1334.8909780997783,1336.911542300135,21,001,2024-09-24_17h43.06.174,robot_cogshifting_sign,2022.2.5,59.85773034537992,
"['blue_bottom_C_0', 'red_bottom_Q_0', 'blue_top_N_0', 'blue_bottom_Z_45']","{'color': 'red_bottom_Q_0', 'position': 'blue_top_N_0', 'orientation': 'blue_bottom_Z_45'}",position,"['color', 'position']",blue_top_N_0,2,2,letter,2,False,False,"['robot_stimuli\\\\filler.mp4', 'robot_stimuli\\\\filler.mp4', 'robot_stimuli\\\\filler.mp4', 'robot_stimuli\\\\filler.mp4']",robot_stimuli\\filler.mp4,21,,,,,,,,,,,,,0,29,29,29,,,,,,,,,,,,,,,,,,1338.0638162000105,,,1349.2024084003642,1349.2024084003642,1349.2024084003642,3,1.529070700518787,1350.7554536005482,1350.7554536005482,1350.7554536005482,1350.7554536005482,1350.7554536005482,1350.7554536005482,1350.7554536005482,1350.7554536005482,None,None,None,,,,1340.1345965005457,,,,,,,,1338.0638162000105,1338.0638162000105,None,,,1338.0638162000105,1338.0638162000105,1346.9814247004688,1349.2024084003642,21,001,2024-09-24_17h43.06.174,robot_cogshifting_sign,2022.2.5,59.85773034537992,
"['red_right_P_45', 'red_right_P_0', 'red_top_L_0', 'blue_right_J_0']","{'color': 'blue_right_J_0', 'position': 'red_top_L_0', 'orientation': 'red_right_P_45'}",color,"['color', 'orientation']",blue_right_J_0,3,2,letter,2,False,False,"['robot_stimuli\\\\filler.mp4', 'robot_stimuli\\\\filler.mp4', 'robot_stimuli\\\\filler.mp4', 'robot_stimuli\\\\filler.mp4']",robot_stimuli\\filler.mp4,21,,,,,,,,,,,,,0,30,30,30,,,,,,,,,,,,,,,,,,1350.7554536005482,,,1361.6769361998886,1361.6769361998886,1361.6769361998886,4,1.3264274997636676,1363.029603799805,1363.029603799805,1363.029603799805,1363.029603799805,1363.029603799805,1363.029603799805,1363.029603799805,1363.029603799805,None,None,None,,,,1352.826262500137,,,,,,,,1350.7554536005482,1350.7554536005482,None,,,1350.7554536005482,1350.7554536005482,1359.6563520999625,1361.6769361998886,21,001,2024-09-24_17h43.06.174,robot_cogshifting_sign,2022.2.5,59.85773034537992,
"['red_top_V_45', 'blue_right_Z_45', 'blue_top_C_45', 'blue_top_K_0']","{'color': 'red_top_V_45', 'position': 'blue_right_Z_45', 'orientation': 'blue_top_K_0'}",orientation,"['orientation', 'position']",blue_top_K_0,3,2,letter,2,False,False,"['robot_stimuli\\\\filler.mp4', 'robot_stimuli\\\\filler.mp4', 'robot_stimuli\\\\filler.mp4', 'robot_stimuli\\\\filler.mp4']",robot_stimuli\\filler.mp4,21,,,,,,,,,,,,,0,31,31,31,,,,,,,,,,,,,,,,,,1363.029603799805,,,1374.1848975997418,1374.1848975997418,1374.1848975997418,4,1.9788095001131296,1376.2055583996698,1376.2055583996698,1376.2055583996698,1376.2055583996698,1376.2055583996698,1376.2055583996698,1376.2055583996698,1376.2055583996698,None,None,None,,,,1365.100420099683,,,,,,,,1363.029603799805,1363.029603799805,None,,,1363.029603799805,1363.029603799805,1371.9639119002968,1374.1848975997418,21,001,2024-09-24_17h43.06.174,robot_cogshifting_sign,2022.2.5,59.85773034537992,
"['red_left_B_0', 'blue_left_P_45', 'blue_left_P_0', 'blue_right_S_0']","{'color': 'red_left_B_0', 'position': 'blue_right_S_0', 'orientation': 'blue_left_P_45'}",position,"['color', 'position']",blue_right_S_0,3,2,letter,2,False,False,"['robot_stimuli\\\\filler.mp4', 'robot_stimuli\\\\filler.mp4', 'robot_stimuli\\\\filler.mp4', 'robot_stimuli\\\\filler.mp4']",robot_stimuli\\filler.mp4,21,,,,,,,,,,,,,0,32,32,32,,,,,,,,,,,,,,,,,,1376.2055583996698,,,1386.5592812001705,1386.5592812001705,1386.5592812001705,4,1.220597199164331,1387.8117113001645,1387.8117113001645,1387.8117113001645,1387.8117113001645,1387.8117113001645,1387.8117113001645,1387.8117113001645,1387.8117113001645,None,None,None,,,,,,,,,,,,1376.2055583996698,1376.2055583996698,None,,,1376.2055583996698,1376.2055583996698,1384.5386442998424,1386.5592812001705,21,001,2024-09-24_17h43.06.174,robot_cogshifting_sign,2022.2.5,59.85773034537992,
"['blue_left_J_0', 'blue_top_S_45', 'blue_top_S_0', 'red_top_V_0']","{'color': 'red_top_V_0', 'position': 'blue_left_J_0', 'orientation': 'blue_top_S_45'}",orientation,"['color', 'orientation']",blue_top_S_45,1,2,letter,2,False,False,"['robot_stimuli\\\\filler.mp4', 'robot_stimuli\\\\filler.mp4', 'robot_stimuli\\\\filler.mp4', 'robot_stimuli\\\\filler.mp4']",robot_stimuli\\filler.mp4,21,,,,,,,,,,,,,0,33,33,33,,,,,,,,,,,,,,,,,,1387.8117113001645,,,1398.9670142997056,1398.9670142997056,1398.9670142997056,2,1.4207485001534224,1400.4198697004467,1400.4198697004467,1400.4198697004467,1400.4198697004467,1400.4198697004467,1400.4198697004467,1400.4198697004467,1400.4198697004467,None,None,None,,,,1389.882607200183,,,,,,,,1387.8117113001645,1387.8117113001645,None,,,1387.8117113001645,1387.8117113001645,1396.7460898999125,1398.9670142997056,21,001,2024-09-24_17h43.06.174,robot_cogshifting_sign,2022.2.5,59.85773034537992,
"['red_right_K_0', 'red_left_Z_45', 'blue_left_J_0', 'red_left_L_0']","{'color': 'blue_left_J_0', 'position': 'red_right_K_0', 'orientation': 'red_left_Z_45'}",color,"['color', 'orientation']",blue_left_J_0,2,2,letter,2,False,False,"['robot_stimuli\\\\filler.mp4', 'robot_stimuli\\\\filler.mp4', 'robot_stimuli\\\\filler.mp4', 'robot_stimuli\\\\filler.mp4']",robot_stimuli\\filler.mp4,21,,,,,,,,,,,,,0,34,34,34,,,,,,,,,,,,,,,,,,1400.4198697004467,,,1411.391462800093,1411.391462800093,1411.391462800093,3,0.7712423000484705,1412.1930670002475,1412.1930670002475,1412.1930670002475,1412.1930670002475,1412.1930670002475,1412.1930670002475,1412.1930670002475,1412.1930670002475,None,None,None,,,,1402.4906892003492,,,,,,,,1400.4198697004467,1400.4198697004467,None,,,1400.4198697004467,1400.4198697004467,1409.170441600494,1411.391462800093,21,001,2024-09-24_17h43.06.174,robot_cogshifting_sign,2022.2.5,59.85773034537992,
"['red_right_V_45', 'red_top_K_0', 'blue_top_L_45', 'red_top_X_45']","{'color': 'blue_top_L_45', 'position': 'red_right_V_45', 'orientation': 'red_top_K_0'}",orientation,"['orientation', 'position']",red_top_K_0,1,2,letter,2,False,True,"['robot_stimuli\\\\filler.mp4', 'robot_stimuli\\\\filler.mp4', 'robot_stimuli\\\\filler.mp4', 'robot_stimuli\\\\filler.mp4']",robot_stimuli\\filler.mp4,21,,,,,,,,,,,,,0,35,35,35,,,,,,,,,,,,,,,,,,1412.1930670002475,,,1422.730488399975,1422.730488399975,1422.730488399975,2,3.6485036006197333,1426.437755100429,1431.5144362002611,1426.437755100429,1431.5144362002611,1426.437755100429,1431.5144362002611,1426.437755100429,1431.5144362002611,39.285714285714285,4.217839200049639,space,,,,1414.2470813998953,5.021710400469601,,,,,,,1412.1930670002475,1412.1930670002475,None,,,1412.1930670002475,1412.1930670002475,1420.7100589005277,1422.730488399975,21,001,2024-09-24_17h43.06.174,robot_cogshifting_sign,2022.2.5,59.85773034537992,
"['red_bottom_S_0', 'blue_bottom_N_0', 'red_left_X_0', 'red_bottom_J_45']","{'color': 'blue_bottom_N_0', 'position': 'red_left_X_0', 'orientation': 'red_bottom_J_45'}",position,['position'],red_left_X_0,2,1,letter,2,True,False,"['robot_stimuli\\\\filler.mp4', 'robot_stimuli\\\\filler.mp4', 'robot_stimuli\\\\filler.mp4', 'robot_stimuli\\\\filler.mp4']",robot_stimuli\\filler.mp4,21,,,,,,,,,,,,,0,36,36,36,,,,,,,,,,,,,,,,,,1435.8061798000708,,,1446.7443705005571,1446.7443705005571,1446.7443705005571,3,0.21174219995737076,1446.9782074000686,1446.9782074000686,1446.9782074000686,1446.9782074000686,1446.9782074000686,1446.9782074000686,1446.9782074000686,1446.9782074000686,None,None,None,,,,,,,,,,,,1431.5144362002611,1431.5144362002611,space,4.272586899809539,,,,1444.5233871005476,1446.7443705005571,21,001,2024-09-24_17h43.06.174,robot_cogshifting_sign,2022.2.5,59.85773034537992,
"['blue_top_N_45', 'red_top_S_45', 'red_top_M_0', 'red_right_X_45']","{'color': 'blue_top_N_45', 'position': 'red_right_X_45', 'orientation': 'red_top_M_0'}",position,['position'],red_right_X_45,3,1,letter,2,False,False,"['robot_stimuli\\\\filler.mp4', 'robot_stimuli\\\\filler.mp4', 'robot_stimuli\\\\filler.mp4', 'robot_stimuli\\\\filler.mp4']",robot_stimuli\\filler.mp4,21,,,,,,,,,,,,,0,37,37,37,,,,,,,,,,,,,,,,,,1446.9782074000686,,,1457.6992637999356,1457.6992637999356,1457.6992637999356,4,0.2794881006702781,1457.9998863004148,1457.9998863004148,1457.9998863004148,1457.9998863004148,1457.9998863004148,1457.9998863004148,1457.9998863004148,1457.9998863004148,None,None,None,,,,1449.0322845997289,,,,,,,,1446.9782074000686,1446.9782074000686,None,,,1446.9782074000686,1446.9782074000686,1455.67891050037,1457.6992637999356,21,001,2024-09-24_17h43.06.174,robot_cogshifting_sign,2022.2.5,59.85773034537992,
"['red_top_B_0', 'blue_bottom_D_0', 'red_bottom_N_45', 'red_bottom_C_0']","{'color': 'blue_bottom_D_0', 'position': 'red_top_B_0', 'orientation': 'red_bottom_N_45'}",position,['position'],red_top_B_0,0,1,letter,2,False,False,"['robot_stimuli\\\\filler.mp4', 'robot_stimuli\\\\filler.mp4', 'robot_stimuli\\\\filler.mp4', 'robot_stimuli\\\\filler.mp4']",robot_stimuli\\filler.mp4,21,,,,,,,,,,,,,0,38,38,38,,,,,,,,,,,,,,,,,,1457.9998863004148,,,1468.7209783000872,1468.7209783000872,1468.7209783000872,1,0.4259275998920202,1469.1718667000532,1469.1718667000532,1469.1718667000532,1469.1718667000532,1469.1718667000532,1469.1718667000532,1469.1718667000532,1469.1718667000532,None,None,None,,,,1460.0539790997282,,,,,,,,1457.9998863004148,1457.9998863004148,None,,,1457.9998863004148,1457.9998863004148,1466.5167295001447,1468.7209783000872,21,001,2024-09-24_17h43.06.174,robot_cogshifting_sign,2022.2.5,59.85773034537992,
"['red_top_K_0', 'red_top_R_45', 'blue_top_G_0', 'red_left_L_0']","{'color': 'blue_top_G_0', 'position': 'red_left_L_0', 'orientation': 'red_top_R_45'}",orientation,['orientation'],red_top_R_45,1,1,letter,2,False,False,"['robot_stimuli\\\\filler.mp4', 'robot_stimuli\\\\filler.mp4', 'robot_stimuli\\\\filler.mp4', 'robot_stimuli\\\\filler.mp4']",robot_stimuli\\filler.mp4,21,,,,,,,,,,,,,0,39,39,39,,,,,,,,,,,,,,,,,,1469.1718667000532,,,1479.7092899000272,1479.7092899000272,1479.7092899000272,2,0.22171330079436302,1479.9597720997408,1479.9597720997408,1479.9597720997408,1479.9597720997408,1479.9597720997408,1479.9597720997408,1479.9597720997408,1479.9597720997408,None,None,None,,,,1471.2259472003207,,,,,,,,1469.1718667000532,1469.1718667000532,None,,,1469.1718667000532,1469.1718667000532,1477.4883165005594,1479.7092899000272,21,001,2024-09-24_17h43.06.174,robot_cogshifting_sign,2022.2.5,59.85773034537992,
"['red_right_V_45', 'red_right_S_0', 'blue_right_Z_45', 'red_left_J_45']","{'color': 'blue_right_Z_45', 'position': 'red_left_J_45', 'orientation': 'red_right_S_0'}",orientation,['orientation'],red_right_S_0,1,1,letter,2,False,False,"['robot_stimuli\\\\filler.mp4', 'robot_stimuli\\\\filler.mp4', 'robot_stimuli\\\\filler.mp4', 'robot_stimuli\\\\filler.mp4']",robot_stimuli\\filler.mp4,21,,,,,,,,,,,,,0,40,40,40,,,,,,,,,,,,,,,,,,1479.9597720997408,,,1490.8812541998923,1490.8812541998923,1490.8812541998923,2,0.5222110999748111,1491.4323634998873,1491.4323634998873,1491.4323634998873,1491.4323634998873,1491.4323634998873,1491.4323634998873,1491.4323634998873,1491.4323634998873,None,None,None,,,,1482.030565300025,,,,,,,,1479.9597720997408,1479.9597720997408,None,,,1479.9597720997408,1479.9597720997408,1488.6770142996684,1490.8812541998923,21,001,2024-09-24_17h43.06.174,robot_cogshifting_sign,2022.2.5,59.85773034537992,
"['blue_right_X_45', 'blue_left_M_45', 'blue_left_G_0', 'red_left_W_45']","{'color': 'red_left_W_45', 'position': 'blue_right_X_45', 'orientation': 'blue_left_G_0'}",orientation,['orientation'],blue_left_G_0,2,1,letter,2,False,False,"['robot_stimuli\\\\filler.mp4', 'robot_stimuli\\\\filler.mp4', 'robot_stimuli\\\\filler.mp4', 'robot_stimuli\\\\filler.mp4']",robot_stimuli\\filler.mp4,21,,,,,,,,,,,,,0,41,41,41,,,,,,,,,,,,,,,,,,1491.4323634998873,,,1502.3706170003861,1502.3706170003861,1502.3706170003861,3,0.2643540007993579,1502.6544543998316,1502.6544543998316,1502.6544543998316,1502.6544543998316,1502.6544543998316,1502.6544543998316,1502.6544543998316,1502.6544543998316,None,None,None,,,,1493.5032080998644,,,,,,,,1491.4323634998873,1491.4323634998873,None,,,1491.4323634998873,1491.4323634998873,1500.3500735005364,1502.3706170003861,21,001,2024-09-24_17h43.06.174,robot_cogshifting_sign,2022.2.5,59.85773034537992,
"['blue_bottom_F_45', 'blue_left_T_45', 'red_left_G_45', 'blue_left_K_0']","{'color': 'red_left_G_45', 'position': 'blue_bottom_F_45', 'orientation': 'blue_left_K_0'}",color,['color'],red_left_G_45,2,1,letter,2,False,False,"['robot_stimuli\\\\filler.mp4', 'robot_stimuli\\\\filler.mp4', 'robot_stimuli\\\\filler.mp4', 'robot_stimuli\\\\filler.mp4']",robot_stimuli\\filler.mp4,21,,,,,,,,,,,,,0,42,42,42,,,,,,,,,,,,,,,,,,1502.6544543998316,,,1513.3922498002648,1513.3922498002648,1513.3922498002648,3,0.22646719962358475,1513.6427817996591,1513.6427817996591,1513.6427817996591,1513.6427817996591,1513.6427817996591,1513.6427817996591,1513.6427817996591,1513.6427817996591,None,None,None,,,,1504.7252411004156,,,,,,,,1502.6544543998316,1502.6544543998316,None,,,1502.6544543998316,1502.6544543998316,1511.1713298000395,1513.3922498002648,21,001,2024-09-24_17h43.06.174,robot_cogshifting_sign,2022.2.5,59.85773034537992,
"['red_top_C_0', 'red_bottom_Q_0', 'blue_bottom_P_0', 'red_bottom_F_45']","{'color': 'blue_bottom_P_0', 'position': 'red_top_C_0', 'orientation': 'red_bottom_F_45'}",color,['color'],blue_bottom_P_0,2,1,letter,2,False,False,"['robot_stimuli\\\\filler.mp4', 'robot_stimuli\\\\filler.mp4', 'robot_stimuli\\\\filler.mp4', 'robot_stimuli\\\\filler.mp4']",robot_stimuli\\filler.mp4,21,,,,,,,,,,,,,0,43,43,43,,,,,,,,,,,,,,,,,,1513.6427817996591,,,1524.3972485000268,1524.3972485000268,1524.3972485000268,3,0.5905292006209493,1525.0150899002329,1525.0150899002329,1525.0150899002329,1525.0150899002329,1525.0150899002329,1525.0150899002329,1525.0150899002329,1525.0150899002329,None,None,None,,,,1515.713600399904,,,,,,,,1513.6427817996591,1513.6427817996591,None,,,1513.6427817996591,1513.6427817996591,1522.3772181002423,1524.3972485000268,21,001,2024-09-24_17h43.06.174,robot_cogshifting_sign,2022.2.5,59.85773034537992,
"['red_bottom_H_0', 'blue_right_F_0', 'red_right_Q_0', 'red_right_F_45']","{'color': 'blue_right_F_0', 'position': 'red_bottom_H_0', 'orientation': 'red_right_F_45'}",color,['color'],blue_right_F_0,1,1,letter,2,False,True,"['robot_stimuli\\\\filler.mp4', 'robot_stimuli\\\\filler.mp4', 'robot_stimuli\\\\filler.mp4', 'robot_stimuli\\\\filler.mp4']",robot_stimuli\\filler.mp4,21,,,,,,,,,,,,,0,44,44,44,,,,,,,,,,,,,,,,,,1525.0150899002329,,,1536.153706899844,1536.153706899844,1536.153706899844,2,0.31362809985876083,1536.521089100279,1540.5957660004497,1536.521089100279,1540.5957660004497,1536.521089100279,1540.5957660004497,1536.521089100279,1540.5957660004497,10.714285714285717,3.1488816998898983,space,,,,1527.085950399749,4.010362999513745,,,,,,,1525.0150899002329,1525.0150899002329,None,,,1525.0150899002329,1525.0150899002329,1533.932734400034,1536.153706899844,21,001,2024-09-24_17h43.06.174,robot_cogshifting_sign,2022.2.5,59.85773034537992,
"['blue_left_V_45', 'blue_right_X_45', 'red_left_X_45', 'blue_left_Z_0']","{'color': 'red_left_X_45', 'position': 'blue_right_X_45', 'orientation': 'blue_left_Z_0'}",color,"['color', 'orientation', 'position']",red_left_X_45,2,3,letter,2,True,False,"['robot_stimuli\\\\filler.mp4', 'robot_stimuli\\\\filler.mp4', 'robot_stimuli\\\\filler.mp4', 'robot_stimuli\\\\filler.mp4']",robot_stimuli\\filler.mp4,21,,,,,,,,,,,,,0,45,45,45,,,,,,,,,,,,,,,,,,1551.1665746001527,,,1561.9043902000412,1561.9043902000412,1561.9043902000412,3,3.0271441005170345,1564.9603877998888,1564.9603877998888,1564.9603877998888,1564.9603877998888,1564.9603877998888,1564.9603877998888,1564.9603877998888,1564.9603877998888,None,None,None,,,,,,,,,,,,1540.5957660004497,1540.5957660004497,space,10.543360099196434,,,,1559.7000788999721,1561.9043902000412,21,001,2024-09-24_17h43.06.174,robot_cogshifting_sign,2022.2.5,59.85773034537992,
"['blue_top_T_45', 'blue_left_M_45', 'red_top_Z_45', 'blue_top_D_0']","{'color': 'red_top_Z_45', 'position': 'blue_left_M_45', 'orientation': 'blue_top_D_0'}",orientation,"['color', 'orientation', 'position']",blue_top_D_0,3,3,letter,2,False,False,"['robot_stimuli\\\\filler.mp4', 'robot_stimuli\\\\filler.mp4', 'robot_stimuli\\\\filler.mp4', 'robot_stimuli\\\\filler.mp4']",robot_stimuli\\filler.mp4,21,,,,,,,,,,,,,0,46,46,46,,,,,,,,,,,,,,,,,,1564.9603877998888,,,1575.7149347998202,1575.7149347998202,1575.7149347998202,4,2.1201975997537374,1577.85243299976,1577.85243299976,1577.85243299976,1577.85243299976,1577.85243299976,1577.85243299976,1577.85243299976,1577.85243299976,None,None,None,,,,1567.0310952998698,,,,,,,,1564.9603877998888,1564.9603877998888,None,,,1564.9603877998888,1564.9603877998888,1573.6943469997495,1575.7149347998202,21,001,2024-09-24_17h43.06.174,robot_cogshifting_sign,2022.2.5,59.85773034537992,
"['red_left_W_0', 'red_right_P_0', 'red_left_L_45', 'blue_left_W_0']","{'color': 'blue_left_W_0', 'position': 'red_right_P_0', 'orientation': 'red_left_L_45'}",position,"['color', 'orientation', 'position']",red_right_P_0,1,3,letter,2,False,False,"['robot_stimuli\\\\filler.mp4', 'robot_stimuli\\\\filler.mp4', 'robot_stimuli\\\\filler.mp4', 'robot_stimuli\\\\filler.mp4']",robot_stimuli\\filler.mp4,21,,,,,,,,,,,,,0,47,47,47,,,,,,,,,,,,,,,,,,1577.85243299976,,,1588.3898614998907,1588.3898614998907,1588.3898614998907,2,2.0932205989956856,1590.5106897996739,1590.5106897996739,1590.5106897996739,1590.5106897996739,1590.5106897996739,1590.5106897996739,1590.5106897996739,1590.5106897996739,None,None,None,,,,1579.906538899988,,,,,,,,1577.85243299976,1577.85243299976,None,,,1577.85243299976,1577.85243299976,1586.1688708001748,1588.3898614998907,21,001,2024-09-24_17h43.06.174,robot_cogshifting_sign,2022.2.5,59.85773034537992,
"['blue_left_B_45', 'red_left_X_0', 'red_right_J_45', 'red_left_C_45']","{'color': 'blue_left_B_45', 'position': 'red_right_J_45', 'orientation': 'red_left_X_0'}",position,"['color', 'orientation', 'position']",red_right_J_45,2,3,letter,2,False,False,"['robot_stimuli\\\\filler.mp4', 'robot_stimuli\\\\filler.mp4', 'robot_stimuli\\\\filler.mp4', 'robot_stimuli\\\\filler.mp4']",robot_stimuli\\filler.mp4,21,,,,,,,,,,,,,0,48,48,48,,,,,,,,,,,,,,,,,,1590.5106897996739,,,1601.0480840001255,1601.0480840001255,1601.0480840001255,3,2.642848299816251,1603.7200132003054,1603.7200132003054,1603.7200132003054,1603.7200132003054,1603.7200132003054,1603.7200132003054,1603.7200132003054,1603.7200132003054,None,None,None,,,,1592.5652417000383,,,,,,,,1590.5106897996739,1590.5106897996739,None,,,1590.5106897996739,1590.5106897996739,1598.8270773002878,1601.0480840001255,21,001,2024-09-24_17h43.06.174,robot_cogshifting_sign,2022.2.5,59.85773034537992,
"['blue_left_L_0', 'red_bottom_S_0', 'blue_bottom_W_0', 'blue_bottom_N_45']","{'color': 'red_bottom_S_0', 'position': 'blue_left_L_0', 'orientation': 'blue_bottom_N_45'}",orientation,"['color', 'orientation', 'position']",blue_bottom_N_45,3,3,letter,2,False,False,"['robot_stimuli\\\\filler.mp4', 'robot_stimuli\\\\filler.mp4', 'robot_stimuli\\\\filler.mp4', 'robot_stimuli\\\\filler.mp4']",robot_stimuli\\filler.mp4,21,,,,,,,,,,,,,0,49,49,49,,,,,,,,,,,,,,,,,,1603.7200132003054,,,1614.6749756997451,1614.6749756997451,1614.6749756997451,4,0.7837243992835283,1615.4764775000513,1615.4764775000513,1615.4764775000513,1615.4764775000513,1615.4764775000513,1615.4764775000513,1615.4764775000513,1615.4764775000513,None,None,None,,,,1605.7908209003508,,,,,,,,1603.7200132003054,1603.7200132003054,None,,,1603.7200132003054,1603.7200132003054,1612.4539192998782,1614.6749756997451,21,001,2024-09-24_17h43.06.174,robot_cogshifting_sign,2022.2.5,59.85773034537992,
"['red_top_D_0', 'blue_top_N_45', 'blue_top_G_0', 'blue_bottom_X_0']","{'color': 'red_top_D_0', 'position': 'blue_bottom_X_0', 'orientation': 'blue_top_N_45'}",color,"['color', 'orientation', 'position']",red_top_D_0,0,3,letter,2,False,False,"['robot_stimuli\\\\filler.mp4', 'robot_stimuli\\\\filler.mp4', 'robot_stimuli\\\\filler.mp4', 'robot_stimuli\\\\filler.mp4']",robot_stimuli\\filler.mp4,21,,,,,,,,,,,,,0,50,50,50,,,,,,,,,,,,,,,,,,1615.4764775000513,,,1626.0138819003478,1626.0138819003478,1626.0138819003478,1,1.1565933991223574,1627.1995900999755,1627.1995900999755,1627.1995900999755,1627.1995900999755,1627.1995900999755,1627.1995900999755,1627.1995900999755,1627.1995900999755,None,None,None,,,,1617.5306061003357,,,,,,,,1615.4764775000513,1615.4764775000513,None,,,1615.4764775000513,1615.4764775000513,1623.9937867997214,1626.0138819003478,21,001,2024-09-24_17h43.06.174,robot_cogshifting_sign,2022.2.5,59.85773034537992,
"['red_right_J_45', 'blue_left_R_45', 'red_left_N_45', 'red_left_K_0']","{'color': 'blue_left_R_45', 'position': 'red_right_J_45', 'orientation': 'red_left_K_0'}",position,"['color', 'orientation', 'position']",red_right_J_45,0,3,letter,2,False,False,"['robot_stimuli\\\\filler.mp4', 'robot_stimuli\\\\filler.mp4', 'robot_stimuli\\\\filler.mp4', 'robot_stimuli\\\\filler.mp4']",robot_stimuli\\filler.mp4,21,,,,,,,,,,,,,0,51,51,51,,,,,,,,,,,,,,,,,,1627.1995900999755,,,1637.9373284000903,1637.9373284000903,1637.9373284000903,1,2.545503099448979,1640.5090784002095,1640.5090784002095,1640.5090784002095,1640.5090784002095,1640.5090784002095,1640.5090784002095,1640.5090784002095,1640.5090784002095,None,None,None,,,,1629.2703144000843,,,,,,,,1627.1995900999755,1627.1995900999755,None,,,1627.1995900999755,1627.1995900999755,1635.7163471002132,1637.9373284000903,21,001,2024-09-24_17h43.06.174,robot_cogshifting_sign,2022.2.5,59.85773034537992,
"['blue_top_P_0', 'red_top_B_0', 'red_top_P_45', 'red_bottom_Q_0']","{'color': 'blue_top_P_0', 'position': 'red_bottom_Q_0', 'orientation': 'red_top_P_45'}",orientation,"['color', 'orientation', 'position']",red_top_P_45,2,3,letter,2,False,False,"['robot_stimuli\\\\filler.mp4', 'robot_stimuli\\\\filler.mp4', 'robot_stimuli\\\\filler.mp4', 'robot_stimuli\\\\filler.mp4']",robot_stimuli\\filler.mp4,21,,,,,,,,,,,,,0,52,52,52,,,,,,,,,,,,,,,,,,1640.5090784002095,,,1651.2636315999553,1651.2636315999553,1651.2636315999553,3,3.979241400025785,1655.2714549005032,1655.2714549005032,1655.2714549005032,1655.2714549005032,1655.2714549005032,1655.2714549005032,1655.2714549005032,1655.2714549005032,None,None,None,,,,1642.579854699783,,,,,,,,1640.5090784002095,1640.5090784002095,None,,,1640.5090784002095,1640.5090784002095,1649.2430790998042,1651.2636315999553,21,001,2024-09-24_17h43.06.174,robot_cogshifting_sign,2022.2.5,59.85773034537992,
"['red_left_F_0', 'red_left_S_45', 'blue_left_J_0', 'red_top_X_0']","{'color': 'blue_left_J_0', 'position': 'red_top_X_0', 'orientation': 'red_left_S_45'}",color,"['color', 'orientation', 'position']",blue_left_J_0,2,3,letter,2,False,True,"['robot_stimuli\\\\filler.mp4', 'robot_stimuli\\\\filler.mp4', 'robot_stimuli\\\\filler.mp4', 'robot_stimuli\\\\filler.mp4']",robot_stimuli\\filler.mp4,21,,,,,,,,,,,,,0,53,53,53,,,,,,,,,,,,,,,,,,1655.2714549005032,,,1666.209648700431,1666.209648700431,1666.209648700431,3,2.3227118998765945,1668.5977002996951,1671.7539713000879,1668.5977002996951,1671.7539713000879,1668.5977002996951,1671.7539713000879,1668.5977002996951,1671.7539713000879,25.158730158730158,2.3977771997451782,space,,,,1657.325474999845,3.085190599784255,,,,,,,1655.2714549005032,1655.2714549005032,None,,,1655.2714549005032,1655.2714549005032,1663.9886961001903,1666.209648700431,21,001,2024-09-24_17h43.06.174,robot_cogshifting_sign,2022.2.5,59.85773034537992,
"['R_Head_Y_Back', 'R_Base_Y_For', 'L_Base_Y_For', 'R_Base_Z_Back']","{'laterality': 'L_Base_Y_For', 'localisation': 'R_Head_Y_Back', 'movement': 'R_Base_Z_Back'}",movement,"['laterality', 'localisation', 'movement']",R_Base_Z_Back,3,3,robot,3,True,False,"['robot_stimuli\\R_Head_Y_Back.mp4', 'robot_stimuli\\R_Base_Y_For.mp4', 'robot_stimuli\\L_Base_Y_For.mp4', 'robot_stimuli\\R_Base_Z_Back.mp4']",robot_stimuli\R_Base_Z_Back.mp4,21,,,,,,,,,,,,,0,54,54,54,,,,,,,,,,,,,,,,,,1674.308929800056,,,1691.0251774005592,1691.0251774005592,1691.0251774005592,4,1.323115499690175,1692.3778338003904,1692.3778338003904,1692.3778338003904,1692.3778338003904,1692.3778338003904,1692.3778338003904,1692.3778338003904,1692.3778338003904,None,None,None,,,,,,,,,,,,1671.7539713000879,1671.7539713000879,space,2.5289098992943764,1687.4681965997443,,,,,21,001,2024-09-24_17h43.06.174,robot_cogshifting_sign,2022.2.5,59.85773034537992,
"['R_Torso_X_Back', 'L_Head_X_For', 'R_Head_X_Back', 'R_Head_Z_For']","{'laterality': 'L_Head_X_For', 'localisation': 'R_Torso_X_Back', 'movement': 'R_Head_Z_For'}",localisation,"['laterality', 'localisation', 'movement']",R_Torso_X_Back,0,3,robot,3,False,False,"['robot_stimuli\\R_Torso_X_Back.mp4', 'robot_stimuli\\L_Head_X_For.mp4', 'robot_stimuli\\R_Head_X_Back.mp4', 'robot_stimuli\\R_Head_Z_For.mp4']",robot_stimuli\R_Torso_X_Back.mp4,21,,,,,,,,,,,,,0,55,55,55,,,,,,,,,,,,,,,,,,1692.3778338003904,,,1709.2109569003806,1709.2109569003806,1709.2109569003806,1,1.0638602003455162,1710.2964398004115,1710.2964398004115,1710.2964398004115,1710.2964398004115,1710.2964398004115,1710.2964398004115,1710.2964398004115,1710.2964398004115,None,None,None,,,,1694.4652954004705,,,,,,,,1692.3778338003904,1692.3778338003904,None,,1705.5537798004225,1692.3778338003904,1692.3778338003904,,,21,001,2024-09-24_17h43.06.174,robot_cogshifting_sign,2022.2.5,59.85773034537992,
"['R_Arm_X_Back', 'L_Arm_Z_For', 'L_Arm_X_Back', 'L_Torso_X_For']","{'laterality': 'R_Arm_X_Back', 'localisation': 'L_Torso_X_For', 'movement': 'L_Arm_Z_For'}",movement,"['laterality', 'localisation', 'movement']",L_Arm_Z_For,1,3,robot,3,False,False,"['robot_stimuli\\R_Arm_X_Back.mp4', 'robot_stimuli\\L_Arm_Z_For.mp4', 'robot_stimuli\\L_Arm_X_Back.mp4', 'robot_stimuli\\L_Torso_X_For.mp4']",robot_stimuli\L_Arm_Z_For.mp4,21,,,,,,,,,,,,,0,56,56,56,,,,,,,,,,,,,,,,,,1710.2964398004115,,,1727.2297366000712,1727.2297366000712,1727.2297366000712,2,1.437365099787712,1728.6992998998612,1728.6992998998612,1728.6992998998612,1728.6992998998612,1728.6992998998612,1728.6992998998612,1728.6992998998612,1728.6992998998612,None,None,None,,,,1712.400643300265,,,,,,,,1710.2964398004115,1710.2964398004115,None,,1723.572579599917,1710.2964398004115,1710.2964398004115,,,21,001,2024-09-24_17h43.06.174,robot_cogshifting_sign,2022.2.5,59.85773034537992,
"['R_Arm_Z_Back', 'L_Base_Z_For', 'R_Base_X_Back', 'R_Base_Z_For']","{'laterality': 'L_Base_Z_For', 'localisation': 'R_Arm_Z_Back', 'movement': 'R_Base_X_Back'}",laterality,"['laterality', 'localisation', 'movement']",L_Base_Z_For,1,3,robot,3,False,False,"['robot_stimuli\\R_Arm_Z_Back.mp4', 'robot_stimuli\\L_Base_Z_For.mp4', 'robot_stimuli\\R_Base_X_Back.mp4', 'robot_stimuli\\R_Base_Z_For.mp4']",robot_stimuli\L_Base_Z_For.mp4,21,,,,,,,,,,,,,0,57,57,57,,,,,,,,,,,,,,,,,,1728.6992998998612,,,1745.5825348999351,1745.5825348999351,1745.5825348999351,2,1.292224899865687,1746.9018240002915,1746.9018240002915,1746.9018240002915,1746.9018240002915,1746.9018240002915,1746.9018240002915,1746.9018240002915,1746.9018240002915,None,None,None,,,,1730.7867703996599,,,,,,,,1728.6992998998612,1728.6992998998612,None,,1741.9421079996973,1728.6992998998612,1728.6992998998612,,,21,001,2024-09-24_17h43.06.174,robot_cogshifting_sign,2022.2.5,59.85773034537992,
"['L_Head_Y_For', 'R_Head_Y_For', 'R_Torso_Y_Back', 'R_Head_Z_Back']","{'laterality': 'L_Head_Y_For', 'localisation': 'R_Torso_Y_Back', 'movement': 'R_Head_Z_Back'}",localisation,"['laterality', 'localisation', 'movement']",R_Torso_Y_Back,2,3,robot,3,False,False,"['robot_stimuli\\L_Head_Y_For.mp4', 'robot_stimuli\\R_Head_Y_For.mp4', 'robot_stimuli\\R_Torso_Y_Back.mp4', 'robot_stimuli\\R_Head_Z_Back.mp4']",robot_stimuli\R_Torso_Y_Back.mp4,21,,,,,,,,,,,,,0,58,58,58,,,,,,,,,,,,,,,,,,1746.9018240002915,,,1763.7850462999195,1763.7850462999195,1763.7850462999195,3,2.5697755003347993,1766.3734983000904,1766.3734983000904,1766.3734983000904,1766.3734983000904,1766.3734983000904,1766.3734983000904,1766.3734983000904,1766.3734983000904,None,None,None,,,,1748.989288800396,,,,,,,,1746.9018240002915,1746.9018240002915,None,,1760.1446080002934,1746.9018240002915,1746.9018240002915,,,21,001,2024-09-24_17h43.06.174,robot_cogshifting_sign,2022.2.5,59.85773034537992,
"['R_Arm_Y_Back', 'L_Arm_X_For', 'R_Base_X_Back', 'R_Arm_X_For']","{'laterality': 'L_Arm_X_For', 'localisation': 'R_Base_X_Back', 'movement': 'R_Arm_Y_Back'}",localisation,"['laterality', 'localisation', 'movement']",R_Base_X_Back,2,3,robot,3,False,False,"['robot_stimuli\\R_Arm_Y_Back.mp4', 'robot_stimuli\\L_Arm_X_For.mp4', 'robot_stimuli\\R_Base_X_Back.mp4', 'robot_stimuli\\R_Arm_X_For.mp4']",robot_stimuli\R_Base_X_Back.mp4,21,,,,,,,,,,,,,0,59,59,59,,,,,,,,,,,,,,,,,,1766.3734983000904,,,1783.2400038000196,1783.2400038000196,1783.2400038000196,3,2.8188271997496486,1786.0789526998997,1786.0789526998997,1786.0789526998997,1786.0789526998997,1786.0789526998997,1786.0789526998997,1786.0789526998997,1786.0789526998997,None,None,None,,,,1768.4609564999118,,,,,,,,1766.3734983000904,1766.3734983000904,None,,1779.6162173002958,1766.3734983000904,1766.3734983000904,,,21,001,2024-09-24_17h43.06.174,robot_cogshifting_sign,2022.2.5,59.85773034537992,
"['L_Head_X_Back', 'R_Head_Z_Back', 'R_Head_X_For', 'R_Base_X_Back']","{'laterality': 'L_Head_X_Back', 'localisation': 'R_Base_X_Back', 'movement': 'R_Head_Z_Back'}",laterality,"['laterality', 'localisation', 'movement']",L_Head_X_Back,0,3,robot,3,False,False,"['robot_stimuli\\L_Head_X_Back.mp4', 'robot_stimuli\\R_Head_Z_Back.mp4', 'robot_stimuli\\R_Head_X_For.mp4', 'robot_stimuli\\R_Base_X_Back.mp4']",robot_stimuli\L_Head_X_Back.mp4,21,,,,,,,,,,,,,0,60,60,60,,,,,,,,,,,,,,,,,,1786.0789526998997,,,1802.9788509001955,1802.9788509001955,1802.9788509001955,3,2.200109999626875,1805.199888699688,1805.199888699688,1805.199888699688,1805.199888699688,1805.199888699688,1805.199888699688,1805.199888699688,1805.199888699688,None,None,None,,,,1788.1663867998868,,,,,,,,1786.0789526998997,1786.0789526998997,None,,1799.3383550001308,1786.0789526998997,1786.0789526998997,,,21,001,2024-09-24_17h43.06.174,robot_cogshifting_sign,2022.2.5,59.85773034537992,
"['L_Arm_Z_For', 'R_Arm_Z_Back', 'L_Arm_X_Back', 'L_Base_Z_For']","{'laterality': 'R_Arm_Z_Back', 'localisation': 'L_Base_Z_For', 'movement': 'L_Arm_X_Back'}",laterality,"['laterality', 'localisation', 'movement']",R_Arm_Z_Back,1,3,robot,3,False,False,"['robot_stimuli\\L_Arm_Z_For.mp4', 'robot_stimuli\\R_Arm_Z_Back.mp4', 'robot_stimuli\\L_Arm_X_Back.mp4', 'robot_stimuli\\L_Base_Z_For.mp4']",robot_stimuli\R_Arm_Z_Back.mp4,21,,,,,,,,,,,,,0,61,61,61,,,,,,,,,,,,,,,,,,1805.199888699688,,,1822.0831014998257,1822.0831014998257,1822.0831014998257,2,2.2245145002380013,1824.337534500286,1824.337534500286,1824.337534500286,1824.337534500286,1824.337534500286,1824.337534500286,1824.337534500286,1824.337534500286,None,None,None,,,,1807.2873116005212,,,,,,,,1805.199888699688,1805.199888699688,None,,1818.4426266998053,1805.199888699688,1805.199888699688,,,21,001,2024-09-24_17h43.06.174,robot_cogshifting_sign,2022.2.5,59.85773034537992,
"['R_Head_Z_For', 'L_Head_X_For', 'R_Head_X_Back', 'R_Torso_X_Back']","{'laterality': 'L_Head_X_For', 'localisation': 'R_Torso_X_Back', 'movement': 'R_Head_Z_For'}",movement,"['laterality', 'localisation', 'movement']",R_Head_Z_For,0,3,robot,3,False,True,"['robot_stimuli\\R_Head_Z_For.mp4', 'robot_stimuli\\L_Head_X_For.mp4', 'robot_stimuli\\R_Head_X_Back.mp4', 'robot_stimuli\\R_Torso_X_Back.mp4']",robot_stimuli\R_Head_Z_For.mp4,21,,,,,,,,,,,,,0,62,62,62,,,,,,,,,,,,,,,,,,1824.337534500286,,,1841.170694200322,1841.170694200322,1841.170694200322,1,3.2166036004200578,1844.443780099973,1849.2031624997035,1844.443780099973,1849.2031624997035,1844.443780099973,1849.2031624997035,1844.443780099973,1849.2031624997035,51.507936507936506,3.516324399970472,space,,,,1826.4250306002796,4.678828199394047,,,,,,,1824.337534500286,1824.337534500286,None,,1837.5139810005203,1824.337534500286,1824.337534500286,,,21,001,2024-09-24_17h43.06.174,robot_cogshifting_sign,2022.2.5,59.85773034537992,
"['R_Base_X_For', 'L_Torso_X_For', 'L_Base_X_Back', 'L_Base_Y_Back']","{'laterality': 'R_Base_X_For', 'localisation': 'L_Torso_X_For', 'movement': 'L_Base_Y_Back'}",movement,['movement'],L_Base_Y_Back,3,1,robot,3,True,False,"['robot_stimuli\\R_Base_X_For.mp4', 'robot_stimuli\\L_Torso_X_For.mp4', 'robot_stimuli\\L_Base_X_Back.mp4', 'robot_stimuli\\L_Base_Y_Back.mp4']",robot_stimuli\L_Base_Y_Back.mp4,21,,,,,,,,,,,,,0,63,63,63,,,,,,,,,,,,,,,,,,1856.8682468999177,,,1873.5677709998563,1873.5677709998563,1873.5677709998563,4,0.5709301000460982,1874.1689512003213,1874.1689512003213,1874.1689512003213,1874.1689512003213,1874.1689512003213,1874.1689512003213,1874.1689512003213,1874.1689512003213,None,None,None,,,,,,,,,,,,1849.2031624997035,1849.2031624997035,space,7.6397885996848345,1869.9773671999574,,,,,21,001,2024-09-24_17h43.06.174,robot_cogshifting_sign,2022.2.5,59.85773034537992,
"['R_Base_Z_Back', 'R_Arm_Y_Back', 'R_Arm_Z_Back', 'L_Arm_Z_Back']","{'laterality': 'L_Arm_Z_Back', 'localisation': 'R_Base_Z_Back', 'movement': 'R_Arm_Y_Back'}",localisation,['localisation'],R_Base_Z_Back,0,1,robot,3,False,False,"['robot_stimuli\\R_Base_Z_Back.mp4', 'robot_stimuli\\R_Arm_Y_Back.mp4', 'robot_stimuli\\R_Arm_Z_Back.mp4', 'robot_stimuli\\L_Arm_Z_Back.mp4']",robot_stimuli\R_Base_Z_Back.mp4,21,,,,,,,,,,,,,0,64,64,64,,,,,,,,,,,,,,,,,,1874.1689512003213,,,1890.9686710005626,1890.9686710005626,1890.9686710005626,1,0.5781426997855306,1891.5698768999428,1891.5698768999428,1891.5698768999428,1891.5698768999428,1891.5698768999428,1891.5698768999428,1891.5698768999428,1891.5698768999428,None,None,None,,,,1876.256447199732,,,,,,,,1874.1689512003213,1874.1689512003213,None,,1887.3115071002394,1874.1689512003213,1874.1689512003213,,,21,001,2024-09-24_17h43.06.174,robot_cogshifting_sign,2022.2.5,59.85773034537992,
"['L_Head_X_For', 'L_Head_Y_Back', 'L_Base_X_Back', 'R_Head_X_For']","{'laterality': 'R_Head_X_For', 'localisation': 'L_Base_X_Back', 'movement': 'L_Head_Y_Back'}",movement,['movement'],L_Head_Y_Back,1,1,robot,3,False,False,"['robot_stimuli\\L_Head_X_For.mp4', 'robot_stimuli\\L_Head_Y_Back.mp4', 'robot_stimuli\\L_Base_X_Back.mp4', 'robot_stimuli\\R_Head_X_For.mp4']",robot_stimuli\L_Head_Y_Back.mp4,21,,,,,,,,,,,,,0,65,65,65,,,,,,,,,,,,,,,,,,1891.5698768999428,,,1908.3696034001186,1908.3696034001186,1908.3696034001186,2,0.44896099995821714,1908.8371951999143,1908.8371951999143,1908.8371951999143,1908.8371951999143,1908.8371951999143,1908.8371951999143,1908.8371951999143,1908.8371951999143,None,None,None,,,,1893.6573307998478,,,,,,,,1891.5698768999428,1891.5698768999428,None,,1904.7291430998594,1891.5698768999428,1891.5698768999428,,,21,001,2024-09-24_17h43.06.174,robot_cogshifting_sign,2022.2.5,59.85773034537992,
"['R_Arm_Z_Back', 'R_Arm_Y_For', 'L_Arm_Z_Back', 'R_Torso_Z_Back']","{'laterality': 'L_Arm_Z_Back', 'localisation': 'R_Torso_Z_Back', 'movement': 'R_Arm_Y_For'}",localisation,['localisation'],R_Torso_Z_Back,3,1,robot,3,False,False,"['robot_stimuli\\R_Arm_Z_Back.mp4', 'robot_stimuli\\R_Arm_Y_For.mp4', 'robot_stimuli\\L_Arm_Z_Back.mp4', 'robot_stimuli\\R_Torso_Z_Back.mp4']",robot_stimuli\R_Torso_Z_Back.mp4,21,,,,,,,,,,,,,0,66,66,66,,,,,,,,,,,,,,,,,,1908.8371951999143,,,1925.5700925001875,1925.5700925001875,1925.5700925001875,4,0.36048989929258823,1925.954221200198,1925.954221200198,1925.954221200198,1925.954221200198,1925.954221200198,1925.954221200198,1925.954221200198,1925.954221200198,None,None,None,,,,1910.9079852001742,,,,,,,,1908.8371951999143,1908.8371951999143,None,,1921.9296506997198,1908.8371951999143,1908.8371951999143,,,21,001,2024-09-24_17h43.06.174,robot_cogshifting_sign,2022.2.5,59.85773034537992,
"['L_Torso_X_Back', 'L_Arm_Z_For', 'L_Torso_Z_Back', 'R_Torso_Z_For']","{'laterality': 'R_Torso_Z_For', 'localisation': 'L_Arm_Z_For', 'movement': 'L_Torso_X_Back'}",laterality,['laterality'],R_Torso_Z_For,3,1,robot,3,False,False,"['robot_stimuli\\L_Torso_X_Back.mp4', 'robot_stimuli\\L_Arm_Z_For.mp4', 'robot_stimuli\\L_Torso_Z_Back.mp4', 'robot_stimuli\\R_Torso_Z_For.mp4']",robot_stimuli\R_Torso_Z_For.mp4,21,,,,,,,,,,,,,0,67,67,67,,,,,,,,,,,,,,,,,,1925.954221200198,,,1942.7205603998154,1942.7205603998154,1942.7205603998154,4,0.4020342994481325,1943.1547435997054,1943.1547435997054,1943.1547435997054,1943.1547435997054,1943.1547435997054,1943.1547435997054,1943.1547435997054,1943.1547435997054,None,None,None,,,,1928.041691799648,,,,,,,,1925.954221200198,1925.954221200198,None,,1939.0800739005208,1925.954221200198,1925.954221200198,,,21,001,2024-09-24_17h43.06.174,robot_cogshifting_sign,2022.2.5,59.85773034537992,
"['L_Arm_X_For', 'L_Arm_Y_Back', 'L_Head_X_Back', 'R_Arm_X_For']","{'laterality': 'R_Arm_X_For', 'localisation': 'L_Head_X_Back', 'movement': 'L_Arm_Y_Back'}",laterality,['laterality'],R_Arm_X_For,3,1,robot,3,False,False,"['robot_stimuli\\L_Arm_X_For.mp4', 'robot_stimuli\\L_Arm_Y_Back.mp4', 'robot_stimuli\\L_Head_X_Back.mp4', 'robot_stimuli\\R_Arm_X_For.mp4']",robot_stimuli\R_Arm_X_For.mp4,21,,,,,,,,,,,,,0,68,68,68,,,,,,,,,,,,,,,,,,1943.1547435997054,,,1960.0546519001946,1960.0546519001946,1960.0546519001946,4,0.35571879986673594,1960.4387424997985,1960.4387424997985,1960.4387424997985,1960.4387424997985,1960.4387424997985,1960.4387424997985,1960.4387424997985,1960.4387424997985,None,None,None,,,,1945.225582100451,,,,,,,,1943.1547435997054,1943.1547435997054,None,,1956.3974802000448,1943.1547435997054,1943.1547435997054,,,21,001,2024-09-24_17h43.06.174,robot_cogshifting_sign,2022.2.5,59.85773034537992,
"['L_Base_Z_For', 'R_Arm_Z_For', 'L_Arm_X_For', 'L_Arm_Z_For']","{'laterality': 'R_Arm_Z_For', 'localisation': 'L_Base_Z_For', 'movement': 'L_Arm_X_For'}",movement,['movement'],L_Arm_X_For,2,1,robot,3,False,False,"['robot_stimuli\\L_Base_Z_For.mp4', 'robot_stimuli\\R_Arm_Z_For.mp4', 'robot_stimuli\\L_Arm_X_For.mp4', 'robot_stimuli\\L_Arm_Z_For.mp4']",robot_stimuli\L_Arm_X_For.mp4,21,,,,,,,,,,,,,0,69,69,69,,,,,,,,,,,,,,,,,,1960.4387424997985,,,1977.3387015005574,1977.3387015005574,1977.3387015005574,3,0.48008619993925095,1977.839673500508,1977.839673500508,1977.839673500508,1977.839673500508,1977.839673500508,1977.839673500508,1977.839673500508,1977.839673500508,None,None,None,,,,1962.526228800416,,,,,,,,1960.4387424997985,1960.4387424997985,None,,1973.7149392003193,1960.4387424997985,1960.4387424997985,,,21,001,2024-09-24_17h43.06.174,robot_cogshifting_sign,2022.2.5,59.85773034537992,
"['R_Base_Y_For', 'L_Base_Z_Back', 'L_Torso_Y_For', 'L_Base_Y_For']","{'laterality': 'R_Base_Y_For', 'localisation': 'L_Torso_Y_For', 'movement': 'L_Base_Z_Back'}",laterality,['laterality'],R_Base_Y_For,0,1,robot,3,False,False,"['robot_stimuli\\R_Base_Y_For.mp4', 'robot_stimuli\\L_Base_Z_Back.mp4', 'robot_stimuli\\L_Torso_Y_For.mp4', 'robot_stimuli\\L_Base_Y_For.mp4']",robot_stimuli\R_Base_Y_For.mp4,21,,,,,,,,,,,,,0,70,70,70,,,,,,,,,,,,,,,,,,1977.839673500508,,,1994.622686699964,1994.622686699964,1994.622686699964,1,0.275845299474895,1994.9232878005132,1994.9232878005132,1994.9232878005132,1994.9232878005132,1994.9232878005132,1994.9232878005132,1994.9232878005132,1994.9232878005132,None,None,None,,,,1979.9271493004635,,,,,,,,1977.839673500508,1977.839673500508,None,,1991.0824119998142,1977.839673500508,1977.839673500508,,,21,001,2024-09-24_17h43.06.174,robot_cogshifting_sign,2022.2.5,59.85773034537992,
"['R_Base_Y_For', 'R_Base_X_For', 'R_Torso_Y_Back', 'L_Base_Y_Back']","{'laterality': 'L_Base_Y_Back', 'localisation': 'R_Torso_Y_Back', 'movement': 'R_Base_X_For'}",localisation,['localisation'],R_Torso_Y_Back,2,1,robot,3,False,True,"['robot_stimuli\\R_Base_Y_For.mp4', 'robot_stimuli\\R_Base_X_For.mp4', 'robot_stimuli\\R_Torso_Y_Back.mp4', 'robot_stimuli\\L_Base_Y_Back.mp4']",robot_stimuli\R_Torso_Y_Back.mp4,21,,,,,,,,,,,,,0,71,71,71,,,,,,,,,,,,,,,,,,1994.9232878005132,,,2011.6729410998523,2011.6729410998523,2011.6729410998523,3,0.4413896994665265,2012.1739271003753,2019.4548757001758,2012.1739271003753,2019.4548757001758,2012.1739271003753,2019.4548757001758,2012.1739271003753,2019.4548757001758,34.04761904761905,6.522670700214803,space,,,,1997.0107861999422,7.221942599862814,,,,,,,1994.9232878005132,1994.9232878005132,None,,2008.0825406005606,1994.9232878005132,1994.9232878005132,,,21,001,2024-09-24_17h43.06.174,robot_cogshifting_sign,2022.2.5,59.85773034537992,
"['R_Head_Y_For', 'R_Head_X_For', 'R_Torso_X_For', 'L_Head_X_Back']","{'laterality': 'L_Head_X_Back', 'localisation': 'R_Torso_X_For', 'movement': 'R_Head_Y_For'}",localisation,"['localisation', 'movement']",R_Torso_X_For,2,2,robot,3,True,False,"['robot_stimuli\\R_Head_Y_For.mp4', 'robot_stimuli\\R_Head_X_For.mp4', 'robot_stimuli\\R_Torso_X_For.mp4', 'robot_stimuli\\L_Head_X_Back.mp4']",robot_stimuli\R_Torso_X_For.mp4,21,,,,,,,,,,,,,0,72,72,72,,,,,,,,,,,,,,,,,,2046.6751784002408,,,2063.558443300426,2063.558443300426,2063.558443300426,3,6.052618999965489,2069.637031899765,2069.637031899765,2069.637031899765,2069.637031899765,2069.637031899765,2069.637031899765,2069.637031899765,2069.637031899765,None,None,None,,,,,,,,,,,,2019.4548757001758,2019.4548757001758,space,27.1882195007056,2059.934596899897,,,,,21,001,2024-09-24_17h43.06.174,robot_cogshifting_sign,2022.2.5,59.85773034537992,
"['R_Head_X_Back', 'R_Arm_X_Back', 'R_Head_Y_For', 'L_Head_X_For']","{'laterality': 'L_Head_X_For', 'localisation': 'R_Arm_X_Back', 'movement': 'R_Head_Y_For'}",laterality,"['laterality', 'localisation']",L_Head_X_For,3,2,robot,3,False,False,"['robot_stimuli\\R_Head_X_Back.mp4', 'robot_stimuli\\R_Arm_X_Back.mp4', 'robot_stimuli\\R_Head_Y_For.mp4', 'robot_stimuli\\L_Head_X_For.mp4']",robot_stimuli\L_Head_X_For.mp4,21,,,,,,,,,,,,,0,73,73,73,,,,,,,,,,,,,,,,,,2069.637031899765,,,2086.4534900998697,2086.4534900998697,2086.4534900998697,4,1.7972937999293208,2088.2737119002268,2088.2737119002268,2088.2737119002268,2088.2737119002268,2088.2737119002268,2088.2737119002268,2088.2737119002268,2088.2737119002268,None,None,None,,,,2071.7244778005406,,,,,,,,2069.637031899765,2069.637031899765,None,,2082.8965031001717,2069.637031899765,2069.637031899765,,,21,001,2024-09-24_17h43.06.174,robot_cogshifting_sign,2022.2.5,59.85773034537992,
"['R_Head_X_For', 'R_Head_Z_Back', 'L_Head_X_Back', 'R_Arm_X_For']","{'laterality': 'L_Head_X_Back', 'localisation': 'R_Arm_X_For', 'movement': 'R_Head_Z_Back'}",movement,"['laterality', 'movement']",R_Head_Z_Back,1,2,robot,3,False,False,"['robot_stimuli\\R_Head_X_For.mp4', 'robot_stimuli\\R_Head_Z_Back.mp4', 'robot_stimuli\\L_Head_X_Back.mp4', 'robot_stimuli\\R_Arm_X_For.mp4']",robot_stimuli\R_Head_Z_Back.mp4,21,,,,,,,,,,,,,0,74,74,74,,,,,,,,,,,,,,,,,,2088.2737119002268,,,2105.1736561004072,2105.1736561004072,2105.1736561004072,2,3.156639000400901,2108.3632479999214,2108.3632479999214,2108.3632479999214,2108.3632479999214,2108.3632479999214,2108.3632479999214,2108.3632479999214,2108.3632479999214,None,None,None,,,,2090.3611909002066,,,,,,,,2088.2737119002268,2088.2737119002268,None,,2101.516442700289,2088.2737119002268,2088.2737119002268,,,21,001,2024-09-24_17h43.06.174,robot_cogshifting_sign,2022.2.5,59.85773034537992,
"['R_Arm_X_Back', 'L_Head_X_Back', 'L_Arm_Y_For', 'L_Arm_X_Back']","{'laterality': 'R_Arm_X_Back', 'localisation': 'L_Head_X_Back', 'movement': 'L_Arm_Y_For'}",localisation,"['laterality', 'localisation']",L_Head_X_Back,1,2,robot,3,False,False,"['robot_stimuli\\R_Arm_X_Back.mp4', 'robot_stimuli\\L_Head_X_Back.mp4', 'robot_stimuli\\L_Arm_Y_For.mp4', 'robot_stimuli\\L_Arm_X_Back.mp4']",robot_stimuli\L_Head_X_Back.mp4,21,,,,,,,,,,,,,0,75,75,75,,,,,,,,,,,,,,,,,,2108.3632479999214,,,2125.246445200406,2125.246445200406,2125.246445200406,2,1.2042962005361915,2126.482238699682,2126.482238699682,2126.482238699682,2126.482238699682,2126.482238699682,2126.482238699682,2126.482238699682,2126.482238699682,None,None,None,,,,2110.4507009005174,,,,,,,,2108.3632479999214,2108.3632479999214,None,,2121.605969700031,2108.3632479999214,2108.3632479999214,,,21,001,2024-09-24_17h43.06.174,robot_cogshifting_sign,2022.2.5,59.85773034537992,
"['R_Arm_X_Back', 'L_Arm_Z_For', 'L_Torso_X_For', 'L_Arm_X_Back']","{'laterality': 'R_Arm_X_Back', 'localisation': 'L_Torso_X_For', 'movement': 'L_Arm_Z_For'}",laterality,"['laterality', 'localisation']",R_Arm_X_Back,0,2,robot,3,False,False,"['robot_stimuli\\R_Arm_X_Back.mp4', 'robot_stimuli\\L_Arm_Z_For.mp4', 'robot_stimuli\\L_Torso_X_For.mp4', 'robot_stimuli\\L_Arm_X_Back.mp4']",robot_stimuli\R_Arm_X_Back.mp4,21,,,,,,,,,,,,,0,76,76,76,,,,,,,,,,,,,,,,,,2126.482238699682,,,2143.3492660997435,2143.3492660997435,2143.3492660997435,1,1.8539663003757596,2145.235827700235,2145.235827700235,2145.235827700235,2145.235827700235,2145.235827700235,2145.235827700235,2145.235827700235,2145.235827700235,None,None,None,,,,2128.5697594005615,,,,,,,,2126.482238699682,2126.482238699682,None,,2139.7082475004718,2126.482238699682,2126.482238699682,,,21,001,2024-09-24_17h43.06.174,robot_cogshifting_sign,2022.2.5,59.85773034537992,
"['L_Base_Z_Back', 'R_Base_Y_Back', 'L_Torso_Y_Back', 'L_Base_Y_Back']","{'laterality': 'R_Base_Y_Back', 'localisation': 'L_Torso_Y_Back', 'movement': 'L_Base_Z_Back'}",movement,"['laterality', 'movement']",L_Base_Z_Back,0,2,robot,3,False,False,"['robot_stimuli\\L_Base_Z_Back.mp4', 'robot_stimuli\\R_Base_Y_Back.mp4', 'robot_stimuli\\L_Torso_Y_Back.mp4', 'robot_stimuli\\L_Base_Y_Back.mp4']",robot_stimuli\L_Base_Z_Back.mp4,21,,,,,,,,,,,,,0,77,77,77,,,,,,,,,,,,,,,,,,2145.235827700235,,,2161.952024400234,2161.952024400234,2161.952024400234,1,2.9071412002667785,2164.8912086999044,2164.8912086999044,2164.8912086999044,2164.8912086999044,2164.8912086999044,2164.8912086999044,2164.8912086999044,2164.8912086999044,None,None,None,,,,2147.323309900239,,,,,,,,2145.235827700235,2145.235827700235,None,,2158.362097900361,2145.235827700235,2145.235827700235,,,21,001,2024-09-24_17h43.06.174,robot_cogshifting_sign,2022.2.5,59.85773034537992,
"['L_Head_X_For', 'R_Head_X_For', 'R_Head_Z_Back', 'R_Base_X_For']","{'laterality': 'L_Head_X_For', 'localisation': 'R_Base_X_For', 'movement': 'R_Head_Z_Back'}",movement,"['localisation', 'movement']",R_Head_Z_Back,2,2,robot,3,False,False,"['robot_stimuli\\L_Head_X_For.mp4', 'robot_stimuli\\R_Head_X_For.mp4', 'robot_stimuli\\R_Head_Z_Back.mp4', 'robot_stimuli\\R_Base_X_For.mp4']",robot_stimuli\R_Head_Z_Back.mp4,21,,,,,,,,,,,,,0,78,78,78,,,,,,,,,,,,,,,,,,2164.8912086999044,,,2181.6241137003526,2181.6241137003526,2181.6241137003526,3,2.290409700013697,2183.9453648999333,2183.9453648999333,2183.9453648999333,2183.9453648999333,2183.9453648999333,2183.9453648999333,2183.9453648999333,2183.9453648999333,None,None,None,,,,2166.978617100045,,,,,,,,2164.8912086999044,2164.8912086999044,None,,2178.083835300058,2164.8912086999044,2164.8912086999044,,,21,001,2024-09-24_17h43.06.174,robot_cogshifting_sign,2022.2.5,59.85773034537992,
"['R_Torso_Y_For', 'L_Torso_Z_Back', 'L_Torso_Y_For', 'L_Head_Y_For']","{'laterality': 'R_Torso_Y_For', 'localisation': 'L_Head_Y_For', 'movement': 'L_Torso_Z_Back'}",laterality,"['laterality', 'movement']",R_Torso_Y_For,0,2,robot,3,False,False,"['robot_stimuli\\R_Torso_Y_For.mp4', 'robot_stimuli\\L_Torso_Z_Back.mp4', 'robot_stimuli\\L_Torso_Y_For.mp4', 'robot_stimuli\\L_Head_Y_For.mp4']",robot_stimuli\R_Torso_Y_For.mp4,21,,,,,,,,,,,,,0,79,79,79,,,,,,,,,,,,,,,,,,2183.9453648999333,,,2200.7116903997958,2200.7116903997958,2200.7116903997958,1,1.8600719003006816,2202.598714400083,2202.598714400083,2202.598714400083,2202.598714400083,2202.598714400083,2202.598714400083,2202.598714400083,2202.598714400083,None,None,None,,,,2186.03278850019,,,,,,,,2183.9453648999333,2183.9453648999333,None,,2197.071181599982,2183.9453648999333,2183.9453648999333,,,21,001,2024-09-24_17h43.06.174,robot_cogshifting_sign,2022.2.5,59.85773034537992,
"['R_Torso_Z_For', 'L_Torso_X_Back', 'L_Torso_Z_For', 'L_Base_Z_Back']","{'laterality': 'R_Torso_Z_For', 'localisation': 'L_Base_Z_Back', 'movement': 'L_Torso_X_Back'}",localisation,"['localisation', 'movement']",L_Base_Z_Back,3,2,robot,3,False,True,"['robot_stimuli\\R_Torso_Z_For.mp4', 'robot_stimuli\\L_Torso_X_Back.mp4', 'robot_stimuli\\L_Torso_Z_For.mp4', 'robot_stimuli\\L_Base_Z_Back.mp4']",robot_stimuli\L_Base_Z_Back.mp4,21,,,,,,,,,,,,,0,80,80,80,,,,,,,,,,,,,,,,,,2202.598714400083,,,2219.4819638002664,2219.4819638002664,2219.4819638002664,4,1.3530767001211643,2220.901436300017,2226.7463145004585,2220.901436300017,2226.7463145004585,2220.901436300017,2226.7463145004585,2220.901436300017,2226.7463145004585,52.77777777777778,2.6318359998986125,space,,,,2204.6862048003823,5.781195200048387,,,,,,,2202.598714400083,2202.598714400083,None,,2215.8415091000497,2202.598714400083,2202.598714400083,,,21,001,2024-09-24_17h43.06.174,robot_cogshifting_sign,2022.2.5,59.85773034537992,
"['blue_bottom_Z_0', 'red_top_D_0', 'blue_top_M_0', 'blue_top_G_45']","{'color': 'red_top_D_0', 'position': 'blue_bottom_Z_0', 'orientation': 'blue_top_G_45'}",color,"['color', 'orientation', 'position']",red_top_D_0,1,3,letter,4,True,False,"['robot_stimuli\\\\filler.mp4', 'robot_stimuli\\\\filler.mp4', 'robot_stimuli\\\\filler.mp4', 'robot_stimuli\\\\filler.mp4']",robot_stimuli\\filler.mp4,21,,,,,,,,,,,,,0,81,81,81,,,,,,,,,,,,,,,,,,2266.7750163003802,,,2277.5128215001896,2277.5128215001896,2277.5128215001896,2,2.1629364993423223,2279.7004939001054,2279.7004939001054,2279.7004939001054,2279.7004939001054,2279.7004939001054,2279.7004939001054,2279.7004939001054,2279.7004939001054,None,None,None,,,,,,,,,,,,2226.7463145004585,2226.7463145004585,space,40.000086199492216,,,,2275.49249640014,2277.5128215001896,21,001,2024-09-24_17h43.06.174,robot_cogshifting_sign,2022.2.5,59.85773034537992,
"['blue_top_T_45', 'red_right_T_45', 'red_top_B_45', 'red_top_N_0']","{'color': 'blue_top_T_45', 'position': 'red_right_T_45', 'orientation': 'red_top_N_0'}",orientation,"['color', 'orientation', 'position']",red_top_N_0,3,3,letter,4,False,False,"['robot_stimuli\\\\filler.mp4', 'robot_stimuli\\\\filler.mp4', 'robot_stimuli\\\\filler.mp4', 'robot_stimuli\\\\filler.mp4']",robot_stimuli\\filler.mp4,21,,,,,,,,,,,,,0,82,82,82,,,,,,,,,,,,,,,,,,2279.7004939001054,,,2290.4883922999725,2290.4883922999725,2290.4883922999725,4,4.8020165003836155,2295.314531800337,2295.314531800337,2295.314531800337,2295.314531800337,2295.314531800337,2295.314531800337,2295.314531800337,2295.314531800337,None,None,None,,,,2281.7712267003953,,,,,,,,2279.7004939001054,2279.7004939001054,None,,,2279.7004939001054,2279.7004939001054,2288.451036799699,2290.4883922999725,21,001,2024-09-24_17h43.06.174,robot_cogshifting_sign,2022.2.5,59.85773034537992,
"['blue_left_Q_45', 'blue_right_C_0', 'blue_left_D_0', 'red_left_N_0']","{'color': 'red_left_N_0', 'position': 'blue_right_C_0', 'orientation': 'blue_left_Q_45'}",orientation,"['color', 'orientation', 'position']",blue_left_Q_45,0,3,letter,4,False,False,"['robot_stimuli\\\\filler.mp4', 'robot_stimuli\\\\filler.mp4', 'robot_stimuli\\\\filler.mp4', 'robot_stimuli\\\\filler.mp4']",robot_stimuli\\filler.mp4,21,,,,,,,,,,,,,0,83,83,83,,,,,,,,,,,,,,,,,,2295.314531800337,,,2306.2527457997203,2306.2527457997203,2306.2527457997203,1,3.038137899711728,2309.3087633000687,2309.3087633000687,2309.3087633000687,2309.3087633000687,2309.3087633000687,2309.3087633000687,2309.3087633000687,2309.3087633000687,None,None,None,,,,2297.385410600342,,,,,,,,2295.314531800337,2295.314531800337,None,,,2295.314531800337,2295.314531800337,2304.0317454999313,2306.2527457997203,21,001,2024-09-24_17h43.06.174,robot_cogshifting_sign,2022.2.5,59.85773034537992,
"['blue_left_J_0', 'red_left_L_0', 'blue_top_X_0', 'blue_left_J_45']","{'color': 'red_left_L_0', 'position': 'blue_top_X_0', 'orientation': 'blue_left_J_45'}",color,"['color', 'orientation', 'position']",red_left_L_0,1,3,letter,4,False,False,"['robot_stimuli\\\\filler.mp4', 'robot_stimuli\\\\filler.mp4', 'robot_stimuli\\\\filler.mp4', 'robot_stimuli\\\\filler.mp4']",robot_stimuli\\filler.mp4,21,,,,,,,,,,,,,0,84,84,84,,,,,,,,,,,,,,,,,,2309.3087633000687,,,2319.6457575000823,2319.6457575000823,2319.6457575000823,2,0.884982599876821,2320.547536100261,2320.547536100261,2320.547536100261,2320.547536100261,2320.547536100261,2320.547536100261,2320.547536100261,2320.547536100261,None,None,None,,,,2311.3628190001473,,,,,,,,2309.3087633000687,2309.3087633000687,None,,,2309.3087633000687,2309.3087633000687,2317.6251707999036,2319.6457575000823,21,001,2024-09-24_17h43.06.174,robot_cogshifting_sign,2022.2.5,59.85773034537992,
"['red_top_F_0', 'blue_top_B_0', 'blue_left_V_0', 'blue_top_B_45']","{'color': 'red_top_F_0', 'position': 'blue_left_V_0', 'orientation': 'blue_top_B_45'}",position,"['color', 'orientation', 'position']",blue_left_V_0,2,3,letter,4,False,False,"['robot_stimuli\\\\filler.mp4', 'robot_stimuli\\\\filler.mp4', 'robot_stimuli\\\\filler.mp4', 'robot_stimuli\\\\filler.mp4']",robot_stimuli\\filler.mp4,21,,,,,,,,,,,,,0,85,85,85,,,,,,,,,,,,,,,,,,2320.547536100261,,,2331.485757100396,2331.485757100396,2331.485757100396,3,1.4450610000640154,2332.955281900242,2332.955281900242,2332.955281900242,2332.955281900242,2332.955281900242,2332.955281900242,2332.955281900242,2332.955281900242,None,None,None,,,,2322.6184384999797,,,,,,,,2320.547536100261,2320.547536100261,None,,,2320.547536100261,2320.547536100261,2329.465157699771,2331.485757100396,21,001,2024-09-24_17h43.06.174,robot_cogshifting_sign,2022.2.5,59.85773034537992,
