sequence,is_target,condition,stimuli,block,is_block_beginning,is_block_ending,fname,subject,retraining.thisRepN,retraining.thisTrialN,retraining.thisN,retraining.thisIndex,training.thisRepN,training.thisTrialN,training.thisN,training.thisIndex,trials.thisRepN,trials.thisTrialN,trials.thisN,trials.thisIndex,langage_text.started,langage_key.started,langage_key.keys,langage_key.rt,intro_text.started,intro_key.started,intro_key.keys,intro_key.rt,training_robot_intro_text.started,training_robot_intro_key.started,training_robot_intro_key.keys,training_robot_intro_key.rt,cross.started,cross.stopped,training_letter.started,training_robot_key.started,training_robot_question.started,training_robot_keys.started,training_letter.stopped,training_robot_key.keys,RSME_labels.started,RSME_labels.stopped,RSME_ticks.started,RSME_ticks.stopped,RSME_text.started,RSME_text.stopped,RSME_key.started,RSME_key.stopped,RSME_ticks.response,RSME_ticks.rt,RSME_key.keys,training_robot_intro_text.stopped,training_robot_intro_key.stopped,training_robot_key.rt,RSME_key.rt,training_robot_movie.started,experiment_beginning_text.started,experiment_beginning_keys.started,experiment_beginning_key.started,experiment_beginning_key.keys,experiment_beginning_key.rt,block_intro_text.started,block_intro_key.started,block_intro_key.keys,block_intro_key.rt,letter.started,key.started,letter.stopped,key.keys,block_intro_text.stopped,block_intro_key.stopped,key.rt,movie.started,participant,session,date,expName,psychopyVersion,frameRate,
,,,,,,,,,,,,,,,,,,,,,15.988830400000097,15.988830400000097,f,442.9491535999998,,,,,,,,,,,,,,,,,,,,,,,,,,,,,,,,,,,,,,,,,,,,,,,,,,0,001,2024-05-28_13h55.25.410,robot_nback_sign,2022.2.5,59.92125149122066,
,,,,,,,,,,,,,,,,,,,,,,,,,459.01057909999986,459.01057909999986,space,132.53709610000033,,,,,,,,,,,,,,,,,,,,,,,,,,,,,,,,,,,,,,,,,,,,,,0,001,2024-05-28_13h55.25.410,robot_nback_sign,2022.2.5,59.92125149122066,
R,False,1,letter,1,True,False,robot_stimuli\\filler.mp4,0,0,0,0,0,0,0,0,0,,,,,,,,,,,,,591.5854268999999,591.5854268999999,space,3.577899300000354,595.1861571000002,596.6817619999999,596.6817619999999,596.6817619999999,596.6817619999999,596.6817619999999,599.0093215999998,None,599.0093215999998,599.0093215999998,599.0093215999998,599.0093215999998,599.0093215999998,599.0093215999998,599.0093215999998,599.0093215999998,None,None,None,,,,,,,,,,,,,,,,,,,,,,,0,001,2024-05-28_13h55.25.410,robot_nback_sign,2022.2.5,59.92125149122066,
F,False,1,letter,1,False,False,robot_stimuli\\filler.mp4,0,0,0,0,0,0,1,1,1,,,,,,,,,,,,,599.0093215999998,599.0093215999998,None,,599.0093215999998,,600.0862386000001,600.0862386000001,600.0862386000001,600.0862386000001,602.1185088999998,None,602.1185088999998,602.1185088999998,602.1185088999998,602.1185088999998,602.1185088999998,602.1185088999998,602.1185088999998,602.1185088999998,None,None,None,599.0093215999998,599.0093215999998,,,,,,,,,,,,,,,,,,,,,0,001,2024-05-28_13h55.25.410,robot_nback_sign,2022.2.5,59.92125149122066,
S,False,1,letter,1,False,False,robot_stimuli\\filler.mp4,0,0,0,0,0,0,2,2,2,,,,,,,,,,,,,602.1185088999998,602.1185088999998,None,,602.1185088999998,603.1897726999998,603.1897726999998,603.1897726999998,603.1897726999998,603.1897726999998,605.4190823000001,None,605.4190823000001,605.4190823000001,605.4190823000001,605.4190823000001,605.4190823000001,605.4190823000001,605.4190823000001,605.4190823000001,None,None,None,602.1185088999998,602.1185088999998,,,,,,,,,,,,,,,,,,,,,0,001,2024-05-28_13h55.25.410,robot_nback_sign,2022.2.5,59.92125149122066,
R,False,1,letter,1,False,False,robot_stimuli\\filler.mp4,0,0,0,0,0,0,3,3,3,,,,,,,,,,,,,605.4190823000001,605.4190823000001,None,,605.4190823000001,606.4841561000001,606.4841561000001,606.4841561000001,606.4841561000001,606.4841561000001,608.5173145000001,None,608.5173145000001,608.5173145000001,608.5173145000001,608.5173145000001,608.5173145000001,608.5173145000001,608.5173145000001,608.5173145000001,None,None,None,605.4190823000001,605.4190823000001,,,,,,,,,,,,,,,,,,,,,0,001,2024-05-28_13h55.25.410,robot_nback_sign,2022.2.5,59.92125149122066,
R,True,1,letter,1,False,False,robot_stimuli\\filler.mp4,0,0,0,0,0,0,4,4,4,,,,,,,,,,,,,608.5173145000001,608.5173145000001,None,,608.5173145000001,609.5897594999999,609.5897594999999,609.5897594999999,609.5897594999999,609.5897594999999,611.8165431,c,611.8165431,611.8165431,611.8165431,611.8165431,611.8165431,611.8165431,611.8165431,611.8165431,None,None,None,608.5173145000001,608.5173145000001,0.669258599999921,,,,,,,,,,,,,,,,,,,,0,001,2024-05-28_13h55.25.410,robot_nback_sign,2022.2.5,59.92125149122066,
R,True,1,letter,1,False,True,robot_stimuli\\filler.mp4,0,0,0,0,0,0,5,5,5,,,,,,,,,,,,,611.8165431,611.8165431,None,,611.8165431,612.8887320000001,612.8887320000001,612.8887320000001,612.8887320000001,612.8887320000001,615.1744120999999,c,615.1744120999999,630.7619674,615.1744120999999,630.7619674,615.1744120999999,630.7619674,615.1744120999999,630.7619674,17.191358024691354,14.152057100000093,space,611.8165431,611.8165431,1.5467043999997259,15.515412500000366,,,,,,,,,,,,,,,,,,,0,001,2024-05-28_13h55.25.410,robot_nback_sign,2022.2.5,59.92125149122066,
W,False,2,letter,1,True,False,robot_stimuli\\filler.mp4,0,0,0,0,0,0,6,6,6,,,,,,,,,,,,,630.7619674,630.7619674,space,6.352524200000062,637.1363779999999,638.2106339999998,638.2106339999998,638.2106339999998,638.2106339999998,638.2106339999998,640.4374820999999,None,640.4374820999999,640.4374820999999,640.4374820999999,640.4374820999999,640.4374820999999,640.4374820999999,640.4374820999999,640.4374820999999,None,None,None,,,,,,,,,,,,,,,,,,,,,,,0,001,2024-05-28_13h55.25.410,robot_nback_sign,2022.2.5,59.92125149122066,
B,False,2,letter,1,False,False,robot_stimuli\\filler.mp4,0,0,0,0,0,0,7,7,7,,,,,,,,,,,,,640.4374820999999,640.4374820999999,None,,640.4374820999999,,641.5214524,641.5214524,641.5214524,641.5214524,643.7501583999999,None,643.7501583999999,643.7501583999999,643.7501583999999,643.7501583999999,643.7501583999999,643.7501583999999,643.7501583999999,643.7501583999999,None,None,None,640.4374820999999,640.4374820999999,,,,,,,,,,,,,,,,,,,,,0,001,2024-05-28_13h55.25.410,robot_nback_sign,2022.2.5,59.92125149122066,
W,True,2,letter,1,False,False,robot_stimuli\\filler.mp4,0,0,0,0,0,0,8,8,8,,,,,,,,,,,,,643.7501583999999,643.7501583999999,None,,643.7501583999999,644.8185661,644.8185661,644.8185661,644.8185661,644.8185661,646.8517030999999,c,646.8517030999999,646.8517030999999,646.8517030999999,646.8517030999999,646.8517030999999,646.8517030999999,646.8517030999999,646.8517030999999,None,None,None,643.7501583999999,643.7501583999999,0.9688316000001578,,,,,,,,,,,,,,,,,,,,0,001,2024-05-28_13h55.25.410,robot_nback_sign,2022.2.5,59.92125149122066,
X,False,2,letter,1,False,False,robot_stimuli\\filler.mp4,0,0,0,0,0,0,9,9,9,,,,,,,,,,,,,646.8517030999999,646.8517030999999,None,,646.8517030999999,647.9236389999999,647.9236389999999,647.9236389999999,647.9236389999999,647.9236389999999,650.1554537999998,n,650.1554537999998,650.1554537999998,650.1554537999998,650.1554537999998,650.1554537999998,650.1554537999998,650.1554537999998,650.1554537999998,None,None,None,646.8517030999999,646.8517030999999,0.6306906999998318,,,,,,,,,,,,,,,,,,,,0,001,2024-05-28_13h55.25.410,robot_nback_sign,2022.2.5,59.92125149122066,
L,False,2,letter,1,False,False,robot_stimuli\\filler.mp4,0,0,0,0,0,0,10,10,10,,,,,,,,,,,,,650.1554537999998,650.1554537999998,None,,650.1554537999998,,651.2381498000002,651.2381498000002,651.2381498000002,651.2381498000002,653.4703612999999,n,653.4703612999999,653.4703612999999,653.4703612999999,653.4703612999999,653.4703612999999,653.4703612999999,653.4703612999999,653.4703612999999,None,None,None,650.1554537999998,650.1554537999998,0.9243698999998742,,,,,,,,,,,,,,,,,,,,0,001,2024-05-28_13h55.25.410,robot_nback_sign,2022.2.5,59.92125149122066,
X,True,2,letter,1,False,True,robot_stimuli\\filler.mp4,0,0,0,0,0,0,11,11,11,,,,,,,,,,,,,653.4703612999999,653.4703612999999,None,,653.4703612999999,654.5360791999999,654.5360791999999,654.5360791999999,654.5360791999999,654.5360791999999,656.5933800999999,n,656.5933800999999,663.3559351000001,656.5933800999999,663.3559351000001,656.5933800999999,663.3559351000001,656.5933800999999,663.3559351000001,37.87037037037037,3.999716299999818,space,653.4703612999999,653.4703612999999,1.8657391000001553,6.712820799999918,,,,,,,,,,,,,,,,,,,0,001,2024-05-28_13h55.25.410,robot_nback_sign,2022.2.5,59.92125149122066,
V,False,3,letter,1,True,False,robot_stimuli\\filler.mp4,0,0,0,0,0,0,12,12,12,,,,,,,,,,,,,663.3559351000001,663.3559351000001,space,2.863115099999959,666.2365051999998,667.3124375999998,667.3124375999998,667.3124375999998,667.3124375999998,667.3124375999998,669.3353165000001,n,669.3353165000001,669.3353165000001,669.3353165000001,669.3353165000001,669.3353165000001,669.3353165000001,669.3353165000001,669.3353165000001,None,None,None,,,1.2666451000000052,,,,,,,,,,,,,,,,,,,,0,001,2024-05-28_13h55.25.410,robot_nback_sign,2022.2.5,59.92125149122066,
Z,False,3,letter,1,False,False,robot_stimuli\\filler.mp4,0,0,0,0,0,0,13,13,13,,,,,,,,,,,,,669.3353165000001,669.3353165000001,None,,669.3353165000001,670.4056404999999,670.4056404999999,670.4056404999999,670.4056404999999,670.4056404999999,672.6395,n,672.6395,672.6395,672.6395,672.6395,672.6395,672.6395,672.6395,672.6395,None,None,None,669.3353165000001,669.3353165000001,0.8455090000002201,,,,,,,,,,,,,,,,,,,,0,001,2024-05-28_13h55.25.410,robot_nback_sign,2022.2.5,59.92125149122066,
X,False,3,letter,1,False,False,robot_stimuli\\filler.mp4,0,0,0,0,0,0,14,14,14,,,,,,,,,,,,,672.6395,672.6395,None,,672.6395,,673.7186417,673.7186417,673.7186417,673.7186417,675.7524439000001,n,675.7524439000001,675.7524439000001,675.7524439000001,675.7524439000001,675.7524439000001,675.7524439000001,675.7524439000001,675.7524439000001,None,None,None,672.6395,672.6395,0.7644411999999647,,,,,,,,,,,,,,,,,,,,0,001,2024-05-28_13h55.25.410,robot_nback_sign,2022.2.5,59.92125149122066,
V,True,3,letter,1,False,False,robot_stimuli\\filler.mp4,0,0,0,0,0,0,15,15,15,,,,,,,,,,,,,675.7524439000001,675.7524439000001,None,,675.7524439000001,676.8189927999999,676.8189927999999,676.8189927999999,676.8189927999999,676.8189927999999,678.8535715999999,n,678.8535715999999,678.8535715999999,678.8535715999999,678.8535715999999,678.8535715999999,678.8535715999999,678.8535715999999,678.8535715999999,None,None,None,675.7524439000001,675.7524439000001,0.6801088000001982,,,,,,,,,,,,,,,,,,,,0,001,2024-05-28_13h55.25.410,robot_nback_sign,2022.2.5,59.92125149122066,
W,False,3,letter,1,False,False,robot_stimuli\\filler.mp4,0,0,0,0,0,0,16,16,16,,,,,,,,,,,,,678.8535715999999,678.8535715999999,None,,678.8535715999999,679.9182454999998,679.9182454999998,679.9182454999998,679.9182454999998,679.9182454999998,681.9521891000002,n,681.9521891000002,681.9521891000002,681.9521891000002,681.9521891000002,681.9521891000002,681.9521891000002,681.9521891000002,681.9521891000002,None,None,None,678.8535715999999,678.8535715999999,0.987712300000112,,,,,,,,,,,,,,,,,,,,0,001,2024-05-28_13h55.25.410,robot_nback_sign,2022.2.5,59.92125149122066,
X,True,3,letter,1,False,True,robot_stimuli\\filler.mp4,0,0,0,0,0,0,17,17,17,,,,,,,,,,,,,681.9521891000002,681.9521891000002,None,,681.9521891000002,683.0185548000002,683.0185548000002,683.0185548000002,683.0185548000002,683.0185548000002,685.0800870999999,c,685.0800870999999,692.7485103000001,685.0800870999999,692.7485103000001,685.0800870999999,692.7485103000001,685.0800870999999,692.7485103000001,50.21604938271606,5.2288047000001825,space,681.9521891000002,681.9521891000002,1.1931020000001809,7.610391400000026,,,,,,,,,,,,,,,,,,,0,001,2024-05-28_13h55.25.410,robot_nback_sign,2022.2.5,59.92125149122066,
L_Torso_Y_Back,False,1,robot,2,True,False,robot_stimuli\L_Torso_Y_Back.mp4,0,0,0,0,0,0,18,18,18,,,,,,,,,,,,,692.7485103000001,692.7485103000001,space,6.286236400000234,699.0531537999998,700.1718349,,700.1718349,700.1718349,700.1718349,,None,703.8046170999999,703.8046170999999,703.8046170999999,703.8046170999999,703.8046170999999,703.8046170999999,703.8046170999999,703.8046170999999,None,None,None,,,,,700.1718349,,,,,,,,,,,,,,,,,,0,001,2024-05-28_13h55.25.410,robot_nback_sign,2022.2.5,59.92125149122066,
L_Torso_Y_Back,True,1,robot,2,False,False,robot_stimuli\L_Torso_Y_Back.mp4,0,0,0,0,0,0,19,19,19,,,,,,,,,,,,,703.8046170999999,703.8046170999999,None,,703.8046170999999,,,704.9122224,704.9122224,704.9122224,,c,708.5546780000002,708.5546780000002,708.5546780000002,708.5546780000002,708.5546780000002,708.5546780000002,708.5546780000002,708.5546780000002,None,None,None,703.8046170999999,703.8046170999999,3.2975471999998263,,704.9122224,,,,,,,,,,,,,,,,,,0,001,2024-05-28_13h55.25.410,robot_nback_sign,2022.2.5,59.92125149122066,
L_Torso_Y_Back,True,1,robot,2,False,False,robot_stimuli\L_Torso_Y_Back.mp4,0,0,0,0,0,0,20,20,20,,,,,,,,,,,,,708.5546780000002,708.5546780000002,None,,708.5546780000002,,,709.6592573999999,709.6592573999999,709.6592573999999,,None,713.3037066999998,713.3037066999998,713.3037066999998,713.3037066999998,713.3037066999998,713.3037066999998,713.3037066999998,713.3037066999998,None,None,None,708.5546780000002,708.5546780000002,,,709.6592573999999,,,,,,,,,,,,,,,,,,0,001,2024-05-28_13h55.25.410,robot_nback_sign,2022.2.5,59.92125149122066,
R_Torso_Y_Back,False,1,robot,2,False,False,robot_stimuli\R_Torso_Y_Back.mp4,0,0,0,0,0,0,21,21,21,,,,,,,,,,,,,713.3037066999998,713.3037066999998,None,,713.3037066999998,714.4018531999998,,714.4018531999998,714.4018531999998,714.4018531999998,,n,718.0563055,718.0563055,718.0563055,718.0563055,718.0563055,718.0563055,718.0563055,718.0563055,None,None,None,713.3037066999998,713.3037066999998,1.3775688000000628,,714.4018531999998,,,,,,,,,,,,,,,,,,0,001,2024-05-28_13h55.25.410,robot_nback_sign,2022.2.5,59.92125149122066,
L_Torso_Y_For,False,1,robot,2,False,False,robot_stimuli\L_Torso_Y_For.mp4,0,0,0,0,0,0,22,22,22,,,,,,,,,,,,,718.0563055,718.0563055,None,,718.0563055,719.1682388000002,,719.1682388000002,719.1682388000002,719.1682388000002,,n,722.8211499000001,722.8211499000001,722.8211499000001,722.8211499000001,722.8211499000001,722.8211499000001,722.8211499000001,722.8211499000001,None,None,None,718.0563055,718.0563055,1.1626218000001245,,719.1682388000002,,,,,,,,,,,,,,,,,,0,001,2024-05-28_13h55.25.410,robot_nback_sign,2022.2.5,59.92125149122066,
L_Base_Y_Back,False,1,robot,2,False,True,robot_stimuli\L_Base_Y_Back.mp4,0,0,0,0,0,0,23,23,23,,,,,,,,,,,,,722.8211499000001,722.8211499000001,None,,722.8211499000001,,,723.9325157999999,723.9325157999999,723.9325157999999,,n,727.6251282000001,734.5787965000002,727.6251282000001,734.5787965000002,727.6251282000001,734.5787965000002,727.6251282000001,734.5787965000002,64.25925925925927,3.4359322000000247,space,722.8211499000001,722.8211499000001,2.3260943000000225,6.889910200000031,723.9325157999999,,,,,,,,,,,,,,,,,,0,001,2024-05-28_13h55.25.410,robot_nback_sign,2022.2.5,59.92125149122066,
L_Arm_Z_For,False,2,robot,2,True,False,robot_stimuli\L_Arm_Z_For.mp4,0,0,0,0,0,0,24,24,24,,,,,,,,,,,,,734.5787965000002,734.5787965000002,space,3.464499600000181,738.0697143999998,739.1715179999999,,739.1715179999999,739.1715179999999,739.1715179999999,,n,742.8209123999998,742.8209123999998,742.8209123999998,742.8209123999998,742.8209123999998,742.8209123999998,742.8209123999998,742.8209123999998,None,None,None,,,3.159947800000282,,739.1715179999999,,,,,,,,,,,,,,,,,,0,001,2024-05-28_13h55.25.410,robot_nback_sign,2022.2.5,59.92125149122066,
R_Arm_X_For,False,2,robot,2,False,False,robot_stimuli\R_Arm_X_For.mp4,0,0,0,0,0,0,25,25,25,,,,,,,,,,,,,742.8209123999998,742.8209123999998,None,,742.8209123999998,,,743.9278163000001,743.9278163000001,743.9278163000001,,n,747.5690929,747.5690929,747.5690929,747.5690929,747.5690929,747.5690929,747.5690929,747.5690929,None,None,None,742.8209123999998,742.8209123999998,2.602442599999904,,743.9278163000001,,,,,,,,,,,,,,,,,,0,001,2024-05-28_13h55.25.410,robot_nback_sign,2022.2.5,59.92125149122066,
L_Arm_Z_For,True,2,robot,2,False,False,robot_stimuli\L_Arm_Z_For.mp4,0,0,0,0,0,0,26,26,26,,,,,,,,,,,,,747.5690929,747.5690929,None,,747.5690929,748.6637293000001,,748.6637293000001,748.6637293000001,748.6637293000001,,c,752.3067692000002,752.3067692000002,752.3067692000002,752.3067692000002,752.3067692000002,752.3067692000002,752.3067692000002,752.3067692000002,None,None,None,747.5690929,747.5690929,2.450160799999594,,748.6637293000001,,,,,,,,,,,,,,,,,,0,001,2024-05-28_13h55.25.410,robot_nback_sign,2022.2.5,59.92125149122066,
R_Arm_X_For,True,2,robot,2,False,False,robot_stimuli\R_Arm_X_For.mp4,0,0,0,0,0,0,27,27,27,,,,,,,,,,,,,752.3067692000002,752.3067692000002,None,,752.3067692000002,753.4130628,,753.4130628,753.4130628,753.4130628,,c,757.0522337999998,757.0522337999998,757.0522337999998,757.0522337999998,757.0522337999998,757.0522337999998,757.0522337999998,757.0522337999998,None,None,None,752.3067692000002,752.3067692000002,3.1578998999998475,,753.4130628,,,,,,,,,,,,,,,,,,0,001,2024-05-28_13h55.25.410,robot_nback_sign,2022.2.5,59.92125149122066,
L_Arm_Y_For,False,2,robot,2,False,False,robot_stimuli\L_Arm_Y_For.mp4,0,0,0,0,0,0,28,28,28,,,,,,,,,,,,,757.0522337999998,757.0522337999998,None,,757.0522337999998,758.1363382000002,,758.1363382000002,758.1363382000002,758.1363382000002,,c,761.7900605000002,761.7900605000002,761.7900605000002,761.7900605000002,761.7900605000002,761.7900605000002,761.7900605000002,761.7900605000002,None,None,None,757.0522337999998,757.0522337999998,2.9214868999997634,,758.1363382000002,,,,,,,,,,,,,,,,,,0,001,2024-05-28_13h55.25.410,robot_nback_sign,2022.2.5,59.92125149122066,
R_Torso_Z_For,False,2,robot,2,False,True,robot_stimuli\R_Torso_Z_For.mp4,0,0,0,0,0,0,29,29,29,,,,,,,,,,,,,761.7900605000002,761.7900605000002,None,,761.7900605000002,762.8960721000001,,762.8960721000001,762.8960721000001,762.8960721000001,,n,766.5669967000001,773.0710102,766.5669967000001,773.0710102,766.5669967000001,773.0710102,766.5669967000001,773.0710102,84.62962962962963,4.564613300000019,space,761.7900605000002,761.7900605000002,3.0509602000001905,6.459347099999832,762.8960721000001,,,,,,,,,,,,,,,,,,0,001,2024-05-28_13h55.25.410,robot_nback_sign,2022.2.5,59.92125149122066,
L_Arm_Y_Back,False,3,robot,2,True,False,robot_stimuli\L_Arm_Y_Back.mp4,0,0,0,0,0,0,30,30,30,,,,,,,,,,,,,773.0710102,773.0710102,space,4.9632487999997466,778.0530891000001,779.1541258999998,,779.1541258999998,779.1541258999998,779.1541258999998,,None,782.8042702,782.8042702,782.8042702,782.8042702,782.8042702,782.8042702,782.8042702,782.8042702,None,None,None,,,,,779.1541258999998,,,,,,,,,,,,,,,,,,0,001,2024-05-28_13h55.25.410,robot_nback_sign,2022.2.5,59.92125149122066,
R_Head_Z_For,False,3,robot,2,False,False,robot_stimuli\R_Head_Z_For.mp4,0,0,0,0,0,0,31,31,31,,,,,,,,,,,,,782.8042702,782.8042702,None,,782.8042702,,,783.9191127000001,783.9191127000001,783.9191127000001,,n,787.5691134000001,787.5691134000001,787.5691134000001,787.5691134000001,787.5691134000001,787.5691134000001,787.5691134000001,787.5691134000001,None,None,None,782.8042702,782.8042702,1.5801037000001088,,783.9191127000001,,,,,,,,,,,,,,,,,,0,001,2024-05-28_13h55.25.410,robot_nback_sign,2022.2.5,59.92125149122066,
R_Base_Y_For,False,3,robot,2,False,False,robot_stimuli\R_Base_Y_For.mp4,0,0,0,0,0,0,32,32,32,,,,,,,,,,,,,787.5691134000001,787.5691134000001,None,,787.5691134000001,788.6538914,,788.6538914,788.6538914,788.6538914,,None,792.2979886,792.2979886,792.2979886,792.2979886,792.2979886,792.2979886,792.2979886,792.2979886,None,None,None,787.5691134000001,787.5691134000001,,,788.6538914,,,,,,,,,,,,,,,,,,0,001,2024-05-28_13h55.25.410,robot_nback_sign,2022.2.5,59.92125149122066,
L_Arm_Y_Back,True,3,robot,2,False,False,robot_stimuli\L_Arm_Y_Back.mp4,0,0,0,0,0,0,33,33,33,,,,,,,,,,,,,792.2979886,792.2979886,None,,792.2979886,793.3974753,,793.3974753,793.3974753,793.3974753,,n,797.0371834999999,797.0371834999999,797.0371834999999,797.0371834999999,797.0371834999999,797.0371834999999,797.0371834999999,797.0371834999999,None,None,None,792.2979886,792.2979886,3.149052700000084,,793.3974753,,,,,,,,,,,,,,,,,,0,001,2024-05-28_13h55.25.410,robot_nback_sign,2022.2.5,59.92125149122066,
R_Head_Z_For,True,3,robot,2,False,False,robot_stimuli\R_Head_Z_For.mp4,0,0,0,0,0,0,34,34,34,,,,,,,,,,,,,797.0371834999999,797.0371834999999,None,,797.0371834999999,798.1191898999998,,798.1191898999998,798.1191898999998,798.1191898999998,,None,801.7709360000001,801.7709360000001,801.7709360000001,801.7709360000001,801.7709360000001,801.7709360000001,801.7709360000001,801.7709360000001,None,None,None,797.0371834999999,797.0371834999999,,,798.1191898999998,,,,,,,,,,,,,,,,,,0,001,2024-05-28_13h55.25.410,robot_nback_sign,2022.2.5,59.92125149122066,
R_Arm_Y_Back,False,3,robot,2,False,True,robot_stimuli\R_Arm_Y_Back.mp4,0,0,0,0,0,0,35,35,35,,,,,,,,,,,,,801.7709360000001,801.7709360000001,None,,801.7709360000001,,,802.8697057000002,802.8697057000002,802.8697057000002,,n,806.5476566999998,825.3229761,806.5476566999998,825.3229761,806.5476566999998,825.3229761,806.5476566999998,825.3229761,113.95061728395063,14.654871599999751,space,801.7709360000001,801.7709360000001,2.8453064000000268,18.696011799999724,802.8697057000002,,,,,,,,,,,,,,,,,,0,001,2024-05-28_13h55.25.410,robot_nback_sign,2022.2.5,59.92125149122066,
,,,,,,,,,0,0,0,0,,,,,,,,,,,,,,,,,,,,,,,,,,,,,,,,,,,,,,,,,,,,,825.3229761,825.3229761,825.3229761,c,5.590819999999894,,,,,,,,,,,,,0,001,2024-05-28_13h55.25.410,robot_nback_sign,2022.2.5,59.92125149122066,
F,False,2,letter,1,True,False,robot_stimuli\\filler.mp4,0,,,,,,,,,0,0,0,0,,,,,,,,,,,,,838.2697632000002,839.3255274999999,,,,,,,841.3546838999998,841.3546838999998,841.3546838999998,841.3546838999998,841.3546838999998,841.3546838999998,841.3546838999998,841.3546838999998,None,None,None,,,,,,,,,,,830.9730606999999,830.9730606999999,space,7.268768499999624,839.3255274999999,839.3255274999999,841.3546838999998,None,,,,,0,001,2024-05-28_13h55.25.410,robot_nback_sign,2022.2.5,59.92125149122066,
L,False,2,letter,1,False,False,robot_stimuli\\filler.mp4,0,,,,,,,,,0,1,1,1,,,,,,,,,,,,,841.3546838999998,,,,,,,,844.6559756999998,844.6559756999998,844.6559756999998,844.6559756999998,844.6559756999998,844.6559756999998,844.6559756999998,844.6559756999998,None,None,None,,,,,,,,,,,841.3546838999998,841.3546838999998,None,,842.4225806000002,842.4225806000002,844.6559756999998,None,841.3546838999998,841.3546838999998,,,0,001,2024-05-28_13h55.25.410,robot_nback_sign,2022.2.5,59.92125149122066,
F,True,2,letter,1,False,False,robot_stimuli\\filler.mp4,0,,,,,,,,,0,2,2,2,,,,,,,,,,,,,844.6559756999998,,,,,,,,847.7502057999998,847.7502057999998,847.7502057999998,847.7502057999998,847.7502057999998,847.7502057999998,847.7502057999998,847.7502057999998,None,None,None,,,,,,,,,,,844.6559756999998,844.6559756999998,None,,845.7233076,845.7233076,847.7502057999998,c,844.6559756999998,844.6559756999998,1.5199760000000424,,0,001,2024-05-28_13h55.25.410,robot_nback_sign,2022.2.5,59.92125149122066,
J,False,2,letter,1,False,False,robot_stimuli\\filler.mp4,0,,,,,,,,,0,3,3,3,,,,,,,,,,,,,847.7502057999998,848.8079565,,,,,,,850.8403108999998,850.8403108999998,850.8403108999998,850.8403108999998,850.8403108999998,850.8403108999998,850.8403108999998,850.8403108999998,None,None,None,,,,,,,,,,,847.7502057999998,847.7502057999998,None,,848.8079565,848.8079565,850.8403108999998,n,847.7502057999998,847.7502057999998,1.2837162000000717,,0,001,2024-05-28_13h55.25.410,robot_nback_sign,2022.2.5,59.92125149122066,
F,True,2,letter,1,False,False,robot_stimuli\\filler.mp4,0,,,,,,,,,0,4,4,4,,,,,,,,,,,,,850.8403108999998,851.9063159,,,,,,,854.1410837000001,854.1410837000001,854.1410837000001,854.1410837000001,854.1410837000001,854.1410837000001,854.1410837000001,854.1410837000001,None,None,None,,,,,,,,,,,850.8403108999998,850.8403108999998,None,,851.9063159,851.9063159,854.1410837000001,c,850.8403108999998,850.8403108999998,1.1532305999999153,,0,001,2024-05-28_13h55.25.410,robot_nback_sign,2022.2.5,59.92125149122066,
J,True,2,letter,1,False,False,robot_stimuli\\filler.mp4,0,,,,,,,,,0,5,5,5,,,,,,,,,,,,,854.1410837000001,855.2064751999999,,,,,,,857.2368365,857.2368365,857.2368365,857.2368365,857.2368365,857.2368365,857.2368365,857.2368365,None,None,None,,,,,,,,,,,854.1410837000001,854.1410837000001,None,,855.2064751999999,855.2064751999999,857.2368365,c,854.1410837000001,854.1410837000001,1.3005597999999736,,0,001,2024-05-28_13h55.25.410,robot_nback_sign,2022.2.5,59.92125149122066,
D,False,2,letter,1,False,False,robot_stimuli\\filler.mp4,0,,,,,,,,,0,6,6,6,,,,,,,,,,,,,857.2368365,858.2941253000001,,,,,,,860.318892,860.318892,860.318892,860.318892,860.318892,860.318892,860.318892,860.318892,None,None,None,,,,,,,,,,,857.2368365,857.2368365,None,,858.2941253000001,858.2941253000001,860.318892,n,857.2368365,857.2368365,1.0210368000002745,,0,001,2024-05-28_13h55.25.410,robot_nback_sign,2022.2.5,59.92125149122066,
P,False,2,letter,1,False,False,robot_stimuli\\filler.mp4,0,,,,,,,,,0,7,7,7,,,,,,,,,,,,,860.318892,861.3747882999999,,,,,,,863.4119441999999,863.4119441999999,863.4119441999999,863.4119441999999,863.4119441999999,863.4119441999999,863.4119441999999,863.4119441999999,None,None,None,,,,,,,,,,,860.318892,860.318892,None,,861.3747882999999,861.3747882999999,863.4119441999999,n,860.318892,860.318892,1.1722850000001017,,0,001,2024-05-28_13h55.25.410,robot_nback_sign,2022.2.5,59.92125149122066,
Q,False,2,letter,1,False,False,robot_stimuli\\filler.mp4,0,,,,,,,,,0,8,8,8,,,,,,,,,,,,,863.4119441999999,864.4880113000002,,,,,,,866.5194804,866.5194804,866.5194804,866.5194804,866.5194804,866.5194804,866.5194804,866.5194804,None,None,None,,,,,,,,,,,863.4119441999999,863.4119441999999,None,,864.4880113000002,864.4880113000002,866.5194804,n,863.4119441999999,863.4119441999999,1.105980499999987,,0,001,2024-05-28_13h55.25.410,robot_nback_sign,2022.2.5,59.92125149122066,
P,True,2,letter,1,False,False,robot_stimuli\\filler.mp4,0,,,,,,,,,0,9,9,9,,,,,,,,,,,,,866.5194804,867.5733870000001,,,,,,,869.7987839,869.7987839,869.7987839,869.7987839,869.7987839,869.7987839,869.7987839,869.7987839,None,None,None,,,,,,,,,,,866.5194804,866.5194804,None,,867.5733870000001,867.5733870000001,869.7987839,c,866.5194804,866.5194804,1.0690907999996853,,0,001,2024-05-28_13h55.25.410,robot_nback_sign,2022.2.5,59.92125149122066,
Q,True,2,letter,1,False,False,robot_stimuli\\filler.mp4,0,,,,,,,,,0,10,10,10,,,,,,,,,,,,,869.7987839,870.8570247,,,,,,,873.0914264999999,873.0914264999999,873.0914264999999,873.0914264999999,873.0914264999999,873.0914264999999,873.0914264999999,873.0914264999999,None,None,None,,,,,,,,,,,869.7987839,869.7987839,None,,870.8570247,870.8570247,873.0914264999999,c,869.7987839,869.7987839,1.648779199999808,,0,001,2024-05-28_13h55.25.410,robot_nback_sign,2022.2.5,59.92125149122066,
D,False,2,letter,1,False,False,robot_stimuli\\filler.mp4,0,,,,,,,,,0,11,11,11,,,,,,,,,,,,,873.0914264999999,874.1675162999998,,,,,,,876.1975033000001,876.1975033000001,876.1975033000001,876.1975033000001,876.1975033000001,876.1975033000001,876.1975033000001,876.1975033000001,None,None,None,,,,,,,,,,,873.0914264999999,873.0914264999999,None,,874.1675162999998,874.1675162999998,876.1975033000001,n,873.0914264999999,873.0914264999999,1.035032499999943,,0,001,2024-05-28_13h55.25.410,robot_nback_sign,2022.2.5,59.92125149122066,
R,False,2,letter,1,False,False,robot_stimuli\\filler.mp4,0,,,,,,,,,0,12,12,12,,,,,,,,,,,,,876.1975033000001,877.2562817999999,,,,,,,879.4841628000001,879.4841628000001,879.4841628000001,879.4841628000001,879.4841628000001,879.4841628000001,879.4841628000001,879.4841628000001,None,None,None,,,,,,,,,,,876.1975033000001,876.1975033000001,None,,877.2562817999999,877.2562817999999,879.4841628000001,n,876.1975033000001,876.1975033000001,1.0894549999998162,,0,001,2024-05-28_13h55.25.410,robot_nback_sign,2022.2.5,59.92125149122066,
L,False,2,letter,1,False,False,robot_stimuli\\filler.mp4,0,,,,,,,,,0,13,13,13,,,,,,,,,,,,,879.4841628000001,880.5396930999998,,,,,,,882.7699206999998,882.7699206999998,882.7699206999998,882.7699206999998,882.7699206999998,882.7699206999998,882.7699206999998,882.7699206999998,None,None,None,,,,,,,,,,,879.4841628000001,879.4841628000001,None,,880.5396930999998,880.5396930999998,882.7699206999998,n,879.4841628000001,879.4841628000001,1.0463663000000452,,0,001,2024-05-28_13h55.25.410,robot_nback_sign,2022.2.5,59.92125149122066,
M,False,2,letter,1,False,False,robot_stimuli\\filler.mp4,0,,,,,,,,,0,14,14,14,,,,,,,,,,,,,882.7699206999998,883.8257583000002,,,,,,,885.8591548000002,885.8591548000002,885.8591548000002,885.8591548000002,885.8591548000002,885.8591548000002,885.8591548000002,885.8591548000002,None,None,None,,,,,,,,,,,882.7699206999998,882.7699206999998,None,,883.8257583000002,883.8257583000002,885.8591548000002,n,882.7699206999998,882.7699206999998,0.87344690000009,,0,001,2024-05-28_13h55.25.410,robot_nback_sign,2022.2.5,59.92125149122066,
L,True,2,letter,1,False,False,robot_stimuli\\filler.mp4,0,,,,,,,,,0,15,15,15,,,,,,,,,,,,,885.8591548000002,886.9226901999998,,,,,,,889.1498030999999,889.1498030999999,889.1498030999999,889.1498030999999,889.1498030999999,889.1498030999999,889.1498030999999,889.1498030999999,None,None,None,,,,,,,,,,,885.8591548000002,885.8591548000002,None,,886.9226901999998,886.9226901999998,889.1498030999999,c,885.8591548000002,885.8591548000002,0.8961334000000534,,0,001,2024-05-28_13h55.25.410,robot_nback_sign,2022.2.5,59.92125149122066,
H,False,2,letter,1,False,False,robot_stimuli\\filler.mp4,0,,,,,,,,,0,16,16,16,,,,,,,,,,,,,889.1498030999999,890.2061074999999,,,,,,,892.4315706999998,892.4315706999998,892.4315706999998,892.4315706999998,892.4315706999998,892.4315706999998,892.4315706999998,892.4315706999998,None,None,None,,,,,,,,,,,889.1498030999999,889.1498030999999,None,,890.2061074999999,890.2061074999999,892.4315706999998,n,889.1498030999999,889.1498030999999,1.3570042000001195,,0,001,2024-05-28_13h55.25.410,robot_nback_sign,2022.2.5,59.92125149122066,
Q,False,2,letter,1,False,False,robot_stimuli\\filler.mp4,0,,,,,,,,,0,17,17,17,,,,,,,,,,,,,892.4315706999998,893.490055,,,,,,,895.7148404000002,895.7148404000002,895.7148404000002,895.7148404000002,895.7148404000002,895.7148404000002,895.7148404000002,895.7148404000002,None,None,None,,,,,,,,,,,892.4315706999998,892.4315706999998,None,,893.490055,893.490055,895.7148404000002,n,892.4315706999998,892.4315706999998,1.1284992000000784,,0,001,2024-05-28_13h55.25.410,robot_nback_sign,2022.2.5,59.92125149122066,
B,False,2,letter,1,False,False,robot_stimuli\\filler.mp4,0,,,,,,,,,0,18,18,18,,,,,,,,,,,,,895.7148404000002,896.7727281,,,,,,,898.9994079999999,898.9994079999999,898.9994079999999,898.9994079999999,898.9994079999999,898.9994079999999,898.9994079999999,898.9994079999999,None,None,None,,,,,,,,,,,895.7148404000002,895.7148404000002,None,,896.7727281,896.7727281,898.9994079999999,n,895.7148404000002,895.7148404000002,0.781442099999822,,0,001,2024-05-28_13h55.25.410,robot_nback_sign,2022.2.5,59.92125149122066,
N,False,2,letter,1,False,False,robot_stimuli\\filler.mp4,0,,,,,,,,,0,19,19,19,,,,,,,,,,,,,898.9994079999999,900.0595566999998,,,,,,,902.0896034999998,902.0896034999998,902.0896034999998,902.0896034999998,902.0896034999998,902.0896034999998,902.0896034999998,902.0896034999998,None,None,None,,,,,,,,,,,898.9994079999999,898.9994079999999,None,,900.0595566999998,900.0595566999998,902.0896034999998,n,898.9994079999999,898.9994079999999,1.1279052999998385,,0,001,2024-05-28_13h55.25.410,robot_nback_sign,2022.2.5,59.92125149122066,
N,False,2,letter,1,False,False,robot_stimuli\\filler.mp4,0,,,,,,,,,0,20,20,20,,,,,,,,,,,,,902.0896034999998,,,,,,,,905.1779669999999,905.1779669999999,905.1779669999999,905.1779669999999,905.1779669999999,905.1779669999999,905.1779669999999,905.1779669999999,None,None,None,,,,,,,,,,,902.0896034999998,902.0896034999998,None,,903.1539064000001,903.1539064000001,905.1779669999999,n,902.0896034999998,902.0896034999998,1.1845594000001256,,0,001,2024-05-28_13h55.25.410,robot_nback_sign,2022.2.5,59.92125149122066,
V,False,2,letter,1,False,False,robot_stimuli\\filler.mp4,0,,,,,,,,,0,21,21,21,,,,,,,,,,,,,905.1779669999999,906.2387197,,,,,,,908.2665186000002,908.2665186000002,908.2665186000002,908.2665186000002,908.2665186000002,908.2665186000002,908.2665186000002,908.2665186000002,None,None,None,,,,,,,,,,,905.1779669999999,905.1779669999999,None,,906.2387197,906.2387197,908.2665186000002,n,905.1779669999999,905.1779669999999,0.7560870999996041,,0,001,2024-05-28_13h55.25.410,robot_nback_sign,2022.2.5,59.92125149122066,
P,False,2,letter,1,False,False,robot_stimuli\\filler.mp4,0,,,,,,,,,0,22,22,22,,,,,,,,,,,,,908.2665186000002,909.3242736,,,,,,,911.5508394000001,911.5508394000001,911.5508394000001,911.5508394000001,911.5508394000001,911.5508394000001,911.5508394000001,911.5508394000001,None,None,None,,,,,,,,,,,908.2665186000002,908.2665186000002,None,,909.3242736,909.3242736,911.5508394000001,n,908.2665186000002,908.2665186000002,0.8706099000000904,,0,001,2024-05-28_13h55.25.410,robot_nback_sign,2022.2.5,59.92125149122066,
N,False,2,letter,1,False,False,robot_stimuli\\filler.mp4,0,,,,,,,,,0,23,23,23,,,,,,,,,,,,,911.5508394000001,912.6088901,,,,,,,914.8377586999998,914.8377586999998,914.8377586999998,914.8377586999998,914.8377586999998,914.8377586999998,914.8377586999998,914.8377586999998,None,None,None,,,,,,,,,,,911.5508394000001,911.5508394000001,None,,912.6088901,912.6088901,914.8377586999998,n,911.5508394000001,911.5508394000001,1.1291500000002088,,0,001,2024-05-28_13h55.25.410,robot_nback_sign,2022.2.5,59.92125149122066,
V,False,2,letter,1,False,False,robot_stimuli\\filler.mp4,0,,,,,,,,,0,24,24,24,,,,,,,,,,,,,914.8377586999998,,,,,,,,917.9371948,917.9371948,917.9371948,917.9371948,917.9371948,917.9371948,917.9371948,917.9371948,None,None,None,,,,,,,,,,,914.8377586999998,914.8377586999998,None,,915.9048829000001,915.9048829000001,917.9371948,n,914.8377586999998,914.8377586999998,1.7454662999998618,,0,001,2024-05-28_13h55.25.410,robot_nback_sign,2022.2.5,59.92125149122066,
Q,False,2,letter,1,False,False,robot_stimuli\\filler.mp4,0,,,,,,,,,0,25,25,25,,,,,,,,,,,,,917.9371948,918.9894981999998,,,,,,,921.2184927999999,921.2184927999999,921.2184927999999,921.2184927999999,921.2184927999999,921.2184927999999,921.2184927999999,921.2184927999999,None,None,None,,,,,,,,,,,917.9371948,917.9371948,None,,918.9894981999998,918.9894981999998,921.2184927999999,n,917.9371948,917.9371948,0.7889940999998544,,0,001,2024-05-28_13h55.25.410,robot_nback_sign,2022.2.5,59.92125149122066,
K,False,2,letter,1,False,False,robot_stimuli\\filler.mp4,0,,,,,,,,,0,26,26,26,,,,,,,,,,,,,921.2184927999999,922.2761968000002,,,,,,,924.3053707000001,924.3053707000001,924.3053707000001,924.3053707000001,924.3053707000001,924.3053707000001,924.3053707000001,924.3053707000001,None,None,None,,,,,,,,,,,921.2184927999999,921.2184927999999,None,,922.2761968000002,922.2761968000002,924.3053707000001,n,921.2184927999999,921.2184927999999,0.6550394000000779,,0,001,2024-05-28_13h55.25.410,robot_nback_sign,2022.2.5,59.92125149122066,
Q,True,2,letter,1,False,False,robot_stimuli\\filler.mp4,0,,,,,,,,,0,27,27,27,,,,,,,,,,,,,924.3053707000001,,,,,,,,927.6016593000002,927.6016593000002,927.6016593000002,927.6016593000002,927.6016593000002,927.6016593000002,927.6016593000002,927.6016593000002,None,None,None,,,,,,,,,,,924.3053707000001,924.3053707000001,None,,925.3722853000002,925.3722853000002,927.6016593000002,c,924.3053707000001,924.3053707000001,1.2065998999996737,,0,001,2024-05-28_13h55.25.410,robot_nback_sign,2022.2.5,59.92125149122066,
K,True,2,letter,1,False,False,robot_stimuli\\filler.mp4,0,,,,,,,,,0,28,28,28,,,,,,,,,,,,,927.6016593000002,928.6583109000001,,,,,,,930.8800809000002,930.8800809000002,930.8800809000002,930.8800809000002,930.8800809000002,930.8800809000002,930.8800809000002,930.8800809000002,None,None,None,,,,,,,,,,,927.6016593000002,927.6016593000002,None,,928.6583109000001,928.6583109000001,930.8800809000002,c,927.6016593000002,927.6016593000002,1.1768220000003566,,0,001,2024-05-28_13h55.25.410,robot_nback_sign,2022.2.5,59.92125149122066,
S,False,2,letter,1,False,False,robot_stimuli\\filler.mp4,0,,,,,,,,,0,29,29,29,,,,,,,,,,,,,930.8800809000002,931.9399531000001,,,,,,,933.9663712999998,933.9663712999998,933.9663712999998,933.9663712999998,933.9663712999998,933.9663712999998,933.9663712999998,933.9663712999998,None,None,None,,,,,,,,,,,930.8800809000002,930.8800809000002,None,,931.9399531000001,931.9399531000001,933.9663712999998,n,930.8800809000002,930.8800809000002,1.1183560999998008,,0,001,2024-05-28_13h55.25.410,robot_nback_sign,2022.2.5,59.92125149122066,
B,False,2,letter,1,False,False,robot_stimuli\\filler.mp4,0,,,,,,,,,0,30,30,30,,,,,,,,,,,,,933.9663712999998,935.0357135000002,,,,,,,937.0685285000002,937.0685285000002,937.0685285000002,937.0685285000002,937.0685285000002,937.0685285000002,937.0685285000002,937.0685285000002,None,None,None,,,,,,,,,,,933.9663712999998,933.9663712999998,None,,935.0357135000002,935.0357135000002,937.0685285000002,n,933.9663712999998,933.9663712999998,0.8236268999999083,,0,001,2024-05-28_13h55.25.410,robot_nback_sign,2022.2.5,59.92125149122066,
J,False,2,letter,1,False,False,robot_stimuli\\filler.mp4,0,,,,,,,,,0,31,31,31,,,,,,,,,,,,,937.0685285000002,938.1347666999998,,,,,,,940.1596811000002,940.1596811000002,940.1596811000002,940.1596811000002,940.1596811000002,940.1596811000002,940.1596811000002,940.1596811000002,None,None,None,,,,,,,,,,,937.0685285000002,937.0685285000002,None,,938.1347666999998,938.1347666999998,940.1596811000002,n,937.0685285000002,937.0685285000002,0.9000362000001587,,0,001,2024-05-28_13h55.25.410,robot_nback_sign,2022.2.5,59.92125149122066,
R,False,2,letter,1,False,False,robot_stimuli\\filler.mp4,0,,,,,,,,,0,32,32,32,,,,,,,,,,,,,940.1596811000002,941.2226708999999,,,,,,,943.4495986999998,943.4495986999998,943.4495986999998,943.4495986999998,943.4495986999998,943.4495986999998,943.4495986999998,943.4495986999998,None,None,None,,,,,,,,,,,940.1596811000002,940.1596811000002,None,,941.2226708999999,941.2226708999999,943.4495986999998,n,940.1596811000002,940.1596811000002,0.796664100000271,,0,001,2024-05-28_13h55.25.410,robot_nback_sign,2022.2.5,59.92125149122066,
W,False,2,letter,1,False,False,robot_stimuli\\filler.mp4,0,,,,,,,,,0,33,33,33,,,,,,,,,,,,,943.4495986999998,944.5062446999998,,,,,,,946.7345302000001,946.7345302000001,946.7345302000001,946.7345302000001,946.7345302000001,946.7345302000001,946.7345302000001,946.7345302000001,None,None,None,,,,,,,,,,,943.4495986999998,943.4495986999998,None,,944.5062446999998,944.5062446999998,946.7345302000001,n,943.4495986999998,943.4495986999998,1.1374278999996932,,0,001,2024-05-28_13h55.25.410,robot_nback_sign,2022.2.5,59.92125149122066,
R,True,2,letter,1,False,False,robot_stimuli\\filler.mp4,0,,,,,,,,,0,34,34,34,,,,,,,,,,,,,946.7345302000001,947.7901918999999,,,,,,,950.0237186000002,950.0237186000002,950.0237186000002,950.0237186000002,950.0237186000002,950.0237186000002,950.0237186000002,950.0237186000002,None,None,None,,,,,,,,,,,946.7345302000001,946.7345302000001,None,,947.7901918999999,947.7901918999999,950.0237186000002,c,946.7345302000001,946.7345302000001,1.421024700000089,,0,001,2024-05-28_13h55.25.410,robot_nback_sign,2022.2.5,59.92125149122066,
D,False,2,letter,1,False,False,robot_stimuli\\filler.mp4,0,,,,,,,,,0,35,35,35,,,,,,,,,,,,,950.0237186000002,951.0889780999998,,,,,,,953.3226456,953.3226456,953.3226456,953.3226456,953.3226456,953.3226456,953.3226456,953.3226456,None,None,None,,,,,,,,,,,950.0237186000002,950.0237186000002,None,,951.0889780999998,951.0889780999998,953.3226456,n,950.0237186000002,950.0237186000002,1.1854502999999568,,0,001,2024-05-28_13h55.25.410,robot_nback_sign,2022.2.5,59.92125149122066,
Z,False,2,letter,1,False,False,robot_stimuli\\filler.mp4,0,,,,,,,,,0,36,36,36,,,,,,,,,,,,,953.3226456,,,,,,,,956.4191486000002,956.4191486000002,956.4191486000002,956.4191486000002,956.4191486000002,956.4191486000002,956.4191486000002,956.4191486000002,None,None,None,,,,,,,,,,,953.3226456,953.3226456,None,,954.3919985,954.3919985,956.4191486000002,n,953.3226456,953.3226456,0.9391190999999708,,0,001,2024-05-28_13h55.25.410,robot_nback_sign,2022.2.5,59.92125149122066,
M,False,2,letter,1,False,False,robot_stimuli\\filler.mp4,0,,,,,,,,,0,37,37,37,,,,,,,,,,,,,956.4191486000002,957.4744893,,,,,,,959.7008113999998,959.7008113999998,959.7008113999998,959.7008113999998,959.7008113999998,959.7008113999998,959.7008113999998,959.7008113999998,None,None,None,,,,,,,,,,,956.4191486000002,956.4191486000002,None,,957.4744893,957.4744893,959.7008113999998,n,956.4191486000002,956.4191486000002,1.2801941000002444,,0,001,2024-05-28_13h55.25.410,robot_nback_sign,2022.2.5,59.92125149122066,
W,False,2,letter,1,False,False,robot_stimuli\\filler.mp4,0,,,,,,,,,0,38,38,38,,,,,,,,,,,,,959.7008113999998,960.7604577999998,,,,,,,962.9836627000002,962.9836627000002,962.9836627000002,962.9836627000002,962.9836627000002,962.9836627000002,962.9836627000002,962.9836627000002,None,None,None,,,,,,,,,,,959.7008113999998,959.7008113999998,None,,960.7604577999998,960.7604577999998,962.9836627000002,n,959.7008113999998,959.7008113999998,0.7858480999998392,,0,001,2024-05-28_13h55.25.410,robot_nback_sign,2022.2.5,59.92125149122066,
P,False,2,letter,1,False,False,robot_stimuli\\filler.mp4,0,,,,,,,,,0,39,39,39,,,,,,,,,,,,,962.9836627000002,964.0392334999999,,,,,,,966.0717619,966.0717619,966.0717619,966.0717619,966.0717619,966.0717619,966.0717619,966.0717619,None,None,None,,,,,,,,,,,962.9836627000002,962.9836627000002,None,,964.0392334999999,964.0392334999999,966.0717619,n,962.9836627000002,962.9836627000002,1.0425467000000026,,0,001,2024-05-28_13h55.25.410,robot_nback_sign,2022.2.5,59.92125149122066,
C,False,2,letter,1,False,False,robot_stimuli\\filler.mp4,0,,,,,,,,,0,40,40,40,,,,,,,,,,,,,966.0717619,,,,,,,,969.1688390000002,969.1688390000002,969.1688390000002,969.1688390000002,969.1688390000002,969.1688390000002,969.1688390000002,969.1688390000002,None,None,None,,,,,,,,,,,966.0717619,966.0717619,None,,967.1419746999998,967.1419746999998,969.1688390000002,n,966.0717619,966.0717619,0.8122008000000278,,0,001,2024-05-28_13h55.25.410,robot_nback_sign,2022.2.5,59.92125149122066,
P,True,2,letter,1,False,False,robot_stimuli\\filler.mp4,0,,,,,,,,,0,41,41,41,,,,,,,,,,,,,969.1688390000002,970.2226962000002,,,,,,,972.4557898999999,972.4557898999999,972.4557898999999,972.4557898999999,972.4557898999999,972.4557898999999,972.4557898999999,972.4557898999999,None,None,None,,,,,,,,,,,969.1688390000002,969.1688390000002,None,,970.2226962000002,970.2226962000002,972.4557898999999,c,969.1688390000002,969.1688390000002,1.0768875999997363,,0,001,2024-05-28_13h55.25.410,robot_nback_sign,2022.2.5,59.92125149122066,
V,False,2,letter,1,False,False,robot_stimuli\\filler.mp4,0,,,,,,,,,0,42,42,42,,,,,,,,,,,,,972.4557898999999,,,,,,,,975.5507488999999,975.5507488999999,975.5507488999999,975.5507488999999,975.5507488999999,975.5507488999999,975.5507488999999,975.5507488999999,None,None,None,,,,,,,,,,,972.4557898999999,972.4557898999999,None,,973.5236923,973.5236923,975.5507488999999,n,972.4557898999999,972.4557898999999,0.7663956999999755,,0,001,2024-05-28_13h55.25.410,robot_nback_sign,2022.2.5,59.92125149122066,
Z,False,2,letter,1,False,False,robot_stimuli\\filler.mp4,0,,,,,,,,,0,43,43,43,,,,,,,,,,,,,975.5507488999999,976.6167429999998,,,,,,,978.636405,978.636405,978.636405,978.636405,978.636405,978.636405,978.636405,978.636405,None,None,None,,,,,,,,,,,975.5507488999999,975.5507488999999,None,,976.6167429999998,976.6167429999998,978.636405,n,975.5507488999999,975.5507488999999,1.178659200000311,,0,001,2024-05-28_13h55.25.410,robot_nback_sign,2022.2.5,59.92125149122066,
J,False,2,letter,1,False,False,robot_stimuli\\filler.mp4,0,,,,,,,,,0,44,44,44,,,,,,,,,,,,,978.636405,979.6894759999998,,,,,,,981.7202912,981.7202912,981.7202912,981.7202912,981.7202912,981.7202912,981.7202912,981.7202912,None,None,None,,,,,,,,,,,978.636405,978.636405,None,,979.6894759999998,979.6894759999998,981.7202912,n,978.636405,978.636405,0.7297131999998783,,0,001,2024-05-28_13h55.25.410,robot_nback_sign,2022.2.5,59.92125149122066,
C,False,2,letter,1,False,False,robot_stimuli\\filler.mp4,0,,,,,,,,,0,45,45,45,,,,,,,,,,,,,981.7202912,982.7739125999999,,,,,,,985.0015569,985.0015569,985.0015569,985.0015569,985.0015569,985.0015569,985.0015569,985.0015569,None,None,None,,,,,,,,,,,981.7202912,981.7202912,None,,982.7739125999999,982.7739125999999,985.0015569,n,981.7202912,981.7202912,0.9324507999999696,,0,001,2024-05-28_13h55.25.410,robot_nback_sign,2022.2.5,59.92125149122066,
Z,False,2,letter,1,False,False,robot_stimuli\\filler.mp4,0,,,,,,,,,0,46,46,46,,,,,,,,,,,,,985.0015569,986.0567635,,,,,,,988.2911654000002,988.2911654000002,988.2911654000002,988.2911654000002,988.2911654000002,988.2911654000002,988.2911654000002,988.2911654000002,None,None,None,,,,,,,,,,,985.0015569,985.0015569,None,,986.0567635,986.0567635,988.2911654000002,n,985.0015569,985.0015569,0.7061302000001888,,0,001,2024-05-28_13h55.25.410,robot_nback_sign,2022.2.5,59.92125149122066,
K,False,2,letter,1,False,False,robot_stimuli\\filler.mp4,0,,,,,,,,,0,47,47,47,,,,,,,,,,,,,988.2911654000002,989.3569019999998,,,,,,,991.5828720000002,991.5828720000002,991.5828720000002,991.5828720000002,991.5828720000002,991.5828720000002,991.5828720000002,991.5828720000002,None,None,None,,,,,,,,,,,988.2911654000002,988.2911654000002,None,,989.3569019999998,989.3569019999998,991.5828720000002,n,988.2911654000002,988.2911654000002,0.558040599999913,,0,001,2024-05-28_13h55.25.410,robot_nback_sign,2022.2.5,59.92125149122066,
T,False,2,letter,1,False,False,robot_stimuli\\filler.mp4,0,,,,,,,,,0,48,48,48,,,,,,,,,,,,,991.5828720000002,992.6403336999999,,,,,,,994.6685845,994.6685845,994.6685845,994.6685845,994.6685845,994.6685845,994.6685845,994.6685845,None,None,None,,,,,,,,,,,991.5828720000002,991.5828720000002,None,,992.6403336999999,992.6403336999999,994.6685845,n,991.5828720000002,991.5828720000002,0.7866765999997369,,0,001,2024-05-28_13h55.25.410,robot_nback_sign,2022.2.5,59.92125149122066,
L,False,2,letter,1,False,True,robot_stimuli\\filler.mp4,0,,,,,,,,,0,49,49,49,,,,,,,,,,,,,994.6685845,995.7226388000001,,,,,,,997.7817204,1004.6135394999999,997.7817204,1004.6135394999999,997.7817204,1004.6135394999999,997.7817204,1004.6135394999999,23.67283950617283,5.867685300000176,space,,,,6.788762000000133,,,,,,,994.6685845,994.6685845,None,,995.7226388000001,995.7226388000001,997.7817204,n,994.6685845,994.6685845,0.7911442999998144,,0,001,2024-05-28_13h55.25.410,robot_nback_sign,2022.2.5,59.92125149122066,
K,False,3,letter,1,True,False,robot_stimuli\\filler.mp4,0,,,,,,,,,0,50,50,50,,,,,,,,,,,,,1012.8531421999999,1013.908103,,,,,,,1016.1364274,1016.1364274,1016.1364274,1016.1364274,1016.1364274,1016.1364274,1016.1364274,1016.1364274,None,None,None,,,,,,,,,,,1004.6135394999999,1004.6135394999999,space,8.221841099999892,1013.908103,1013.908103,1016.1364274,n,,,0.7183347999998659,,0,001,2024-05-28_13h55.25.410,robot_nback_sign,2022.2.5,59.92125149122066,
B,False,3,letter,1,False,False,robot_stimuli\\filler.mp4,0,,,,,,,,,0,51,51,51,,,,,,,,,,,,,1016.1364274,1017.1931573999998,,,,,,,1019.4197043000001,1019.4197043000001,1019.4197043000001,1019.4197043000001,1019.4197043000001,1019.4197043000001,1019.4197043000001,1019.4197043000001,None,None,None,,,,,,,,,,,1016.1364274,1016.1364274,None,,1017.1931573999998,1017.1931573999998,1019.4197043000001,n,1016.1364274,1016.1364274,0.6567640000002939,,0,001,2024-05-28_13h55.25.410,robot_nback_sign,2022.2.5,59.92125149122066,
K,False,3,letter,1,False,False,robot_stimuli\\filler.mp4,0,,,,,,,,,0,52,52,52,,,,,,,,,,,,,1019.4197043000001,1020.4738189000002,,,,,,,1022.7035509999998,1022.7035509999998,1022.7035509999998,1022.7035509999998,1022.7035509999998,1022.7035509999998,1022.7035509999998,1022.7035509999998,None,None,None,,,,,,,,,,,1019.4197043000001,1019.4197043000001,None,,1020.4738189000002,1020.4738189000002,1022.7035509999998,n,1019.4197043000001,1019.4197043000001,1.4317262999998093,,0,001,2024-05-28_13h55.25.410,robot_nback_sign,2022.2.5,59.92125149122066,
Q,False,3,letter,1,False,False,robot_stimuli\\filler.mp4,0,,,,,,,,,0,53,53,53,,,,,,,,,,,,,1022.7035509999998,1023.7694952999998,,,,,,,1025.7923721999998,1025.7923721999998,1025.7923721999998,1025.7923721999998,1025.7923721999998,1025.7923721999998,1025.7923721999998,1025.7923721999998,None,None,None,,,,,,,,,,,1022.7035509999998,1022.7035509999998,None,,1023.7694952999998,1023.7694952999998,1025.7923721999998,n,1022.7035509999998,1022.7035509999998,1.097726700000294,,0,001,2024-05-28_13h55.25.410,robot_nback_sign,2022.2.5,59.92125149122066,
Z,False,3,letter,1,False,False,robot_stimuli\\filler.mp4,0,,,,,,,,,0,54,54,54,,,,,,,,,,,,,1025.7923721999998,1026.8567417000002,,,,,,,1029.0840483999998,1029.0840483999998,1029.0840483999998,1029.0840483999998,1029.0840483999998,1029.0840483999998,1029.0840483999998,1029.0840483999998,None,None,None,,,,,,,,,,,1025.7923721999998,1025.7923721999998,None,,1026.8567417000002,1026.8567417000002,1029.0840483999998,n,1025.7923721999998,1025.7923721999998,1.057240499999807,,0,001,2024-05-28_13h55.25.410,robot_nback_sign,2022.2.5,59.92125149122066,
J,False,3,letter,1,False,False,robot_stimuli\\filler.mp4,0,,,,,,,,,0,55,55,55,,,,,,,,,,,,,1029.0840483999998,1030.1402891999999,,,,,,,1032.3727367,1032.3727367,1032.3727367,1032.3727367,1032.3727367,1032.3727367,1032.3727367,1032.3727367,None,None,None,,,,,,,,,,,1029.0840483999998,1029.0840483999998,None,,1030.1402891999999,1030.1402891999999,1032.3727367,n,1029.0840483999998,1029.0840483999998,0.6853955999999926,,0,001,2024-05-28_13h55.25.410,robot_nback_sign,2022.2.5,59.92125149122066,
W,False,3,letter,1,False,False,robot_stimuli\\filler.mp4,0,,,,,,,,,0,56,56,56,,,,,,,,,,,,,1032.3727367,,,,,,,,1035.6666834999999,1035.6666834999999,1035.6666834999999,1035.6666834999999,1035.6666834999999,1035.6666834999999,1035.6666834999999,1035.6666834999999,None,None,None,,,,,,,,,,,1032.3727367,1032.3727367,None,,1033.4407098999998,1033.4407098999998,1035.6666834999999,n,1032.3727367,1032.3727367,1.2262693999996372,,0,001,2024-05-28_13h55.25.410,robot_nback_sign,2022.2.5,59.92125149122066,
J,False,3,letter,1,False,False,robot_stimuli\\filler.mp4,0,,,,,,,,,0,57,57,57,,,,,,,,,,,,,1035.6666834999999,1036.7244374999998,,,,,,,1038.7527346,1038.7527346,1038.7527346,1038.7527346,1038.7527346,1038.7527346,1038.7527346,1038.7527346,None,None,None,,,,,,,,,,,1035.6666834999999,1035.6666834999999,None,,1036.7244374999998,1036.7244374999998,1038.7527346,n,1035.6666834999999,1035.6666834999999,1.4222776000001431,,0,001,2024-05-28_13h55.25.410,robot_nback_sign,2022.2.5,59.92125149122066,
V,False,3,letter,1,False,False,robot_stimuli\\filler.mp4,0,,,,,,,,,0,58,58,58,,,,,,,,,,,,,1038.7527346,1039.8078879000002,,,,,,,1041.8342906,1041.8342906,1041.8342906,1041.8342906,1041.8342906,1041.8342906,1041.8342906,1041.8342906,None,None,None,,,,,,,,,,,1038.7527346,1038.7527346,None,,1039.8078879000002,1039.8078879000002,1041.8342906,n,1038.7527346,1038.7527346,1.8984298999998828,,0,001,2024-05-28_13h55.25.410,robot_nback_sign,2022.2.5,59.92125149122066,
W,True,3,letter,1,False,False,robot_stimuli\\filler.mp4,0,,,,,,,,,0,59,59,59,,,,,,,,,,,,,1041.8342906,1042.8932963999998,,,,,,,1044.9248092999999,1044.9248092999999,1044.9248092999999,1044.9248092999999,1044.9248092999999,1044.9248092999999,1044.9248092999999,1044.9248092999999,None,None,None,,,,,,,,,,,1041.8342906,1041.8342906,None,,1042.8932963999998,1042.8932963999998,1044.9248092999999,c,1041.8342906,1041.8342906,1.3983259999999973,,0,001,2024-05-28_13h55.25.410,robot_nback_sign,2022.2.5,59.92125149122066,
J,True,3,letter,1,False,False,robot_stimuli\\filler.mp4,0,,,,,,,,,0,60,60,60,,,,,,,,,,,,,1044.9248092999999,1045.9895715999999,,,,,,,1048.2230140999998,1048.2230140999998,1048.2230140999998,1048.2230140999998,1048.2230140999998,1048.2230140999998,1048.2230140999998,1048.2230140999998,None,None,None,,,,,,,,,,,1044.9248092999999,1044.9248092999999,None,,1045.9895715999999,1045.9895715999999,1048.2230140999998,c,1044.9248092999999,1044.9248092999999,1.301048400000127,,0,001,2024-05-28_13h55.25.410,robot_nback_sign,2022.2.5,59.92125149122066,
S,False,3,letter,1,False,False,robot_stimuli\\filler.mp4,0,,,,,,,,,0,61,61,61,,,,,,,,,,,,,1048.2230140999998,,,,,,,,1051.3185803,1051.3185803,1051.3185803,1051.3185803,1051.3185803,1051.3185803,1051.3185803,1051.3185803,None,None,None,,,,,,,,,,,1048.2230140999998,1048.2230140999998,None,,1049.2918935,1049.2918935,1051.3185803,n,1048.2230140999998,1048.2230140999998,1.7428829999998925,,0,001,2024-05-28_13h55.25.410,robot_nback_sign,2022.2.5,59.92125149122066,
X,False,3,letter,1,False,False,robot_stimuli\\filler.mp4,0,,,,,,,,,0,62,62,62,,,,,,,,,,,,,1051.3185803,1052.3735705000001,,,,,,,1054.6019976999999,1054.6019976999999,1054.6019976999999,1054.6019976999999,1054.6019976999999,1054.6019976999999,1054.6019976999999,1054.6019976999999,None,None,None,,,,,,,,,,,1051.3185803,1051.3185803,None,,1052.3735705000001,1052.3735705000001,1054.6019976999999,n,1051.3185803,1051.3185803,1.6533251000000746,,0,001,2024-05-28_13h55.25.410,robot_nback_sign,2022.2.5,59.92125149122066,
W,False,3,letter,1,False,False,robot_stimuli\\filler.mp4,0,,,,,,,,,0,63,63,63,,,,,,,,,,,,,1054.6019976999999,1055.6583511000001,,,,,,,1057.8848529,1057.8848529,1057.8848529,1057.8848529,1057.8848529,1057.8848529,1057.8848529,1057.8848529,None,None,None,,,,,,,,,,,1054.6019976999999,1054.6019976999999,None,,1055.6583511000001,1055.6583511000001,1057.8848529,None,1054.6019976999999,1054.6019976999999,,,0,001,2024-05-28_13h55.25.410,robot_nback_sign,2022.2.5,59.92125149122066,
S,True,3,letter,1,False,False,robot_stimuli\\filler.mp4,0,,,,,,,,,0,64,64,64,,,,,,,,,,,,,1057.8848529,1058.9409821000002,,,,,,,1061.1647673,1061.1647673,1061.1647673,1061.1647673,1061.1647673,1061.1647673,1061.1647673,1061.1647673,None,None,None,,,,,,,,,,,1057.8848529,1057.8848529,None,,1058.9409821000002,1058.9409821000002,1061.1647673,c,1057.8848529,1057.8848529,1.4219331999997848,,0,001,2024-05-28_13h55.25.410,robot_nback_sign,2022.2.5,59.92125149122066,
G,False,3,letter,1,False,False,robot_stimuli\\filler.mp4,0,,,,,,,,,0,65,65,65,,,,,,,,,,,,,1061.1647673,1062.2287737,,,,,,,1064.2598916999998,1064.2598916999998,1064.2598916999998,1064.2598916999998,1064.2598916999998,1064.2598916999998,1064.2598916999998,1064.2598916999998,None,None,None,,,,,,,,,,,1061.1647673,1061.1647673,None,,1062.2287737,1062.2287737,1064.2598916999998,n,1061.1647673,1061.1647673,1.470109400000183,,0,001,2024-05-28_13h55.25.410,robot_nback_sign,2022.2.5,59.92125149122066,
H,False,3,letter,1,False,False,robot_stimuli\\filler.mp4,0,,,,,,,,,0,66,66,66,,,,,,,,,,,,,1064.2598916999998,1065.3249767,,,,,,,1067.5489961,1067.5489961,1067.5489961,1067.5489961,1067.5489961,1067.5489961,1067.5489961,1067.5489961,None,None,None,,,,,,,,,,,1064.2598916999998,1064.2598916999998,None,,1065.3249767,1065.3249767,1067.5489961,n,1064.2598916999998,1064.2598916999998,1.1103595999998106,,0,001,2024-05-28_13h55.25.410,robot_nback_sign,2022.2.5,59.92125149122066,
R,False,3,letter,1,False,False,robot_stimuli\\filler.mp4,0,,,,,,,,,0,67,67,67,,,,,,,,,,,,,1067.5489961,1068.6064162999999,,,,,,,1070.8425967,1070.8425967,1070.8425967,1070.8425967,1070.8425967,1070.8425967,1070.8425967,1070.8425967,None,None,None,,,,,,,,,,,1067.5489961,1067.5489961,None,,1068.6064162999999,1068.6064162999999,1070.8425967,n,1067.5489961,1067.5489961,1.2433250999997654,,0,001,2024-05-28_13h55.25.410,robot_nback_sign,2022.2.5,59.92125149122066,
R,False,3,letter,1,False,False,robot_stimuli\\filler.mp4,0,,,,,,,,,0,68,68,68,,,,,,,,,,,,,1070.8425967,1071.9149498999998,,,,,,,1073.9432235000002,1073.9432235000002,1073.9432235000002,1073.9432235000002,1073.9432235000002,1073.9432235000002,1073.9432235000002,1073.9432235000002,None,None,None,,,,,,,,,,,1070.8425967,1070.8425967,None,,1071.9149498999998,1071.9149498999998,1073.9432235000002,n,1070.8425967,1070.8425967,1.295699699999659,,0,001,2024-05-28_13h55.25.410,robot_nback_sign,2022.2.5,59.92125149122066,
R,False,3,letter,1,False,False,robot_stimuli\\filler.mp4,0,,,,,,,,,0,69,69,69,,,,,,,,,,,,,1073.9432235000002,1075.0053073000001,,,,,,,1077.2323167000002,1077.2323167000002,1077.2323167000002,1077.2323167000002,1077.2323167000002,1077.2323167000002,1077.2323167000002,1077.2323167000002,None,None,None,,,,,,,,,,,1073.9432235000002,1073.9432235000002,None,,1075.0053073000001,1075.0053073000001,1077.2323167000002,c,1073.9432235000002,1073.9432235000002,0.8376780000003237,,0,001,2024-05-28_13h55.25.410,robot_nback_sign,2022.2.5,59.92125149122066,
R,True,3,letter,1,False,False,robot_stimuli\\filler.mp4,0,,,,,,,,,0,70,70,70,,,,,,,,,,,,,1077.2323167000002,1078.2901736000001,,,,,,,1080.5190163999998,1080.5190163999998,1080.5190163999998,1080.5190163999998,1080.5190163999998,1080.5190163999998,1080.5190163999998,1080.5190163999998,None,None,None,,,,,,,,,,,1077.2323167000002,1077.2323167000002,None,,1078.2901736000001,1078.2901736000001,1080.5190163999998,c,1077.2323167000002,1077.2323167000002,0.6888137000000825,,0,001,2024-05-28_13h55.25.410,robot_nback_sign,2022.2.5,59.92125149122066,
P,False,3,letter,1,False,False,robot_stimuli\\filler.mp4,0,,,,,,,,,0,71,71,71,,,,,,,,,,,,,1080.5190163999998,1081.572661,,,,,,,1083.8059009,1083.8059009,1083.8059009,1083.8059009,1083.8059009,1083.8059009,1083.8059009,1083.8059009,None,None,None,,,,,,,,,,,1080.5190163999998,1080.5190163999998,None,,1081.572661,1081.572661,1083.8059009,n,1080.5190163999998,1080.5190163999998,0.9988103000000592,,0,001,2024-05-28_13h55.25.410,robot_nback_sign,2022.2.5,59.92125149122066,
B,False,3,letter,1,False,False,robot_stimuli\\filler.mp4,0,,,,,,,,,0,72,72,72,,,,,,,,,,,,,1083.8059009,,,,,,,,1087.1002274999998,1087.1002274999998,1087.1002274999998,1087.1002274999998,1087.1002274999998,1087.1002274999998,1087.1002274999998,1087.1002274999998,None,None,None,,,,,,,,,,,1083.8059009,1083.8059009,None,,1084.8744808,1084.8744808,1087.1002274999998,n,1083.8059009,1083.8059009,1.3199279000000388,,0,001,2024-05-28_13h55.25.410,robot_nback_sign,2022.2.5,59.92125149122066,
L,False,3,letter,1,False,False,robot_stimuli\\filler.mp4,0,,,,,,,,,0,73,73,73,,,,,,,,,,,,,1087.1002274999998,1088.1555007,,,,,,,1090.3862364,1090.3862364,1090.3862364,1090.3862364,1090.3862364,1090.3862364,1090.3862364,1090.3862364,None,None,None,,,,,,,,,,,1087.1002274999998,1087.1002274999998,None,,1088.1555007,1088.1555007,1090.3862364,n,1087.1002274999998,1087.1002274999998,1.151394099999834,,0,001,2024-05-28_13h55.25.410,robot_nback_sign,2022.2.5,59.92125149122066,
G,False,3,letter,1,False,False,robot_stimuli\\filler.mp4,0,,,,,,,,,0,74,74,74,,,,,,,,,,,,,1090.3862364,1091.4387261999998,,,,,,,1093.666704,1093.666704,1093.666704,1093.666704,1093.666704,1093.666704,1093.666704,1093.666704,None,None,None,,,,,,,,,,,1090.3862364,1090.3862364,None,,1091.4387261999998,1091.4387261999998,1093.666704,n,1090.3862364,1090.3862364,0.7162561000000096,,0,001,2024-05-28_13h55.25.410,robot_nback_sign,2022.2.5,59.92125149122066,
B,True,3,letter,1,False,False,robot_stimuli\\filler.mp4,0,,,,,,,,,0,75,75,75,,,,,,,,,,,,,1093.666704,1094.7230521,,,,,,,1096.7606902,1096.7606902,1096.7606902,1096.7606902,1096.7606902,1096.7606902,1096.7606902,1096.7606902,None,None,None,,,,,,,,,,,1093.666704,1093.666704,None,,1094.7230521,1094.7230521,1096.7606902,c,1093.666704,1093.666704,0.9666409000001295,,0,001,2024-05-28_13h55.25.410,robot_nback_sign,2022.2.5,59.92125149122066,
L,True,3,letter,1,False,False,robot_stimuli\\filler.mp4,0,,,,,,,,,0,76,76,76,,,,,,,,,,,,,1096.7606902,1097.832827,,,,,,,1099.858078,1099.858078,1099.858078,1099.858078,1099.858078,1099.858078,1099.858078,1099.858078,None,None,None,,,,,,,,,,,1096.7606902,1096.7606902,None,,1097.832827,1097.832827,1099.858078,c,1096.7606902,1096.7606902,1.1223253999996814,,0,001,2024-05-28_13h55.25.410,robot_nback_sign,2022.2.5,59.92125149122066,
G,True,3,letter,1,False,False,robot_stimuli\\filler.mp4,0,,,,,,,,,0,77,77,77,,,,,,,,,,,,,1099.858078,1100.9238305000001,,,,,,,1102.9570692999998,1102.9570692999998,1102.9570692999998,1102.9570692999998,1102.9570692999998,1102.9570692999998,1102.9570692999998,1102.9570692999998,None,None,None,,,,,,,,,,,1099.858078,1099.858078,None,,1100.9238305000001,1100.9238305000001,1102.9570692999998,c,1099.858078,1099.858078,1.447218199999952,,0,001,2024-05-28_13h55.25.410,robot_nback_sign,2022.2.5,59.92125149122066,
M,False,3,letter,1,False,False,robot_stimuli\\filler.mp4,0,,,,,,,,,0,78,78,78,,,,,,,,,,,,,1102.9570692999998,1104.0223518999999,,,,,,,1106.2494789999998,1106.2494789999998,1106.2494789999998,1106.2494789999998,1106.2494789999998,1106.2494789999998,1106.2494789999998,1106.2494789999998,None,None,None,,,,,,,,,,,1102.9570692999998,1102.9570692999998,None,,1104.0223518999999,1104.0223518999999,1106.2494789999998,None,1102.9570692999998,1102.9570692999998,,,0,001,2024-05-28_13h55.25.410,robot_nback_sign,2022.2.5,59.92125149122066,
S,False,3,letter,1,False,False,robot_stimuli\\filler.mp4,0,,,,,,,,,0,79,79,79,,,,,,,,,,,,,1106.2494789999998,1107.3079257000002,,,,,,,1109.3384245999998,1109.3384245999998,1109.3384245999998,1109.3384245999998,1109.3384245999998,1109.3384245999998,1109.3384245999998,1109.3384245999998,None,None,None,,,,,,,,,,,1106.2494789999998,1106.2494789999998,None,,1107.3079257000002,1107.3079257000002,1109.3384245999998,n,1106.2494789999998,1106.2494789999998,1.1028206999999384,,0,001,2024-05-28_13h55.25.410,robot_nback_sign,2022.2.5,59.92125149122066,
Q,False,3,letter,1,False,False,robot_stimuli\\filler.mp4,0,,,,,,,,,0,80,80,80,,,,,,,,,,,,,1109.3384245999998,,,,,,,,1112.6385742999998,1112.6385742999998,1112.6385742999998,1112.6385742999998,1112.6385742999998,1112.6385742999998,1112.6385742999998,1112.6385742999998,None,None,None,,,,,,,,,,,1109.3384245999998,1109.3384245999998,None,,1110.4059248,1110.4059248,1112.6385742999998,n,1109.3384245999998,1109.3384245999998,0.7964508000000023,,0,001,2024-05-28_13h55.25.410,robot_nback_sign,2022.2.5,59.92125149122066,
N,False,3,letter,1,False,False,robot_stimuli\\filler.mp4,0,,,,,,,,,0,81,81,81,,,,,,,,,,,,,1112.6385742999998,,,,,,,,1115.9370544,1115.9370544,1115.9370544,1115.9370544,1115.9370544,1115.9370544,1115.9370544,1115.9370544,None,None,None,,,,,,,,,,,1112.6385742999998,1112.6385742999998,None,,1113.7064099000002,1113.7064099000002,1115.9370544,n,1112.6385742999998,1112.6385742999998,1.5279295999998794,,0,001,2024-05-28_13h55.25.410,robot_nback_sign,2022.2.5,59.92125149122066,
Z,False,3,letter,1,False,False,robot_stimuli\\filler.mp4,0,,,,,,,,,0,82,82,82,,,,,,,,,,,,,1115.9370544,1116.9908137999998,,,,,,,1119.0160141,1119.0160141,1119.0160141,1119.0160141,1119.0160141,1119.0160141,1119.0160141,1119.0160141,None,None,None,,,,,,,,,,,1115.9370544,1115.9370544,None,,1116.9908137999998,1116.9908137999998,1119.0160141,n,1115.9370544,1115.9370544,1.3805351000000883,,0,001,2024-05-28_13h55.25.410,robot_nback_sign,2022.2.5,59.92125149122066,
J,False,3,letter,1,False,False,robot_stimuli\\filler.mp4,0,,,,,,,,,0,83,83,83,,,,,,,,,,,,,1119.0160141,1120.0805013000002,,,,,,,1122.1036342,1122.1036342,1122.1036342,1122.1036342,1122.1036342,1122.1036342,1122.1036342,1122.1036342,None,None,None,,,,,,,,,,,1119.0160141,1119.0160141,None,,1120.0805013000002,1120.0805013000002,1122.1036342,n,1119.0160141,1119.0160141,1.3142410000000382,,0,001,2024-05-28_13h55.25.410,robot_nback_sign,2022.2.5,59.92125149122066,
D,False,3,letter,1,False,False,robot_stimuli\\filler.mp4,0,,,,,,,,,0,84,84,84,,,,,,,,,,,,,1122.1036342,1123.1566593999999,,,,,,,1125.3843043,1125.3843043,1125.3843043,1125.3843043,1125.3843043,1125.3843043,1125.3843043,1125.3843043,None,None,None,,,,,,,,,,,1122.1036342,1122.1036342,None,,1123.1566593999999,1123.1566593999999,1125.3843043,n,1122.1036342,1122.1036342,1.2779012999999395,,0,001,2024-05-28_13h55.25.410,robot_nback_sign,2022.2.5,59.92125149122066,
Z,True,3,letter,1,False,False,robot_stimuli\\filler.mp4,0,,,,,,,,,0,85,85,85,,,,,,,,,,,,,1125.3843043,1126.4407918,,,,,,,1128.4658587000001,1128.4658587000001,1128.4658587000001,1128.4658587000001,1128.4658587000001,1128.4658587000001,1128.4658587000001,1128.4658587000001,None,None,None,,,,,,,,,,,1125.3843043,1125.3843043,None,,1126.4407918,1126.4407918,1128.4658587000001,c,1125.3843043,1125.3843043,1.5296932000001107,,0,001,2024-05-28_13h55.25.410,robot_nback_sign,2022.2.5,59.92125149122066,
S,False,3,letter,1,False,False,robot_stimuli\\filler.mp4,0,,,,,,,,,0,86,86,86,,,,,,,,,,,,,1128.4658587000001,1129.5240584,,,,,,,1131.7509636000002,1131.7509636000002,1131.7509636000002,1131.7509636000002,1131.7509636000002,1131.7509636000002,1131.7509636000002,1131.7509636000002,None,None,None,,,,,,,,,,,1128.4658587000001,1128.4658587000001,None,,1129.5240584,1129.5240584,1131.7509636000002,n,1128.4658587000001,1128.4658587000001,1.6939565000002403,,0,001,2024-05-28_13h55.25.410,robot_nback_sign,2022.2.5,59.92125149122066,
S,False,3,letter,1,False,False,robot_stimuli\\filler.mp4,0,,,,,,,,,0,87,87,87,,,,,,,,,,,,,1131.7509636000002,1132.8052737,,,,,,,1135.0392604,1135.0392604,1135.0392604,1135.0392604,1135.0392604,1135.0392604,1135.0392604,1135.0392604,None,None,None,,,,,,,,,,,1131.7509636000002,1131.7509636000002,None,,1132.8052737,1132.8052737,1135.0392604,n,1131.7509636000002,1131.7509636000002,1.5011795000000347,,0,001,2024-05-28_13h55.25.410,robot_nback_sign,2022.2.5,59.92125149122066,
D,False,3,letter,1,False,False,robot_stimuli\\filler.mp4,0,,,,,,,,,0,88,88,88,,,,,,,,,,,,,1135.0392604,,,,,,,,1138.3343459,1138.3343459,1138.3343459,1138.3343459,1138.3343459,1138.3343459,1138.3343459,1138.3343459,None,None,None,,,,,,,,,,,1135.0392604,1135.0392604,None,,1136.1061268,1136.1061268,1138.3343459,None,1135.0392604,1135.0392604,,,0,001,2024-05-28_13h55.25.410,robot_nback_sign,2022.2.5,59.92125149122066,
D,False,3,letter,1,False,False,robot_stimuli\\filler.mp4,0,,,,,,,,,0,89,89,89,,,,,,,,,,,,,1138.3343459,1139.3887216,,,,,,,1141.6199607,1141.6199607,1141.6199607,1141.6199607,1141.6199607,1141.6199607,1141.6199607,1141.6199607,None,None,None,,,,,,,,,,,1138.3343459,1138.3343459,None,,1139.3887216,1139.3887216,1141.6199607,n,1138.3343459,1138.3343459,1.3738403000002108,,0,001,2024-05-28_13h55.25.410,robot_nback_sign,2022.2.5,59.92125149122066,
K,False,3,letter,1,False,False,robot_stimuli\\filler.mp4,0,,,,,,,,,0,90,90,90,,,,,,,,,,,,,1141.6199607,1142.6739469000001,,,,,,,1144.9003578,1144.9003578,1144.9003578,1144.9003578,1144.9003578,1144.9003578,1144.9003578,1144.9003578,None,None,None,,,,,,,,,,,1141.6199607,1141.6199607,None,,1142.6739469000001,1142.6739469000001,1144.9003578,n,1141.6199607,1141.6199607,0.8007314000001315,,0,001,2024-05-28_13h55.25.410,robot_nback_sign,2022.2.5,59.92125149122066,
F,False,3,letter,1,False,False,robot_stimuli\\filler.mp4,0,,,,,,,,,0,91,91,91,,,,,,,,,,,,,1144.9003578,1145.9574967,,,,,,,1148.1817594000001,1148.1817594000001,1148.1817594000001,1148.1817594000001,1148.1817594000001,1148.1817594000001,1148.1817594000001,1148.1817594000001,None,None,None,,,,,,,,,,,1144.9003578,1144.9003578,None,,1145.9574967,1145.9574967,1148.1817594000001,n,1144.9003578,1144.9003578,0.852157900000293,,0,001,2024-05-28_13h55.25.410,robot_nback_sign,2022.2.5,59.92125149122066,
S,False,3,letter,1,False,False,robot_stimuli\\filler.mp4,0,,,,,,,,,0,92,92,92,,,,,,,,,,,,,1148.1817594000001,1149.2397257,,,,,,,1151.4722049999998,1151.4722049999998,1151.4722049999998,1151.4722049999998,1151.4722049999998,1151.4722049999998,1151.4722049999998,1151.4722049999998,None,None,None,,,,,,,,,,,1148.1817594000001,1148.1817594000001,None,,1149.2397257,1149.2397257,1151.4722049999998,n,1148.1817594000001,1148.1817594000001,1.1869390000001658,,0,001,2024-05-28_13h55.25.410,robot_nback_sign,2022.2.5,59.92125149122066,
W,False,3,letter,1,False,False,robot_stimuli\\filler.mp4,0,,,,,,,,,0,93,93,93,,,,,,,,,,,,,1151.4722049999998,,,,,,,,1154.7731728,1154.7731728,1154.7731728,1154.7731728,1154.7731728,1154.7731728,1154.7731728,1154.7731728,None,None,None,,,,,,,,,,,1151.4722049999998,1151.4722049999998,None,,1152.5397461999999,1152.5397461999999,1154.7731728,n,1151.4722049999998,1151.4722049999998,0.7514451000001827,,0,001,2024-05-28_13h55.25.410,robot_nback_sign,2022.2.5,59.92125149122066,
F,True,3,letter,1,False,False,robot_stimuli\\filler.mp4,0,,,,,,,,,0,94,94,94,,,,,,,,,,,,,1154.7731728,,,,,,,,1157.8750329000002,1157.8750329000002,1157.8750329000002,1157.8750329000002,1157.8750329000002,1157.8750329000002,1157.8750329000002,1157.8750329000002,None,None,None,,,,,,,,,,,1154.7731728,1154.7731728,None,,1155.8489222,1155.8489222,1157.8750329000002,c,1154.7731728,1154.7731728,1.168655200000103,,0,001,2024-05-28_13h55.25.410,robot_nback_sign,2022.2.5,59.92125149122066,
Q,False,3,letter,1,False,False,robot_stimuli\\filler.mp4,0,,,,,,,,,0,95,95,95,,,,,,,,,,,,,1157.8750329000002,1158.9403117999998,,,,,,,1160.9768627,1160.9768627,1160.9768627,1160.9768627,1160.9768627,1160.9768627,1160.9768627,1160.9768627,None,None,None,,,,,,,,,,,1157.8750329000002,1157.8750329000002,None,,1158.9403117999998,1158.9403117999998,1160.9768627,n,1157.8750329000002,1157.8750329000002,1.229824699999881,,0,001,2024-05-28_13h55.25.410,robot_nback_sign,2022.2.5,59.92125149122066,
T,False,3,letter,1,False,False,robot_stimuli\\filler.mp4,0,,,,,,,,,0,96,96,96,,,,,,,,,,,,,1160.9768627,1162.0397713,,,,,,,1164.2697157,1164.2697157,1164.2697157,1164.2697157,1164.2697157,1164.2697157,1164.2697157,1164.2697157,None,None,None,,,,,,,,,,,1160.9768627,1160.9768627,None,,1162.0397713,1162.0397713,1164.2697157,n,1160.9768627,1160.9768627,0.9710801000001084,,0,001,2024-05-28_13h55.25.410,robot_nback_sign,2022.2.5,59.92125149122066,
Q,False,3,letter,1,False,False,robot_stimuli\\filler.mp4,0,,,,,,,,,0,97,97,97,,,,,,,,,,,,,1164.2697157,1165.3236759,,,,,,,1167.350182,1167.350182,1167.350182,1167.350182,1167.350182,1167.350182,1167.350182,1167.350182,None,None,None,,,,,,,,,,,1164.2697157,1164.2697157,None,,1165.3236759,1165.3236759,1167.350182,n,1164.2697157,1164.2697157,1.4701397000003453,,0,001,2024-05-28_13h55.25.410,robot_nback_sign,2022.2.5,59.92125149122066,
D,False,3,letter,1,False,False,robot_stimuli\\filler.mp4,0,,,,,,,,,0,98,98,98,,,,,,,,,,,,,1167.350182,1168.4043746999998,,,,,,,1170.6338459,1170.6338459,1170.6338459,1170.6338459,1170.6338459,1170.6338459,1170.6338459,1170.6338459,None,None,None,,,,,,,,,,,1167.350182,1167.350182,None,,1168.4043746999998,1168.4043746999998,1170.6338459,n,1167.350182,1167.350182,1.8377768999998807,,0,001,2024-05-28_13h55.25.410,robot_nback_sign,2022.2.5,59.92125149122066,
T,True,3,letter,1,False,True,robot_stimuli\\filler.mp4,0,,,,,,,,,0,99,99,99,,,,,,,,,,,,,1170.6338459,1171.690422,,,,,,,1173.7523171999999,1182.4610226000002,1173.7523171999999,1182.4610226000002,1173.7523171999999,1182.4610226000002,1173.7523171999999,1182.4610226000002,49.29012345679013,6.951467899999898,space,,,,8.65731360000018,,,,,,,1170.6338459,1170.6338459,None,,1171.690422,1171.690422,1173.7523171999999,n,1170.6338459,1170.6338459,1.6876555000003464,,0,001,2024-05-28_13h55.25.410,robot_nback_sign,2022.2.5,59.92125149122066,
B,False,1,letter,1,True,False,robot_stimuli\\filler.mp4,0,,,,,,,,,0,100,100,100,,,,,,,,,,,,,1188.0032598999999,1189.0733715,,,,,,,1191.3042487,1191.3042487,1191.3042487,1191.3042487,1191.3042487,1191.3042487,1191.3042487,1191.3042487,None,None,None,,,,,,,,,,,1182.4610226000002,1182.4610226000002,space,5.509946799999852,1189.0733715,1189.0733715,1191.3042487,n,,,1.3699251000002732,,0,001,2024-05-28_13h55.25.410,robot_nback_sign,2022.2.5,59.92125149122066,
D,False,1,letter,1,False,False,robot_stimuli\\filler.mp4,0,,,,,,,,,0,101,101,101,,,,,,,,,,,,,1191.3042487,1192.3566669,,,,,,,1194.3891408000002,1194.3891408000002,1194.3891408000002,1194.3891408000002,1194.3891408000002,1194.3891408000002,1194.3891408000002,1194.3891408000002,None,None,None,,,,,,,,,,,1191.3042487,1191.3042487,None,,1192.3566669,1192.3566669,1194.3891408000002,n,1191.3042487,1191.3042487,0.8862904000002345,,0,001,2024-05-28_13h55.25.410,robot_nback_sign,2022.2.5,59.92125149122066,
C,False,1,letter,1,False,False,robot_stimuli\\filler.mp4,0,,,,,,,,,0,102,102,102,,,,,,,,,,,,,1194.3891408000002,,,,,,,,1197.4842271,1197.4842271,1197.4842271,1197.4842271,1197.4842271,1197.4842271,1197.4842271,1197.4842271,None,None,None,,,,,,,,,,,1194.3891408000002,1194.3891408000002,None,,1195.4584268,1195.4584268,1197.4842271,n,1194.3891408000002,1194.3891408000002,0.47953800000004776,,0,001,2024-05-28_13h55.25.410,robot_nback_sign,2022.2.5,59.92125149122066,
C,True,1,letter,1,False,False,robot_stimuli\\filler.mp4,0,,,,,,,,,0,103,103,103,,,,,,,,,,,,,1197.4842271,1198.5393075,,,,,,,1200.7670915,1200.7670915,1200.7670915,1200.7670915,1200.7670915,1200.7670915,1200.7670915,1200.7670915,None,None,None,,,,,,,,,,,1197.4842271,1197.4842271,None,,1198.5393075,1198.5393075,1200.7670915,c,1197.4842271,1197.4842271,0.8149821000001793,,0,001,2024-05-28_13h55.25.410,robot_nback_sign,2022.2.5,59.92125149122066,
J,False,1,letter,1,False,False,robot_stimuli\\filler.mp4,0,,,,,,,,,0,104,104,104,,,,,,,,,,,,,1200.7670915,1201.8233088,,,,,,,1204.0539808,1204.0539808,1204.0539808,1204.0539808,1204.0539808,1204.0539808,1204.0539808,1204.0539808,None,None,None,,,,,,,,,,,1200.7670915,1200.7670915,None,,1201.8233088,1201.8233088,1204.0539808,n,1200.7670915,1200.7670915,0.5313086000001022,,0,001,2024-05-28_13h55.25.410,robot_nback_sign,2022.2.5,59.92125149122066,
M,False,1,letter,1,False,False,robot_stimuli\\filler.mp4,0,,,,,,,,,0,105,105,105,,,,,,,,,,,,,1204.0539808,1205.1083448000002,,,,,,,1207.1396214,1207.1396214,1207.1396214,1207.1396214,1207.1396214,1207.1396214,1207.1396214,1207.1396214,None,None,None,,,,,,,,,,,1204.0539808,1204.0539808,None,,1205.1083448000002,1205.1083448000002,1207.1396214,n,1204.0539808,1204.0539808,0.5979284999998526,,0,001,2024-05-28_13h55.25.410,robot_nback_sign,2022.2.5,59.92125149122066,
X,False,1,letter,1,False,False,robot_stimuli\\filler.mp4,0,,,,,,,,,0,106,106,106,,,,,,,,,,,,,1207.1396214,,,,,,,,1210.4400472,1210.4400472,1210.4400472,1210.4400472,1210.4400472,1210.4400472,1210.4400472,1210.4400472,None,None,None,,,,,,,,,,,1207.1396214,1207.1396214,None,,1208.2066831999998,1208.2066831999998,1210.4400472,n,1207.1396214,1207.1396214,0.6206722000001719,,0,001,2024-05-28_13h55.25.410,robot_nback_sign,2022.2.5,59.92125149122066,
V,False,1,letter,1,False,False,robot_stimuli\\filler.mp4,0,,,,,,,,,0,107,107,107,,,,,,,,,,,,,1210.4400472,1211.5170378,,,,,,,1213.5526634,1213.5526634,1213.5526634,1213.5526634,1213.5526634,1213.5526634,1213.5526634,1213.5526634,None,None,None,,,,,,,,,,,1210.4400472,1210.4400472,None,,1211.5170378,1211.5170378,1213.5526634,n,1210.4400472,1210.4400472,0.43759689999978946,,0,001,2024-05-28_13h55.25.410,robot_nback_sign,2022.2.5,59.92125149122066,
S,False,1,letter,1,False,False,robot_stimuli\\filler.mp4,0,,,,,,,,,0,108,108,108,,,,,,,,,,,,,1213.5526634,1214.6070736,,,,,,,1216.6312343000002,1216.6312343000002,1216.6312343000002,1216.6312343000002,1216.6312343000002,1216.6312343000002,1216.6312343000002,1216.6312343000002,None,None,None,,,,,,,,,,,1213.5526634,1213.5526634,None,,1214.6070736,1214.6070736,1216.6312343000002,n,1213.5526634,1213.5526634,0.42775570000003427,,0,001,2024-05-28_13h55.25.410,robot_nback_sign,2022.2.5,59.92125149122066,
S,True,1,letter,1,False,False,robot_stimuli\\filler.mp4,0,,,,,,,,,0,109,109,109,,,,,,,,,,,,,1216.6312343000002,1217.6892154999998,,,,,,,1219.9191637000001,1219.9191637000001,1219.9191637000001,1219.9191637000001,1219.9191637000001,1219.9191637000001,1219.9191637000001,1219.9191637000001,None,None,None,,,,,,,,,,,1216.6312343000002,1216.6312343000002,None,,1217.6892154999998,1217.6892154999998,1219.9191637000001,c,1216.6312343000002,1216.6312343000002,0.8411000999999487,,0,001,2024-05-28_13h55.25.410,robot_nback_sign,2022.2.5,59.92125149122066,
R,False,1,letter,1,False,False,robot_stimuli\\filler.mp4,0,,,,,,,,,0,110,110,110,,,,,,,,,,,,,1219.9191637000001,1220.9733809000002,,,,,,,1223.2000191,1223.2000191,1223.2000191,1223.2000191,1223.2000191,1223.2000191,1223.2000191,1223.2000191,None,None,None,,,,,,,,,,,1219.9191637000001,1219.9191637000001,None,,1220.9733809000002,1220.9733809000002,1223.2000191,n,1219.9191637000001,1219.9191637000001,0.7644628999996712,,0,001,2024-05-28_13h55.25.410,robot_nback_sign,2022.2.5,59.92125149122066,
Q,False,1,letter,1,False,False,robot_stimuli\\filler.mp4,0,,,,,,,,,0,111,111,111,,,,,,,,,,,,,1223.2000191,1224.2562135,,,,,,,1226.4899148000002,1226.4899148000002,1226.4899148000002,1226.4899148000002,1226.4899148000002,1226.4899148000002,1226.4899148000002,1226.4899148000002,None,None,None,,,,,,,,,,,1223.2000191,1223.2000191,None,,1224.2562135,1224.2562135,1226.4899148000002,n,1223.2000191,1223.2000191,0.8906538000001092,,0,001,2024-05-28_13h55.25.410,robot_nback_sign,2022.2.5,59.92125149122066,
R,False,1,letter,1,False,False,robot_stimuli\\filler.mp4,0,,,,,,,,,0,112,112,112,,,,,,,,,,,,,1226.4899148000002,,,,,,,,1229.7861746,1229.7861746,1229.7861746,1229.7861746,1229.7861746,1229.7861746,1229.7861746,1229.7861746,None,None,None,,,,,,,,,,,1226.4899148000002,1226.4899148000002,None,,1227.5567380999998,1227.5567380999998,1229.7861746,n,1226.4899148000002,1226.4899148000002,1.1974958000000697,,0,001,2024-05-28_13h55.25.410,robot_nback_sign,2022.2.5,59.92125149122066,
V,False,1,letter,1,False,False,robot_stimuli\\filler.mp4,0,,,,,,,,,0,113,113,113,,,,,,,,,,,,,1229.7861746,1230.8402626999998,,,,,,,1232.8713083,1232.8713083,1232.8713083,1232.8713083,1232.8713083,1232.8713083,1232.8713083,1232.8713083,None,None,None,,,,,,,,,,,1229.7861746,1229.7861746,None,,1230.8402626999998,1230.8402626999998,1232.8713083,n,1229.7861746,1229.7861746,0.7144832000003589,,0,001,2024-05-28_13h55.25.410,robot_nback_sign,2022.2.5,59.92125149122066,
Q,False,1,letter,1,False,False,robot_stimuli\\filler.mp4,0,,,,,,,,,0,114,114,114,,,,,,,,,,,,,1232.8713083,,,,,,,,1235.9699102000002,1235.9699102000002,1235.9699102000002,1235.9699102000002,1235.9699102000002,1235.9699102000002,1235.9699102000002,1235.9699102000002,None,None,None,,,,,,,,,,,1232.8713083,1232.8713083,None,,1233.9399302,1233.9399302,1235.9699102000002,n,1232.8713083,1232.8713083,0.7590296999997008,,0,001,2024-05-28_13h55.25.410,robot_nback_sign,2022.2.5,59.92125149122066,
S,False,1,letter,1,False,False,robot_stimuli\\filler.mp4,0,,,,,,,,,0,115,115,115,,,,,,,,,,,,,1235.9699102000002,1237.0241515,,,,,,,1239.0506351000001,1239.0506351000001,1239.0506351000001,1239.0506351000001,1239.0506351000001,1239.0506351000001,1239.0506351000001,1239.0506351000001,None,None,None,,,,,,,,,,,1235.9699102000002,1235.9699102000002,None,,1237.0241515,1237.0241515,1239.0506351000001,n,1235.9699102000002,1235.9699102000002,0.5454037999998036,,0,001,2024-05-28_13h55.25.410,robot_nback_sign,2022.2.5,59.92125149122066,
X,False,1,letter,1,False,False,robot_stimuli\\filler.mp4,0,,,,,,,,,0,116,116,116,,,,,,,,,,,,,1239.0506351000001,1240.1064168999999,,,,,,,1242.3359951,1242.3359951,1242.3359951,1242.3359951,1242.3359951,1242.3359951,1242.3359951,1242.3359951,None,None,None,,,,,,,,,,,1239.0506351000001,1239.0506351000001,None,,1240.1064168999999,1240.1064168999999,1242.3359951,n,1239.0506351000001,1239.0506351000001,0.3831748000002335,,0,001,2024-05-28_13h55.25.410,robot_nback_sign,2022.2.5,59.92125149122066,
N,False,1,letter,1,False,False,robot_stimuli\\filler.mp4,0,,,,,,,,,0,117,117,117,,,,,,,,,,,,,1242.3359951,1243.3904770000001,,,,,,,1245.6195286999998,1245.6195286999998,1245.6195286999998,1245.6195286999998,1245.6195286999998,1245.6195286999998,1245.6195286999998,1245.6195286999998,None,None,None,,,,,,,,,,,1242.3359951,1242.3359951,None,,1243.3904770000001,1243.3904770000001,1245.6195286999998,n,1242.3359951,1242.3359951,0.4513238999998066,,0,001,2024-05-28_13h55.25.410,robot_nback_sign,2022.2.5,59.92125149122066,
N,True,1,letter,1,False,False,robot_stimuli\\filler.mp4,0,,,,,,,,,0,118,118,118,,,,,,,,,,,,,1245.6195286999998,1246.6714408999999,,,,,,,1248.7060430999998,1248.7060430999998,1248.7060430999998,1248.7060430999998,1248.7060430999998,1248.7060430999998,1248.7060430999998,1248.7060430999998,None,None,None,,,,,,,,,,,1245.6195286999998,1245.6195286999998,None,,1246.6714408999999,1246.6714408999999,1248.7060430999998,c,1245.6195286999998,1245.6195286999998,0.7462132999999085,,0,001,2024-05-28_13h55.25.410,robot_nback_sign,2022.2.5,59.92125149122066,
J,False,1,letter,1,False,False,robot_stimuli\\filler.mp4,0,,,,,,,,,0,119,119,119,,,,,,,,,,,,,1248.7060430999998,,,,,,,,1251.8030952000001,1251.8030952000001,1251.8030952000001,1251.8030952000001,1251.8030952000001,1251.8030952000001,1251.8030952000001,1251.8030952000001,None,None,None,,,,,,,,,,,1248.7060430999998,1248.7060430999998,None,,1249.7731187000002,1249.7731187000002,1251.8030952000001,n,1248.7060430999998,1248.7060430999998,0.8062580000000708,,0,001,2024-05-28_13h55.25.410,robot_nback_sign,2022.2.5,59.92125149122066,
Z,False,1,letter,1,False,False,robot_stimuli\\filler.mp4,0,,,,,,,,,0,120,120,120,,,,,,,,,,,,,1251.8030952000001,1252.8561146999998,,,,,,,1255.0858495999998,1255.0858495999998,1255.0858495999998,1255.0858495999998,1255.0858495999998,1255.0858495999998,1255.0858495999998,1255.0858495999998,None,None,None,,,,,,,,,,,1251.8030952000001,1251.8030952000001,None,,1252.8561146999998,1252.8561146999998,1255.0858495999998,n,1251.8030952000001,1251.8030952000001,1.194575700000314,,0,001,2024-05-28_13h55.25.410,robot_nback_sign,2022.2.5,59.92125149122066,
Z,True,1,letter,1,False,False,robot_stimuli\\filler.mp4,0,,,,,,,,,0,121,121,121,,,,,,,,,,,,,1255.0858495999998,1256.139836,,,,,,,1258.3643516999998,1258.3643516999998,1258.3643516999998,1258.3643516999998,1258.3643516999998,1258.3643516999998,1258.3643516999998,1258.3643516999998,None,None,None,,,,,,,,,,,1255.0858495999998,1255.0858495999998,None,,1256.139836,1256.139836,1258.3643516999998,c,1255.0858495999998,1255.0858495999998,0.6710377999997945,,0,001,2024-05-28_13h55.25.410,robot_nback_sign,2022.2.5,59.92125149122066,
K,False,1,letter,1,False,False,robot_stimuli\\filler.mp4,0,,,,,,,,,0,122,122,122,,,,,,,,,,,,,1258.3643516999998,1259.4244784,,,,,,,1261.4511559999999,1261.4511559999999,1261.4511559999999,1261.4511559999999,1261.4511559999999,1261.4511559999999,1261.4511559999999,1261.4511559999999,None,None,None,,,,,,,,,,,1258.3643516999998,1258.3643516999998,None,,1259.4244784,1259.4244784,1261.4511559999999,n,1258.3643516999998,1258.3643516999998,0.72116189999997,,0,001,2024-05-28_13h55.25.410,robot_nback_sign,2022.2.5,59.92125149122066,
K,True,1,letter,1,False,False,robot_stimuli\\filler.mp4,0,,,,,,,,,0,123,123,123,,,,,,,,,,,,,1261.4511559999999,1262.5047195999998,,,,,,,1264.7489656,1264.7489656,1264.7489656,1264.7489656,1264.7489656,1264.7489656,1264.7489656,1264.7489656,None,None,None,,,,,,,,,,,1261.4511559999999,1261.4511559999999,None,,1262.5047195999998,1262.5047195999998,1264.7489656,c,1261.4511559999999,1261.4511559999999,0.7459603000002062,,0,001,2024-05-28_13h55.25.410,robot_nback_sign,2022.2.5,59.92125149122066,
H,False,1,letter,1,False,False,robot_stimuli\\filler.mp4,0,,,,,,,,,0,124,124,124,,,,,,,,,,,,,1264.7489656,1265.8175198000001,,,,,,,1267.8430523,1267.8430523,1267.8430523,1267.8430523,1267.8430523,1267.8430523,1267.8430523,1267.8430523,None,None,None,,,,,,,,,,,1264.7489656,1264.7489656,None,,1265.8175198000001,1265.8175198000001,1267.8430523,n,1264.7489656,1264.7489656,0.5203142000000298,,0,001,2024-05-28_13h55.25.410,robot_nback_sign,2022.2.5,59.92125149122066,
H,True,1,letter,1,False,False,robot_stimuli\\filler.mp4,0,,,,,,,,,0,125,125,125,,,,,,,,,,,,,1267.8430523,1268.9047051999999,,,,,,,1271.1290744,1271.1290744,1271.1290744,1271.1290744,1271.1290744,1271.1290744,1271.1290744,1271.1290744,None,None,None,,,,,,,,,,,1267.8430523,1267.8430523,None,,1268.9047051999999,1268.9047051999999,1271.1290744,c,1267.8430523,1267.8430523,0.9066520999999739,,0,001,2024-05-28_13h55.25.410,robot_nback_sign,2022.2.5,59.92125149122066,
G,False,1,letter,1,False,False,robot_stimuli\\filler.mp4,0,,,,,,,,,0,126,126,126,,,,,,,,,,,,,1271.1290744,1272.1910193,,,,,,,1274.2204639999998,1274.2204639999998,1274.2204639999998,1274.2204639999998,1274.2204639999998,1274.2204639999998,1274.2204639999998,1274.2204639999998,None,None,None,,,,,,,,,,,1271.1290744,1271.1290744,None,,1272.1910193,1272.1910193,1274.2204639999998,n,1271.1290744,1271.1290744,0.7064706000001024,,0,001,2024-05-28_13h55.25.410,robot_nback_sign,2022.2.5,59.92125149122066,
W,False,1,letter,1,False,False,robot_stimuli\\filler.mp4,0,,,,,,,,,0,127,127,127,,,,,,,,,,,,,1274.2204639999998,1275.2748798999999,,,,,,,1277.5060172,1277.5060172,1277.5060172,1277.5060172,1277.5060172,1277.5060172,1277.5060172,1277.5060172,None,None,None,,,,,,,,,,,1274.2204639999998,1274.2204639999998,None,,1275.2748798999999,1275.2748798999999,1277.5060172,n,1274.2204639999998,1274.2204639999998,1.5039227999996,,0,001,2024-05-28_13h55.25.410,robot_nback_sign,2022.2.5,59.92125149122066,
G,False,1,letter,1,False,False,robot_stimuli\\filler.mp4,0,,,,,,,,,0,128,128,128,,,,,,,,,,,,,1277.5060172,,,,,,,,1280.6047323999999,1280.6047323999999,1280.6047323999999,1280.6047323999999,1280.6047323999999,1280.6047323999999,1280.6047323999999,1280.6047323999999,None,None,None,,,,,,,,,,,1277.5060172,1277.5060172,None,,1278.5744403,1278.5744403,1280.6047323999999,n,1277.5060172,1277.5060172,0.8591662999997425,,0,001,2024-05-28_13h55.25.410,robot_nback_sign,2022.2.5,59.92125149122066,
V,False,1,letter,1,False,False,robot_stimuli\\filler.mp4,0,,,,,,,,,0,129,129,129,,,,,,,,,,,,,1280.6047323999999,,,,,,,,1283.9010234,1283.9010234,1283.9010234,1283.9010234,1283.9010234,1283.9010234,1283.9010234,1283.9010234,None,None,None,,,,,,,,,,,1280.6047323999999,1280.6047323999999,None,,1281.6734714000002,1281.6734714000002,1283.9010234,n,1280.6047323999999,1280.6047323999999,0.6330557000001136,,0,001,2024-05-28_13h55.25.410,robot_nback_sign,2022.2.5,59.92125149122066,
V,True,1,letter,1,False,False,robot_stimuli\\filler.mp4,0,,,,,,,,,0,130,130,130,,,,,,,,,,,,,1283.9010234,1284.9655220000002,,,,,,,1286.9940728,1286.9940728,1286.9940728,1286.9940728,1286.9940728,1286.9940728,1286.9940728,1286.9940728,None,None,None,,,,,,,,,,,1283.9010234,1283.9010234,None,,1284.9655220000002,1284.9655220000002,1286.9940728,c,1283.9010234,1283.9010234,0.6840341000001899,,0,001,2024-05-28_13h55.25.410,robot_nback_sign,2022.2.5,59.92125149122066,
N,False,1,letter,1,False,False,robot_stimuli\\filler.mp4,0,,,,,,,,,0,131,131,131,,,,,,,,,,,,,1286.9940728,1288.0679923999999,,,,,,,1290.0985555,1290.0985555,1290.0985555,1290.0985555,1290.0985555,1290.0985555,1290.0985555,1290.0985555,None,None,None,,,,,,,,,,,1286.9940728,1286.9940728,None,,1288.0679923999999,1288.0679923999999,1290.0985555,n,1286.9940728,1286.9940728,0.6626257999996596,,0,001,2024-05-28_13h55.25.410,robot_nback_sign,2022.2.5,59.92125149122066,
Z,False,1,letter,1,False,False,robot_stimuli\\filler.mp4,0,,,,,,,,,0,132,132,132,,,,,,,,,,,,,1290.0985555,1291.1575642,,,,,,,1293.3851255000002,1293.3851255000002,1293.3851255000002,1293.3851255000002,1293.3851255000002,1293.3851255000002,1293.3851255000002,1293.3851255000002,None,None,None,,,,,,,,,,,1290.0985555,1290.0985555,None,,1291.1575642,1291.1575642,1293.3851255000002,n,1290.0985555,1290.0985555,0.5646215000001575,,0,001,2024-05-28_13h55.25.410,robot_nback_sign,2022.2.5,59.92125149122066,
B,False,1,letter,1,False,False,robot_stimuli\\filler.mp4,0,,,,,,,,,0,133,133,133,,,,,,,,,,,,,1293.3851255000002,1294.4424194,,,,,,,1296.4662110000002,1296.4662110000002,1296.4662110000002,1296.4662110000002,1296.4662110000002,1296.4662110000002,1296.4662110000002,1296.4662110000002,None,None,None,,,,,,,,,,,1293.3851255000002,1293.3851255000002,None,,1294.4424194,1294.4424194,1296.4662110000002,n,1293.3851255000002,1293.3851255000002,0.6800044999999955,,0,001,2024-05-28_13h55.25.410,robot_nback_sign,2022.2.5,59.92125149122066,
R,False,1,letter,1,False,False,robot_stimuli\\filler.mp4,0,,,,,,,,,0,134,134,134,,,,,,,,,,,,,1296.4662110000002,1297.5240717999998,,,,,,,1299.7505779,1299.7505779,1299.7505779,1299.7505779,1299.7505779,1299.7505779,1299.7505779,1299.7505779,None,None,None,,,,,,,,,,,1296.4662110000002,1296.4662110000002,None,,1297.5240717999998,1297.5240717999998,1299.7505779,n,1296.4662110000002,1296.4662110000002,0.823258800000076,,0,001,2024-05-28_13h55.25.410,robot_nback_sign,2022.2.5,59.92125149122066,
K,False,1,letter,1,False,False,robot_stimuli\\filler.mp4,0,,,,,,,,,0,135,135,135,,,,,,,,,,,,,1299.7505779,1300.8078555999998,,,,,,,1302.8363892,1302.8363892,1302.8363892,1302.8363892,1302.8363892,1302.8363892,1302.8363892,1302.8363892,None,None,None,,,,,,,,,,,1299.7505779,1299.7505779,None,,1300.8078555999998,1300.8078555999998,1302.8363892,n,1299.7505779,1299.7505779,0.4347791000000143,,0,001,2024-05-28_13h55.25.410,robot_nback_sign,2022.2.5,59.92125149122066,
W,False,1,letter,1,False,False,robot_stimuli\\filler.mp4,0,,,,,,,,,0,136,136,136,,,,,,,,,,,,,1302.8363892,1303.8904261999999,,,,,,,1305.9206006000002,1305.9206006000002,1305.9206006000002,1305.9206006000002,1305.9206006000002,1305.9206006000002,1305.9206006000002,1305.9206006000002,None,None,None,,,,,,,,,,,1302.8363892,1302.8363892,None,,1303.8904261999999,1303.8904261999999,1305.9206006000002,n,1302.8363892,1302.8363892,0.5450344000000769,,0,001,2024-05-28_13h55.25.410,robot_nback_sign,2022.2.5,59.92125149122066,
W,True,1,letter,1,False,False,robot_stimuli\\filler.mp4,0,,,,,,,,,0,137,137,137,,,,,,,,,,,,,1305.9206006000002,1306.9732397999999,,,,,,,1309.1959361000002,1309.1959361000002,1309.1959361000002,1309.1959361000002,1309.1959361000002,1309.1959361000002,1309.1959361000002,1309.1959361000002,None,None,None,,,,,,,,,,,1305.9206006000002,1305.9206006000002,None,,1306.9732397999999,1306.9732397999999,1309.1959361000002,c,1305.9206006000002,1305.9206006000002,0.5324515999996038,,0,001,2024-05-28_13h55.25.410,robot_nback_sign,2022.2.5,59.92125149122066,
P,False,1,letter,1,False,False,robot_stimuli\\filler.mp4,0,,,,,,,,,0,138,138,138,,,,,,,,,,,,,1309.1959361000002,1310.2557989999998,,,,,,,1312.4904076999999,1312.4904076999999,1312.4904076999999,1312.4904076999999,1312.4904076999999,1312.4904076999999,1312.4904076999999,1312.4904076999999,None,None,None,,,,,,,,,,,1309.1959361000002,1309.1959361000002,None,,1310.2557989999998,1310.2557989999998,1312.4904076999999,n,1309.1959361000002,1309.1959361000002,0.42613699999992605,,0,001,2024-05-28_13h55.25.410,robot_nback_sign,2022.2.5,59.92125149122066,
N,False,1,letter,1,False,False,robot_stimuli\\filler.mp4,0,,,,,,,,,0,139,139,139,,,,,,,,,,,,,1312.4904076999999,1313.5564385,,,,,,,1315.5859024,1315.5859024,1315.5859024,1315.5859024,1315.5859024,1315.5859024,1315.5859024,1315.5859024,None,None,None,,,,,,,,,,,1312.4904076999999,1312.4904076999999,None,,1313.5564385,1313.5564385,1315.5859024,n,1312.4904076999999,1312.4904076999999,0.5820964999998068,,0,001,2024-05-28_13h55.25.410,robot_nback_sign,2022.2.5,59.92125149122066,
G,False,1,letter,1,False,False,robot_stimuli\\filler.mp4,0,,,,,,,,,0,140,140,140,,,,,,,,,,,,,1315.5859024,1316.6392669999998,,,,,,,1318.8662689,1318.8662689,1318.8662689,1318.8662689,1318.8662689,1318.8662689,1318.8662689,1318.8662689,None,None,None,,,,,,,,,,,1315.5859024,1315.5859024,None,,1316.6392669999998,1316.6392669999998,1318.8662689,n,1315.5859024,1315.5859024,0.4672473999999056,,0,001,2024-05-28_13h55.25.410,robot_nback_sign,2022.2.5,59.92125149122066,
G,True,1,letter,1,False,False,robot_stimuli\\filler.mp4,0,,,,,,,,,0,141,141,141,,,,,,,,,,,,,1318.8662689,1319.9235046000001,,,,,,,1321.9575797999998,1321.9575797999998,1321.9575797999998,1321.9575797999998,1321.9575797999998,1321.9575797999998,1321.9575797999998,1321.9575797999998,None,None,None,,,,,,,,,,,1318.8662689,1318.8662689,None,,1319.9235046000001,1319.9235046000001,1321.9575797999998,c,1318.8662689,1318.8662689,0.5679247000002761,,0,001,2024-05-28_13h55.25.410,robot_nback_sign,2022.2.5,59.92125149122066,
H,False,1,letter,1,False,False,robot_stimuli\\filler.mp4,0,,,,,,,,,0,142,142,142,,,,,,,,,,,,,1321.9575797999998,1323.0236713000002,,,,,,,1325.0546182,1325.0546182,1325.0546182,1325.0546182,1325.0546182,1325.0546182,1325.0546182,1325.0546182,None,None,None,,,,,,,,,,,1321.9575797999998,1321.9575797999998,None,,1323.0236713000002,1323.0236713000002,1325.0546182,n,1321.9575797999998,1321.9575797999998,0.6758539000002202,,0,001,2024-05-28_13h55.25.410,robot_nback_sign,2022.2.5,59.92125149122066,
Q,False,1,letter,1,False,False,robot_stimuli\\filler.mp4,0,,,,,,,,,0,143,143,143,,,,,,,,,,,,,1325.0546182,,,,,,,,1328.3546399999998,1328.3546399999998,1328.3546399999998,1328.3546399999998,1328.3546399999998,1328.3546399999998,1328.3546399999998,1328.3546399999998,None,None,None,,,,,,,,,,,1325.0546182,1325.0546182,None,,1326.1229009,1326.1229009,1328.3546399999998,n,1325.0546182,1325.0546182,0.7198005999998713,,0,001,2024-05-28_13h55.25.410,robot_nback_sign,2022.2.5,59.92125149122066,
W,False,1,letter,1,False,False,robot_stimuli\\filler.mp4,0,,,,,,,,,0,144,144,144,,,,,,,,,,,,,1328.3546399999998,,,,,,,,1331.6508502,1331.6508502,1331.6508502,1331.6508502,1331.6508502,1331.6508502,1331.6508502,1331.6508502,None,None,None,,,,,,,,,,,1328.3546399999998,1328.3546399999998,None,,1329.4218445,1329.4218445,1331.6508502,n,1328.3546399999998,1328.3546399999998,0.8851048999999875,,0,001,2024-05-28_13h55.25.410,robot_nback_sign,2022.2.5,59.92125149122066,
D,False,1,letter,1,False,False,robot_stimuli\\filler.mp4,0,,,,,,,,,0,145,145,145,,,,,,,,,,,,,1331.6508502,1332.7075527999998,,,,,,,1334.7394563,1334.7394563,1334.7394563,1334.7394563,1334.7394563,1334.7394563,1334.7394563,1334.7394563,None,None,None,,,,,,,,,,,1331.6508502,1331.6508502,None,,1332.7075527999998,1332.7075527999998,1334.7394563,n,1331.6508502,1331.6508502,0.4555611000000681,,0,001,2024-05-28_13h55.25.410,robot_nback_sign,2022.2.5,59.92125149122066,
R,False,1,letter,1,False,False,robot_stimuli\\filler.mp4,0,,,,,,,,,0,146,146,146,,,,,,,,,,,,,1334.7394563,,,,,,,,1338.0329852000002,1338.0329852000002,1338.0329852000002,1338.0329852000002,1338.0329852000002,1338.0329852000002,1338.0329852000002,1338.0329852000002,None,None,None,,,,,,,,,,,1334.7394563,1334.7394563,None,,1335.8056497,1335.8056497,1338.0329852000002,n,1334.7394563,1334.7394563,0.421321799999987,,0,001,2024-05-28_13h55.25.410,robot_nback_sign,2022.2.5,59.92125149122066,
K,False,1,letter,1,False,False,robot_stimuli\\filler.mp4,0,,,,,,,,,0,147,147,147,,,,,,,,,,,,,1338.0329852000002,1339.1011922,,,,,,,1341.1242756999998,1341.1242756999998,1341.1242756999998,1341.1242756999998,1341.1242756999998,1341.1242756999998,1341.1242756999998,1341.1242756999998,None,None,None,,,,,,,,,,,1338.0329852000002,1338.0329852000002,None,,1339.1011922,1339.1011922,1341.1242756999998,n,1338.0329852000002,1338.0329852000002,0.4372301999997035,,0,001,2024-05-28_13h55.25.410,robot_nback_sign,2022.2.5,59.92125149122066,
V,False,1,letter,1,False,False,robot_stimuli\\filler.mp4,0,,,,,,,,,0,148,148,148,,,,,,,,,,,,,1341.1242756999998,1342.1919214000002,,,,,,,1344.2260562,1344.2260562,1344.2260562,1344.2260562,1344.2260562,1344.2260562,1344.2260562,1344.2260562,None,None,None,,,,,,,,,,,1341.1242756999998,1341.1242756999998,None,,1342.1919214000002,1342.1919214000002,1344.2260562,n,1341.1242756999998,1341.1242756999998,0.3870977000001403,,0,001,2024-05-28_13h55.25.410,robot_nback_sign,2022.2.5,59.92125149122066,
V,True,1,letter,1,False,True,robot_stimuli\\filler.mp4,0,,,,,,,,,0,149,149,149,,,,,,,,,,,,,1344.2260562,1345.2895769999998,,,,,,,1347.5506803,1353.5526474,1347.5506803,1353.5526474,1347.5506803,1353.5526474,1347.5506803,1353.5526474,11.944444444444441,4.5123475999998846,space,,,,5.939194900000075,,,,,,,1344.2260562,1344.2260562,None,,1345.2895769999998,1345.2895769999998,1347.5506803,c,1344.2260562,1344.2260562,0.6169058999998924,,0,001,2024-05-28_13h55.25.410,robot_nback_sign,2022.2.5,59.92125149122066,
R_Head_Y_For,False,2,robot,2,True,False,robot_stimuli\R_Head_Y_For.mp4,0,,,,,,,,,0,150,150,150,,,,,,,,,,,,,1362.4373966,1363.5271523,,,,,,,1367.1634864,1367.1634864,1367.1634864,1367.1634864,1367.1634864,1367.1634864,1367.1634864,1367.1634864,None,None,None,,,,,,,,,,,1353.5526474,1353.5526474,space,8.865425500000129,,1363.5271523,,None,,,,1363.5271523,0,001,2024-05-28_13h55.25.410,robot_nback_sign,2022.2.5,59.92125149122066,
R_Head_X_For,False,2,robot,2,False,False,robot_stimuli\R_Head_X_For.mp4,0,,,,,,,,,0,151,151,151,,,,,,,,,,,,,1367.1634864,1368.2529683,,,,,,,1371.8942416000002,1371.8942416000002,1371.8942416000002,1371.8942416000002,1371.8942416000002,1371.8942416000002,1371.8942416000002,1371.8942416000002,None,None,None,,,,,,,,,,,1367.1634864,1367.1634864,None,,,1368.2529683,,n,1367.1634864,1367.1634864,0.3729920000000675,1368.2529683,0,001,2024-05-28_13h55.25.410,robot_nback_sign,2022.2.5,59.92125149122066,
L_Head_Y_Back,False,2,robot,2,False,False,robot_stimuli\L_Head_Y_Back.mp4,0,,,,,,,,,0,152,152,152,,,,,,,,,,,,,1371.8942416000002,1372.9845254999998,,,,,,,1376.6358496999999,1376.6358496999999,1376.6358496999999,1376.6358496999999,1376.6358496999999,1376.6358496999999,1376.6358496999999,1376.6358496999999,None,None,None,,,,,,,,,,,1371.8942416000002,1371.8942416000002,None,,,1372.9845254999998,,None,1371.8942416000002,1371.8942416000002,,1372.9845254999998,0,001,2024-05-28_13h55.25.410,robot_nback_sign,2022.2.5,59.92125149122066,
R_Arm_X_Back,False,2,robot,2,False,False,robot_stimuli\R_Arm_X_Back.mp4,0,,,,,,,,,0,153,153,153,,,,,,,,,,,,,1376.6358496999999,1377.7192045,,,,,,,1381.3706595,1381.3706595,1381.3706595,1381.3706595,1381.3706595,1381.3706595,1381.3706595,1381.3706595,None,None,None,,,,,,,,,,,1376.6358496999999,1376.6358496999999,None,,,1377.7192045,,n,1376.6358496999999,1376.6358496999999,1.5943383999997423,1377.7192045,0,001,2024-05-28_13h55.25.410,robot_nback_sign,2022.2.5,59.92125149122066,
R_Base_X_For,False,2,robot,2,False,False,robot_stimuli\R_Base_X_For.mp4,0,,,,,,,,,0,154,154,154,,,,,,,,,,,,,1381.3706595,1382.4483931000002,,,,,,,1386.0991926999998,1386.0991926999998,1386.0991926999998,1386.0991926999998,1386.0991926999998,1386.0991926999998,1386.0991926999998,1386.0991926999998,None,None,None,,,,,,,,,,,1381.3706595,1381.3706595,None,,,1382.4483931000002,,n,1381.3706595,1381.3706595,2.074687300000278,1382.4483931000002,0,001,2024-05-28_13h55.25.410,robot_nback_sign,2022.2.5,59.92125149122066,
R_Arm_X_Back,True,2,robot,2,False,False,robot_stimuli\R_Arm_X_Back.mp4,0,,,,,,,,,0,155,155,155,,,,,,,,,,,,,1386.0991926999998,1387.1821828999998,,,,,,,1390.8337208,1390.8337208,1390.8337208,1390.8337208,1390.8337208,1390.8337208,1390.8337208,1390.8337208,None,None,None,,,,,,,,,,,1386.0991926999998,1386.0991926999998,None,,,1387.1821828999998,,c,1386.0991926999998,1386.0991926999998,2.868941000000177,1387.1821828999998,0,001,2024-05-28_13h55.25.410,robot_nback_sign,2022.2.5,59.92125149122066,
R_Torso_Y_Back,False,2,robot,2,False,False,robot_stimuli\R_Torso_Y_Back.mp4,0,,,,,,,,,0,156,156,156,,,,,,,,,,,,,1390.8337208,1391.9145597,,,,,,,1395.5453129,1395.5453129,1395.5453129,1395.5453129,1395.5453129,1395.5453129,1395.5453129,1395.5453129,None,None,None,,,,,,,,,,,1390.8337208,1390.8337208,None,,,1391.9145597,,n,1390.8337208,1390.8337208,2.311726500000077,1391.9145597,0,001,2024-05-28_13h55.25.410,robot_nback_sign,2022.2.5,59.92125149122066,
L_Base_Z_For,False,2,robot,2,False,False,robot_stimuli\L_Base_Z_For.mp4,0,,,,,,,,,0,157,157,157,,,,,,,,,,,,,1395.5453129,1396.631964,,,,,,,1400.2714159999998,1400.2714159999998,1400.2714159999998,1400.2714159999998,1400.2714159999998,1400.2714159999998,1400.2714159999998,1400.2714159999998,None,None,None,,,,,,,,,,,1395.5453129,1395.5453129,None,,,1396.631964,,n,1395.5453129,1395.5453129,1.5710675000000265,1396.631964,0,001,2024-05-28_13h55.25.410,robot_nback_sign,2022.2.5,59.92125149122066,
