sequence,is_target,condition,stimuli,block,is_block_beginning,is_block_ending,fname,subject,retraining.thisRepN,retraining.thisTrialN,retraining.thisN,retraining.thisIndex,training.thisRepN,training.thisTrialN,training.thisN,training.thisIndex,trials.thisRepN,trials.thisTrialN,trials.thisN,trials.thisIndex,langage_text.started,langage_key.started,langage_key.keys,langage_key.rt,intro_text.started,intro_key.started,intro_key.keys,intro_key.rt,training_robot_intro_text.started,training_robot_intro_key.started,training_robot_intro_key.keys,training_robot_intro_key.rt,cross.started,cross.stopped,training_letter.started,training_robot_key.started,training_robot_question.started,training_robot_keys.started,training_letter.stopped,training_robot_key.keys,RSME_labels.started,RSME_labels.stopped,RSME_ticks.started,RSME_ticks.stopped,RSME_text.started,RSME_text.stopped,RSME_key.started,RSME_key.stopped,RSME_ticks.response,RSME_ticks.rt,RSME_key.keys,training_robot_intro_text.stopped,training_robot_intro_key.stopped,training_robot_key.rt,RSME_key.rt,training_robot_movie.started,experiment_beginning_text.started,experiment_beginning_keys.started,experiment_beginning_key.started,experiment_beginning_key.keys,experiment_beginning_key.rt,block_intro_text.started,block_intro_key.started,block_intro_key.keys,block_intro_key.rt,movie.started,key.started,key.keys,key.rt,block_intro_text.stopped,block_intro_key.stopped,letter.started,letter.stopped,participant,session,date,expName,psychopyVersion,frameRate,
,,,,,,,,,,,,,,,,,,,,,13.980337399999996,13.980337399999996,f,3790.9036562,,,,,,,,,,,,,,,,,,,,,,,,,,,,,,,,,,,,,,,,,,,,,,,,,,7,001,2024-06-10_11h22.12.892,robot_nback_sign,2022.2.5,60.11728883050265,
,,,,,,,,,,,,,,,,,,,,,,,,,3804.9477838000003,3804.9477838000003,space,181.8393867000002,,,,,,,,,,,,,,,,,,,,,,,,,,,,,,,,,,,,,,,,,,,,,,7,001,2024-06-10_11h22.12.892,robot_nback_sign,2022.2.5,60.11728883050265,
Q,False,1,letter,2,True,False,robot_stimuli\\filler.mp4,7,0,0,0,0,0,0,0,0,,,,,,,,,,,,,3986.8179685999994,3986.8179685999994,space,23.752903799999558,4010.5884144,4012.0941133999995,4012.0941133999995,4012.0941133999995,4012.0941133999995,4012.0941133999995,4014.4216521,None,4014.4216521,4014.4216521,4014.4216521,4014.4216521,4014.4216521,4014.4216521,4014.4216521,4014.4216521,None,None,None,,,,,,,,,,,,,,,,,,,,,,,7,001,2024-06-10_11h22.12.892,robot_nback_sign,2022.2.5,60.11728883050265,
Q,True,1,letter,2,False,False,robot_stimuli\\filler.mp4,7,0,0,0,0,0,1,1,1,,,,,,,,,,,,,4014.4216521,4014.4216521,None,,4014.4216521,4015.4846232,4015.4846232,4015.4846232,4015.4846232,4015.4846232,4017.5164346,None,4017.5164346,4017.5164346,4017.5164346,4017.5164346,4017.5164346,4017.5164346,4017.5164346,4017.5164346,None,None,None,4014.4216521,4014.4216521,,,,,,,,,,,,,,,,,,,,,7,001,2024-06-10_11h22.12.892,robot_nback_sign,2022.2.5,60.11728883050265,
Q,True,1,letter,2,False,False,robot_stimuli\\filler.mp4,7,0,0,0,0,0,2,2,2,,,,,,,,,,,,,4017.5164346,4017.5164346,None,,4017.5164346,4018.5902326999994,4018.5902326999994,4018.5902326999994,4018.5902326999994,4018.5902326999994,4020.8226672,n,4020.8226672,4020.8226672,4020.8226672,4020.8226672,4020.8226672,4020.8226672,4020.8226672,4020.8226672,None,None,None,4017.5164346,4017.5164346,1.2600644999995438,,,,,,,,,,,,,,,,,,,,7,001,2024-06-10_11h22.12.892,robot_nback_sign,2022.2.5,60.11728883050265,
S,False,1,letter,2,False,False,robot_stimuli\\filler.mp4,7,0,0,0,0,0,3,3,3,,,,,,,,,,,,,4020.8226672,4020.8226672,None,,4020.8226672,,4021.9088383,4021.9088383,4021.9088383,4021.9088383,4024.1449593999996,n,4024.1449593999996,4024.1449593999996,4024.1449593999996,4024.1449593999996,4024.1449593999996,4024.1449593999996,4024.1449593999996,4024.1449593999996,None,None,None,4020.8226672,4020.8226672,1.3105353000003106,,,,,,,,,,,,,,,,,,,,7,001,2024-06-10_11h22.12.892,robot_nback_sign,2022.2.5,60.11728883050265,
M,False,1,letter,2,False,False,robot_stimuli\\filler.mp4,7,0,0,0,0,0,4,4,4,,,,,,,,,,,,,4024.1449593999996,4024.1449593999996,None,,4024.1449593999996,4025.2259765999997,4025.2259765999997,4025.2259765999997,4025.2259765999997,4025.2259765999997,4027.4558074999995,n,4027.4558074999995,4027.4558074999995,4027.4558074999995,4027.4558074999995,4027.4558074999995,4027.4558074999995,4027.4558074999995,4027.4558074999995,None,None,None,4024.1449593999996,4024.1449593999996,1.1932220999999572,,,,,,,,,,,,,,,,,,,,7,001,2024-06-10_11h22.12.892,robot_nback_sign,2022.2.5,60.11728883050265,
B,False,1,letter,2,False,True,robot_stimuli\\filler.mp4,7,0,0,0,0,0,5,5,5,,,,,,,,,,,,,4027.4558074999995,4027.4558074999995,None,,4027.4558074999995,4028.5275438,4028.5275438,4028.5275438,4028.5275438,4028.5275438,4030.8176416999995,None,4030.8176416999995,4159.9139718,4030.8176416999995,4159.9139718,4030.8176416999995,4159.9139718,4030.8176416999995,4159.9139718,3.7654320987654284,123.89065159999973,space,4027.4558074999995,4027.4558074999995,,129.02467729999967,,,,,,,,,,,,,,,,,,,7,001,2024-06-10_11h22.12.892,robot_nback_sign,2022.2.5,60.11728883050265,
Z,False,2,letter,2,True,False,robot_stimuli\\filler.mp4,7,0,0,0,0,0,6,6,6,,,,,,,,,,,,,4159.9139718,4159.9139718,space,4.066237099999626,4164.0051285,4165.0857129,4165.0857129,4165.0857129,4165.0857129,4165.0857129,4167.305226099999,None,4167.305226099999,4167.305226099999,4167.305226099999,4167.305226099999,4167.305226099999,4167.305226099999,4167.305226099999,4167.305226099999,None,None,None,,,,,,,,,,,,,,,,,,,,,,,7,001,2024-06-10_11h22.12.892,robot_nback_sign,2022.2.5,60.11728883050265,
S,False,2,letter,2,False,False,robot_stimuli\\filler.mp4,7,0,0,0,0,0,7,7,7,,,,,,,,,,,,,4167.305226099999,4167.305226099999,None,,4167.305226099999,4168.374917,4168.374917,4168.374917,4168.374917,4168.374917,4170.6011766,n,4170.6011766,4170.6011766,4170.6011766,4170.6011766,4170.6011766,4170.6011766,4170.6011766,4170.6011766,None,None,None,4167.305226099999,4167.305226099999,1.260018199999422,,,,,,,,,,,,,,,,,,,,7,001,2024-06-10_11h22.12.892,robot_nback_sign,2022.2.5,60.11728883050265,
Z,True,2,letter,2,False,False,robot_stimuli\\filler.mp4,7,0,0,0,0,0,8,8,8,,,,,,,,,,,,,4170.6011766,4170.6011766,None,,4170.6011766,4171.6696381,4171.6696381,4171.6696381,4171.6696381,4171.6696381,4173.7055693,c,4173.7055693,4173.7055693,4173.7055693,4173.7055693,4173.7055693,4173.7055693,4173.7055693,4173.7055693,None,None,None,4170.6011766,4170.6011766,1.1501030999995692,,,,,,,,,,,,,,,,,,,,7,001,2024-06-10_11h22.12.892,robot_nback_sign,2022.2.5,60.11728883050265,
R,False,2,letter,2,False,False,robot_stimuli\\filler.mp4,7,0,0,0,0,0,9,9,9,,,,,,,,,,,,,4173.7055693,4173.7055693,None,,4173.7055693,4174.776901,4174.776901,4174.776901,4174.776901,4174.776901,4177.0061712,n,4177.0061712,4177.0061712,4177.0061712,4177.0061712,4177.0061712,4177.0061712,4177.0061712,4177.0061712,None,None,None,4173.7055693,4173.7055693,1.7705280999996376,,,,,,,,,,,,,,,,,,,,7,001,2024-06-10_11h22.12.892,robot_nback_sign,2022.2.5,60.11728883050265,
Z,True,2,letter,2,False,False,robot_stimuli\\filler.mp4,7,0,0,0,0,0,10,10,10,,,,,,,,,,,,,4177.0061712,4177.0061712,None,,4177.0061712,,4178.0885779,4178.0885779,4178.0885779,4178.0885779,4180.1122176,c,4180.1122176,4180.1122176,4180.1122176,4180.1122176,4180.1122176,4180.1122176,4180.1122176,4180.1122176,None,None,None,4177.0061712,4177.0061712,1.7230629999992289,,,,,,,,,,,,,,,,,,,,7,001,2024-06-10_11h22.12.892,robot_nback_sign,2022.2.5,60.11728883050265,
G,False,2,letter,2,False,True,robot_stimuli\\filler.mp4,7,0,0,0,0,0,11,11,11,,,,,,,,,,,,,4180.1122176,4180.1122176,None,,4180.1122176,4181.196942699999,4181.196942699999,4181.196942699999,4181.196942699999,4181.196942699999,4183.2552189,n,4183.2552189,4200.3675131,4183.2552189,4200.3675131,4183.2552189,4200.3675131,4183.2552189,4200.3675131,10.555555555555554,8.786934900000233,space,4180.1122176,4180.1122176,1.1978595999987647,17.05922759999953,,,,,,,,,,,,,,,,,,,7,001,2024-06-10_11h22.12.892,robot_nback_sign,2022.2.5,60.11728883050265,
P,False,3,letter,2,True,False,robot_stimuli\\filler.mp4,7,0,0,0,0,0,12,12,12,,,,,,,,,,,,,4200.3675131,4200.3675131,space,5.619724899999483,4206.0052669,4207.0818791,4207.0818791,4207.0818791,4207.0818791,4207.0818791,4209.304883899999,n,4209.304883899999,4209.304883899999,4209.304883899999,4209.304883899999,4209.304883899999,4209.304883899999,4209.304883899999,4209.304883899999,None,None,None,,,1.0329565999998067,,,,,,,,,,,,,,,,,,,,7,001,2024-06-10_11h22.12.892,robot_nback_sign,2022.2.5,60.11728883050265,
X,False,3,letter,2,False,False,robot_stimuli\\filler.mp4,7,0,0,0,0,0,13,13,13,,,,,,,,,,,,,4209.304883899999,4209.304883899999,None,,4209.304883899999,4210.3737989,4210.3737989,4210.3737989,4210.3737989,4210.3737989,4212.6051327,n,4212.6051327,4212.6051327,4212.6051327,4212.6051327,4212.6051327,4212.6051327,4212.6051327,4212.6051327,None,None,None,4209.304883899999,4209.304883899999,0.5092843999998422,,,,,,,,,,,,,,,,,,,,7,001,2024-06-10_11h22.12.892,robot_nback_sign,2022.2.5,60.11728883050265,
W,False,3,letter,2,False,False,robot_stimuli\\filler.mp4,7,0,0,0,0,0,14,14,14,,,,,,,,,,,,,4212.6051327,4212.6051327,None,,4212.6051327,4213.6724484,4213.6724484,4213.6724484,4213.6724484,4213.6724484,4215.7084772,n,4215.7084772,4215.7084772,4215.7084772,4215.7084772,4215.7084772,4215.7084772,4215.7084772,4215.7084772,None,None,None,4212.6051327,4212.6051327,0.9858847999992122,,,,,,,,,,,,,,,,,,,,7,001,2024-06-10_11h22.12.892,robot_nback_sign,2022.2.5,60.11728883050265,
P,True,3,letter,2,False,False,robot_stimuli\\filler.mp4,7,0,0,0,0,0,15,15,15,,,,,,,,,,,,,4215.7084772,4215.7084772,None,,4215.7084772,,4216.7861846,4216.7861846,4216.7861846,4216.7861846,4218.8195508,c,4218.8195508,4218.8195508,4218.8195508,4218.8195508,4218.8195508,4218.8195508,4218.8195508,4218.8195508,None,None,None,4215.7084772,4215.7084772,0.9363308999998026,,,,,,,,,,,,,,,,,,,,7,001,2024-06-10_11h22.12.892,robot_nback_sign,2022.2.5,60.11728883050265,
X,True,3,letter,2,False,False,robot_stimuli\\filler.mp4,7,0,0,0,0,0,16,16,16,,,,,,,,,,,,,4218.8195508,4218.8195508,None,,4218.8195508,4219.8870642,4219.8870642,4219.8870642,4219.8870642,4219.8870642,4221.9121721,c,4221.9121721,4221.9121721,4221.9121721,4221.9121721,4221.9121721,4221.9121721,4221.9121721,4221.9121721,None,None,None,4218.8195508,4218.8195508,1.5712293999993108,,,,,,,,,,,,,,,,,,,,7,001,2024-06-10_11h22.12.892,robot_nback_sign,2022.2.5,60.11728883050265,
C,False,3,letter,2,False,True,robot_stimuli\\filler.mp4,7,0,0,0,0,0,17,17,17,,,,,,,,,,,,,4221.9121721,4221.9121721,None,,4221.9121721,4222.9913228,4222.9913228,4222.9913228,4222.9913228,4222.9913228,4225.2577431,n,4225.2577431,4230.2909172,4225.2577431,4230.2909172,4225.2577431,4230.2909172,4225.2577431,4230.2909172,25.216049382716037,4.09144490000017,space,4221.9121721,4221.9121721,1.6199114999997164,4.969196199999487,,,,,,,,,,,,,,,,,,,7,001,2024-06-10_11h22.12.892,robot_nback_sign,2022.2.5,60.11728883050265,
L_Torso_Z_Back,False,1,robot,1,True,False,robot_stimuli\L_Torso_Z_Back.mp4,7,0,0,0,0,0,18,18,18,,,,,,,,,,,,,4230.2909172,4230.2909172,space,3.1999788999999055,4233.5220388,4234.645461499999,,4234.645461499999,4234.645461499999,4234.645461499999,,None,4238.1429085,4238.1429085,4238.1429085,4238.1429085,4238.1429085,4238.1429085,4238.1429085,4238.1429085,None,None,None,,,,,4234.645461499999,,,,,,,,,,,,,,,,,,7,001,2024-06-10_11h22.12.892,robot_nback_sign,2022.2.5,60.11728883050265,
R_Torso_X_Back,False,1,robot,1,False,False,robot_stimuli\R_Torso_X_Back.mp4,7,0,0,0,0,0,19,19,19,,,,,,,,,,,,,4238.1429085,4238.1429085,None,,4238.1429085,4239.254249799999,,4239.254249799999,4239.254249799999,4239.254249799999,,None,4242.9083543,4242.9083543,4242.9083543,4242.9083543,4242.9083543,4242.9083543,4242.9083543,4242.9083543,None,None,None,4238.1429085,4238.1429085,,,4239.254249799999,,,,,,,,,,,,,,,,,,7,001,2024-06-10_11h22.12.892,robot_nback_sign,2022.2.5,60.11728883050265,
R_Head_Z_For,False,1,robot,1,False,False,robot_stimuli\R_Head_Z_For.mp4,7,0,0,0,0,0,20,20,20,,,,,,,,,,,,,4242.9083543,4242.9083543,None,,4242.9083543,,,4244.024074999999,4244.024074999999,4244.024074999999,,None,4247.6671527,4247.6671527,4247.6671527,4247.6671527,4247.6671527,4247.6671527,4247.6671527,4247.6671527,None,None,None,4242.9083543,4242.9083543,,,4244.024074999999,,,,,,,,,,,,,,,,,,7,001,2024-06-10_11h22.12.892,robot_nback_sign,2022.2.5,60.11728883050265,
R_Head_Z_For,True,1,robot,1,False,False,robot_stimuli\R_Head_Z_For.mp4,7,0,0,0,0,0,21,21,21,,,,,,,,,,,,,4247.6671527,4247.6671527,None,,4247.6671527,4248.7617136,,4248.7617136,4248.7617136,4248.7617136,,c,4252.408215699999,4252.408215699999,4252.408215699999,4252.408215699999,4252.408215699999,4252.408215699999,4252.408215699999,4252.408215699999,None,None,None,4247.6671527,4247.6671527,1.690013099999078,,4248.7617136,,,,,,,,,,,,,,,,,,7,001,2024-06-10_11h22.12.892,robot_nback_sign,2022.2.5,60.11728883050265,
L_Head_Y_Back,False,1,robot,1,False,False,robot_stimuli\L_Head_Y_Back.mp4,7,0,0,0,0,0,22,22,22,,,,,,,,,,,,,4252.408215699999,4252.408215699999,None,,4252.408215699999,,,4253.517491,4253.517491,4253.517491,,n,4257.1743529,4257.1743529,4257.1743529,4257.1743529,4257.1743529,4257.1743529,4257.1743529,4257.1743529,None,None,None,4252.408215699999,4252.408215699999,2.3012034999999287,,4253.517491,,,,,,,,,,,,,,,,,,7,001,2024-06-10_11h22.12.892,robot_nback_sign,2022.2.5,60.11728883050265,
L_Head_Y_Back,True,1,robot,1,False,True,robot_stimuli\L_Head_Y_Back.mp4,7,0,0,0,0,0,23,23,23,,,,,,,,,,,,,4257.1743529,4257.1743529,None,,4257.1743529,,,4258.2792068,4258.2792068,4258.2792068,,c,4261.9479173,4275.1459766,4261.9479173,4275.1459766,4261.9479173,4275.1459766,4261.9479173,4275.1459766,12.407407407407407,12.63304750000043,space,4257.1743529,4257.1743529,1.5550780999990366,13.150882799999408,4258.2792068,,,,,,,,,,,,,,,,,,7,001,2024-06-10_11h22.12.892,robot_nback_sign,2022.2.5,60.11728883050265,
R_Arm_Z_For,False,2,robot,1,True,False,robot_stimuli\R_Arm_Z_For.mp4,7,0,0,0,0,0,24,24,24,,,,,,,,,,,,,4275.1459766,4275.1459766,space,10.089786599999343,4285.2553560999995,4286.3616481,,4286.3616481,4286.3616481,4286.3616481,,n,4290.0038251,4290.0038251,4290.0038251,4290.0038251,4290.0038251,4290.0038251,4290.0038251,4290.0038251,None,None,None,,,2.9934031999989656,,4286.3616481,,,,,,,,,,,,,,,,,,7,001,2024-06-10_11h22.12.892,robot_nback_sign,2022.2.5,60.11728883050265,
L_Base_X_For,False,2,robot,1,False,False,robot_stimuli\L_Base_X_For.mp4,7,0,0,0,0,0,25,25,25,,,,,,,,,,,,,4290.0038251,4290.0038251,None,,4290.0038251,4291.100706,,4291.100706,4291.100706,4291.100706,,n,4294.674808899999,4294.674808899999,4294.674808899999,4294.674808899999,4294.674808899999,4294.674808899999,4294.674808899999,4294.674808899999,None,None,None,4290.0038251,4290.0038251,1.6939222999997128,,4291.100706,,,,,,,,,,,,,,,,,,7,001,2024-06-10_11h22.12.892,robot_nback_sign,2022.2.5,60.11728883050265,
R_Arm_Z_For,True,2,robot,1,False,False,robot_stimuli\R_Arm_Z_For.mp4,7,0,0,0,0,0,26,26,26,,,,,,,,,,,,,4294.674808899999,4294.674808899999,None,,4294.674808899999,,,4295.7863632,4295.7863632,4295.7863632,,c,4299.439211299999,4299.439211299999,4299.439211299999,4299.439211299999,4299.439211299999,4299.439211299999,4299.439211299999,4299.439211299999,None,None,None,4294.674808899999,4294.674808899999,1.6239615999991202,,4295.7863632,,,,,,,,,,,,,,,,,,7,001,2024-06-10_11h22.12.892,robot_nback_sign,2022.2.5,60.11728883050265,
L_Base_X_For,True,2,robot,1,False,False,robot_stimuli\L_Base_X_For.mp4,7,0,0,0,0,0,27,27,27,,,,,,,,,,,,,4299.439211299999,4299.439211299999,None,,4299.439211299999,4300.5309434,,4300.5309434,4300.5309434,4300.5309434,,c,4304.1063576,4304.1063576,4304.1063576,4304.1063576,4304.1063576,4304.1063576,4304.1063576,4304.1063576,None,None,None,4299.439211299999,4299.439211299999,1.6955421000000115,,4300.5309434,,,,,,,,,,,,,,,,,,7,001,2024-06-10_11h22.12.892,robot_nback_sign,2022.2.5,60.11728883050265,
R_Arm_X_For,False,2,robot,1,False,False,robot_stimuli\R_Arm_X_For.mp4,7,0,0,0,0,0,28,28,28,,,,,,,,,,,,,4304.1063576,4304.1063576,None,,4304.1063576,4305.1900036,,4305.1900036,4305.1900036,4305.1900036,,n,4308.8437587,4308.8437587,4308.8437587,4308.8437587,4308.8437587,4308.8437587,4308.8437587,4308.8437587,None,None,None,4304.1063576,4304.1063576,1.8689082999997026,,4305.1900036,,,,,,,,,,,,,,,,,,7,001,2024-06-10_11h22.12.892,robot_nback_sign,2022.2.5,60.11728883050265,
L_Base_Y_Back,False,2,robot,1,False,True,robot_stimuli\L_Base_Y_Back.mp4,7,0,0,0,0,0,29,29,29,,,,,,,,,,,,,4308.8437587,4308.8437587,None,,4308.8437587,4309.95031,,4309.95031,4309.95031,4309.95031,,n,4313.5502160999995,4316.921890799999,4313.5502160999995,4316.921890799999,4313.5502160999995,4316.921890799999,4313.5502160999995,4316.921890799999,10.246913580246913,2.78922700000021,space,4308.8437587,4308.8437587,2.756609400000116,3.3245088999990458,4309.95031,,,,,,,,,,,,,,,,,,7,001,2024-06-10_11h22.12.892,robot_nback_sign,2022.2.5,60.11728883050265,
L_Head_Y_Back,False,3,robot,1,True,False,robot_stimuli\L_Head_Y_Back.mp4,7,0,0,0,0,0,30,30,30,,,,,,,,,,,,,4316.921890799999,4316.921890799999,space,9.921924599999102,4326.8723279999995,4327.968819,,4327.968819,4327.968819,4327.968819,,n,4331.6082012,4331.6082012,4331.6082012,4331.6082012,4331.6082012,4331.6082012,4331.6082012,4331.6082012,None,None,None,,,3.057346800000005,,4327.968819,,,,,,,,,,,,,,,,,,7,001,2024-06-10_11h22.12.892,robot_nback_sign,2022.2.5,60.11728883050265,
L_Torso_Y_Back,False,3,robot,1,False,False,robot_stimuli\L_Torso_Y_Back.mp4,7,0,0,0,0,0,31,31,31,,,,,,,,,,,,,4331.6082012,4331.6082012,None,,4331.6082012,,,4332.7192626,4332.7192626,4332.7192626,,n,4336.2431179,4336.2431179,4336.2431179,4336.2431179,4336.2431179,4336.2431179,4336.2431179,4336.2431179,None,None,None,4331.6082012,4331.6082012,2.419686499999216,,4332.7192626,,,,,,,,,,,,,,,,,,7,001,2024-06-10_11h22.12.892,robot_nback_sign,2022.2.5,60.11728883050265,
L_Head_Z_Back,False,3,robot,1,False,False,robot_stimuli\L_Head_Z_Back.mp4,7,0,0,0,0,0,32,32,32,,,,,,,,,,,,,4336.2431179,4336.2431179,None,,4336.2431179,4337.3510465,,4337.3510465,4337.3510465,4337.3510465,,n,4340.979744,4340.979744,4340.979744,4340.979744,4340.979744,4340.979744,4340.979744,4340.979744,None,None,None,4336.2431179,4336.2431179,3.0516440999997485,,4337.3510465,,,,,,,,,,,,,,,,,,7,001,2024-06-10_11h22.12.892,robot_nback_sign,2022.2.5,60.11728883050265,
L_Head_Y_Back,True,3,robot,1,False,False,robot_stimuli\L_Head_Y_Back.mp4,7,0,0,0,0,0,33,33,33,,,,,,,,,,,,,4340.979744,4340.979744,None,,4340.979744,4342.0694518,,4342.0694518,4342.0694518,4342.0694518,,c,4345.7210342,4345.7210342,4345.7210342,4345.7210342,4345.7210342,4345.7210342,4345.7210342,4345.7210342,None,None,None,4340.979744,4340.979744,2.261892299999772,,4342.0694518,,,,,,,,,,,,,,,,,,7,001,2024-06-10_11h22.12.892,robot_nback_sign,2022.2.5,60.11728883050265,
R_Torso_Z_For,False,3,robot,1,False,False,robot_stimuli\R_Torso_Z_For.mp4,7,0,0,0,0,0,34,34,34,,,,,,,,,,,,,4345.7210342,4345.7210342,None,,4345.7210342,4346.8148812,,4346.8148812,4346.8148812,4346.8148812,,n,4350.4565717,4350.4565717,4350.4565717,4350.4565717,4350.4565717,4350.4565717,4350.4565717,4350.4565717,None,None,None,4345.7210342,4345.7210342,1.5170038000003387,,4346.8148812,,,,,,,,,,,,,,,,,,7,001,2024-06-10_11h22.12.892,robot_nback_sign,2022.2.5,60.11728883050265,
L_Head_Z_Back,True,3,robot,1,False,True,robot_stimuli\L_Head_Z_Back.mp4,7,0,0,0,0,0,35,35,35,,,,,,,,,,,,,4350.4565717,4350.4565717,None,,4350.4565717,4351.548752,,4351.548752,4351.548752,4351.548752,,c,4355.2187783,4364.899374799999,4355.2187783,4364.899374799999,4355.2187783,4364.899374799999,4355.2187783,4364.899374799999,18.888888888888882,5.313084400000662,space,4350.4565717,4350.4565717,2.6456142000004093,9.607641999999714,4351.548752,,,,,,,,,,,,,,,,,,7,001,2024-06-10_11h22.12.892,robot_nback_sign,2022.2.5,60.11728883050265,
,,,,,,,,,0,0,0,0,,,,,,,,,,,,,,,,,,,,,,,,,,,,,,,,,,,,,,,,,,,,,4364.899374799999,4364.899374799999,4364.899374799999,c,29.999776499999598,,,,,,,,,,,,,7,001,2024-06-10_11h22.12.892,robot_nback_sign,2022.2.5,60.11728883050265,
L_Torso_X_Back,False,3,robot,1,True,False,robot_stimuli\L_Torso_X_Back.mp4,7,,,,,,,,,0,0,0,0,,,,,,,,,,,,,4404.9054662,4405.989839,,,,,,,4409.6395324,4409.6395324,4409.6395324,4409.6395324,4409.6395324,4409.6395324,4409.6395324,4409.6395324,None,None,None,,,,,,,,,,,4394.960971699999,4394.960971699999,space,9.9144804999994,4405.989839,4405.989839,n,3.2301907999997184,,,,,7,001,2024-06-10_11h22.12.892,robot_nback_sign,2022.2.5,60.11728883050265,
L_Head_Z_For,False,3,robot,1,False,False,robot_stimuli\L_Head_Z_For.mp4,7,,,,,,,,,0,1,1,1,,,,,,,,,,,,,4409.6395324,4410.7202259,,,,,,,4414.3709026999995,4414.3709026999995,4414.3709026999995,4414.3709026999995,4414.3709026999995,4414.3709026999995,4414.3709026999995,4414.3709026999995,None,None,None,,,,,,,,,,,4409.6395324,4409.6395324,None,,4410.7202259,4410.7202259,n,1.906719899999871,4409.6395324,4409.6395324,,,7,001,2024-06-10_11h22.12.892,robot_nback_sign,2022.2.5,60.11728883050265,
L_Head_Y_Back,False,3,robot,1,False,False,robot_stimuli\L_Head_Y_Back.mp4,7,,,,,,,,,0,2,2,2,,,,,,,,,,,,,4414.3709026999995,4415.450635499999,,,,,,,4419.1038859,4419.1038859,4419.1038859,4419.1038859,4419.1038859,4419.1038859,4419.1038859,4419.1038859,None,None,None,,,,,,,,,,,4414.3709026999995,4414.3709026999995,None,,4415.450635499999,4415.450635499999,n,2.3689873999999236,4414.3709026999995,4414.3709026999995,,,7,001,2024-06-10_11h22.12.892,robot_nback_sign,2022.2.5,60.11728883050265,
L_Base_Y_For,False,3,robot,1,False,False,robot_stimuli\L_Base_Y_For.mp4,7,,,,,,,,,0,3,3,3,,,,,,,,,,,,,4419.1038859,4420.1886101,,,,,,,4423.7331322,4423.7331322,4423.7331322,4423.7331322,4423.7331322,4423.7331322,4423.7331322,4423.7331322,None,None,None,,,,,,,,,,,4419.1038859,4419.1038859,None,,4420.1886101,4420.1886101,n,2.7352076000004217,4419.1038859,4419.1038859,,,7,001,2024-06-10_11h22.12.892,robot_nback_sign,2022.2.5,60.11728883050265,
R_Base_Y_Back,False,3,robot,1,False,False,robot_stimuli\R_Base_Y_Back.mp4,7,,,,,,,,,0,4,4,4,,,,,,,,,,,,,4423.7331322,4424.83323,,,,,,,4428.4671993,4428.4671993,4428.4671993,4428.4671993,4428.4671993,4428.4671993,4428.4671993,4428.4671993,None,None,None,,,,,,,,,,,4423.7331322,4423.7331322,None,,4424.83323,4424.83323,n,1.4177030999996987,4423.7331322,4423.7331322,,,7,001,2024-06-10_11h22.12.892,robot_nback_sign,2022.2.5,60.11728883050265,
L_Torso_X_For,False,3,robot,1,False,False,robot_stimuli\L_Torso_X_For.mp4,7,,,,,,,,,0,5,5,5,,,,,,,,,,,,,4428.4671993,4429.5654457,,,,,,,4433.1971993,4433.1971993,4433.1971993,4433.1971993,4433.1971993,4433.1971993,4433.1971993,4433.1971993,None,None,None,,,,,,,,,,,4428.4671993,4428.4671993,None,,4429.5654457,4429.5654457,n,2.693393600000263,4428.4671993,4428.4671993,,,7,001,2024-06-10_11h22.12.892,robot_nback_sign,2022.2.5,60.11728883050265,
L_Base_Y_For,True,3,robot,1,False,False,robot_stimuli\L_Base_Y_For.mp4,7,,,,,,,,,0,6,6,6,,,,,,,,,,,,,4433.1971993,4434.284892199999,,,,,,,4437.8345899999995,4437.8345899999995,4437.8345899999995,4437.8345899999995,4437.8345899999995,4437.8345899999995,4437.8345899999995,4437.8345899999995,None,None,None,,,,,,,,,,,4433.1971993,4433.1971993,None,,4434.284892199999,4434.284892199999,c,2.3666611999994984,4433.1971993,4433.1971993,,,7,001,2024-06-10_11h22.12.892,robot_nback_sign,2022.2.5,60.11728883050265,
L_Head_Y_For,False,3,robot,1,False,False,robot_stimuli\L_Head_Y_For.mp4,7,,,,,,,,,0,7,7,7,,,,,,,,,,,,,4437.8345899999995,4438.9169762,,,,,,,4442.5560759,4442.5560759,4442.5560759,4442.5560759,4442.5560759,4442.5560759,4442.5560759,4442.5560759,None,None,None,,,,,,,,,,,4437.8345899999995,4437.8345899999995,None,,4438.9169762,4438.9169762,n,2.382640599999604,4437.8345899999995,4437.8345899999995,,,7,001,2024-06-10_11h22.12.892,robot_nback_sign,2022.2.5,60.11728883050265,
L_Head_Z_For,False,3,robot,1,False,False,robot_stimuli\L_Head_Z_For.mp4,7,,,,,,,,,0,8,8,8,,,,,,,,,,,,,4442.5560759,4443.6319892,,,,,,,4447.2724624,4447.2724624,4447.2724624,4447.2724624,4447.2724624,4447.2724624,4447.2724624,4447.2724624,None,None,None,,,,,,,,,,,4442.5560759,4442.5560759,None,,4443.6319892,4443.6319892,None,,4442.5560759,4442.5560759,,,7,001,2024-06-10_11h22.12.892,robot_nback_sign,2022.2.5,60.11728883050265,
L_Base_Y_For,True,3,robot,1,False,False,robot_stimuli\L_Base_Y_For.mp4,7,,,,,,,,,0,9,9,9,,,,,,,,,,,,,4447.2724624,4448.35038,,,,,,,4451.9016167,4451.9016167,4451.9016167,4451.9016167,4451.9016167,4451.9016167,4451.9016167,4451.9016167,None,None,None,,,,,,,,,,,4447.2724624,4447.2724624,None,,4448.35038,4448.35038,c,2.7491095999992012,4447.2724624,4447.2724624,,,7,001,2024-06-10_11h22.12.892,robot_nback_sign,2022.2.5,60.11728883050265,
R_Torso_Y_Back,False,3,robot,1,False,False,robot_stimuli\R_Torso_Y_Back.mp4,7,,,,,,,,,0,10,10,10,,,,,,,,,,,,,4451.9016167,4452.9902046,,,,,,,4456.6316265,4456.6316265,4456.6316265,4456.6316265,4456.6316265,4456.6316265,4456.6316265,4456.6316265,None,None,None,,,,,,,,,,,4451.9016167,4451.9016167,None,,4452.9902046,4452.9902046,n,2.5499086999996052,4451.9016167,4451.9016167,,,7,001,2024-06-10_11h22.12.892,robot_nback_sign,2022.2.5,60.11728883050265,
L_Torso_Z_Back,False,3,robot,1,False,False,robot_stimuli\L_Torso_Z_Back.mp4,7,,,,,,,,,0,11,11,11,,,,,,,,,,,,,4456.6316265,4457.7181266,,,,,,,4461.2369429,4461.2369429,4461.2369429,4461.2369429,4461.2369429,4461.2369429,4461.2369429,4461.2369429,None,None,None,,,,,,,,,,,4456.6316265,4456.6316265,None,,4457.7181266,4457.7181266,n,3.1014455000001817,4456.6316265,4456.6316265,,,7,001,2024-06-10_11h22.12.892,robot_nback_sign,2022.2.5,60.11728883050265,
L_Head_X_For,False,3,robot,1,False,False,robot_stimuli\L_Head_X_For.mp4,7,,,,,,,,,0,12,12,12,,,,,,,,,,,,,4461.2369429,4462.3187683,,,,,,,4465.9017739,4465.9017739,4465.9017739,4465.9017739,4465.9017739,4465.9017739,4465.9017739,4465.9017739,None,None,None,,,,,,,,,,,4461.2369429,4461.2369429,None,,4462.3187683,4462.3187683,n,2.1730212999998457,4461.2369429,4461.2369429,,,7,001,2024-06-10_11h22.12.892,robot_nback_sign,2022.2.5,60.11728883050265,
L_Head_Z_Back,False,3,robot,1,False,False,robot_stimuli\L_Head_Z_Back.mp4,7,,,,,,,,,0,13,13,13,,,,,,,,,,,,,4465.9017739,4466.9844416999995,,,,,,,4470.6352079,4470.6352079,4470.6352079,4470.6352079,4470.6352079,4470.6352079,4470.6352079,4470.6352079,None,None,None,,,,,,,,,,,4465.9017739,4465.9017739,None,,4466.9844416999995,4466.9844416999995,n,2.8193810000000212,4465.9017739,4465.9017739,,,7,001,2024-06-10_11h22.12.892,robot_nback_sign,2022.2.5,60.11728883050265,
R_Base_Y_Back,False,3,robot,1,False,False,robot_stimuli\R_Base_Y_Back.mp4,7,,,,,,,,,0,14,14,14,,,,,,,,,,,,,4470.6352079,4471.7171816,,,,,,,4475.346253199999,4475.346253199999,4475.346253199999,4475.346253199999,4475.346253199999,4475.346253199999,4475.346253199999,4475.346253199999,None,None,None,,,,,,,,,,,4470.6352079,4470.6352079,None,,4471.7171816,4471.7171816,n,2.686775899999475,4470.6352079,4470.6352079,,,7,001,2024-06-10_11h22.12.892,robot_nback_sign,2022.2.5,60.11728883050265,
R_Torso_X_Back,False,3,robot,1,False,False,robot_stimuli\R_Torso_X_Back.mp4,7,,,,,,,,,0,15,15,15,,,,,,,,,,,,,4475.346253199999,4476.4337264999995,,,,,,,4480.0878703,4480.0878703,4480.0878703,4480.0878703,4480.0878703,4480.0878703,4480.0878703,4480.0878703,None,None,None,,,,,,,,,,,4475.346253199999,4475.346253199999,None,,4476.4337264999995,4476.4337264999995,c,3.456686799999943,4475.346253199999,4475.346253199999,,,7,001,2024-06-10_11h22.12.892,robot_nback_sign,2022.2.5,60.11728883050265,
L_Head_Z_Back,True,3,robot,1,False,False,robot_stimuli\L_Head_Z_Back.mp4,7,,,,,,,,,0,16,16,16,,,,,,,,,,,,,4480.0878703,4481.1687962999995,,,,,,,4484.819001,4484.819001,4484.819001,4484.819001,4484.819001,4484.819001,4484.819001,4484.819001,None,None,None,,,,,,,,,,,4480.0878703,4480.0878703,None,,4481.1687962999995,4481.1687962999995,n,2.731136999999535,4480.0878703,4480.0878703,,,7,001,2024-06-10_11h22.12.892,robot_nback_sign,2022.2.5,60.11728883050265,
L_Base_X_Back,False,3,robot,1,False,False,robot_stimuli\L_Base_X_Back.mp4,7,,,,,,,,,0,17,17,17,,,,,,,,,,,,,4484.819001,4485.9011242,,,,,,,4489.518603099999,4489.518603099999,4489.518603099999,4489.518603099999,4489.518603099999,4489.518603099999,4489.518603099999,4489.518603099999,None,None,None,,,,,,,,,,,4484.819001,4484.819001,None,,4485.9011242,4485.9011242,c,2.9576150000000325,4484.819001,4484.819001,,,7,001,2024-06-10_11h22.12.892,robot_nback_sign,2022.2.5,60.11728883050265,
L_Base_Z_For,False,3,robot,1,False,False,robot_stimuli\L_Base_Z_For.mp4,7,,,,,,,,,0,18,18,18,,,,,,,,,,,,,4489.518603099999,4490.6003357,,,,,,,4494.2493334,4494.2493334,4494.2493334,4494.2493334,4494.2493334,4494.2493334,4494.2493334,4494.2493334,None,None,None,,,,,,,,,,,4489.518603099999,4489.518603099999,None,,4490.6003357,4490.6003357,n,2.8916491999996197,4489.518603099999,4489.518603099999,,,7,001,2024-06-10_11h22.12.892,robot_nback_sign,2022.2.5,60.11728883050265,
R_Head_Z_Back,False,3,robot,1,False,False,robot_stimuli\R_Head_Z_Back.mp4,7,,,,,,,,,0,19,19,19,,,,,,,,,,,,,4494.2493334,4495.3378346,,,,,,,4498.9881875,4498.9881875,4498.9881875,4498.9881875,4498.9881875,4498.9881875,4498.9881875,4498.9881875,None,None,None,,,,,,,,,,,4494.2493334,4494.2493334,None,,4495.3378346,4495.3378346,n,2.7283899999999903,4494.2493334,4494.2493334,,,7,001,2024-06-10_11h22.12.892,robot_nback_sign,2022.2.5,60.11728883050265,
R_Head_Y_Back,False,3,robot,1,False,False,robot_stimuli\R_Head_Y_Back.mp4,7,,,,,,,,,0,20,20,20,,,,,,,,,,,,,4498.9881875,4500.0728524999995,,,,,,,4503.714914499999,4503.714914499999,4503.714914499999,4503.714914499999,4503.714914499999,4503.714914499999,4503.714914499999,4503.714914499999,None,None,None,,,,,,,,,,,4498.9881875,4498.9881875,None,,4500.0728524999995,4500.0728524999995,n,2.458887399999867,4498.9881875,4498.9881875,,,7,001,2024-06-10_11h22.12.892,robot_nback_sign,2022.2.5,60.11728883050265,
R_Arm_X_For,False,3,robot,1,False,False,robot_stimuli\R_Arm_X_For.mp4,7,,,,,,,,,0,21,21,21,,,,,,,,,,,,,4503.714914499999,4504.8016633,,,,,,,4508.4546398,4508.4546398,4508.4546398,4508.4546398,4508.4546398,4508.4546398,4508.4546398,4508.4546398,None,None,None,,,,,,,,,,,4503.714914499999,4503.714914499999,None,,4504.8016633,4504.8016633,n,2.5219042999995054,4503.714914499999,4503.714914499999,,,7,001,2024-06-10_11h22.12.892,robot_nback_sign,2022.2.5,60.11728883050265,
L_Base_Z_For,False,3,robot,1,False,False,robot_stimuli\L_Base_Z_For.mp4,7,,,,,,,,,0,22,22,22,,,,,,,,,,,,,4508.4546398,4509.5356874,,,,,,,4513.1850343,4513.1850343,4513.1850343,4513.1850343,4513.1850343,4513.1850343,4513.1850343,4513.1850343,None,None,None,,,,,,,,,,,4508.4546398,4508.4546398,None,,4509.5356874,4509.5356874,n,3.483855799999901,4508.4546398,4508.4546398,,,7,001,2024-06-10_11h22.12.892,robot_nback_sign,2022.2.5,60.11728883050265,
R_Base_Y_For,False,3,robot,1,False,False,robot_stimuli\R_Base_Y_For.mp4,7,,,,,,,,,0,23,23,23,,,,,,,,,,,,,4513.1850343,4514.2736937,,,,,,,4517.9191192,4517.9191192,4517.9191192,4517.9191192,4517.9191192,4517.9191192,4517.9191192,4517.9191192,None,None,None,,,,,,,,,,,4513.1850343,4513.1850343,None,,4514.2736937,4514.2736937,None,,4513.1850343,4513.1850343,,,7,001,2024-06-10_11h22.12.892,robot_nback_sign,2022.2.5,60.11728883050265,
L_Base_X_For,False,3,robot,1,False,False,robot_stimuli\L_Base_X_For.mp4,7,,,,,,,,,0,24,24,24,,,,,,,,,,,,,4517.9191192,4519.014904799999,,,,,,,4522.5897839,4522.5897839,4522.5897839,4522.5897839,4522.5897839,4522.5897839,4522.5897839,4522.5897839,None,None,None,,,,,,,,,,,4517.9191192,4517.9191192,None,,4519.014904799999,4519.014904799999,n,3.085597999999436,4517.9191192,4517.9191192,,,7,001,2024-06-10_11h22.12.892,robot_nback_sign,2022.2.5,60.11728883050265,
L_Head_Z_For,False,3,robot,1,False,False,robot_stimuli\L_Head_Z_For.mp4,7,,,,,,,,,0,25,25,25,,,,,,,,,,,,,4522.5897839,4523.6656201999995,,,,,,,4527.2997526,4527.2997526,4527.2997526,4527.2997526,4527.2997526,4527.2997526,4527.2997526,4527.2997526,None,None,None,,,,,,,,,,,4522.5897839,4522.5897839,None,,4523.6656201999995,4523.6656201999995,n,2.5770121000002746,4522.5897839,4522.5897839,,,7,001,2024-06-10_11h22.12.892,robot_nback_sign,2022.2.5,60.11728883050265,
R_Base_Y_For,True,3,robot,1,False,False,robot_stimuli\R_Base_Y_For.mp4,7,,,,,,,,,0,26,26,26,,,,,,,,,,,,,4527.2997526,4528.3999488,,,,,,,4532.0522424,4532.0522424,4532.0522424,4532.0522424,4532.0522424,4532.0522424,4532.0522424,4532.0522424,None,None,None,,,,,,,,,,,4527.2997526,4527.2997526,None,,4528.3999488,4528.3999488,n,2.5469031000000086,4527.2997526,4527.2997526,,,7,001,2024-06-10_11h22.12.892,robot_nback_sign,2022.2.5,60.11728883050265,
R_Head_X_Back,False,3,robot,1,False,False,robot_stimuli\R_Head_X_Back.mp4,7,,,,,,,,,0,27,27,27,,,,,,,,,,,,,4532.0522424,4533.139793599999,,,,,,,4536.7805804,4536.7805804,4536.7805804,4536.7805804,4536.7805804,4536.7805804,4536.7805804,4536.7805804,None,None,None,,,,,,,,,,,4532.0522424,4532.0522424,None,,4533.139793599999,4533.139793599999,n,2.6225739999997586,4532.0522424,4532.0522424,,,7,001,2024-06-10_11h22.12.892,robot_nback_sign,2022.2.5,60.11728883050265,
R_Arm_X_For,False,3,robot,1,False,False,robot_stimuli\R_Arm_X_For.mp4,7,,,,,,,,,0,28,28,28,,,,,,,,,,,,,4536.7805804,4537.8686068,,,,,,,4541.519096399999,4541.519096399999,4541.519096399999,4541.519096399999,4541.519096399999,4541.519096399999,4541.519096399999,4541.519096399999,None,None,None,,,,,,,,,,,4536.7805804,4536.7805804,None,,4537.8686068,4537.8686068,None,,4536.7805804,4536.7805804,,,7,001,2024-06-10_11h22.12.892,robot_nback_sign,2022.2.5,60.11728883050265,
L_Arm_Y_For,False,3,robot,1,False,False,robot_stimuli\L_Arm_Y_For.mp4,7,,,,,,,,,0,29,29,29,,,,,,,,,,,,,4541.519096399999,4542.6035737,,,,,,,4546.255396099999,4546.255396099999,4546.255396099999,4546.255396099999,4546.255396099999,4546.255396099999,4546.255396099999,4546.255396099999,None,None,None,,,,,,,,,,,4541.519096399999,4541.519096399999,None,,4542.6035737,4542.6035737,n,2.8158140999992156,4541.519096399999,4541.519096399999,,,7,001,2024-06-10_11h22.12.892,robot_nback_sign,2022.2.5,60.11728883050265,
L_Torso_X_Back,False,3,robot,1,False,False,robot_stimuli\L_Torso_X_Back.mp4,7,,,,,,,,,0,30,30,30,,,,,,,,,,,,,4546.255396099999,4547.3337391,,,,,,,4550.9819286,4550.9819286,4550.9819286,4550.9819286,4550.9819286,4550.9819286,4550.9819286,4550.9819286,None,None,None,,,,,,,,,,,4546.255396099999,4546.255396099999,None,,4547.3337391,4547.3337391,n,3.517712399999027,4546.255396099999,4546.255396099999,,,7,001,2024-06-10_11h22.12.892,robot_nback_sign,2022.2.5,60.11728883050265,
R_Arm_X_Back,False,3,robot,1,False,False,robot_stimuli\R_Arm_X_Back.mp4,7,,,,,,,,,0,31,31,31,,,,,,,,,,,,,4550.9819286,4552.0678376999995,,,,,,,4555.7171983,4555.7171983,4555.7171983,4555.7171983,4555.7171983,4555.7171983,4555.7171983,4555.7171983,None,None,None,,,,,,,,,,,4550.9819286,4550.9819286,None,,4552.0678376999995,4552.0678376999995,n,3.119588799999974,4550.9819286,4550.9819286,,,7,001,2024-06-10_11h22.12.892,robot_nback_sign,2022.2.5,60.11728883050265,
L_Arm_Y_For,True,3,robot,1,False,False,robot_stimuli\L_Arm_Y_For.mp4,7,,,,,,,,,0,32,32,32,,,,,,,,,,,,,4555.7171983,4556.800183599999,,,,,,,4560.4296257999995,4560.4296257999995,4560.4296257999995,4560.4296257999995,4560.4296257999995,4560.4296257999995,4560.4296257999995,4560.4296257999995,None,None,None,,,,,,,,,,,4555.7171983,4555.7171983,None,,4556.800183599999,4556.800183599999,c,2.6120394999995824,4555.7171983,4555.7171983,,,7,001,2024-06-10_11h22.12.892,robot_nback_sign,2022.2.5,60.11728883050265,
L_Torso_X_Back,True,3,robot,1,False,False,robot_stimuli\L_Torso_X_Back.mp4,7,,,,,,,,,0,33,33,33,,,,,,,,,,,,,4560.4296257999995,4561.5161861999995,,,,,,,4565.1555742,4565.1555742,4565.1555742,4565.1555742,4565.1555742,4565.1555742,4565.1555742,4565.1555742,None,None,None,,,,,,,,,,,4560.4296257999995,4560.4296257999995,None,,4561.5161861999995,4561.5161861999995,c,2.8479108999997607,4560.4296257999995,4560.4296257999995,,,7,001,2024-06-10_11h22.12.892,robot_nback_sign,2022.2.5,60.11728883050265,
R_Head_Y_Back,False,3,robot,1,False,False,robot_stimuli\R_Head_Y_Back.mp4,7,,,,,,,,,0,34,34,34,,,,,,,,,,,,,4565.1555742,4566.2359873,,,,,,,4569.8860113,4569.8860113,4569.8860113,4569.8860113,4569.8860113,4569.8860113,4569.8860113,4569.8860113,None,None,None,,,,,,,,,,,4565.1555742,4565.1555742,None,,4566.2359873,4566.2359873,n,2.5103694999995696,4565.1555742,4565.1555742,,,7,001,2024-06-10_11h22.12.892,robot_nback_sign,2022.2.5,60.11728883050265,
L_Arm_Y_For,True,3,robot,1,False,False,robot_stimuli\L_Arm_Y_For.mp4,7,,,,,,,,,0,35,35,35,,,,,,,,,,,,,4569.8860113,4570.9670834,,,,,,,4574.5971589,4574.5971589,4574.5971589,4574.5971589,4574.5971589,4574.5971589,4574.5971589,4574.5971589,None,None,None,,,,,,,,,,,4569.8860113,4569.8860113,None,,4570.9670834,4570.9670834,None,,4569.8860113,4569.8860113,,,7,001,2024-06-10_11h22.12.892,robot_nback_sign,2022.2.5,60.11728883050265,
L_Arm_X_For,False,3,robot,1,False,False,robot_stimuli\L_Arm_X_For.mp4,7,,,,,,,,,0,36,36,36,,,,,,,,,,,,,4574.5971589,4575.6849868,,,,,,,4579.3352245,4579.3352245,4579.3352245,4579.3352245,4579.3352245,4579.3352245,4579.3352245,4579.3352245,None,None,None,,,,,,,,,,,4574.5971589,4574.5971589,None,,4575.6849868,4575.6849868,n,2.1897483999998713,4574.5971589,4574.5971589,,,7,001,2024-06-10_11h22.12.892,robot_nback_sign,2022.2.5,60.11728883050265,
R_Head_Y_Back,True,3,robot,1,False,False,robot_stimuli\R_Head_Y_Back.mp4,7,,,,,,,,,0,37,37,37,,,,,,,,,,,,,4579.3352245,4580.4170681,,,,,,,4584.0672184,4584.0672184,4584.0672184,4584.0672184,4584.0672184,4584.0672184,4584.0672184,4584.0672184,None,None,None,,,,,,,,,,,4579.3352245,4579.3352245,None,,4580.4170681,4580.4170681,n,2.6192154999996546,4579.3352245,4579.3352245,,,7,001,2024-06-10_11h22.12.892,robot_nback_sign,2022.2.5,60.11728883050265,
R_Torso_X_Back,False,3,robot,1,False,False,robot_stimuli\R_Torso_X_Back.mp4,7,,,,,,,,,0,38,38,38,,,,,,,,,,,,,4584.0672184,4585.1564007,,,,,,,4588.8061964,4588.8061964,4588.8061964,4588.8061964,4588.8061964,4588.8061964,4588.8061964,4588.8061964,None,None,None,,,,,,,,,,,4584.0672184,4584.0672184,None,,4585.1564007,4585.1564007,n,2.998792799999819,4584.0672184,4584.0672184,,,7,001,2024-06-10_11h22.12.892,robot_nback_sign,2022.2.5,60.11728883050265,
L_Arm_X_For,True,3,robot,1,False,False,robot_stimuli\L_Arm_X_For.mp4,7,,,,,,,,,0,39,39,39,,,,,,,,,,,,,4588.8061964,4589.883944,,,,,,,4593.5151151,4593.5151151,4593.5151151,4593.5151151,4593.5151151,4593.5151151,4593.5151151,4593.5151151,None,None,None,,,,,,,,,,,4588.8061964,4588.8061964,None,,4589.883944,4589.883944,c,1.7921209999992698,4588.8061964,4588.8061964,,,7,001,2024-06-10_11h22.12.892,robot_nback_sign,2022.2.5,60.11728883050265,
L_Head_Z_Back,False,3,robot,1,False,False,robot_stimuli\L_Head_Z_Back.mp4,7,,,,,,,,,0,40,40,40,,,,,,,,,,,,,4593.5151151,4594.603075399999,,,,,,,4598.254576599999,4598.254576599999,4598.254576599999,4598.254576599999,4598.254576599999,4598.254576599999,4598.254576599999,4598.254576599999,None,None,None,,,,,,,,,,,4593.5151151,4593.5151151,None,,4594.603075399999,4594.603075399999,n,2.5598658999995223,4593.5151151,4593.5151151,,,7,001,2024-06-10_11h22.12.892,robot_nback_sign,2022.2.5,60.11728883050265,
R_Base_Z_Back,False,3,robot,1,False,False,robot_stimuli\R_Base_Z_Back.mp4,7,,,,,,,,,0,41,41,41,,,,,,,,,,,,,4598.254576599999,4599.3340626,,,,,,,4602.8832176999995,4602.8832176999995,4602.8832176999995,4602.8832176999995,4602.8832176999995,4602.8832176999995,4602.8832176999995,4602.8832176999995,None,None,None,,,,,,,,,,,4598.254576599999,4598.254576599999,None,,4599.3340626,4599.3340626,n,2.8606422000000293,4598.254576599999,4598.254576599999,,,7,001,2024-06-10_11h22.12.892,robot_nback_sign,2022.2.5,60.11728883050265,
R_Arm_Z_For,False,3,robot,1,False,False,robot_stimuli\R_Arm_Z_For.mp4,7,,,,,,,,,0,42,42,42,,,,,,,,,,,,,4602.8832176999995,4603.9688270999995,,,,,,,4607.6202523,4607.6202523,4607.6202523,4607.6202523,4607.6202523,4607.6202523,4607.6202523,4607.6202523,None,None,None,,,,,,,,,,,4602.8832176999995,4602.8832176999995,None,,4603.9688270999995,4603.9688270999995,n,2.67339269999934,4602.8832176999995,4602.8832176999995,,,7,001,2024-06-10_11h22.12.892,robot_nback_sign,2022.2.5,60.11728883050265,
L_Torso_Z_For,False,3,robot,1,False,False,robot_stimuli\L_Torso_Z_For.mp4,7,,,,,,,,,0,43,43,43,,,,,,,,,,,,,4607.6202523,4608.7058189,,,,,,,4612.3467377,4612.3467377,4612.3467377,4612.3467377,4612.3467377,4612.3467377,4612.3467377,4612.3467377,None,None,None,,,,,,,,,,,4607.6202523,4607.6202523,None,,4608.7058189,4608.7058189,n,2.4821909999998297,4607.6202523,4607.6202523,,,7,001,2024-06-10_11h22.12.892,robot_nback_sign,2022.2.5,60.11728883050265,
R_Base_Z_Back,True,3,robot,1,False,False,robot_stimuli\R_Base_Z_Back.mp4,7,,,,,,,,,0,44,44,44,,,,,,,,,,,,,4612.3467377,4613.4353746,,,,,,,4616.9848393,4616.9848393,4616.9848393,4616.9848393,4616.9848393,4616.9848393,4616.9848393,4616.9848393,None,None,None,,,,,,,,,,,4612.3467377,4612.3467377,None,,4613.4353746,4613.4353746,c,2.0561585999992076,4612.3467377,4612.3467377,,,7,001,2024-06-10_11h22.12.892,robot_nback_sign,2022.2.5,60.11728883050265,
L_Head_X_For,False,3,robot,1,False,False,robot_stimuli\L_Head_X_For.mp4,7,,,,,,,,,0,45,45,45,,,,,,,,,,,,,4616.9848393,4618.0679617999995,,,,,,,4621.6526157,4621.6526157,4621.6526157,4621.6526157,4621.6526157,4621.6526157,4621.6526157,4621.6526157,None,None,None,,,,,,,,,,,4616.9848393,4616.9848393,None,,4618.0679617999995,4618.0679617999995,n,2.3261957000001985,4616.9848393,4616.9848393,,,7,001,2024-06-10_11h22.12.892,robot_nback_sign,2022.2.5,60.11728883050265,
L_Head_X_For,False,3,robot,1,False,False,robot_stimuli\L_Head_X_For.mp4,7,,,,,,,,,0,46,46,46,,,,,,,,,,,,,4621.6526157,4622.7316013,,,,,,,4626.307113,4626.307113,4626.307113,4626.307113,4626.307113,4626.307113,4626.307113,4626.307113,None,None,None,,,,,,,,,,,4621.6526157,4621.6526157,None,,4622.7316013,4622.7316013,n,2.6163055999993503,4621.6526157,4621.6526157,,,7,001,2024-06-10_11h22.12.892,robot_nback_sign,2022.2.5,60.11728883050265,
L_Head_X_For,False,3,robot,1,False,False,robot_stimuli\L_Head_X_For.mp4,7,,,,,,,,,0,47,47,47,,,,,,,,,,,,,4626.307113,,,,,,,,4630.9698872,4630.9698872,4630.9698872,4630.9698872,4630.9698872,4630.9698872,4630.9698872,4630.9698872,None,None,None,,,,,,,,,,,4626.307113,4626.307113,None,,4627.3958131,4627.3958131,n,2.7193505999991885,4626.307113,4626.307113,,,7,001,2024-06-10_11h22.12.892,robot_nback_sign,2022.2.5,60.11728883050265,
R_Base_X_For,False,3,robot,1,False,False,robot_stimuli\R_Base_X_For.mp4,7,,,,,,,,,0,48,48,48,,,,,,,,,,,,,4630.9698872,4632.0509133,,,,,,,4635.5813284,4635.5813284,4635.5813284,4635.5813284,4635.5813284,4635.5813284,4635.5813284,4635.5813284,None,None,None,,,,,,,,,,,4630.9698872,4630.9698872,None,,4632.0509133,4632.0509133,None,,4630.9698872,4630.9698872,,,7,001,2024-06-10_11h22.12.892,robot_nback_sign,2022.2.5,60.11728883050265,
L_Base_Z_Back,False,3,robot,1,False,True,robot_stimuli\L_Base_Z_Back.mp4,7,,,,,,,,,0,49,49,49,,,,,,,,,,,,,4635.5813284,4636.6718431,,,,,,,4640.3551361,4657.3549389,4640.3551361,4657.3549389,4640.3551361,4657.3549389,4640.3551361,4657.3549389,32.00617283950617,14.674224999999751,space,,,,16.94468049999955,,,,,,,4635.5813284,4635.5813284,None,,4636.6718431,4636.6718431,n,2.1001492999992024,4635.5813284,4635.5813284,,,7,001,2024-06-10_11h22.12.892,robot_nback_sign,2022.2.5,60.11728883050265,
R_Arm_Y_Back,False,2,robot,1,True,False,robot_stimuli\R_Arm_Y_Back.mp4,7,,,,,,,,,0,50,50,50,,,,,,,,,,,,,4660.505891899999,4661.5924894,,,,,,,4665.231354099999,4665.231354099999,4665.231354099999,4665.231354099999,4665.231354099999,4665.231354099999,4665.231354099999,4665.231354099999,None,None,None,,,,,,,,,,,4657.3549389,4657.3549389,space,3.11935249999965,4661.5924894,4661.5924894,n,3.0098743999994895,,,,,7,001,2024-06-10_11h22.12.892,robot_nback_sign,2022.2.5,60.11728883050265,
L_Arm_Z_Back,False,2,robot,1,False,False,robot_stimuli\L_Arm_Z_Back.mp4,7,,,,,,,,,0,51,51,51,,,,,,,,,,,,,4665.231354099999,4666.3213565999995,,,,,,,4669.9711154999995,4669.9711154999995,4669.9711154999995,4669.9711154999995,4669.9711154999995,4669.9711154999995,4669.9711154999995,4669.9711154999995,None,None,None,,,,,,,,,,,4665.231354099999,4665.231354099999,None,,4666.3213565999995,4666.3213565999995,n,2.78557799999885,4665.231354099999,4665.231354099999,,,7,001,2024-06-10_11h22.12.892,robot_nback_sign,2022.2.5,60.11728883050265,
R_Base_Z_For,False,2,robot,1,False,False,robot_stimuli\R_Base_Z_For.mp4,7,,,,,,,,,0,52,52,52,,,,,,,,,,,,,4669.9711154999995,4671.0585142,,,,,,,4674.6977639,4674.6977639,4674.6977639,4674.6977639,4674.6977639,4674.6977639,4674.6977639,4674.6977639,None,None,None,,,,,,,,,,,4669.9711154999995,4669.9711154999995,None,,4671.0585142,4671.0585142,n,2.3039009999990867,4669.9711154999995,4669.9711154999995,,,7,001,2024-06-10_11h22.12.892,robot_nback_sign,2022.2.5,60.11728883050265,
L_Head_Z_For,False,2,robot,1,False,False,robot_stimuli\L_Head_Z_For.mp4,7,,,,,,,,,0,53,53,53,,,,,,,,,,,,,4674.6977639,4675.7842609,,,,,,,4679.415128799999,4679.415128799999,4679.415128799999,4679.415128799999,4679.415128799999,4679.415128799999,4679.415128799999,4679.415128799999,None,None,None,,,,,,,,,,,4674.6977639,4674.6977639,None,,4675.7842609,4675.7842609,n,1.818921900000305,4674.6977639,4674.6977639,,,7,001,2024-06-10_11h22.12.892,robot_nback_sign,2022.2.5,60.11728883050265,
L_Torso_X_For,False,2,robot,1,False,False,robot_stimuli\L_Torso_X_For.mp4,7,,,,,,,,,0,54,54,54,,,,,,,,,,,,,4679.415128799999,4680.5010090999995,,,,,,,4684.1522279,4684.1522279,4684.1522279,4684.1522279,4684.1522279,4684.1522279,4684.1522279,4684.1522279,None,None,None,,,,,,,,,,,4679.415128799999,4679.415128799999,None,,4680.5010090999995,4680.5010090999995,n,2.6055126999997356,4679.415128799999,4679.415128799999,,,7,001,2024-06-10_11h22.12.892,robot_nback_sign,2022.2.5,60.11728883050265,
L_Head_X_For,False,2,robot,1,False,False,robot_stimuli\L_Head_X_For.mp4,7,,,,,,,,,0,55,55,55,,,,,,,,,,,,,4684.1522279,4685.235997899999,,,,,,,4688.817457,4688.817457,4688.817457,4688.817457,4688.817457,4688.817457,4688.817457,4688.817457,None,None,None,,,,,,,,,,,4684.1522279,4684.1522279,None,,4685.235997899999,4685.235997899999,n,2.8001427999995485,4684.1522279,4684.1522279,,,7,001,2024-06-10_11h22.12.892,robot_nback_sign,2022.2.5,60.11728883050265,
L_Torso_X_For,True,2,robot,1,False,False,robot_stimuli\L_Torso_X_For.mp4,7,,,,,,,,,0,56,56,56,,,,,,,,,,,,,4688.817457,4689.8994901999995,,,,,,,4693.5386,4693.5386,4693.5386,4693.5386,4693.5386,4693.5386,4693.5386,4693.5386,None,None,None,,,,,,,,,,,4688.817457,4688.817457,None,,4689.8994901999995,4689.8994901999995,c,2.1045539999993252,4688.817457,4688.817457,,,7,001,2024-06-10_11h22.12.892,robot_nback_sign,2022.2.5,60.11728883050265,
L_Arm_Y_For,False,2,robot,1,False,False,robot_stimuli\L_Arm_Y_For.mp4,7,,,,,,,,,0,57,57,57,,,,,,,,,,,,,4693.5386,4694.617308899999,,,,,,,4698.256574999999,4698.256574999999,4698.256574999999,4698.256574999999,4698.256574999999,4698.256574999999,4698.256574999999,4698.256574999999,None,None,None,,,,,,,,,,,4693.5386,4693.5386,None,,4694.617308899999,4694.617308899999,n,3.0903826999990542,4693.5386,4693.5386,,,7,001,2024-06-10_11h22.12.892,robot_nback_sign,2022.2.5,60.11728883050265,
R_Torso_Y_For,False,2,robot,1,False,False,robot_stimuli\R_Torso_Y_For.mp4,7,,,,,,,,,0,58,58,58,,,,,,,,,,,,,4698.256574999999,4699.338767,,,,,,,4702.989088599999,4702.989088599999,4702.989088599999,4702.989088599999,4702.989088599999,4702.989088599999,4702.989088599999,4702.989088599999,None,None,None,,,,,,,,,,,4698.256574999999,4698.256574999999,None,,4699.338767,4699.338767,c,2.504289500000368,4698.256574999999,4698.256574999999,,,7,001,2024-06-10_11h22.12.892,robot_nback_sign,2022.2.5,60.11728883050265,
L_Torso_Y_Back,False,2,robot,1,False,False,robot_stimuli\L_Torso_Y_Back.mp4,7,,,,,,,,,0,59,59,59,,,,,,,,,,,,,4702.989088599999,4704.0676330999995,,,,,,,4707.5836979999995,4707.5836979999995,4707.5836979999995,4707.5836979999995,4707.5836979999995,4707.5836979999995,4707.5836979999995,4707.5836979999995,None,None,None,,,,,,,,,,,4702.989088599999,4702.989088599999,None,,4704.0676330999995,4704.0676330999995,n,2.5593303000002834,4702.989088599999,4702.989088599999,,,7,001,2024-06-10_11h22.12.892,robot_nback_sign,2022.2.5,60.11728883050265,
R_Head_Y_For,False,2,robot,1,False,False,robot_stimuli\R_Head_Y_For.mp4,7,,,,,,,,,0,60,60,60,,,,,,,,,,,,,4707.5836979999995,4708.6715986,,,,,,,4712.3223149,4712.3223149,4712.3223149,4712.3223149,4712.3223149,4712.3223149,4712.3223149,4712.3223149,None,None,None,,,,,,,,,,,4707.5836979999995,4707.5836979999995,None,,4708.6715986,4708.6715986,n,1.4268258999998125,4707.5836979999995,4707.5836979999995,,,7,001,2024-06-10_11h22.12.892,robot_nback_sign,2022.2.5,60.11728883050265,
R_Arm_Z_For,False,2,robot,1,False,False,robot_stimuli\R_Arm_Z_For.mp4,7,,,,,,,,,0,61,61,61,,,,,,,,,,,,,4712.3223149,4713.4001901,,,,,,,4717.0407438,4717.0407438,4717.0407438,4717.0407438,4717.0407438,4717.0407438,4717.0407438,4717.0407438,None,None,None,,,,,,,,,,,4712.3223149,4712.3223149,None,,4713.4001901,4713.4001901,n,1.826881299999286,4712.3223149,4712.3223149,,,7,001,2024-06-10_11h22.12.892,robot_nback_sign,2022.2.5,60.11728883050265,
R_Torso_X_For,False,2,robot,1,False,False,robot_stimuli\R_Torso_X_For.mp4,7,,,,,,,,,0,62,62,62,,,,,,,,,,,,,4717.0407438,,,,,,,,4721.780414899999,4721.780414899999,4721.780414899999,4721.780414899999,4721.780414899999,4721.780414899999,4721.780414899999,4721.780414899999,None,None,None,,,,,,,,,,,4717.0407438,4717.0407438,None,,4718.1405237,4718.1405237,n,2.0866523999991387,4717.0407438,4717.0407438,,,7,001,2024-06-10_11h22.12.892,robot_nback_sign,2022.2.5,60.11728883050265,
R_Base_Z_Back,False,2,robot,1,False,False,robot_stimuli\R_Base_Z_Back.mp4,7,,,,,,,,,0,63,63,63,,,,,,,,,,,,,4721.780414899999,4722.8687173,,,,,,,4726.4181105,4726.4181105,4726.4181105,4726.4181105,4726.4181105,4726.4181105,4726.4181105,4726.4181105,None,None,None,,,,,,,,,,,4721.780414899999,4721.780414899999,None,,4722.8687173,4722.8687173,n,2.589855999999372,4721.780414899999,4721.780414899999,,,7,001,2024-06-10_11h22.12.892,robot_nback_sign,2022.2.5,60.11728883050265,
L_Torso_Y_Back,False,2,robot,1,False,False,robot_stimuli\L_Torso_Y_Back.mp4,7,,,,,,,,,0,64,64,64,,,,,,,,,,,,,4726.4181105,4727.4992025,,,,,,,4731.0065555,4731.0065555,4731.0065555,4731.0065555,4731.0065555,4731.0065555,4731.0065555,4731.0065555,None,None,None,,,,,,,,,,,4726.4181105,4726.4181105,None,,4727.4992025,4727.4992025,n,2.47992760000011,4726.4181105,4726.4181105,,,7,001,2024-06-10_11h22.12.892,robot_nback_sign,2022.2.5,60.11728883050265,
L_Torso_Y_For,False,2,robot,1,False,False,robot_stimuli\L_Torso_Y_For.mp4,7,,,,,,,,,0,65,65,65,,,,,,,,,,,,,4731.0065555,4732.0838275,,,,,,,4735.7215464,4735.7215464,4735.7215464,4735.7215464,4735.7215464,4735.7215464,4735.7215464,4735.7215464,None,None,None,,,,,,,,,,,4731.0065555,4731.0065555,None,,4732.0838275,4732.0838275,n,2.4875007999996797,4731.0065555,4731.0065555,,,7,001,2024-06-10_11h22.12.892,robot_nback_sign,2022.2.5,60.11728883050265,
R_Torso_Y_Back,False,2,robot,1,False,False,robot_stimuli\R_Torso_Y_Back.mp4,7,,,,,,,,,0,66,66,66,,,,,,,,,,,,,4735.7215464,4736.8020845,,,,,,,4740.4557187,4740.4557187,4740.4557187,4740.4557187,4740.4557187,4740.4557187,4740.4557187,4740.4557187,None,None,None,,,,,,,,,,,4735.7215464,4735.7215464,None,,4736.8020845,4736.8020845,n,2.4248800999992,4735.7215464,4735.7215464,,,7,001,2024-06-10_11h22.12.892,robot_nback_sign,2022.2.5,60.11728883050265,
L_Head_Z_For,False,2,robot,1,False,False,robot_stimuli\L_Head_Z_For.mp4,7,,,,,,,,,0,67,67,67,,,,,,,,,,,,,4740.4557187,4741.5329399,,,,,,,4745.1724003,4745.1724003,4745.1724003,4745.1724003,4745.1724003,4745.1724003,4745.1724003,4745.1724003,None,None,None,,,,,,,,,,,4740.4557187,4740.4557187,None,,4741.5329399,4741.5329399,n,2.517549299999473,4740.4557187,4740.4557187,,,7,001,2024-06-10_11h22.12.892,robot_nback_sign,2022.2.5,60.11728883050265,
L_Base_X_For,False,2,robot,1,False,False,robot_stimuli\L_Base_X_For.mp4,7,,,,,,,,,0,68,68,68,,,,,,,,,,,,,4745.1724003,4746.2499253999995,,,,,,,4749.8235558,4749.8235558,4749.8235558,4749.8235558,4749.8235558,4749.8235558,4749.8235558,4749.8235558,None,None,None,,,,,,,,,,,4745.1724003,4745.1724003,None,,4746.2499253999995,4746.2499253999995,n,3.209059999998999,4745.1724003,4745.1724003,,,7,001,2024-06-10_11h22.12.892,robot_nback_sign,2022.2.5,60.11728883050265,
R_Head_Z_Back,False,2,robot,1,False,False,robot_stimuli\R_Head_Z_Back.mp4,7,,,,,,,,,0,69,69,69,,,,,,,,,,,,,4749.8235558,4750.8992737,,,,,,,4754.539264399999,4754.539264399999,4754.539264399999,4754.539264399999,4754.539264399999,4754.539264399999,4754.539264399999,4754.539264399999,None,None,None,,,,,,,,,,,4749.8235558,4749.8235558,None,,4750.8992737,4750.8992737,n,2.3124732000003405,4749.8235558,4749.8235558,,,7,001,2024-06-10_11h22.12.892,robot_nback_sign,2022.2.5,60.11728883050265,
R_Base_Z_For,False,2,robot,1,False,False,robot_stimuli\R_Base_Z_For.mp4,7,,,,,,,,,0,70,70,70,,,,,,,,,,,,,4754.539264399999,4755.6171974,,,,,,,4759.2509175,4759.2509175,4759.2509175,4759.2509175,4759.2509175,4759.2509175,4759.2509175,4759.2509175,None,None,None,,,,,,,,,,,4754.539264399999,4754.539264399999,None,,4755.6171974,4755.6171974,n,2.3931447999991633,4754.539264399999,4754.539264399999,,,7,001,2024-06-10_11h22.12.892,robot_nback_sign,2022.2.5,60.11728883050265,
R_Base_Y_Back,False,2,robot,1,False,False,robot_stimuli\R_Base_Y_Back.mp4,7,,,,,,,,,0,71,71,71,,,,,,,,,,,,,4759.2509175,4760.351842399999,,,,,,,4764.006021,4764.006021,4764.006021,4764.006021,4764.006021,4764.006021,4764.006021,4764.006021,None,None,None,,,,,,,,,,,4759.2509175,4759.2509175,None,,4760.351842399999,4760.351842399999,n,2.715978199999654,4759.2509175,4759.2509175,,,7,001,2024-06-10_11h22.12.892,robot_nback_sign,2022.2.5,60.11728883050265,
R_Base_Z_For,True,2,robot,1,False,False,robot_stimuli\R_Base_Z_For.mp4,7,,,,,,,,,0,72,72,72,,,,,,,,,,,,,4764.006021,4765.0988345,,,,,,,4768.7392211999995,4768.7392211999995,4768.7392211999995,4768.7392211999995,4768.7392211999995,4768.7392211999995,4768.7392211999995,4768.7392211999995,None,None,None,,,,,,,,,,,4764.006021,4764.006021,None,,4765.0988345,4765.0988345,c,2.537137799999755,4764.006021,4764.006021,,,7,001,2024-06-10_11h22.12.892,robot_nback_sign,2022.2.5,60.11728883050265,
L_Torso_Z_For,False,2,robot,1,False,False,robot_stimuli\L_Torso_Z_For.mp4,7,,,,,,,,,0,73,73,73,,,,,,,,,,,,,4768.7392211999995,4769.8245676999995,,,,,,,4773.473441499999,4773.473441499999,4773.473441499999,4773.473441499999,4773.473441499999,4773.473441499999,4773.473441499999,4773.473441499999,None,None,None,,,,,,,,,,,4768.7392211999995,4768.7392211999995,None,,4769.8245676999995,4769.8245676999995,n,2.450829699999076,4768.7392211999995,4768.7392211999995,,,7,001,2024-06-10_11h22.12.892,robot_nback_sign,2022.2.5,60.11728883050265,
L_Arm_X_For,False,2,robot,1,False,False,robot_stimuli\L_Arm_X_For.mp4,7,,,,,,,,,0,74,74,74,,,,,,,,,,,,,4773.473441499999,4774.5520832,,,,,,,4778.203323199999,4778.203323199999,4778.203323199999,4778.203323199999,4778.203323199999,4778.203323199999,4778.203323199999,4778.203323199999,None,None,None,,,,,,,,,,,4773.473441499999,4773.473441499999,None,,4774.5520832,4774.5520832,n,2.2195101999993767,4773.473441499999,4773.473441499999,,,7,001,2024-06-10_11h22.12.892,robot_nback_sign,2022.2.5,60.11728883050265,
L_Torso_X_Back,False,2,robot,1,False,False,robot_stimuli\L_Torso_X_Back.mp4,7,,,,,,,,,0,75,75,75,,,,,,,,,,,,,4778.203323199999,4779.2833713,,,,,,,4782.9138598,4782.9138598,4782.9138598,4782.9138598,4782.9138598,4782.9138598,4782.9138598,4782.9138598,None,None,None,,,,,,,,,,,4778.203323199999,4778.203323199999,None,,4779.2833713,4779.2833713,n,2.7846759000001384,4778.203323199999,4778.203323199999,,,7,001,2024-06-10_11h22.12.892,robot_nback_sign,2022.2.5,60.11728883050265,
R_Base_Z_For,False,2,robot,1,False,False,robot_stimuli\R_Base_Z_For.mp4,7,,,,,,,,,0,76,76,76,,,,,,,,,,,,,4782.9138598,4784.001981599999,,,,,,,4787.650461499999,4787.650461499999,4787.650461499999,4787.650461499999,4787.650461499999,4787.650461499999,4787.650461499999,4787.650461499999,None,None,None,,,,,,,,,,,4782.9138598,4782.9138598,None,,4784.001981599999,4784.001981599999,n,2.5459330000001046,4782.9138598,4782.9138598,,,7,001,2024-06-10_11h22.12.892,robot_nback_sign,2022.2.5,60.11728883050265,
R_Head_Z_For,False,2,robot,1,False,False,robot_stimuli\R_Head_Z_For.mp4,7,,,,,,,,,0,77,77,77,,,,,,,,,,,,,4787.650461499999,4788.7347202,,,,,,,4792.3840795,4792.3840795,4792.3840795,4792.3840795,4792.3840795,4792.3840795,4792.3840795,4792.3840795,None,None,None,,,,,,,,,,,4787.650461499999,4787.650461499999,None,,4788.7347202,4788.7347202,n,2.7809020000001965,4787.650461499999,4787.650461499999,,,7,001,2024-06-10_11h22.12.892,robot_nback_sign,2022.2.5,60.11728883050265,
R_Base_Z_For,True,2,robot,1,False,False,robot_stimuli\R_Base_Z_For.mp4,7,,,,,,,,,0,78,78,78,,,,,,,,,,,,,4792.3840795,4793.4666157,,,,,,,4797.106927,4797.106927,4797.106927,4797.106927,4797.106927,4797.106927,4797.106927,4797.106927,None,None,None,,,,,,,,,,,4792.3840795,4792.3840795,None,,4793.4666157,4793.4666157,c,3.0890033999992283,4792.3840795,4792.3840795,,,7,001,2024-06-10_11h22.12.892,robot_nback_sign,2022.2.5,60.11728883050265,
R_Base_Y_Back,False,2,robot,1,False,False,robot_stimuli\R_Base_Y_Back.mp4,7,,,,,,,,,0,79,79,79,,,,,,,,,,,,,4797.106927,4798.1863132,,,,,,,4801.836818299999,4801.836818299999,4801.836818299999,4801.836818299999,4801.836818299999,4801.836818299999,4801.836818299999,4801.836818299999,None,None,None,,,,,,,,,,,4797.106927,4797.106927,None,,4798.1863132,4798.1863132,n,2.064168099999506,4797.106927,4797.106927,,,7,001,2024-06-10_11h22.12.892,robot_nback_sign,2022.2.5,60.11728883050265,
L_Arm_Z_For,False,2,robot,1,False,False,robot_stimuli\L_Arm_Z_For.mp4,7,,,,,,,,,0,80,80,80,,,,,,,,,,,,,4801.836818299999,4802.920886,,,,,,,4806.5721726,4806.5721726,4806.5721726,4806.5721726,4806.5721726,4806.5721726,4806.5721726,4806.5721726,None,None,None,,,,,,,,,,,4801.836818299999,4801.836818299999,None,,4802.920886,4802.920886,n,3.441894899999852,4801.836818299999,4801.836818299999,,,7,001,2024-06-10_11h22.12.892,robot_nback_sign,2022.2.5,60.11728883050265,
R_Arm_X_Back,False,2,robot,1,False,False,robot_stimuli\R_Arm_X_Back.mp4,7,,,,,,,,,0,81,81,81,,,,,,,,,,,,,4806.5721726,4807.6525019,,,,,,,4811.3052213,4811.3052213,4811.3052213,4811.3052213,4811.3052213,4811.3052213,4811.3052213,4811.3052213,None,None,None,,,,,,,,,,,4806.5721726,4806.5721726,None,,4807.6525019,4807.6525019,n,2.85445919999961,4806.5721726,4806.5721726,,,7,001,2024-06-10_11h22.12.892,robot_nback_sign,2022.2.5,60.11728883050265,
L_Torso_Y_For,False,2,robot,1,False,False,robot_stimuli\L_Torso_Y_For.mp4,7,,,,,,,,,0,82,82,82,,,,,,,,,,,,,4811.3052213,4812.382574,,,,,,,4816.0211748,4816.0211748,4816.0211748,4816.0211748,4816.0211748,4816.0211748,4816.0211748,4816.0211748,None,None,None,,,,,,,,,,,4811.3052213,4811.3052213,None,,4812.382574,4812.382574,n,2.5009027000003243,4811.3052213,4811.3052213,,,7,001,2024-06-10_11h22.12.892,robot_nback_sign,2022.2.5,60.11728883050265,
L_Head_X_For,False,2,robot,1,False,False,robot_stimuli\L_Head_X_For.mp4,7,,,,,,,,,0,83,83,83,,,,,,,,,,,,,4816.0211748,4817.1025254999995,,,,,,,4820.6855888,4820.6855888,4820.6855888,4820.6855888,4820.6855888,4820.6855888,4820.6855888,4820.6855888,None,None,None,,,,,,,,,,,4816.0211748,4816.0211748,None,,4817.1025254999995,4817.1025254999995,n,2.901376300000038,4816.0211748,4816.0211748,,,7,001,2024-06-10_11h22.12.892,robot_nback_sign,2022.2.5,60.11728883050265,
R_Arm_X_For,False,2,robot,1,False,False,robot_stimuli\R_Arm_X_For.mp4,7,,,,,,,,,0,84,84,84,,,,,,,,,,,,,4820.6855888,4821.770750799999,,,,,,,4825.4209909,4825.4209909,4825.4209909,4825.4209909,4825.4209909,4825.4209909,4825.4209909,4825.4209909,None,None,None,,,,,,,,,,,4820.6855888,4820.6855888,None,,4821.770750799999,4821.770750799999,n,2.2722820999995292,4820.6855888,4820.6855888,,,7,001,2024-06-10_11h22.12.892,robot_nback_sign,2022.2.5,60.11728883050265,
R_Arm_Z_Back,False,2,robot,1,False,False,robot_stimuli\R_Arm_Z_Back.mp4,7,,,,,,,,,0,85,85,85,,,,,,,,,,,,,4825.4209909,4826.507823999999,,,,,,,4830.149911099999,4830.149911099999,4830.149911099999,4830.149911099999,4830.149911099999,4830.149911099999,4830.149911099999,4830.149911099999,None,None,None,,,,,,,,,,,4825.4209909,4825.4209909,None,,4826.507823999999,4826.507823999999,n,2.6469235000001845,4825.4209909,4825.4209909,,,7,001,2024-06-10_11h22.12.892,robot_nback_sign,2022.2.5,60.11728883050265,
R_Arm_X_For,True,2,robot,1,False,False,robot_stimuli\R_Arm_X_For.mp4,7,,,,,,,,,0,86,86,86,,,,,,,,,,,,,4830.149911099999,4831.235715299999,,,,,,,4834.8879835,4834.8879835,4834.8879835,4834.8879835,4834.8879835,4834.8879835,4834.8879835,4834.8879835,None,None,None,,,,,,,,,,,4830.149911099999,4830.149911099999,None,,4831.235715299999,4831.235715299999,c,2.6065668999988247,4830.149911099999,4830.149911099999,,,7,001,2024-06-10_11h22.12.892,robot_nback_sign,2022.2.5,60.11728883050265,
L_Base_X_For,False,2,robot,1,False,False,robot_stimuli\L_Base_X_For.mp4,7,,,,,,,,,0,87,87,87,,,,,,,,,,,,,4834.8879835,4835.9675774,,,,,,,4839.5532611,4839.5532611,4839.5532611,4839.5532611,4839.5532611,4839.5532611,4839.5532611,4839.5532611,None,None,None,,,,,,,,,,,4834.8879835,4834.8879835,None,,4835.9675774,4835.9675774,n,1.3075748999997359,4834.8879835,4834.8879835,,,7,001,2024-06-10_11h22.12.892,robot_nback_sign,2022.2.5,60.11728883050265,
R_Arm_X_For,True,2,robot,1,False,False,robot_stimuli\R_Arm_X_For.mp4,7,,,,,,,,,0,88,88,88,,,,,,,,,,,,,4839.5532611,4840.6350827999995,,,,,,,4844.2863541,4844.2863541,4844.2863541,4844.2863541,4844.2863541,4844.2863541,4844.2863541,4844.2863541,None,None,None,,,,,,,,,,,4839.5532611,4839.5532611,None,,4840.6350827999995,4840.6350827999995,c,2.632500599999503,4839.5532611,4839.5532611,,,7,001,2024-06-10_11h22.12.892,robot_nback_sign,2022.2.5,60.11728883050265,
L_Base_X_For,True,2,robot,1,False,False,robot_stimuli\L_Base_X_For.mp4,7,,,,,,,,,0,89,89,89,,,,,,,,,,,,,4844.2863541,4845.3687843,,,,,,,4848.9510488,4848.9510488,4848.9510488,4848.9510488,4848.9510488,4848.9510488,4848.9510488,4848.9510488,None,None,None,,,,,,,,,,,4844.2863541,4844.2863541,None,,4845.3687843,4845.3687843,c,2.242020399999774,4844.2863541,4844.2863541,,,7,001,2024-06-10_11h22.12.892,robot_nback_sign,2022.2.5,60.11728883050265,
R_Arm_X_For,True,2,robot,1,False,False,robot_stimuli\R_Arm_X_For.mp4,7,,,,,,,,,0,90,90,90,,,,,,,,,,,,,4848.9510488,4850.035302599999,,,,,,,4853.6862022,4853.6862022,4853.6862022,4853.6862022,4853.6862022,4853.6862022,4853.6862022,4853.6862022,None,None,None,,,,,,,,,,,4848.9510488,4848.9510488,None,,4850.035302599999,4850.035302599999,c,2.8010830000000624,4848.9510488,4848.9510488,,,7,001,2024-06-10_11h22.12.892,robot_nback_sign,2022.2.5,60.11728883050265,
L_Base_X_For,True,2,robot,1,False,False,robot_stimuli\L_Base_X_For.mp4,7,,,,,,,,,0,91,91,91,,,,,,,,,,,,,4853.6862022,4854.7685617,,,,,,,4858.3513422,4858.3513422,4858.3513422,4858.3513422,4858.3513422,4858.3513422,4858.3513422,4858.3513422,None,None,None,,,,,,,,,,,4853.6862022,4853.6862022,None,,4854.7685617,4854.7685617,None,,4853.6862022,4853.6862022,,,7,001,2024-06-10_11h22.12.892,robot_nback_sign,2022.2.5,60.11728883050265,
R_Arm_X_For,True,2,robot,1,False,False,robot_stimuli\R_Arm_X_For.mp4,7,,,,,,,,,0,92,92,92,,,,,,,,,,,,,4858.3513422,4859.4359844,,,,,,,4863.0881208,4863.0881208,4863.0881208,4863.0881208,4863.0881208,4863.0881208,4863.0881208,4863.0881208,None,None,None,,,,,,,,,,,4858.3513422,4858.3513422,None,,4859.4359844,4859.4359844,c,2.8632976999995208,4858.3513422,4858.3513422,,,7,001,2024-06-10_11h22.12.892,robot_nback_sign,2022.2.5,60.11728883050265,
R_Arm_X_For,False,2,robot,1,False,False,robot_stimuli\R_Arm_X_For.mp4,7,,,,,,,,,0,93,93,93,,,,,,,,,,,,,4863.0881208,4864.1644965,,,,,,,4867.8046061,4867.8046061,4867.8046061,4867.8046061,4867.8046061,4867.8046061,4867.8046061,4867.8046061,None,None,None,,,,,,,,,,,4863.0881208,4863.0881208,None,,4864.1644965,4864.1644965,n,2.246617599999581,4863.0881208,4863.0881208,,,7,001,2024-06-10_11h22.12.892,robot_nback_sign,2022.2.5,60.11728883050265,
R_Base_Y_For,False,2,robot,1,False,False,robot_stimuli\R_Base_Y_For.mp4,7,,,,,,,,,0,94,94,94,,,,,,,,,,,,,4867.8046061,4868.8849384,,,,,,,4872.5361582,4872.5361582,4872.5361582,4872.5361582,4872.5361582,4872.5361582,4872.5361582,4872.5361582,None,None,None,,,,,,,,,,,4867.8046061,4867.8046061,None,,4868.8849384,4868.8849384,n,2.7095124999993914,4867.8046061,4867.8046061,,,7,001,2024-06-10_11h22.12.892,robot_nback_sign,2022.2.5,60.11728883050265,
R_Torso_X_Back,False,2,robot,1,False,False,robot_stimuli\R_Torso_X_Back.mp4,7,,,,,,,,,0,95,95,95,,,,,,,,,,,,,4872.5361582,4873.6165636,,,,,,,4877.2560818,4877.2560818,4877.2560818,4877.2560818,4877.2560818,4877.2560818,4877.2560818,4877.2560818,None,None,None,,,,,,,,,,,4872.5361582,4872.5361582,None,,4873.6165636,4873.6165636,n,2.915277699999706,4872.5361582,4872.5361582,,,7,001,2024-06-10_11h22.12.892,robot_nback_sign,2022.2.5,60.11728883050265,
R_Base_X_For,False,2,robot,1,False,False,robot_stimuli\R_Base_X_For.mp4,7,,,,,,,,,0,96,96,96,,,,,,,,,,,,,4877.2560818,4878.336138199999,,,,,,,4881.8858346,4881.8858346,4881.8858346,4881.8858346,4881.8858346,4881.8858346,4881.8858346,4881.8858346,None,None,None,,,,,,,,,,,4877.2560818,4877.2560818,None,,4878.336138199999,4878.336138199999,c,3.1881670999989637,4877.2560818,4877.2560818,,,7,001,2024-06-10_11h22.12.892,robot_nback_sign,2022.2.5,60.11728883050265,
R_Torso_X_Back,True,2,robot,1,False,False,robot_stimuli\R_Torso_X_Back.mp4,7,,,,,,,,,0,97,97,97,,,,,,,,,,,,,4881.8858346,4882.968211599999,,,,,,,4886.618953499999,4886.618953499999,4886.618953499999,4886.618953499999,4886.618953499999,4886.618953499999,4886.618953499999,4886.618953499999,None,None,None,,,,,,,,,,,4881.8858346,4881.8858346,None,,4882.968211599999,4882.968211599999,c,2.4358160999997835,4881.8858346,4881.8858346,,,7,001,2024-06-10_11h22.12.892,robot_nback_sign,2022.2.5,60.11728883050265,
R_Head_X_Back,False,2,robot,1,False,False,robot_stimuli\R_Head_X_Back.mp4,7,,,,,,,,,0,98,98,98,,,,,,,,,,,,,4886.618953499999,4887.7009338,,,,,,,4891.3505706999995,4891.3505706999995,4891.3505706999995,4891.3505706999995,4891.3505706999995,4891.3505706999995,4891.3505706999995,4891.3505706999995,None,None,None,,,,,,,,,,,4886.618953499999,4886.618953499999,None,,4887.7009338,4887.7009338,n,2.5735457999996925,4886.618953499999,4886.618953499999,,,7,001,2024-06-10_11h22.12.892,robot_nback_sign,2022.2.5,60.11728883050265,
R_Torso_Y_Back,False,2,robot,1,False,True,robot_stimuli\R_Torso_Y_Back.mp4,7,,,,,,,,,0,99,99,99,,,,,,,,,,,,,4891.3505706999995,4892.4339911,,,,,,,4896.1078857,4901.9484759,4896.1078857,4901.9484759,4896.1078857,4901.9484759,4896.1078857,4901.9484759,30.46296296296296,2.895508300000074,space,,,,5.7912488999998,,,,,,,4891.3505706999995,4891.3505706999995,None,,4892.4339911,4892.4339911,n,2.3464478000003055,4891.3505706999995,4891.3505706999995,,,7,001,2024-06-10_11h22.12.892,robot_nback_sign,2022.2.5,60.11728883050265,
R_Torso_Y_Back,False,1,robot,1,True,False,robot_stimuli\R_Torso_Y_Back.mp4,7,,,,,,,,,0,100,100,100,,,,,,,,,,,,,4906.1895266,4907.2675991,,,,,,,4910.9102959,4910.9102959,4910.9102959,4910.9102959,4910.9102959,4910.9102959,4910.9102959,4910.9102959,None,None,None,,,,,,,,,,,4901.9484759,4901.9484759,space,4.223247599999695,4907.2675991,4907.2675991,n,3.247709399999394,,,,,7,001,2024-06-10_11h22.12.892,robot_nback_sign,2022.2.5,60.11728883050265,
L_Torso_Z_Back,False,1,robot,1,False,False,robot_stimuli\L_Torso_Z_Back.mp4,7,,,,,,,,,0,101,101,101,,,,,,,,,,,,,4910.9102959,4912.015324,,,,,,,4915.523633299999,4915.523633299999,4915.523633299999,4915.523633299999,4915.523633299999,4915.523633299999,4915.523633299999,4915.523633299999,None,None,None,,,,,,,,,,,4910.9102959,4910.9102959,None,,4912.015324,4912.015324,n,1.852609899999834,4910.9102959,4910.9102959,,,7,001,2024-06-10_11h22.12.892,robot_nback_sign,2022.2.5,60.11728883050265,
L_Torso_X_For,False,1,robot,1,False,False,robot_stimuli\L_Torso_X_For.mp4,7,,,,,,,,,0,102,102,102,,,,,,,,,,,,,4915.523633299999,4916.6018134,,,,,,,4920.2510992,4920.2510992,4920.2510992,4920.2510992,4920.2510992,4920.2510992,4920.2510992,4920.2510992,None,None,None,,,,,,,,,,,4915.523633299999,4915.523633299999,None,,4916.6018134,4916.6018134,n,2.370229299999437,4915.523633299999,4915.523633299999,,,7,001,2024-06-10_11h22.12.892,robot_nback_sign,2022.2.5,60.11728883050265,
R_Torso_X_For,False,1,robot,1,False,False,robot_stimuli\R_Torso_X_For.mp4,7,,,,,,,,,0,103,103,103,,,,,,,,,,,,,4920.2510992,4921.3341291,,,,,,,4924.964921299999,4924.964921299999,4924.964921299999,4924.964921299999,4924.964921299999,4924.964921299999,4924.964921299999,4924.964921299999,None,None,None,,,,,,,,,,,4920.2510992,4920.2510992,None,,4921.3341291,4921.3341291,n,2.308386599999494,4920.2510992,4920.2510992,,,7,001,2024-06-10_11h22.12.892,robot_nback_sign,2022.2.5,60.11728883050265,
R_Base_Z_For,False,1,robot,1,False,False,robot_stimuli\R_Base_Z_For.mp4,7,,,,,,,,,0,104,104,104,,,,,,,,,,,,,4924.964921299999,4926.0515207,,,,,,,4929.7024033,4929.7024033,4929.7024033,4929.7024033,4929.7024033,4929.7024033,4929.7024033,4929.7024033,None,None,None,,,,,,,,,,,4924.964921299999,4924.964921299999,None,,4926.0515207,4926.0515207,n,2.3830974999989394,4924.964921299999,4924.964921299999,,,7,001,2024-06-10_11h22.12.892,robot_nback_sign,2022.2.5,60.11728883050265,
L_Torso_Z_Back,False,1,robot,1,False,False,robot_stimuli\L_Torso_Z_Back.mp4,7,,,,,,,,,0,105,105,105,,,,,,,,,,,,,4929.7024033,4930.7835448,,,,,,,4934.289715,4934.289715,4934.289715,4934.289715,4934.289715,4934.289715,4934.289715,4934.289715,None,None,None,,,,,,,,,,,4929.7024033,4929.7024033,None,,4930.7835448,4930.7835448,n,1.6839347000002363,4929.7024033,4929.7024033,,,7,001,2024-06-10_11h22.12.892,robot_nback_sign,2022.2.5,60.11728883050265,
L_Arm_X_Back,False,1,robot,1,False,False,robot_stimuli\L_Arm_X_Back.mp4,7,,,,,,,,,0,106,106,106,,,,,,,,,,,,,4934.289715,4935.3674052,,,,,,,4939.0080109,4939.0080109,4939.0080109,4939.0080109,4939.0080109,4939.0080109,4939.0080109,4939.0080109,None,None,None,,,,,,,,,,,4934.289715,4934.289715,None,,4935.3674052,4935.3674052,n,2.7155674999992243,4934.289715,4934.289715,,,7,001,2024-06-10_11h22.12.892,robot_nback_sign,2022.2.5,60.11728883050265,
R_Torso_Y_For,False,1,robot,1,False,False,robot_stimuli\R_Torso_Y_For.mp4,7,,,,,,,,,0,107,107,107,,,,,,,,,,,,,4939.0080109,,,,,,,,4943.7522239,4943.7522239,4943.7522239,4943.7522239,4943.7522239,4943.7522239,4943.7522239,4943.7522239,None,None,None,,,,,,,,,,,4939.0080109,4939.0080109,None,,4940.1019031999995,4940.1019031999995,n,2.4701424000002135,4939.0080109,4939.0080109,,,7,001,2024-06-10_11h22.12.892,robot_nback_sign,2022.2.5,60.11728883050265,
L_Head_X_For,False,1,robot,1,False,False,robot_stimuli\L_Head_X_For.mp4,7,,,,,,,,,0,108,108,108,,,,,,,,,,,,,4943.7522239,4944.8348662,,,,,,,4948.4182617,4948.4182617,4948.4182617,4948.4182617,4948.4182617,4948.4182617,4948.4182617,4948.4182617,None,None,None,,,,,,,,,,,4943.7522239,4943.7522239,None,,4944.8348662,4944.8348662,n,1.5996161000000484,4943.7522239,4943.7522239,,,7,001,2024-06-10_11h22.12.892,robot_nback_sign,2022.2.5,60.11728883050265,
L_Head_X_For,True,1,robot,1,False,False,robot_stimuli\L_Head_X_For.mp4,7,,,,,,,,,0,109,109,109,,,,,,,,,,,,,4948.4182617,4949.497732899999,,,,,,,4953.073245099999,4953.073245099999,4953.073245099999,4953.073245099999,4953.073245099999,4953.073245099999,4953.073245099999,4953.073245099999,None,None,None,,,,,,,,,,,4948.4182617,4948.4182617,None,,4949.497732899999,4949.497732899999,c,1.6966156999994837,4948.4182617,4948.4182617,,,7,001,2024-06-10_11h22.12.892,robot_nback_sign,2022.2.5,60.11728883050265,
L_Arm_X_Back,False,1,robot,1,False,False,robot_stimuli\L_Arm_X_Back.mp4,7,,,,,,,,,0,110,110,110,,,,,,,,,,,,,4953.073245099999,4954.1574646,,,,,,,4957.805061,4957.805061,4957.805061,4957.805061,4957.805061,4957.805061,4957.805061,4957.805061,None,None,None,,,,,,,,,,,4953.073245099999,4953.073245099999,None,,4954.1574646,4954.1574646,n,2.597249299999703,4953.073245099999,4953.073245099999,,,7,001,2024-06-10_11h22.12.892,robot_nback_sign,2022.2.5,60.11728883050265,
L_Arm_Z_For,False,1,robot,1,False,False,robot_stimuli\L_Arm_Z_For.mp4,7,,,,,,,,,0,111,111,111,,,,,,,,,,,,,4957.805061,4958.8848892,,,,,,,4962.535915099999,4962.535915099999,4962.535915099999,4962.535915099999,4962.535915099999,4962.535915099999,4962.535915099999,4962.535915099999,None,None,None,,,,,,,,,,,4957.805061,4957.805061,None,,4958.8848892,4958.8848892,n,2.3815941000000294,4957.805061,4957.805061,,,7,001,2024-06-10_11h22.12.892,robot_nback_sign,2022.2.5,60.11728883050265,
R_Base_X_For,False,1,robot,1,False,False,robot_stimuli\R_Base_X_For.mp4,7,,,,,,,,,0,112,112,112,,,,,,,,,,,,,4962.535915099999,4963.6191098,,,,,,,4967.1686724,4967.1686724,4967.1686724,4967.1686724,4967.1686724,4967.1686724,4967.1686724,4967.1686724,None,None,None,,,,,,,,,,,4962.535915099999,4962.535915099999,None,,4963.6191098,4963.6191098,n,2.024024399999462,4962.535915099999,4962.535915099999,,,7,001,2024-06-10_11h22.12.892,robot_nback_sign,2022.2.5,60.11728883050265,
R_Head_Z_Back,False,1,robot,1,False,False,robot_stimuli\R_Head_Z_Back.mp4,7,,,,,,,,,0,113,113,113,,,,,,,,,,,,,4967.1686724,4968.251598899999,,,,,,,4971.9017908999995,4971.9017908999995,4971.9017908999995,4971.9017908999995,4971.9017908999995,4971.9017908999995,4971.9017908999995,4971.9017908999995,None,None,None,,,,,,,,,,,4967.1686724,4967.1686724,None,,4968.251598899999,4968.251598899999,n,2.720651399999724,4967.1686724,4967.1686724,,,7,001,2024-06-10_11h22.12.892,robot_nback_sign,2022.2.5,60.11728883050265,
L_Arm_X_For,False,1,robot,1,False,False,robot_stimuli\L_Arm_X_For.mp4,7,,,,,,,,,0,114,114,114,,,,,,,,,,,,,4971.9017908999995,4972.9858189999995,,,,,,,4976.636383399999,4976.636383399999,4976.636383399999,4976.636383399999,4976.636383399999,4976.636383399999,4976.636383399999,4976.636383399999,None,None,None,,,,,,,,,,,4971.9017908999995,4971.9017908999995,None,,4972.9858189999995,4972.9858189999995,n,1.6343968999997287,4971.9017908999995,4971.9017908999995,,,7,001,2024-06-10_11h22.12.892,robot_nback_sign,2022.2.5,60.11728883050265,
R_Base_Y_Back,False,1,robot,1,False,False,robot_stimuli\R_Base_Y_Back.mp4,7,,,,,,,,,0,115,115,115,,,,,,,,,,,,,4976.636383399999,4977.7181639,,,,,,,4981.3678275,4981.3678275,4981.3678275,4981.3678275,4981.3678275,4981.3678275,4981.3678275,4981.3678275,None,None,None,,,,,,,,,,,4976.636383399999,4976.636383399999,None,,4977.7181639,4977.7181639,n,2.2379353999992873,4976.636383399999,4976.636383399999,,,7,001,2024-06-10_11h22.12.892,robot_nback_sign,2022.2.5,60.11728883050265,
R_Base_Y_Back,True,1,robot,1,False,False,robot_stimuli\R_Base_Y_Back.mp4,7,,,,,,,,,0,116,116,116,,,,,,,,,,,,,4981.3678275,4982.453215,,,,,,,4986.105194899999,4986.105194899999,4986.105194899999,4986.105194899999,4986.105194899999,4986.105194899999,4986.105194899999,4986.105194899999,None,None,None,,,,,,,,,,,4981.3678275,4981.3678275,None,,4982.453215,4982.453215,c,1.9337744999991173,4981.3678275,4981.3678275,,,7,001,2024-06-10_11h22.12.892,robot_nback_sign,2022.2.5,60.11728883050265,
R_Base_Y_For,False,1,robot,1,False,False,robot_stimuli\R_Base_Y_For.mp4,7,,,,,,,,,0,117,117,117,,,,,,,,,,,,,4986.105194899999,4987.1836439,,,,,,,4990.8241179,4990.8241179,4990.8241179,4990.8241179,4990.8241179,4990.8241179,4990.8241179,4990.8241179,None,None,None,,,,,,,,,,,4986.105194899999,4986.105194899999,None,,4987.1836439,4987.1836439,n,2.115561499999558,4986.105194899999,4986.105194899999,,,7,001,2024-06-10_11h22.12.892,robot_nback_sign,2022.2.5,60.11728883050265,
R_Head_Y_For,False,1,robot,1,False,False,robot_stimuli\R_Head_Y_For.mp4,7,,,,,,,,,0,118,118,118,,,,,,,,,,,,,4990.8241179,4991.905365199999,,,,,,,4995.5555466,4995.5555466,4995.5555466,4995.5555466,4995.5555466,4995.5555466,4995.5555466,4995.5555466,None,None,None,,,,,,,,,,,4990.8241179,4990.8241179,None,,4991.905365199999,4991.905365199999,n,2.0973217999996905,4990.8241179,4990.8241179,,,7,001,2024-06-10_11h22.12.892,robot_nback_sign,2022.2.5,60.11728883050265,
R_Head_Y_For,True,1,robot,1,False,False,robot_stimuli\R_Head_Y_For.mp4,7,,,,,,,,,0,119,119,119,,,,,,,,,,,,,4995.5555466,4996.6328881,,,,,,,5000.2715626,5000.2715626,5000.2715626,5000.2715626,5000.2715626,5000.2715626,5000.2715626,5000.2715626,None,None,None,,,,,,,,,,,4995.5555466,4995.5555466,None,,4996.6328881,4996.6328881,c,2.2745650000003934,4995.5555466,4995.5555466,,,7,001,2024-06-10_11h22.12.892,robot_nback_sign,2022.2.5,60.11728883050265,
L_Base_Z_For,False,1,robot,1,False,False,robot_stimuli\L_Base_Z_For.mp4,7,,,,,,,,,0,120,120,120,,,,,,,,,,,,,5000.2715626,5001.3518656999995,,,,,,,5005.0017781,5005.0017781,5005.0017781,5005.0017781,5005.0017781,5005.0017781,5005.0017781,5005.0017781,None,None,None,,,,,,,,,,,5000.2715626,5000.2715626,None,,5001.3518656999995,5001.3518656999995,n,2.18701809999925,5000.2715626,5000.2715626,,,7,001,2024-06-10_11h22.12.892,robot_nback_sign,2022.2.5,60.11728883050265,
L_Head_Y_Back,False,1,robot,1,False,False,robot_stimuli\L_Head_Y_Back.mp4,7,,,,,,,,,0,121,121,121,,,,,,,,,,,,,5005.0017781,5006.0849608,,,,,,,5009.7349008,5009.7349008,5009.7349008,5009.7349008,5009.7349008,5009.7349008,5009.7349008,5009.7349008,None,None,None,,,,,,,,,,,5005.0017781,5005.0017781,None,,5006.0849608,5006.0849608,n,1.8701379999999972,5005.0017781,5005.0017781,,,7,001,2024-06-10_11h22.12.892,robot_nback_sign,2022.2.5,60.11728883050265,
L_Head_Y_Back,True,1,robot,1,False,False,robot_stimuli\L_Head_Y_Back.mp4,7,,,,,,,,,0,122,122,122,,,,,,,,,,,,,5009.7349008,5010.8133712,,,,,,,5014.4575561,5014.4575561,5014.4575561,5014.4575561,5014.4575561,5014.4575561,5014.4575561,5014.4575561,None,None,None,,,,,,,,,,,5009.7349008,5009.7349008,None,,5010.8133712,5010.8133712,c,2.182593099999167,5009.7349008,5009.7349008,,,7,001,2024-06-10_11h22.12.892,robot_nback_sign,2022.2.5,60.11728883050265,
L_Head_Y_Back,True,1,robot,1,False,False,robot_stimuli\L_Head_Y_Back.mp4,7,,,,,,,,,0,123,123,123,,,,,,,,,,,,,5014.4575561,,,,,,,,5019.205260199999,5019.205260199999,5019.205260199999,5019.205260199999,5019.205260199999,5019.205260199999,5019.205260199999,5019.205260199999,None,None,None,,,,,,,,,,,5014.4575561,5014.4575561,None,,5015.5621868,5015.5621868,c,2.225659499999665,5014.4575561,5014.4575561,,,7,001,2024-06-10_11h22.12.892,robot_nback_sign,2022.2.5,60.11728883050265,
L_Base_Z_For,False,1,robot,1,False,False,robot_stimuli\L_Base_Z_For.mp4,7,,,,,,,,,0,124,124,124,,,,,,,,,,,,,5019.205260199999,5020.2994731,,,,,,,5023.9394467,5023.9394467,5023.9394467,5023.9394467,5023.9394467,5023.9394467,5023.9394467,5023.9394467,None,None,None,,,,,,,,,,,5019.205260199999,5019.205260199999,None,,5020.2994731,5020.2994731,n,1.9272897999996985,5019.205260199999,5019.205260199999,,,7,001,2024-06-10_11h22.12.892,robot_nback_sign,2022.2.5,60.11728883050265,
L_Base_Z_For,True,1,robot,1,False,False,robot_stimuli\L_Base_Z_For.mp4,7,,,,,,,,,0,125,125,125,,,,,,,,,,,,,5023.9394467,5025.0202125999995,,,,,,,5028.6697759,5028.6697759,5028.6697759,5028.6697759,5028.6697759,5028.6697759,5028.6697759,5028.6697759,None,None,None,,,,,,,,,,,5023.9394467,5023.9394467,None,,5025.0202125999995,5025.0202125999995,c,2.118812999999818,5023.9394467,5023.9394467,,,7,001,2024-06-10_11h22.12.892,robot_nback_sign,2022.2.5,60.11728883050265,
L_Arm_X_Back,False,1,robot,1,False,False,robot_stimuli\L_Arm_X_Back.mp4,7,,,,,,,,,0,126,126,126,,,,,,,,,,,,,5028.6697759,5029.752903,,,,,,,5033.403219299999,5033.403219299999,5033.403219299999,5033.403219299999,5033.403219299999,5033.403219299999,5033.403219299999,5033.403219299999,None,None,None,,,,,,,,,,,5028.6697759,5028.6697759,None,,5029.752903,5029.752903,n,3.3313549000001785,5028.6697759,5028.6697759,,,7,001,2024-06-10_11h22.12.892,robot_nback_sign,2022.2.5,60.11728883050265,
L_Torso_Y_Back,False,1,robot,1,False,False,robot_stimuli\L_Torso_Y_Back.mp4,7,,,,,,,,,0,127,127,127,,,,,,,,,,,,,5033.403219299999,5034.4889114,,,,,,,5037.997609999999,5037.997609999999,5037.997609999999,5037.997609999999,5037.997609999999,5037.997609999999,5037.997609999999,5037.997609999999,None,None,None,,,,,,,,,,,5033.403219299999,5033.403219299999,None,,5034.4889114,5034.4889114,n,1.8428920999992897,5033.403219299999,5033.403219299999,,,7,001,2024-06-10_11h22.12.892,robot_nback_sign,2022.2.5,60.11728883050265,
R_Head_X_For,False,1,robot,1,False,False,robot_stimuli\R_Head_X_For.mp4,7,,,,,,,,,0,128,128,128,,,,,,,,,,,,,5037.997609999999,5039.0864062,,,,,,,5042.7372268,5042.7372268,5042.7372268,5042.7372268,5042.7372268,5042.7372268,5042.7372268,5042.7372268,None,None,None,,,,,,,,,,,5037.997609999999,5037.997609999999,None,,5039.0864062,5039.0864062,n,1.9090899999989688,5037.997609999999,5037.997609999999,,,7,001,2024-06-10_11h22.12.892,robot_nback_sign,2022.2.5,60.11728883050265,
L_Arm_X_For,False,1,robot,1,False,False,robot_stimuli\L_Arm_X_For.mp4,7,,,,,,,,,0,129,129,129,,,,,,,,,,,,,5042.7372268,5043.8218791,,,,,,,5047.4703856999995,5047.4703856999995,5047.4703856999995,5047.4703856999995,5047.4703856999995,5047.4703856999995,5047.4703856999995,5047.4703856999995,None,None,None,,,,,,,,,,,5042.7372268,5042.7372268,None,,5043.8218791,5043.8218791,n,2.1581498999992164,5042.7372268,5042.7372268,,,7,001,2024-06-10_11h22.12.892,robot_nback_sign,2022.2.5,60.11728883050265,
L_Arm_X_For,True,1,robot,1,False,False,robot_stimuli\L_Arm_X_For.mp4,7,,,,,,,,,0,130,130,130,,,,,,,,,,,,,5047.4703856999995,5048.549448,,,,,,,5052.189326199999,5052.189326199999,5052.189326199999,5052.189326199999,5052.189326199999,5052.189326199999,5052.189326199999,5052.189326199999,None,None,None,,,,,,,,,,,5047.4703856999995,5047.4703856999995,None,,5048.549448,5048.549448,c,2.1811490999996295,5047.4703856999995,5047.4703856999995,,,7,001,2024-06-10_11h22.12.892,robot_nback_sign,2022.2.5,60.11728883050265,
L_Torso_Y_Back,False,1,robot,1,False,False,robot_stimuli\L_Torso_Y_Back.mp4,7,,,,,,,,,0,131,131,131,,,,,,,,,,,,,5052.189326199999,5053.2749458,,,,,,,5056.7808804999995,5056.7808804999995,5056.7808804999995,5056.7808804999995,5056.7808804999995,5056.7808804999995,5056.7808804999995,5056.7808804999995,None,None,None,,,,,,,,,,,5052.189326199999,5052.189326199999,None,,5053.2749458,5053.2749458,n,2.0482948999995187,5052.189326199999,5052.189326199999,,,7,001,2024-06-10_11h22.12.892,robot_nback_sign,2022.2.5,60.11728883050265,
R_Base_Z_Back,False,1,robot,1,False,False,robot_stimuli\R_Base_Z_Back.mp4,7,,,,,,,,,0,132,132,132,,,,,,,,,,,,,5056.7808804999995,5057.8687801,,,,,,,5061.423696299999,5061.423696299999,5061.423696299999,5061.423696299999,5061.423696299999,5061.423696299999,5061.423696299999,5061.423696299999,None,None,None,,,,,,,,,,,5056.7808804999995,5056.7808804999995,None,,5057.8687801,5057.8687801,n,1.4297605999997813,5056.7808804999995,5056.7808804999995,,,7,001,2024-06-10_11h22.12.892,robot_nback_sign,2022.2.5,60.11728883050265,
R_Head_X_Back,False,1,robot,1,False,False,robot_stimuli\R_Head_X_Back.mp4,7,,,,,,,,,0,133,133,133,,,,,,,,,,,,,5061.423696299999,5062.517139099999,,,,,,,5066.1472143,5066.1472143,5066.1472143,5066.1472143,5066.1472143,5066.1472143,5066.1472143,5066.1472143,None,None,None,,,,,,,,,,,5061.423696299999,5061.423696299999,None,,5062.517139099999,5062.517139099999,n,2.58276120000005,5061.423696299999,5061.423696299999,,,7,001,2024-06-10_11h22.12.892,robot_nback_sign,2022.2.5,60.11728883050265,
L_Torso_Y_Back,False,1,robot,1,False,False,robot_stimuli\L_Torso_Y_Back.mp4,7,,,,,,,,,0,134,134,134,,,,,,,,,,,,,5066.1472143,5067.233747,,,,,,,5070.730933,5070.730933,5070.730933,5070.730933,5070.730933,5070.730933,5070.730933,5070.730933,None,None,None,,,,,,,,,,,5066.1472143,5066.1472143,None,,5067.233747,5067.233747,n,1.6252296999998634,5066.1472143,5066.1472143,,,7,001,2024-06-10_11h22.12.892,robot_nback_sign,2022.2.5,60.11728883050265,
R_Head_X_For,False,1,robot,1,False,False,robot_stimuli\R_Head_X_For.mp4,7,,,,,,,,,0,135,135,135,,,,,,,,,,,,,5070.730933,5071.8195882,,,,,,,5075.4692877,5075.4692877,5075.4692877,5075.4692877,5075.4692877,5075.4692877,5075.4692877,5075.4692877,None,None,None,,,,,,,,,,,5070.730933,5070.730933,None,,5071.8195882,5071.8195882,n,2.2403681999992386,5070.730933,5070.730933,,,7,001,2024-06-10_11h22.12.892,robot_nback_sign,2022.2.5,60.11728883050265,
L_Head_Y_For,False,1,robot,1,False,False,robot_stimuli\L_Head_Y_For.mp4,7,,,,,,,,,0,136,136,136,,,,,,,,,,,,,5075.4692877,5076.5508922,,,,,,,5080.1921397999995,5080.1921397999995,5080.1921397999995,5080.1921397999995,5080.1921397999995,5080.1921397999995,5080.1921397999995,5080.1921397999995,None,None,None,,,,,,,,,,,5075.4692877,5075.4692877,None,,5076.5508922,5076.5508922,n,1.4688527999994676,5075.4692877,5075.4692877,,,7,001,2024-06-10_11h22.12.892,robot_nback_sign,2022.2.5,60.11728883050265,
R_Arm_Y_For,False,1,robot,1,False,False,robot_stimuli\R_Arm_Y_For.mp4,7,,,,,,,,,0,137,137,137,,,,,,,,,,,,,5080.1921397999995,,,,,,,,5084.801604,5084.801604,5084.801604,5084.801604,5084.801604,5084.801604,5084.801604,5084.801604,None,None,None,,,,,,,,,,,5080.1921397999995,5080.1921397999995,None,,5081.297947,5081.297947,n,1.817032199999403,5080.1921397999995,5080.1921397999995,,,7,001,2024-06-10_11h22.12.892,robot_nback_sign,2022.2.5,60.11728883050265,
L_Head_X_Back,False,1,robot,1,False,False,robot_stimuli\L_Head_X_Back.mp4,7,,,,,,,,,0,138,138,138,,,,,,,,,,,,,5084.801604,5085.889294799999,,,,,,,5089.5390937,5089.5390937,5089.5390937,5089.5390937,5089.5390937,5089.5390937,5089.5390937,5089.5390937,None,None,None,,,,,,,,,,,5084.801604,5084.801604,None,,5085.889294799999,5085.889294799999,n,1.4581845000000158,5084.801604,5084.801604,,,7,001,2024-06-10_11h22.12.892,robot_nback_sign,2022.2.5,60.11728883050265,
L_Head_X_Back,True,1,robot,1,False,False,robot_stimuli\L_Head_X_Back.mp4,7,,,,,,,,,0,139,139,139,,,,,,,,,,,,,5089.5390937,5090.6213990999995,,,,,,,5094.2729637,5094.2729637,5094.2729637,5094.2729637,5094.2729637,5094.2729637,5094.2729637,5094.2729637,None,None,None,,,,,,,,,,,5089.5390937,5089.5390937,None,,5090.6213990999995,5090.6213990999995,c,1.8058136999995895,5089.5390937,5089.5390937,,,7,001,2024-06-10_11h22.12.892,robot_nback_sign,2022.2.5,60.11728883050265,
R_Arm_X_For,False,1,robot,1,False,False,robot_stimuli\R_Arm_X_For.mp4,7,,,,,,,,,0,140,140,140,,,,,,,,,,,,,5094.2729637,5095.3552269,,,,,,,5099.0051537,5099.0051537,5099.0051537,5099.0051537,5099.0051537,5099.0051537,5099.0051537,5099.0051537,None,None,None,,,,,,,,,,,5094.2729637,5094.2729637,None,,5095.3552269,5095.3552269,n,2.1840827000003173,5094.2729637,5094.2729637,,,7,001,2024-06-10_11h22.12.892,robot_nback_sign,2022.2.5,60.11728883050265,
L_Base_Z_For,False,1,robot,1,False,False,robot_stimuli\L_Base_Z_For.mp4,7,,,,,,,,,0,141,141,141,,,,,,,,,,,,,5099.0051537,5100.0854723,,,,,,,5103.7357352,5103.7357352,5103.7357352,5103.7357352,5103.7357352,5103.7357352,5103.7357352,5103.7357352,None,None,None,,,,,,,,,,,5099.0051537,5099.0051537,None,,5100.0854723,5100.0854723,n,2.1984577000000627,5099.0051537,5099.0051537,,,7,001,2024-06-10_11h22.12.892,robot_nback_sign,2022.2.5,60.11728883050265,
L_Base_Z_For,True,1,robot,1,False,False,robot_stimuli\L_Base_Z_For.mp4,7,,,,,,,,,0,142,142,142,,,,,,,,,,,,,5103.7357352,5104.8152125999995,,,,,,,5108.455636199999,5108.455636199999,5108.455636199999,5108.455636199999,5108.455636199999,5108.455636199999,5108.455636199999,5108.455636199999,None,None,None,,,,,,,,,,,5103.7357352,5103.7357352,None,,5104.8152125999995,5104.8152125999995,c,1.861102499999788,5103.7357352,5103.7357352,,,7,001,2024-06-10_11h22.12.892,robot_nback_sign,2022.2.5,60.11728883050265,
L_Head_Z_For,False,1,robot,1,False,False,robot_stimuli\L_Head_Z_For.mp4,7,,,,,,,,,0,143,143,143,,,,,,,,,,,,,5108.455636199999,5109.534092899999,,,,,,,5113.1777387,5113.1777387,5113.1777387,5113.1777387,5113.1777387,5113.1777387,5113.1777387,5113.1777387,None,None,None,,,,,,,,,,,5108.455636199999,5108.455636199999,None,,5109.534092899999,5109.534092899999,n,1.6535713999999189,5108.455636199999,5108.455636199999,,,7,001,2024-06-10_11h22.12.892,robot_nback_sign,2022.2.5,60.11728883050265,
L_Torso_X_For,False,1,robot,1,False,False,robot_stimuli\L_Torso_X_For.mp4,7,,,,,,,,,0,144,144,144,,,,,,,,,,,,,5113.1777387,5114.2838012,,,,,,,5117.9243961,5117.9243961,5117.9243961,5117.9243961,5117.9243961,5117.9243961,5117.9243961,5117.9243961,None,None,None,,,,,,,,,,,5113.1777387,5113.1777387,None,,5114.2838012,5114.2838012,n,2.2948641000000407,5113.1777387,5113.1777387,,,7,001,2024-06-10_11h22.12.892,robot_nback_sign,2022.2.5,60.11728883050265,
L_Head_Y_Back,False,1,robot,1,False,False,robot_stimuli\L_Head_Y_Back.mp4,7,,,,,,,,,0,145,145,145,,,,,,,,,,,,,5117.9243961,,,,,,,,5122.6688048999995,5122.6688048999995,5122.6688048999995,5122.6688048999995,5122.6688048999995,5122.6688048999995,5122.6688048999995,5122.6688048999995,None,None,None,,,,,,,,,,,5117.9243961,5117.9243961,None,,5119.0190858999995,5119.0190858999995,n,2.2808394999999564,5117.9243961,5117.9243961,,,7,001,2024-06-10_11h22.12.892,robot_nback_sign,2022.2.5,60.11728883050265,
L_Head_Y_Back,True,1,robot,1,False,False,robot_stimuli\L_Head_Y_Back.mp4,7,,,,,,,,,0,146,146,146,,,,,,,,,,,,,5122.6688048999995,5123.7479662999995,,,,,,,5127.3886499,5127.3886499,5127.3886499,5127.3886499,5127.3886499,5127.3886499,5127.3886499,5127.3886499,None,None,None,,,,,,,,,,,5122.6688048999995,5122.6688048999995,None,,5123.7479662999995,5123.7479662999995,c,2.078472799999645,5122.6688048999995,5122.6688048999995,,,7,001,2024-06-10_11h22.12.892,robot_nback_sign,2022.2.5,60.11728883050265,
L_Base_X_For,False,1,robot,1,False,False,robot_stimuli\L_Base_X_For.mp4,7,,,,,,,,,0,147,147,147,,,,,,,,,,,,,5127.3886499,5128.4675464,,,,,,,5132.0394307999995,5132.0394307999995,5132.0394307999995,5132.0394307999995,5132.0394307999995,5132.0394307999995,5132.0394307999995,5132.0394307999995,None,None,None,,,,,,,,,,,5127.3886499,5127.3886499,None,,5128.4675464,5128.4675464,n,2.5835933999994722,5127.3886499,5127.3886499,,,7,001,2024-06-10_11h22.12.892,robot_nback_sign,2022.2.5,60.11728883050265,
R_Base_Z_For,False,1,robot,1,False,False,robot_stimuli\R_Base_Z_For.mp4,7,,,,,,,,,0,148,148,148,,,,,,,,,,,,,5132.0394307999995,5133.120142,,,,,,,5136.7665404,5136.7665404,5136.7665404,5136.7665404,5136.7665404,5136.7665404,5136.7665404,5136.7665404,None,None,None,,,,,,,,,,,5132.0394307999995,5132.0394307999995,None,,5133.120142,5133.120142,n,2.371137599998974,5132.0394307999995,5132.0394307999995,,,7,001,2024-06-10_11h22.12.892,robot_nback_sign,2022.2.5,60.11728883050265,
R_Base_X_For,False,1,robot,1,False,True,robot_stimuli\R_Base_X_For.mp4,7,,,,,,,,,0,149,149,149,,,,,,,,,,,,,5136.7665404,5137.8527545,,,,,,,5141.4335811,5146.9407562999995,5141.4335811,5146.9407562999995,5141.4335811,5146.9407562999995,5141.4335811,5146.9407562999995,2.6851851851851904,3.825259599999299,space,,,,5.465531599999622,,,,,,,5136.7665404,5136.7665404,None,,5137.8527545,5137.8527545,n,2.8459964999999556,5136.7665404,5136.7665404,,,7,001,2024-06-10_11h22.12.892,robot_nback_sign,2022.2.5,60.11728883050265,
L,False,3,letter,2,True,False,robot_stimuli\\filler.mp4,7,,,,,,,,,0,150,150,150,,,,,,,,,,,,,5154.9400006,5155.9969003999995,,,,,,,5158.024901,5158.024901,5158.024901,5158.024901,5158.024901,5158.024901,5158.024901,5158.024901,None,None,None,,,,,,,,,,,5146.9407562999995,5146.9407562999995,space,7.974508999999443,,5155.9969003999995,n,0.8312785999994503,,,5155.9969003999995,5158.024901,7,001,2024-06-10_11h22.12.892,robot_nback_sign,2022.2.5,60.11728883050265,
F,False,3,letter,2,False,False,robot_stimuli\\filler.mp4,7,,,,,,,,,0,151,151,151,,,,,,,,,,,,,5158.024901,,,,,,,,5161.318327,5161.318327,5161.318327,5161.318327,5161.318327,5161.318327,5161.318327,5161.318327,None,None,None,,,,,,,,,,,5158.024901,5158.024901,None,,,5159.0929163,n,0.41505619999929877,5158.024901,5158.024901,5159.0929163,5161.318327,7,001,2024-06-10_11h22.12.892,robot_nback_sign,2022.2.5,60.11728883050265,
R,False,3,letter,2,False,False,robot_stimuli\\filler.mp4,7,,,,,,,,,0,152,152,152,,,,,,,,,,,,,5161.318327,5162.3770171999995,,,,,,,5164.4108584,5164.4108584,5164.4108584,5164.4108584,5164.4108584,5164.4108584,5164.4108584,5164.4108584,None,None,None,,,,,,,,,,,5161.318327,5161.318327,None,,,5162.3770171999995,n,0.490713599999026,5161.318327,5161.318327,5162.3770171999995,5164.4108584,7,001,2024-06-10_11h22.12.892,robot_nback_sign,2022.2.5,60.11728883050265,
J,False,3,letter,2,False,False,robot_stimuli\\filler.mp4,7,,,,,,,,,0,153,153,153,,,,,,,,,,,,,5164.4108584,5165.4784899999995,,,,,,,5167.5037248,5167.5037248,5167.5037248,5167.5037248,5167.5037248,5167.5037248,5167.5037248,5167.5037248,None,None,None,,,,,,,,,,,5164.4108584,5164.4108584,None,,,5165.4784899999995,n,0.581047799999169,5164.4108584,5164.4108584,5165.4784899999995,5167.5037248,7,001,2024-06-10_11h22.12.892,robot_nback_sign,2022.2.5,60.11728883050265,
F,True,3,letter,2,False,False,robot_stimuli\\filler.mp4,7,,,,,,,,,0,154,154,154,,,,,,,,,,,,,5167.5037248,5168.5605477,,,,,,,5170.793397699999,5170.793397699999,5170.793397699999,5170.793397699999,5170.793397699999,5170.793397699999,5170.793397699999,5170.793397699999,None,None,None,,,,,,,,,,,5167.5037248,5167.5037248,None,,,5168.5605477,n,1.395442900000262,5167.5037248,5167.5037248,5168.5605477,5170.793397699999,7,001,2024-06-10_11h22.12.892,robot_nback_sign,2022.2.5,60.11728883050265,
X,False,3,letter,2,False,False,robot_stimuli\\filler.mp4,7,,,,,,,,,0,155,155,155,,,,,,,,,,,,,5170.793397699999,,,,,,,,5174.0897698,5174.0897698,5174.0897698,5174.0897698,5174.0897698,5174.0897698,5174.0897698,5174.0897698,None,None,None,,,,,,,,,,,5170.793397699999,5170.793397699999,None,,,5171.863429999999,n,1.2275406999995084,5170.793397699999,5170.793397699999,5171.863429999999,5174.0897698,7,001,2024-06-10_11h22.12.892,robot_nback_sign,2022.2.5,60.11728883050265,
Z,False,3,letter,2,False,False,robot_stimuli\\filler.mp4,7,,,,,,,,,0,156,156,156,,,,,,,,,,,,,5174.0897698,5175.1427521,,,,,,,5177.3736601,5177.3736601,5177.3736601,5177.3736601,5177.3736601,5177.3736601,5177.3736601,5177.3736601,None,None,None,,,,,,,,,,,5174.0897698,5174.0897698,None,,,5175.1427521,n,0.7079251999991811,5174.0897698,5174.0897698,5175.1427521,5177.3736601,7,001,2024-06-10_11h22.12.892,robot_nback_sign,2022.2.5,60.11728883050265,
F,True,3,letter,2,False,False,robot_stimuli\\filler.mp4,7,,,,,,,,,0,157,157,157,,,,,,,,,,,,,5177.3736601,5178.430851499999,,,,,,,5180.6596549,5180.6596549,5180.6596549,5180.6596549,5180.6596549,5180.6596549,5180.6596549,5180.6596549,None,None,None,,,,,,,,,,,5177.3736601,5177.3736601,None,,,5178.430851499999,c,0.9724214000004849,5177.3736601,5177.3736601,5178.430851499999,5180.6596549,7,001,2024-06-10_11h22.12.892,robot_nback_sign,2022.2.5,60.11728883050265,
S,False,3,letter,2,False,False,robot_stimuli\\filler.mp4,7,,,,,,,,,0,158,158,158,,,,,,,,,,,,,5180.6596549,,,,,,,,5183.962474399999,5183.962474399999,5183.962474399999,5183.962474399999,5183.962474399999,5183.962474399999,5183.962474399999,5183.962474399999,None,None,None,,,,,,,,,,,5180.6596549,5180.6596549,None,,,5181.7292589,n,1.0343086999998832,5180.6596549,5180.6596549,5181.7292589,5183.962474399999,7,001,2024-06-10_11h22.12.892,robot_nback_sign,2022.2.5,60.11728883050265,
W,False,3,letter,2,False,False,robot_stimuli\\filler.mp4,7,,,,,,,,,0,159,159,159,,,,,,,,,,,,,5183.962474399999,5185.0299131,,,,,,,5187.2527621,5187.2527621,5187.2527621,5187.2527621,5187.2527621,5187.2527621,5187.2527621,5187.2527621,None,None,None,,,,,,,,,,,5183.962474399999,5183.962474399999,None,,,5185.0299131,n,1.3089683999994577,5183.962474399999,5183.962474399999,5185.0299131,5187.2527621,7,001,2024-06-10_11h22.12.892,robot_nback_sign,2022.2.5,60.11728883050265,
X,False,3,letter,2,False,False,robot_stimuli\\filler.mp4,7,,,,,,,,,0,160,160,160,,,,,,,,,,,,,5187.2527621,5188.313262,,,,,,,5190.5410986,5190.5410986,5190.5410986,5190.5410986,5190.5410986,5190.5410986,5190.5410986,5190.5410986,None,None,None,,,,,,,,,,,5187.2527621,5187.2527621,None,,,5188.313262,c,1.3145021999996516,5187.2527621,5187.2527621,5188.313262,5190.5410986,7,001,2024-06-10_11h22.12.892,robot_nback_sign,2022.2.5,60.11728883050265,
L,False,3,letter,2,False,False,robot_stimuli\\filler.mp4,7,,,,,,,,,0,161,161,161,,,,,,,,,,,,,5190.5410986,5191.5942342,,,,,,,5193.8280331999995,5193.8280331999995,5193.8280331999995,5193.8280331999995,5193.8280331999995,5193.8280331999995,5193.8280331999995,5193.8280331999995,None,None,None,,,,,,,,,,,5190.5410986,5190.5410986,None,,,5191.5942342,n,0.7536533999998483,5190.5410986,5190.5410986,5191.5942342,5193.8280331999995,7,001,2024-06-10_11h22.12.892,robot_nback_sign,2022.2.5,60.11728883050265,
W,True,3,letter,2,False,False,robot_stimuli\\filler.mp4,7,,,,,,,,,0,162,162,162,,,,,,,,,,,,,5193.8280331999995,5194.899818299999,,,,,,,5196.925186099999,5196.925186099999,5196.925186099999,5196.925186099999,5196.925186099999,5196.925186099999,5196.925186099999,5196.925186099999,None,None,None,,,,,,,,,,,5193.8280331999995,5193.8280331999995,None,,,5194.899818299999,n,1.1747675999993135,5193.8280331999995,5193.8280331999995,5194.899818299999,5196.925186099999,7,001,2024-06-10_11h22.12.892,robot_nback_sign,2022.2.5,60.11728883050265,
C,False,3,letter,2,False,False,robot_stimuli\\filler.mp4,7,,,,,,,,,0,163,163,163,,,,,,,,,,,,,5196.925186099999,,,,,,,,5200.223683,5200.223683,5200.223683,5200.223683,5200.223683,5200.223683,5200.223683,5200.223683,None,None,None,,,,,,,,,,,5196.925186099999,5196.925186099999,None,,,5197.9917146,n,1.4996545999990758,5196.925186099999,5196.925186099999,5197.9917146,5200.223683,7,001,2024-06-10_11h22.12.892,robot_nback_sign,2022.2.5,60.11728883050265,
L,True,3,letter,2,False,False,robot_stimuli\\filler.mp4,7,,,,,,,,,0,164,164,164,,,,,,,,,,,,,5200.223683,5201.2776426,,,,,,,5203.5121554,5203.5121554,5203.5121554,5203.5121554,5203.5121554,5203.5121554,5203.5121554,5203.5121554,None,None,None,,,,,,,,,,,5200.223683,5200.223683,None,,,5201.2776426,c,1.0050734999992983,5200.223683,5200.223683,5201.2776426,5203.5121554,7,001,2024-06-10_11h22.12.892,robot_nback_sign,2022.2.5,60.11728883050265,
P,False,3,letter,2,False,False,robot_stimuli\\filler.mp4,7,,,,,,,,,0,165,165,165,,,,,,,,,,,,,5203.5121554,5204.5771421,,,,,,,5206.613299199999,5206.613299199999,5206.613299199999,5206.613299199999,5206.613299199999,5206.613299199999,5206.613299199999,5206.613299199999,None,None,None,,,,,,,,,,,5203.5121554,5203.5121554,None,,,5204.5771421,n,0.6013915999990331,5203.5121554,5203.5121554,5204.5771421,5206.613299199999,7,001,2024-06-10_11h22.12.892,robot_nback_sign,2022.2.5,60.11728883050265,
W,False,3,letter,2,False,False,robot_stimuli\\filler.mp4,7,,,,,,,,,0,166,166,166,,,,,,,,,,,,,5206.613299199999,5207.6790155,,,,,,,5209.7084764,5209.7084764,5209.7084764,5209.7084764,5209.7084764,5209.7084764,5209.7084764,5209.7084764,None,None,None,,,,,,,,,,,5206.613299199999,5206.613299199999,None,,,5207.6790155,n,1.0772896999994828,5206.613299199999,5206.613299199999,5207.6790155,5209.7084764,7,001,2024-06-10_11h22.12.892,robot_nback_sign,2022.2.5,60.11728883050265,
J,False,3,letter,2,False,False,robot_stimuli\\filler.mp4,7,,,,,,,,,0,167,167,167,,,,,,,,,,,,,5209.7084764,,,,,,,,5213.0047187,5213.0047187,5213.0047187,5213.0047187,5213.0047187,5213.0047187,5213.0047187,5213.0047187,None,None,None,,,,,,,,,,,5209.7084764,5209.7084764,None,,,5210.7770307,n,1.8508042999990266,5209.7084764,5209.7084764,5210.7770307,5213.0047187,7,001,2024-06-10_11h22.12.892,robot_nback_sign,2022.2.5,60.11728883050265,
L,False,3,letter,2,False,False,robot_stimuli\\filler.mp4,7,,,,,,,,,0,168,168,168,,,,,,,,,,,,,5213.0047187,5214.0621549,,,,,,,5216.092360799999,5216.092360799999,5216.092360799999,5216.092360799999,5216.092360799999,5216.092360799999,5216.092360799999,5216.092360799999,None,None,None,,,,,,,,,,,5213.0047187,5213.0047187,None,,,5214.0621549,c,1.6612242999997306,5213.0047187,5213.0047187,5214.0621549,5216.092360799999,7,001,2024-06-10_11h22.12.892,robot_nback_sign,2022.2.5,60.11728883050265,
