sequence,is_target,condition,stimuli,block,is_block_beginning,is_block_ending,fname,subject,retraining.thisRepN,retraining.thisTrialN,retraining.thisN,retraining.thisIndex,training.thisRepN,training.thisTrialN,training.thisN,training.thisIndex,trials.thisRepN,trials.thisTrialN,trials.thisN,trials.thisIndex,langage_text.started,langage_key.started,langage_key.keys,langage_key.rt,intro_text.started,intro_key.started,intro_key.keys,intro_key.rt,training_robot_intro_text.started,training_robot_intro_key.started,training_robot_intro_key.keys,training_robot_intro_key.rt,cross.started,cross.stopped,training_letter.started,training_robot_key.started,training_robot_question.started,training_robot_keys.started,training_letter.stopped,training_robot_key.keys,RSME_labels.started,RSME_labels.stopped,RSME_ticks.started,RSME_ticks.stopped,RSME_text.started,RSME_text.stopped,RSME_key.started,RSME_key.stopped,RSME_ticks.response,RSME_ticks.rt,RSME_key.keys,training_robot_intro_text.stopped,training_robot_intro_key.stopped,training_robot_key.rt,RSME_key.rt,training_robot_movie.started,experiment_beginning_text.started,experiment_beginning_keys.started,experiment_beginning_key.started,experiment_beginning_key.keys,experiment_beginning_key.rt,block_intro_text.started,block_intro_key.started,block_intro_key.keys,block_intro_key.rt,movie.started,key.started,key.keys,block_intro_text.stopped,block_intro_key.stopped,key.rt,letter.started,letter.stopped,participant,session,date,expName,psychopyVersion,frameRate,
,,,,,,,,,,,,,,,,,,,,,25.09216729999997,25.09216729999997,e,1383.6857736,,,,,,,,,,,,,,,,,,,,,,,,,,,,,,,,,,,,,,,,,,,,,,,,,,1,001,2024-05-30_10h23.58.972,robot_nback_sign,2022.2.5,60.00056400528521,
,,,,,,,,,,,,,,,,,,,,,,,,,1408.8408239999999,1408.8408239999999,space,48.19273050000004,,,,,,,,,,,,,,,,,,,,,,,,,,,,,,,,,,,,,,,,,,,,,,1,001,2024-05-30_10h23.58.972,robot_nback_sign,2022.2.5,60.00056400528521,
N,False,1,letter,2,True,False,robot_stimuli\\filler.mp4,1,0,0,0,0,0,0,0,0,,,,,,,,,,,,,1457.0689894000002,1457.0689894000002,space,2.0772766999999703,1459.1715906999998,1460.6735964999998,1460.6735964999998,1460.6735964999998,1460.6735964999998,1460.6735964999998,1462.9036345,None,1462.9036345,1462.9036345,1462.9036345,1462.9036345,1462.9036345,1462.9036345,1462.9036345,1462.9036345,None,None,None,,,,,,,,,,,,,,,,,,,,,,,1,001,2024-05-30_10h23.58.972,robot_nback_sign,2022.2.5,60.00056400528521,
N,True,1,letter,2,False,False,robot_stimuli\\filler.mp4,1,0,0,0,0,0,1,1,1,,,,,,,,,,,,,1462.9036345,1462.9036345,None,,1462.9036345,1463.967972,1463.967972,1463.967972,1463.967972,1463.967972,1465.9989426000002,c,1465.9989426000002,1465.9989426000002,1465.9989426000002,1465.9989426000002,1465.9989426000002,1465.9989426000002,1465.9989426000002,1465.9989426000002,None,None,None,1462.9036345,1462.9036345,1.2664645000000974,,,,,,,,,,,,,,,,,,,,1,001,2024-05-30_10h23.58.972,robot_nback_sign,2022.2.5,60.00056400528521,
Z,False,1,letter,2,False,False,robot_stimuli\\filler.mp4,1,0,0,0,0,0,2,2,2,,,,,,,,,,,,,1465.9989426000002,1465.9989426000002,None,,1465.9989426000002,1467.0764097,1467.0764097,1467.0764097,1467.0764097,1467.0764097,1469.1119094,n,1469.1119094,1469.1119094,1469.1119094,1469.1119094,1469.1119094,1469.1119094,1469.1119094,1469.1119094,None,None,None,1465.9989426000002,1465.9989426000002,1.621788699999911,,,,,,,,,,,,,,,,,,,,1,001,2024-05-30_10h23.58.972,robot_nback_sign,2022.2.5,60.00056400528521,
Z,True,1,letter,2,False,False,robot_stimuli\\filler.mp4,1,0,0,0,0,0,3,3,3,,,,,,,,,,,,,1469.1119094,1469.1119094,None,,1469.1119094,1470.1901128999998,1470.1901128999998,1470.1901128999998,1470.1901128999998,1470.1901128999998,1472.4257533999998,c,1472.4257533999998,1472.4257533999998,1472.4257533999998,1472.4257533999998,1472.4257533999998,1472.4257533999998,1472.4257533999998,1472.4257533999998,None,None,None,1469.1119094,1469.1119094,0.8921157000000903,,,,,,,,,,,,,,,,,,,,1,001,2024-05-30_10h23.58.972,robot_nback_sign,2022.2.5,60.00056400528521,
X,False,1,letter,2,False,False,robot_stimuli\\filler.mp4,1,0,0,0,0,0,4,4,4,,,,,,,,,,,,,1472.4257533999998,1472.4257533999998,None,,1472.4257533999998,1473.5184939,1473.5184939,1473.5184939,1473.5184939,1473.5184939,1475.5520069,n,1475.5520069,1475.5520069,1475.5520069,1475.5520069,1475.5520069,1475.5520069,1475.5520069,1475.5520069,None,None,None,1472.4257533999998,1472.4257533999998,0.8837122999999565,,,,,,,,,,,,,,,,,,,,1,001,2024-05-30_10h23.58.972,robot_nback_sign,2022.2.5,60.00056400528521,
L,False,1,letter,2,False,True,robot_stimuli\\filler.mp4,1,0,0,0,0,0,5,5,5,,,,,,,,,,,,,1475.5520069,1475.5520069,None,,1475.5520069,1476.6227015,1476.6227015,1476.6227015,1476.6227015,1476.6227015,1478.9200056999998,n,1478.9200056999998,1489.6213149999999,1478.9200056999998,1489.6213149999999,1478.9200056999998,1489.6213149999999,1478.9200056999998,1489.6213149999999,16.882716049382715,6.4956443999999465,space,1475.5520069,1475.5520069,0.6752987999999505,10.6411746,,,,,,,,,,,,,,,,,,,1,001,2024-05-30_10h23.58.972,robot_nback_sign,2022.2.5,60.00056400528521,
N,False,2,letter,2,True,False,robot_stimuli\\filler.mp4,1,0,0,0,0,0,6,6,6,,,,,,,,,,,,,1489.6213149999999,1489.6213149999999,space,11.252274099999909,1500.9049865000002,1501.9750515,1501.9750515,1501.9750515,1501.9750515,1501.9750515,1504.2053215,None,1504.2053215,1504.2053215,1504.2053215,1504.2053215,1504.2053215,1504.2053215,1504.2053215,1504.2053215,None,None,None,,,,,,,,,,,,,,,,,,,,,,,1,001,2024-05-30_10h23.58.972,robot_nback_sign,2022.2.5,60.00056400528521,
X,False,2,letter,2,False,False,robot_stimuli\\filler.mp4,1,0,0,0,0,0,7,7,7,,,,,,,,,,,,,1504.2053215,1504.2053215,None,,1504.2053215,1505.2742959000002,1505.2742959000002,1505.2742959000002,1505.2742959000002,1505.2742959000002,1507.5071494,None,1507.5071494,1507.5071494,1507.5071494,1507.5071494,1507.5071494,1507.5071494,1507.5071494,1507.5071494,None,None,None,1504.2053215,1504.2053215,,,,,,,,,,,,,,,,,,,,,1,001,2024-05-30_10h23.58.972,robot_nback_sign,2022.2.5,60.00056400528521,
N,True,2,letter,2,False,False,robot_stimuli\\filler.mp4,1,0,0,0,0,0,8,8,8,,,,,,,,,,,,,1507.5071494,1507.5071494,None,,1507.5071494,,1508.5906091000002,1508.5906091000002,1508.5906091000002,1508.5906091000002,1510.8286830000002,c,1510.8286830000002,1510.8286830000002,1510.8286830000002,1510.8286830000002,1510.8286830000002,1510.8286830000002,1510.8286830000002,1510.8286830000002,None,None,None,1507.5071494,1507.5071494,0.6761569000001373,,,,,,,,,,,,,,,,,,,,1,001,2024-05-30_10h23.58.972,robot_nback_sign,2022.2.5,60.00056400528521,
X,True,2,letter,2,False,False,robot_stimuli\\filler.mp4,1,0,0,0,0,0,9,9,9,,,,,,,,,,,,,1510.8286830000002,1510.8286830000002,None,,1510.8286830000002,1511.9073322,1511.9073322,1511.9073322,1511.9073322,1511.9073322,1514.1404833000001,c,1514.1404833000001,1514.1404833000001,1514.1404833000001,1514.1404833000001,1514.1404833000001,1514.1404833000001,1514.1404833000001,1514.1404833000001,None,None,None,1510.8286830000002,1510.8286830000002,0.4779296000000386,,,,,,,,,,,,,,,,,,,,1,001,2024-05-30_10h23.58.972,robot_nback_sign,2022.2.5,60.00056400528521,
F,False,2,letter,2,False,False,robot_stimuli\\filler.mp4,1,0,0,0,0,0,10,10,10,,,,,,,,,,,,,1514.1404833000001,1514.1404833000001,None,,1514.1404833000001,,1515.2228673999998,1515.2228673999998,1515.2228673999998,1515.2228673999998,1517.4523764,n,1517.4523764,1517.4523764,1517.4523764,1517.4523764,1517.4523764,1517.4523764,1517.4523764,1517.4523764,None,None,None,1514.1404833000001,1514.1404833000001,0.7636479999999892,,,,,,,,,,,,,,,,,,,,1,001,2024-05-30_10h23.58.972,robot_nback_sign,2022.2.5,60.00056400528521,
S,False,2,letter,2,False,True,robot_stimuli\\filler.mp4,1,0,0,0,0,0,11,11,11,,,,,,,,,,,,,1517.4523764,1517.4523764,None,,1517.4523764,1518.5266234,1518.5266234,1518.5266234,1518.5266234,1518.5266234,1520.7856828999998,n,1520.7856828999998,1527.2602653,1520.7856828999998,1527.2602653,1520.7856828999998,1527.2602653,1520.7856828999998,1527.2602653,27.685185185185183,3.716227300000128,space,1517.4523764,1517.4523764,1.0997917999999345,6.423875300000077,,,,,,,,,,,,,,,,,,,1,001,2024-05-30_10h23.58.972,robot_nback_sign,2022.2.5,60.00056400528521,
S,False,3,letter,2,True,False,robot_stimuli\\filler.mp4,1,0,0,0,0,0,12,12,12,,,,,,,,,,,,,1527.2602653,1527.2602653,space,9.541741300000126,1536.8216504000002,1537.8946765,1537.8946765,1537.8946765,1537.8946765,1537.8946765,1540.1222655000001,None,1540.1222655000001,1540.1222655000001,1540.1222655000001,1540.1222655000001,1540.1222655000001,1540.1222655000001,1540.1222655000001,1540.1222655000001,None,None,None,,,,,,,,,,,,,,,,,,,,,,,1,001,2024-05-30_10h23.58.972,robot_nback_sign,2022.2.5,60.00056400528521,
R,False,3,letter,2,False,False,robot_stimuli\\filler.mp4,1,0,0,0,0,0,13,13,13,,,,,,,,,,,,,1540.1222655000001,1540.1222655000001,None,,1540.1222655000001,1541.1961133,1541.1961133,1541.1961133,1541.1961133,1541.1961133,1543.2335917999999,None,1543.2335917999999,1543.2335917999999,1543.2335917999999,1543.2335917999999,1543.2335917999999,1543.2335917999999,1543.2335917999999,1543.2335917999999,None,None,None,1540.1222655000001,1540.1222655000001,,,,,,,,,,,,,,,,,,,,,1,001,2024-05-30_10h23.58.972,robot_nback_sign,2022.2.5,60.00056400528521,
K,False,3,letter,2,False,False,robot_stimuli\\filler.mp4,1,0,0,0,0,0,14,14,14,,,,,,,,,,,,,1543.2335917999999,1543.2335917999999,None,,1543.2335917999999,1544.3059669999998,1544.3059669999998,1544.3059669999998,1544.3059669999998,1544.3059669999998,1546.3393201999997,None,1546.3393201999997,1546.3393201999997,1546.3393201999997,1546.3393201999997,1546.3393201999997,1546.3393201999997,1546.3393201999997,1546.3393201999997,None,None,None,1543.2335917999999,1543.2335917999999,,,,,,,,,,,,,,,,,,,,,1,001,2024-05-30_10h23.58.972,robot_nback_sign,2022.2.5,60.00056400528521,
S,True,3,letter,2,False,False,robot_stimuli\\filler.mp4,1,0,0,0,0,0,15,15,15,,,,,,,,,,,,,1546.3393201999997,1546.3393201999997,None,,1546.3393201999997,,1547.4175666,1547.4175666,1547.4175666,1547.4175666,1549.4515867,c,1549.4515867,1549.4515867,1549.4515867,1549.4515867,1549.4515867,1549.4515867,1549.4515867,1549.4515867,None,None,None,1546.3393201999997,1546.3393201999997,0.6880648000000065,,,,,,,,,,,,,,,,,,,,1,001,2024-05-30_10h23.58.972,robot_nback_sign,2022.2.5,60.00056400528521,
R,True,3,letter,2,False,False,robot_stimuli\\filler.mp4,1,0,0,0,0,0,16,16,16,,,,,,,,,,,,,1549.4515867,1549.4515867,None,,1549.4515867,1550.5230720999998,1550.5230720999998,1550.5230720999998,1550.5230720999998,1550.5230720999998,1552.7552242000002,c,1552.7552242000002,1552.7552242000002,1552.7552242000002,1552.7552242000002,1552.7552242000002,1552.7552242000002,1552.7552242000002,1552.7552242000002,None,None,None,1549.4515867,1549.4515867,0.7020008999999163,,,,,,,,,,,,,,,,,,,,1,001,2024-05-30_10h23.58.972,robot_nback_sign,2022.2.5,60.00056400528521,
W,False,3,letter,2,False,True,robot_stimuli\\filler.mp4,1,0,0,0,0,0,17,17,17,,,,,,,,,,,,,1552.7552242000002,1552.7552242000002,None,,1552.7552242000002,1553.8255536000001,1553.8255536000001,1553.8255536000001,1553.8255536000001,1553.8255536000001,1556.0830664,n,1556.0830664,1561.7346063,1556.0830664,1561.7346063,1556.0830664,1561.7346063,1556.0830664,1561.7346063,28.919753086419746,3.2183854999998402,space,1552.7552242000002,1552.7552242000002,0.799615099999869,5.58260000000007,,,,,,,,,,,,,,,,,,,1,001,2024-05-30_10h23.58.972,robot_nback_sign,2022.2.5,60.00056400528521,
R_Head_Z_Back,False,1,robot,1,True,False,robot_stimuli\R_Head_Z_Back.mp4,1,0,0,0,0,0,18,18,18,,,,,,,,,,,,,1561.7346063,1561.7346063,space,13.372363699999937,1575.138317,1576.2629160000001,,1576.2629160000001,1576.2629160000001,1576.2629160000001,,None,1579.9065783,1579.9065783,1579.9065783,1579.9065783,1579.9065783,1579.9065783,1579.9065783,1579.9065783,None,None,None,,,,,1576.2629160000001,,,,,,,,,,,,,,,,,,1,001,2024-05-30_10h23.58.972,robot_nback_sign,2022.2.5,60.00056400528521,
L_Base_X_For,False,1,robot,1,False,False,robot_stimuli\L_Base_X_For.mp4,1,0,0,0,0,0,19,19,19,,,,,,,,,,,,,1579.9065783,1579.9065783,None,,1579.9065783,,,1581.0215405,1581.0215405,1581.0215405,,None,1584.5985937,1584.5985937,1584.5985937,1584.5985937,1584.5985937,1584.5985937,1584.5985937,1584.5985937,None,None,None,1579.9065783,1579.9065783,,,1581.0215405,,,,,,,,,,,,,,,,,,1,001,2024-05-30_10h23.58.972,robot_nback_sign,2022.2.5,60.00056400528521,
L_Base_Z_Back,False,1,robot,1,False,False,robot_stimuli\L_Base_Z_Back.mp4,1,0,0,0,0,0,20,20,20,,,,,,,,,,,,,1584.5985937,1584.5985937,None,,1584.5985937,1585.7023851,,1585.7023851,1585.7023851,1585.7023851,,None,1589.3570791000002,1589.3570791000002,1589.3570791000002,1589.3570791000002,1589.3570791000002,1589.3570791000002,1589.3570791000002,1589.3570791000002,None,None,None,1584.5985937,1584.5985937,,,1585.7023851,,,,,,,,,,,,,,,,,,1,001,2024-05-30_10h23.58.972,robot_nback_sign,2022.2.5,60.00056400528521,
L_Base_Z_Back,True,1,robot,1,False,False,robot_stimuli\L_Base_Z_Back.mp4,1,0,0,0,0,0,21,21,21,,,,,,,,,,,,,1589.3570791000002,1589.3570791000002,None,,1589.3570791000002,,,1590.4629369,1590.4629369,1590.4629369,,c,1594.1005647000002,1594.1005647000002,1594.1005647000002,1594.1005647000002,1594.1005647000002,1594.1005647000002,1594.1005647000002,1594.1005647000002,None,None,None,1589.3570791000002,1589.3570791000002,2.489890799999671,,1590.4629369,,,,,,,,,,,,,,,,,,1,001,2024-05-30_10h23.58.972,robot_nback_sign,2022.2.5,60.00056400528521,
L_Base_Z_Back,True,1,robot,1,False,False,robot_stimuli\L_Base_Z_Back.mp4,1,0,0,0,0,0,22,22,22,,,,,,,,,,,,,1594.1005647000002,1594.1005647000002,None,,1594.1005647000002,1595.1971856999999,,1595.1971856999999,1595.1971856999999,1595.1971856999999,,c,1598.8403428000001,1598.8403428000001,1598.8403428000001,1598.8403428000001,1598.8403428000001,1598.8403428000001,1598.8403428000001,1598.8403428000001,None,None,None,1594.1005647000002,1594.1005647000002,2.6767783000001373,,1595.1971856999999,,,,,,,,,,,,,,,,,,1,001,2024-05-30_10h23.58.972,robot_nback_sign,2022.2.5,60.00056400528521,
L_Head_Y_Back,False,1,robot,1,False,True,robot_stimuli\L_Head_Y_Back.mp4,1,0,0,0,0,0,23,23,23,,,,,,,,,,,,,1598.8403428000001,1598.8403428000001,None,,1598.8403428000001,,,1599.9552168999999,1599.9552168999999,1599.9552168999999,,n,1603.6306396,1611.5569486,1603.6306396,1611.5569486,1603.6306396,1611.5569486,1603.6306396,1611.5569486,32.160493827160494,3.0823013999997784,space,1598.8403428000001,1598.8403428000001,2.431104099999743,7.874834400000168,1599.9552168999999,,,,,,,,,,,,,,,,,,1,001,2024-05-30_10h23.58.972,robot_nback_sign,2022.2.5,60.00056400528521,
R_Torso_X_For,False,2,robot,1,True,False,robot_stimuli\R_Torso_X_For.mp4,1,0,0,0,0,0,24,24,24,,,,,,,,,,,,,1611.5569486,1611.5569486,space,0.5161331999998993,1612.1050029000003,1613.2069989000001,,1613.2069989000001,1613.2069989000001,1613.2069989000001,,None,1616.8495485000003,1616.8495485000003,1616.8495485000003,1616.8495485000003,1616.8495485000003,1616.8495485000003,1616.8495485000003,1616.8495485000003,None,None,None,,,,,1613.2069989000001,,,,,,,,,,,,,,,,,,1,001,2024-05-30_10h23.58.972,robot_nback_sign,2022.2.5,60.00056400528521,
L_Torso_X_For,False,2,robot,1,False,False,robot_stimuli\L_Torso_X_For.mp4,1,0,0,0,0,0,25,25,25,,,,,,,,,,,,,1616.8495485000003,1616.8495485000003,None,,1616.8495485000003,1617.9492000999999,,1617.9492000999999,1617.9492000999999,1617.9492000999999,,None,1621.5838251999999,1621.5838251999999,1621.5838251999999,1621.5838251999999,1621.5838251999999,1621.5838251999999,1621.5838251999999,1621.5838251999999,None,None,None,1616.8495485000003,1616.8495485000003,,,1617.9492000999999,,,,,,,,,,,,,,,,,,1,001,2024-05-30_10h23.58.972,robot_nback_sign,2022.2.5,60.00056400528521,
R_Torso_X_For,True,2,robot,1,False,False,robot_stimuli\R_Torso_X_For.mp4,1,0,0,0,0,0,26,26,26,,,,,,,,,,,,,1621.5838251999999,1621.5838251999999,None,,1621.5838251999999,1622.6875345000003,,1622.6875345000003,1622.6875345000003,1622.6875345000003,,c,1626.3376935000001,1626.3376935000001,1626.3376935000001,1626.3376935000001,1626.3376935000001,1626.3376935000001,1626.3376935000001,1626.3376935000001,None,None,None,1621.5838251999999,1621.5838251999999,2.0986076000000367,,1622.6875345000003,,,,,,,,,,,,,,,,,,1,001,2024-05-30_10h23.58.972,robot_nback_sign,2022.2.5,60.00056400528521,
R_Base_Y_For,False,2,robot,1,False,False,robot_stimuli\R_Base_Y_For.mp4,1,0,0,0,0,0,27,27,27,,,,,,,,,,,,,1626.3376935000001,1626.3376935000001,None,,1626.3376935000001,1627.4218116000002,,1627.4218116000002,1627.4218116000002,1627.4218116000002,,n,1631.0665254,1631.0665254,1631.0665254,1631.0665254,1631.0665254,1631.0665254,1631.0665254,1631.0665254,None,None,None,1626.3376935000001,1626.3376935000001,1.9869782000001805,,1627.4218116000002,,,,,,,,,,,,,,,,,,1,001,2024-05-30_10h23.58.972,robot_nback_sign,2022.2.5,60.00056400528521,
L_Arm_Y_For,False,2,robot,1,False,False,robot_stimuli\L_Arm_Y_For.mp4,1,0,0,0,0,0,28,28,28,,,,,,,,,,,,,1631.0665254,1631.0665254,None,,1631.0665254,1632.1776522999999,,1632.1776522999999,1632.1776522999999,1632.1776522999999,,n,1635.8205461000002,1635.8205461000002,1635.8205461000002,1635.8205461000002,1635.8205461000002,1635.8205461000002,1635.8205461000002,1635.8205461000002,None,None,None,1631.0665254,1631.0665254,1.6007250999997495,,1632.1776522999999,,,,,,,,,,,,,,,,,,1,001,2024-05-30_10h23.58.972,robot_nback_sign,2022.2.5,60.00056400528521,
R_Base_Y_For,True,2,robot,1,False,True,robot_stimuli\R_Base_Y_For.mp4,1,0,0,0,0,0,29,29,29,,,,,,,,,,,,,1635.8205461000002,1635.8205461000002,None,,1635.8205461000002,1636.9150742000002,,1636.9150742000002,1636.9150742000002,1636.9150742000002,,c,1640.5887115,1647.3926974,1640.5887115,1647.3926974,1640.5887115,1647.3926974,1640.5887115,1647.3926974,40.648148148148145,4.294650100000126,space,1635.8205461000002,1635.8205461000002,2.2151558000001614,6.756953799999906,1636.9150742000002,,,,,,,,,,,,,,,,,,1,001,2024-05-30_10h23.58.972,robot_nback_sign,2022.2.5,60.00056400528521,
L_Head_X_Back,False,3,robot,1,True,False,robot_stimuli\L_Head_X_Back.mp4,1,0,0,0,0,0,30,30,30,,,,,,,,,,,,,1647.3926974,1647.3926974,space,1.3133527999999615,1648.7386161,1649.8396077000002,,1649.8396077000002,1649.8396077000002,1649.8396077000002,,None,1653.4896737,1653.4896737,1653.4896737,1653.4896737,1653.4896737,1653.4896737,1653.4896737,1653.4896737,None,None,None,,,,,1649.8396077000002,,,,,,,,,,,,,,,,,,1,001,2024-05-30_10h23.58.972,robot_nback_sign,2022.2.5,60.00056400528521,
R_Arm_Z_For,False,3,robot,1,False,False,robot_stimuli\R_Arm_Z_For.mp4,1,0,0,0,0,0,31,31,31,,,,,,,,,,,,,1653.4896737,1653.4896737,None,,1653.4896737,,,1654.6031501000002,1654.6031501000002,1654.6031501000002,,None,1658.2576039,1658.2576039,1658.2576039,1658.2576039,1658.2576039,1658.2576039,1658.2576039,1658.2576039,None,None,None,1653.4896737,1653.4896737,,,1654.6031501000002,,,,,,,,,,,,,,,,,,1,001,2024-05-30_10h23.58.972,robot_nback_sign,2022.2.5,60.00056400528521,
R_Torso_Z_Back,False,3,robot,1,False,False,robot_stimuli\R_Torso_Z_Back.mp4,1,0,0,0,0,0,32,32,32,,,,,,,,,,,,,1658.2576039,1658.2576039,None,,1658.2576039,,,1659.3669595000001,1659.3669595000001,1659.3669595000001,,None,1663.0057732999999,1663.0057732999999,1663.0057732999999,1663.0057732999999,1663.0057732999999,1663.0057732999999,1663.0057732999999,1663.0057732999999,None,None,None,1658.2576039,1658.2576039,,,1659.3669595000001,,,,,,,,,,,,,,,,,,1,001,2024-05-30_10h23.58.972,robot_nback_sign,2022.2.5,60.00056400528521,
L_Base_Z_For,False,3,robot,1,False,False,robot_stimuli\L_Base_Z_For.mp4,1,0,0,0,0,0,33,33,33,,,,,,,,,,,,,1663.0057732999999,1663.0057732999999,None,,1663.0057732999999,1664.0886409,,1664.0886409,1664.0886409,1664.0886409,,None,1667.7372602,1667.7372602,1667.7372602,1667.7372602,1667.7372602,1667.7372602,1667.7372602,1667.7372602,None,None,None,1663.0057732999999,1663.0057732999999,,,1664.0886409,,,,,,,,,,,,,,,,,,1,001,2024-05-30_10h23.58.972,robot_nback_sign,2022.2.5,60.00056400528521,
R_Arm_Z_For,True,3,robot,1,False,False,robot_stimuli\R_Arm_Z_For.mp4,1,0,0,0,0,0,34,34,34,,,,,,,,,,,,,1667.7372602,1667.7372602,None,,1667.7372602,1668.8170673,,1668.8170673,1668.8170673,1668.8170673,,n,1672.4675708,1672.4675708,1672.4675708,1672.4675708,1672.4675708,1672.4675708,1672.4675708,1672.4675708,None,None,None,1667.7372602,1667.7372602,3.2414519999998674,,1668.8170673,,,,,,,,,,,,,,,,,,1,001,2024-05-30_10h23.58.972,robot_nback_sign,2022.2.5,60.00056400528521,
R_Torso_Z_Back,True,3,robot,1,False,True,robot_stimuli\R_Torso_Z_Back.mp4,1,0,0,0,0,0,35,35,35,,,,,,,,,,,,,1672.4675708,1672.4675708,None,,1672.4675708,1673.5539239,,1673.5539239,1673.5539239,1673.5539239,,c,1677.2328009000003,1691.1511102,1677.2328009000003,1691.1511102,1677.2328009000003,1691.1511102,1677.2328009000003,1691.1511102,44.96913580246914,12.387890599999992,space,1672.4675708,1672.4675708,2.5525499999999965,13.86461440000005,1673.5539239,,,,,,,,,,,,,,,,,,1,001,2024-05-30_10h23.58.972,robot_nback_sign,2022.2.5,60.00056400528521,
,,,,,,,,,0,0,0,0,,,,,,,,,,,,,,,,,,,,,,,,,,,,,,,,,,,,,,,,,,,,,1691.1511102,1691.1511102,1691.1511102,c,4.914559599999961,,,,,,,,,,,,,1,001,2024-05-30_10h23.58.972,robot_nback_sign,2022.2.5,60.00056400528521,
L_Torso_X_Back,False,2,robot,1,True,False,robot_stimuli\L_Torso_X_Back.mp4,1,,,,,,,,,0,0,0,0,,,,,,,,,,,,,1702.6386868,1703.7210236,,,,,,,1707.3705427,1707.3705427,1707.3705427,1707.3705427,1707.3705427,1707.3705427,1707.3705427,1707.3705427,None,None,None,,,,,,,,,,,1696.1264865000003,1696.1264865000003,space,6.491761699999756,1703.7210236,1703.7210236,None,,,,,,1,001,2024-05-30_10h23.58.972,robot_nback_sign,2022.2.5,60.00056400528521,
R_Head_Z_For,False,2,robot,1,False,False,robot_stimuli\R_Head_Z_For.mp4,1,,,,,,,,,0,1,1,1,,,,,,,,,,,,,1707.3705427,1708.4563005,,,,,,,1712.1033041,1712.1033041,1712.1033041,1712.1033041,1712.1033041,1712.1033041,1712.1033041,1712.1033041,None,None,None,,,,,,,,,,,1707.3705427,1707.3705427,None,,1708.4563005,1708.4563005,n,1707.3705427,1707.3705427,0.2727273999995532,,,1,001,2024-05-30_10h23.58.972,robot_nback_sign,2022.2.5,60.00056400528521,
L_Arm_Y_For,False,2,robot,1,False,False,robot_stimuli\L_Arm_Y_For.mp4,1,,,,,,,,,0,2,2,2,,,,,,,,,,,,,1712.1033041,1713.1835378,,,,,,,1716.8396902,1716.8396902,1716.8396902,1716.8396902,1716.8396902,1716.8396902,1716.8396902,1716.8396902,None,None,None,,,,,,,,,,,1712.1033041,1712.1033041,None,,1713.1835378,1713.1835378,n,1712.1033041,1712.1033041,0.8350162999996655,,,1,001,2024-05-30_10h23.58.972,robot_nback_sign,2022.2.5,60.00056400528521,
L_Head_Y_For,False,2,robot,1,False,False,robot_stimuli\L_Head_Y_For.mp4,1,,,,,,,,,0,3,3,3,,,,,,,,,,,,,1716.8396902,,,,,,,,1721.5894709,1721.5894709,1721.5894709,1721.5894709,1721.5894709,1721.5894709,1721.5894709,1721.5894709,None,None,None,,,,,,,,,,,1716.8396902,1716.8396902,None,,1717.9475922000001,1717.9475922000001,n,1716.8396902,1716.8396902,1.590012799999954,,,1,001,2024-05-30_10h23.58.972,robot_nback_sign,2022.2.5,60.00056400528521,
L_Head_Y_Back,False,2,robot,1,False,False,robot_stimuli\L_Head_Y_Back.mp4,1,,,,,,,,,0,4,4,4,,,,,,,,,,,,,1721.5894709,,,,,,,,1726.3304997,1726.3304997,1726.3304997,1726.3304997,1726.3304997,1726.3304997,1726.3304997,1726.3304997,None,None,None,,,,,,,,,,,1721.5894709,1721.5894709,None,,1722.6992138,1722.6992138,n,1721.5894709,1721.5894709,1.7421996999997873,,,1,001,2024-05-30_10h23.58.972,robot_nback_sign,2022.2.5,60.00056400528521,
R_Arm_Y_For,False,2,robot,1,False,False,robot_stimuli\R_Arm_Y_For.mp4,1,,,,,,,,,0,5,5,5,,,,,,,,,,,,,1726.3304997,1727.4170199,,,,,,,1731.0143778000001,1731.0143778000001,1731.0143778000001,1731.0143778000001,1731.0143778000001,1731.0143778000001,1731.0143778000001,1731.0143778000001,None,None,None,,,,,,,,,,,1726.3304997,1726.3304997,None,,1727.4170199,1727.4170199,n,1726.3304997,1726.3304997,1.472846499999946,,,1,001,2024-05-30_10h23.58.972,robot_nback_sign,2022.2.5,60.00056400528521,
L_Base_Z_For,False,2,robot,1,False,False,robot_stimuli\L_Base_Z_For.mp4,1,,,,,,,,,0,6,6,6,,,,,,,,,,,,,1731.0143778000001,1732.1014389000002,,,,,,,1735.7550062,1735.7550062,1735.7550062,1735.7550062,1735.7550062,1735.7550062,1735.7550062,1735.7550062,None,None,None,,,,,,,,,,,1731.0143778000001,1731.0143778000001,None,,1732.1014389000002,1732.1014389000002,n,1731.0143778000001,1731.0143778000001,1.4762001999998802,,,1,001,2024-05-30_10h23.58.972,robot_nback_sign,2022.2.5,60.00056400528521,
R_Torso_Z_For,False,2,robot,1,False,False,robot_stimuli\R_Torso_Z_For.mp4,1,,,,,,,,,0,7,7,7,,,,,,,,,,,,,1735.7550062,1736.8392453000001,,,,,,,1740.4809073000001,1740.4809073000001,1740.4809073000001,1740.4809073000001,1740.4809073000001,1740.4809073000001,1740.4809073000001,1740.4809073000001,None,None,None,,,,,,,,,,,1735.7550062,1735.7550062,None,,1736.8392453000001,1736.8392453000001,c,1735.7550062,1735.7550062,2.9541673999998466,,,1,001,2024-05-30_10h23.58.972,robot_nback_sign,2022.2.5,60.00056400528521,
R_Arm_X_For,False,2,robot,1,False,False,robot_stimuli\R_Arm_X_For.mp4,1,,,,,,,,,0,8,8,8,,,,,,,,,,,,,1740.4809073000001,1741.5712781000002,,,,,,,1745.2225162,1745.2225162,1745.2225162,1745.2225162,1745.2225162,1745.2225162,1745.2225162,1745.2225162,None,None,None,,,,,,,,,,,1740.4809073000001,1740.4809073000001,None,,1741.5712781000002,1741.5712781000002,c,1740.4809073000001,1740.4809073000001,2.693761799999834,,,1,001,2024-05-30_10h23.58.972,robot_nback_sign,2022.2.5,60.00056400528521,
L_Head_X_For,False,2,robot,1,False,False,robot_stimuli\L_Head_X_For.mp4,1,,,,,,,,,0,9,9,9,,,,,,,,,,,,,1745.2225162,1746.3065015000002,,,,,,,1749.9837186,1749.9837186,1749.9837186,1749.9837186,1749.9837186,1749.9837186,1749.9837186,1749.9837186,None,None,None,,,,,,,,,,,1745.2225162,1745.2225162,None,,1746.3065015000002,1746.3065015000002,c,1745.2225162,1745.2225162,2.463298400000099,,,1,001,2024-05-30_10h23.58.972,robot_nback_sign,2022.2.5,60.00056400528521,
L_Arm_X_For,False,2,robot,1,False,False,robot_stimuli\L_Arm_X_For.mp4,1,,,,,,,,,0,10,10,10,,,,,,,,,,,,,1749.9837186,1751.0731100000003,,,,,,,1754.7136835000001,1754.7136835000001,1754.7136835000001,1754.7136835000001,1754.7136835000001,1754.7136835000001,1754.7136835000001,1754.7136835000001,None,None,None,,,,,,,,,,,1749.9837186,1749.9837186,None,,1751.0731100000003,1751.0731100000003,None,1749.9837186,1749.9837186,,,,1,001,2024-05-30_10h23.58.972,robot_nback_sign,2022.2.5,60.00056400528521,
L_Head_X_For,True,2,robot,1,False,False,robot_stimuli\L_Head_X_For.mp4,1,,,,,,,,,0,11,11,11,,,,,,,,,,,,,1754.7136835000001,1755.8014440000002,,,,,,,1759.4869571,1759.4869571,1759.4869571,1759.4869571,1759.4869571,1759.4869571,1759.4869571,1759.4869571,None,None,None,,,,,,,,,,,1754.7136835000001,1754.7136835000001,None,,1755.8014440000002,1755.8014440000002,None,1754.7136835000001,1754.7136835000001,,,,1,001,2024-05-30_10h23.58.972,robot_nback_sign,2022.2.5,60.00056400528521,
R_Head_X_Back,False,2,robot,1,False,False,robot_stimuli\R_Head_X_Back.mp4,1,,,,,,,,,0,12,12,12,,,,,,,,,,,,,1759.4869571,1760.56804,,,,,,,1764.2215194,1764.2215194,1764.2215194,1764.2215194,1764.2215194,1764.2215194,1764.2215194,1764.2215194,None,None,None,,,,,,,,,,,1759.4869571,1759.4869571,None,,1760.56804,1760.56804,None,1759.4869571,1759.4869571,,,,1,001,2024-05-30_10h23.58.972,robot_nback_sign,2022.2.5,60.00056400528521,
R_Head_Z_For,False,2,robot,1,False,False,robot_stimuli\R_Head_Z_For.mp4,1,,,,,,,,,0,13,13,13,,,,,,,,,,,,,1764.2215194,1765.3013028999999,,,,,,,1768.9531939000003,1768.9531939000003,1768.9531939000003,1768.9531939000003,1768.9531939000003,1768.9531939000003,1768.9531939000003,1768.9531939000003,None,None,None,,,,,,,,,,,1764.2215194,1764.2215194,None,,1765.3013028999999,1765.3013028999999,n,1764.2215194,1764.2215194,1.0054762999999411,,,1,001,2024-05-30_10h23.58.972,robot_nback_sign,2022.2.5,60.00056400528521,
R_Arm_Z_For,False,2,robot,1,False,False,robot_stimuli\R_Arm_Z_For.mp4,1,,,,,,,,,0,14,14,14,,,,,,,,,,,,,1768.9531939000003,1770.0323403000002,,,,,,,1773.6735541000003,1773.6735541000003,1773.6735541000003,1773.6735541000003,1773.6735541000003,1773.6735541000003,1773.6735541000003,1773.6735541000003,None,None,None,,,,,,,,,,,1768.9531939000003,1768.9531939000003,None,,1770.0323403000002,1770.0323403000002,None,1768.9531939000003,1768.9531939000003,,,,1,001,2024-05-30_10h23.58.972,robot_nback_sign,2022.2.5,60.00056400528521,
R_Head_Z_For,True,2,robot,1,False,False,robot_stimuli\R_Head_Z_For.mp4,1,,,,,,,,,0,15,15,15,,,,,,,,,,,,,1773.6735541000003,,,,,,,,1778.4062315,1778.4062315,1778.4062315,1778.4062315,1778.4062315,1778.4062315,1778.4062315,1778.4062315,None,None,None,,,,,,,,,,,1773.6735541000003,1773.6735541000003,None,,1774.7654326000002,1774.7654326000002,c,1773.6735541000003,1773.6735541000003,2.6530726999995977,,,1,001,2024-05-30_10h23.58.972,robot_nback_sign,2022.2.5,60.00056400528521,
R_Head_Z_For,False,2,robot,1,False,False,robot_stimuli\R_Head_Z_For.mp4,1,,,,,,,,,0,16,16,16,,,,,,,,,,,,,1778.4062315,,,,,,,,1783.1363512000003,1783.1363512000003,1783.1363512000003,1783.1363512000003,1783.1363512000003,1783.1363512000003,1783.1363512000003,1783.1363512000003,None,None,None,,,,,,,,,,,1778.4062315,1778.4062315,None,,1779.4961397000002,1779.4961397000002,c,1778.4062315,1778.4062315,2.4659443999995574,,,1,001,2024-05-30_10h23.58.972,robot_nback_sign,2022.2.5,60.00056400528521,
L_Torso_Z_Back,False,2,robot,1,False,False,robot_stimuli\L_Torso_Z_Back.mp4,1,,,,,,,,,0,17,17,17,,,,,,,,,,,,,1783.1363512000003,1784.2215176,,,,,,,1787.8726763,1787.8726763,1787.8726763,1787.8726763,1787.8726763,1787.8726763,1787.8726763,1787.8726763,None,None,None,,,,,,,,,,,1783.1363512000003,1783.1363512000003,None,,1784.2215176,1784.2215176,n,1783.1363512000003,1783.1363512000003,2.2033259999999473,,,1,001,2024-05-30_10h23.58.972,robot_nback_sign,2022.2.5,60.00056400528521,
L_Arm_X_For,False,2,robot,1,False,False,robot_stimuli\L_Arm_X_For.mp4,1,,,,,,,,,0,18,18,18,,,,,,,,,,,,,1787.8726763,1788.9502959000001,,,,,,,1792.5811767999999,1792.5811767999999,1792.5811767999999,1792.5811767999999,1792.5811767999999,1792.5811767999999,1792.5811767999999,1792.5811767999999,None,None,None,,,,,,,,,,,1787.8726763,1787.8726763,None,,1788.9502959000001,1788.9502959000001,n,1787.8726763,1787.8726763,2.794566299999701,,,1,001,2024-05-30_10h23.58.972,robot_nback_sign,2022.2.5,60.00056400528521,
L_Torso_Z_Back,True,2,robot,1,False,False,robot_stimuli\L_Torso_Z_Back.mp4,1,,,,,,,,,0,19,19,19,,,,,,,,,,,,,1792.5811767999999,1793.6720636,,,,,,,1797.3234689,1797.3234689,1797.3234689,1797.3234689,1797.3234689,1797.3234689,1797.3234689,1797.3234689,None,None,None,,,,,,,,,,,1792.5811767999999,1792.5811767999999,None,,1793.6720636,1793.6720636,c,1792.5811767999999,1792.5811767999999,2.346788500000116,,,1,001,2024-05-30_10h23.58.972,robot_nback_sign,2022.2.5,60.00056400528521,
L_Arm_X_For,True,2,robot,1,False,False,robot_stimuli\L_Arm_X_For.mp4,1,,,,,,,,,0,20,20,20,,,,,,,,,,,,,1797.3234689,,,,,,,,1802.0670741,1802.0670741,1802.0670741,1802.0670741,1802.0670741,1802.0670741,1802.0670741,1802.0670741,None,None,None,,,,,,,,,,,1797.3234689,1797.3234689,None,,1798.4162285000002,1798.4162285000002,c,1797.3234689,1797.3234689,2.5370229000001245,,,1,001,2024-05-30_10h23.58.972,robot_nback_sign,2022.2.5,60.00056400528521,
R_Torso_X_Back,False,2,robot,1,False,False,robot_stimuli\R_Torso_X_Back.mp4,1,,,,,,,,,0,21,21,21,,,,,,,,,,,,,1802.0670741,1803.1522374,,,,,,,1806.8038638000003,1806.8038638000003,1806.8038638000003,1806.8038638000003,1806.8038638000003,1806.8038638000003,1806.8038638000003,1806.8038638000003,None,None,None,,,,,,,,,,,1802.0670741,1802.0670741,None,,1803.1522374,1803.1522374,n,1802.0670741,1802.0670741,2.9301152000003867,,,1,001,2024-05-30_10h23.58.972,robot_nback_sign,2022.2.5,60.00056400528521,
L_Base_X_For,False,2,robot,1,False,False,robot_stimuli\L_Base_X_For.mp4,1,,,,,,,,,0,22,22,22,,,,,,,,,,,,,1806.8038638000003,1807.8827188999999,,,,,,,1811.4522661,1811.4522661,1811.4522661,1811.4522661,1811.4522661,1811.4522661,1811.4522661,1811.4522661,None,None,None,,,,,,,,,,,1806.8038638000003,1806.8038638000003,None,,1807.8827188999999,1807.8827188999999,n,1806.8038638000003,1806.8038638000003,1.8868760999995402,,,1,001,2024-05-30_10h23.58.972,robot_nback_sign,2022.2.5,60.00056400528521,
L_Arm_Z_Back,False,2,robot,1,False,False,robot_stimuli\L_Arm_Z_Back.mp4,1,,,,,,,,,0,23,23,23,,,,,,,,,,,,,1811.4522661,1812.5534652000001,,,,,,,1816.2041711000002,1816.2041711000002,1816.2041711000002,1816.2041711000002,1816.2041711000002,1816.2041711000002,1816.2041711000002,1816.2041711000002,None,None,None,,,,,,,,,,,1811.4522661,1811.4522661,None,,1812.5534652000001,1812.5534652000001,n,1811.4522661,1811.4522661,1.919583400000306,,,1,001,2024-05-30_10h23.58.972,robot_nback_sign,2022.2.5,60.00056400528521,
R_Torso_Y_For,False,2,robot,1,False,False,robot_stimuli\R_Torso_Y_For.mp4,1,,,,,,,,,0,24,24,24,,,,,,,,,,,,,1816.2041711000002,1817.2850922000002,,,,,,,1820.9349465,1820.9349465,1820.9349465,1820.9349465,1820.9349465,1820.9349465,1820.9349465,1820.9349465,None,None,None,,,,,,,,,,,1816.2041711000002,1816.2041711000002,None,,1817.2850922000002,1817.2850922000002,n,1816.2041711000002,1816.2041711000002,2.7255902000002834,,,1,001,2024-05-30_10h23.58.972,robot_nback_sign,2022.2.5,60.00056400528521,
L_Arm_Z_Back,True,2,robot,1,False,False,robot_stimuli\L_Arm_Z_Back.mp4,1,,,,,,,,,0,25,25,25,,,,,,,,,,,,,1820.9349465,1822.0184291,,,,,,,1825.6725455,1825.6725455,1825.6725455,1825.6725455,1825.6725455,1825.6725455,1825.6725455,1825.6725455,None,None,None,,,,,,,,,,,1820.9349465,1820.9349465,None,,1822.0184291,1822.0184291,c,1820.9349465,1820.9349465,2.983599899999831,,,1,001,2024-05-30_10h23.58.972,robot_nback_sign,2022.2.5,60.00056400528521,
R_Base_Y_For,False,2,robot,1,False,False,robot_stimuli\R_Base_Y_For.mp4,1,,,,,,,,,0,26,26,26,,,,,,,,,,,,,1825.6725455,1826.7647696,,,,,,,1830.4046384000003,1830.4046384000003,1830.4046384000003,1830.4046384000003,1830.4046384000003,1830.4046384000003,1830.4046384000003,1830.4046384000003,None,None,None,,,,,,,,,,,1825.6725455,1825.6725455,None,,1826.7647696,1826.7647696,c,1825.6725455,1825.6725455,2.356222499999717,,,1,001,2024-05-30_10h23.58.972,robot_nback_sign,2022.2.5,60.00056400528521,
R_Head_X_Back,False,2,robot,1,False,False,robot_stimuli\R_Head_X_Back.mp4,1,,,,,,,,,0,27,27,27,,,,,,,,,,,,,1830.4046384000003,1831.4835421000002,,,,,,,1835.1372128000003,1835.1372128000003,1835.1372128000003,1835.1372128000003,1835.1372128000003,1835.1372128000003,1835.1372128000003,1835.1372128000003,None,None,None,,,,,,,,,,,1830.4046384000003,1830.4046384000003,None,,1831.4835421000002,1831.4835421000002,n,1830.4046384000003,1830.4046384000003,3.3107819999996764,,,1,001,2024-05-30_10h23.58.972,robot_nback_sign,2022.2.5,60.00056400528521,
R_Torso_Y_For,False,2,robot,1,False,False,robot_stimuli\R_Torso_Y_For.mp4,1,,,,,,,,,0,28,28,28,,,,,,,,,,,,,1835.1372128000003,1836.2179180000003,,,,,,,1839.8687304,1839.8687304,1839.8687304,1839.8687304,1839.8687304,1839.8687304,1839.8687304,1839.8687304,None,None,None,,,,,,,,,,,1835.1372128000003,1835.1372128000003,None,,1836.2179180000003,1836.2179180000003,c,1835.1372128000003,1835.1372128000003,3.4719605999999885,,,1,001,2024-05-30_10h23.58.972,robot_nback_sign,2022.2.5,60.00056400528521,
R_Head_X_Back,True,2,robot,1,False,False,robot_stimuli\R_Head_X_Back.mp4,1,,,,,,,,,0,29,29,29,,,,,,,,,,,,,1839.8687304,1840.9524653000003,,,,,,,1844.6055839,1844.6055839,1844.6055839,1844.6055839,1844.6055839,1844.6055839,1844.6055839,1844.6055839,None,None,None,,,,,,,,,,,1839.8687304,1839.8687304,None,,1840.9524653000003,1840.9524653000003,c,1839.8687304,1839.8687304,2.946344300000078,,,1,001,2024-05-30_10h23.58.972,robot_nback_sign,2022.2.5,60.00056400528521,
L_Head_Z_Back,False,2,robot,1,False,False,robot_stimuli\L_Head_Z_Back.mp4,1,,,,,,,,,0,30,30,30,,,,,,,,,,,,,1844.6055839,1845.6979578,,,,,,,1849.3400903000002,1849.3400903000002,1849.3400903000002,1849.3400903000002,1849.3400903000002,1849.3400903000002,1849.3400903000002,1849.3400903000002,None,None,None,,,,,,,,,,,1844.6055839,1844.6055839,None,,1845.6979578,1845.6979578,None,1844.6055839,1844.6055839,,,,1,001,2024-05-30_10h23.58.972,robot_nback_sign,2022.2.5,60.00056400528521,
L_Base_X_Back,False,2,robot,1,False,False,robot_stimuli\L_Base_X_Back.mp4,1,,,,,,,,,0,31,31,31,,,,,,,,,,,,,1849.3400903000002,,,,,,,,1854.0866106000003,1854.0866106000003,1854.0866106000003,1854.0866106000003,1854.0866106000003,1854.0866106000003,1854.0866106000003,1854.0866106000003,None,None,None,,,,,,,,,,,1849.3400903000002,1849.3400903000002,None,,1850.4381432,1850.4381432,n,1849.3400903000002,1849.3400903000002,0.43641420000005837,,,1,001,2024-05-30_10h23.58.972,robot_nback_sign,2022.2.5,60.00056400528521,
L_Head_Y_For,False,2,robot,1,False,False,robot_stimuli\L_Head_Y_For.mp4,1,,,,,,,,,0,32,32,32,,,,,,,,,,,,,1854.0866106000003,1855.1662319000002,,,,,,,1858.8065344000001,1858.8065344000001,1858.8065344000001,1858.8065344000001,1858.8065344000001,1858.8065344000001,1858.8065344000001,1858.8065344000001,None,None,None,,,,,,,,,,,1854.0866106000003,1854.0866106000003,None,,1855.1662319000002,1855.1662319000002,c,1854.0866106000003,1854.0866106000003,2.8198086000003286,,,1,001,2024-05-30_10h23.58.972,robot_nback_sign,2022.2.5,60.00056400528521,
L_Torso_Z_For,False,2,robot,1,False,False,robot_stimuli\L_Torso_Z_For.mp4,1,,,,,,,,,0,33,33,33,,,,,,,,,,,,,1858.8065344000001,,,,,,,,1863.5469663,1863.5469663,1863.5469663,1863.5469663,1863.5469663,1863.5469663,1863.5469663,1863.5469663,None,None,None,,,,,,,,,,,1858.8065344000001,1858.8065344000001,None,,1859.9053359,1859.9053359,n,1858.8065344000001,1858.8065344000001,2.144379799999683,,,1,001,2024-05-30_10h23.58.972,robot_nback_sign,2022.2.5,60.00056400528521,
L_Arm_X_Back,False,2,robot,1,False,False,robot_stimuli\L_Arm_X_Back.mp4,1,,,,,,,,,0,34,34,34,,,,,,,,,,,,,1863.5469663,1864.6344156,,,,,,,1868.286344,1868.286344,1868.286344,1868.286344,1868.286344,1868.286344,1868.286344,1868.286344,None,None,None,,,,,,,,,,,1863.5469663,1863.5469663,None,,1864.6344156,1864.6344156,n,1863.5469663,1863.5469663,2.031856199999879,,,1,001,2024-05-30_10h23.58.972,robot_nback_sign,2022.2.5,60.00056400528521,
L_Base_Y_For,False,2,robot,1,False,False,robot_stimuli\L_Base_Y_For.mp4,1,,,,,,,,,0,35,35,35,,,,,,,,,,,,,1868.286344,1869.3655564,,,,,,,1873.0060204000001,1873.0060204000001,1873.0060204000001,1873.0060204000001,1873.0060204000001,1873.0060204000001,1873.0060204000001,1873.0060204000001,None,None,None,,,,,,,,,,,1868.286344,1868.286344,None,,1869.3655564,1869.3655564,n,1868.286344,1868.286344,2.612322500000232,,,1,001,2024-05-30_10h23.58.972,robot_nback_sign,2022.2.5,60.00056400528521,
L_Base_X_Back,False,2,robot,1,False,False,robot_stimuli\L_Base_X_Back.mp4,1,,,,,,,,,0,36,36,36,,,,,,,,,,,,,1873.0060204000001,1874.0818973,,,,,,,1877.7232393,1877.7232393,1877.7232393,1877.7232393,1877.7232393,1877.7232393,1877.7232393,1877.7232393,None,None,None,,,,,,,,,,,1873.0060204000001,1873.0060204000001,None,,1874.0818973,1874.0818973,n,1873.0060204000001,1873.0060204000001,2.888140099999987,,,1,001,2024-05-30_10h23.58.972,robot_nback_sign,2022.2.5,60.00056400528521,
R_Head_X_Back,False,2,robot,1,False,False,robot_stimuli\R_Head_X_Back.mp4,1,,,,,,,,,0,37,37,37,,,,,,,,,,,,,1877.7232393,,,,,,,,1882.4684825,1882.4684825,1882.4684825,1882.4684825,1882.4684825,1882.4684825,1882.4684825,1882.4684825,None,None,None,,,,,,,,,,,1877.7232393,1877.7232393,None,,1878.8173659,1878.8173659,n,1877.7232393,1877.7232393,1.7922458000003871,,,1,001,2024-05-30_10h23.58.972,robot_nback_sign,2022.2.5,60.00056400528521,
L_Base_X_Back,True,2,robot,1,False,False,robot_stimuli\L_Base_X_Back.mp4,1,,,,,,,,,0,38,38,38,,,,,,,,,,,,,1882.4684825,1883.5492168,,,,,,,1887.1891512000002,1887.1891512000002,1887.1891512000002,1887.1891512000002,1887.1891512000002,1887.1891512000002,1887.1891512000002,1887.1891512000002,None,None,None,,,,,,,,,,,1882.4684825,1882.4684825,None,,1883.5492168,1883.5492168,c,1882.4684825,1882.4684825,2.220975399999702,,,1,001,2024-05-30_10h23.58.972,robot_nback_sign,2022.2.5,60.00056400528521,
R_Arm_Z_Back,False,2,robot,1,False,False,robot_stimuli\R_Arm_Z_Back.mp4,1,,,,,,,,,0,39,39,39,,,,,,,,,,,,,1887.1891512000002,1888.2720706,,,,,,,1891.9144442000002,1891.9144442000002,1891.9144442000002,1891.9144442000002,1891.9144442000002,1891.9144442000002,1891.9144442000002,1891.9144442000002,None,None,None,,,,,,,,,,,1887.1891512000002,1887.1891512000002,None,,1888.2720706,1888.2720706,None,1887.1891512000002,1887.1891512000002,,,,1,001,2024-05-30_10h23.58.972,robot_nback_sign,2022.2.5,60.00056400528521,
R_Head_Y_For,False,2,robot,1,False,False,robot_stimuli\R_Head_Y_For.mp4,1,,,,,,,,,0,40,40,40,,,,,,,,,,,,,1891.9144442000002,1893.0058174,,,,,,,1896.6460527,1896.6460527,1896.6460527,1896.6460527,1896.6460527,1896.6460527,1896.6460527,1896.6460527,None,None,None,,,,,,,,,,,1891.9144442000002,1891.9144442000002,None,,1893.0058174,1893.0058174,None,1891.9144442000002,1891.9144442000002,,,,1,001,2024-05-30_10h23.58.972,robot_nback_sign,2022.2.5,60.00056400528521,
R_Arm_Z_Back,True,2,robot,1,False,False,robot_stimuli\R_Arm_Z_Back.mp4,1,,,,,,,,,0,41,41,41,,,,,,,,,,,,,1896.6460527,1897.7347222000003,,,,,,,1901.3840114,1901.3840114,1901.3840114,1901.3840114,1901.3840114,1901.3840114,1901.3840114,1901.3840114,None,None,None,,,,,,,,,,,1896.6460527,1896.6460527,None,,1897.7347222000003,1897.7347222000003,c,1896.6460527,1896.6460527,2.179187300000308,,,1,001,2024-05-30_10h23.58.972,robot_nback_sign,2022.2.5,60.00056400528521,
R_Arm_Y_For,False,2,robot,1,False,False,robot_stimuli\R_Arm_Y_For.mp4,1,,,,,,,,,0,42,42,42,,,,,,,,,,,,,1901.3840114,1902.4667153,,,,,,,1906.072791,1906.072791,1906.072791,1906.072791,1906.072791,1906.072791,1906.072791,1906.072791,None,None,None,,,,,,,,,,,1901.3840114,1901.3840114,None,,1902.4667153,1902.4667153,None,1901.3840114,1901.3840114,,,,1,001,2024-05-30_10h23.58.972,robot_nback_sign,2022.2.5,60.00056400528521,
L_Head_Y_For,False,2,robot,1,False,False,robot_stimuli\L_Head_Y_For.mp4,1,,,,,,,,,0,43,43,43,,,,,,,,,,,,,1906.072791,1907.1511975000003,,,,,,,1910.8008113,1910.8008113,1910.8008113,1910.8008113,1910.8008113,1910.8008113,1910.8008113,1910.8008113,None,None,None,,,,,,,,,,,1906.072791,1906.072791,None,,1907.1511975000003,1907.1511975000003,None,1906.072791,1906.072791,,,,1,001,2024-05-30_10h23.58.972,robot_nback_sign,2022.2.5,60.00056400528521,
R_Base_Y_For,False,2,robot,1,False,False,robot_stimuli\R_Base_Y_For.mp4,1,,,,,,,,,0,44,44,44,,,,,,,,,,,,,1910.8008113,1911.8847121,,,,,,,1915.5398208000001,1915.5398208000001,1915.5398208000001,1915.5398208000001,1915.5398208000001,1915.5398208000001,1915.5398208000001,1915.5398208000001,None,None,None,,,,,,,,,,,1910.8008113,1910.8008113,None,,1911.8847121,1911.8847121,c,1910.8008113,1910.8008113,2.6216995999999426,,,1,001,2024-05-30_10h23.58.972,robot_nback_sign,2022.2.5,60.00056400528521,
L_Head_Y_For,True,2,robot,1,False,False,robot_stimuli\L_Head_Y_For.mp4,1,,,,,,,,,0,45,45,45,,,,,,,,,,,,,1915.5398208000001,1916.6334983000002,,,,,,,1920.2834360000002,1920.2834360000002,1920.2834360000002,1920.2834360000002,1920.2834360000002,1920.2834360000002,1920.2834360000002,1920.2834360000002,None,None,None,,,,,,,,,,,1915.5398208000001,1915.5398208000001,None,,1916.6334983000002,1916.6334983000002,c,1915.5398208000001,1915.5398208000001,2.657288099999846,,,1,001,2024-05-30_10h23.58.972,robot_nback_sign,2022.2.5,60.00056400528521,
R_Head_Z_For,False,2,robot,1,False,False,robot_stimuli\R_Head_Z_For.mp4,1,,,,,,,,,0,46,46,46,,,,,,,,,,,,,1920.2834360000002,1921.3669447000002,,,,,,,1925.0049743,1925.0049743,1925.0049743,1925.0049743,1925.0049743,1925.0049743,1925.0049743,1925.0049743,None,None,None,,,,,,,,,,,1920.2834360000002,1920.2834360000002,None,,1921.3669447000002,1921.3669447000002,n,1920.2834360000002,1920.2834360000002,2.914988600000129,,,1,001,2024-05-30_10h23.58.972,robot_nback_sign,2022.2.5,60.00056400528521,
L_Base_Z_For,False,2,robot,1,False,False,robot_stimuli\L_Base_Z_For.mp4,1,,,,,,,,,0,47,47,47,,,,,,,,,,,,,1925.0049743,1926.0837230000002,,,,,,,1929.7340181,1929.7340181,1929.7340181,1929.7340181,1929.7340181,1929.7340181,1929.7340181,1929.7340181,None,None,None,,,,,,,,,,,1925.0049743,1925.0049743,None,,1926.0837230000002,1926.0837230000002,None,1925.0049743,1925.0049743,,,,1,001,2024-05-30_10h23.58.972,robot_nback_sign,2022.2.5,60.00056400528521,
R_Base_X_Back,False,2,robot,1,False,False,robot_stimuli\R_Base_X_Back.mp4,1,,,,,,,,,0,48,48,48,,,,,,,,,,,,,1929.7340181,1930.8178929,,,,,,,1934.4690181,1934.4690181,1934.4690181,1934.4690181,1934.4690181,1934.4690181,1934.4690181,1934.4690181,None,None,None,,,,,,,,,,,1929.7340181,1929.7340181,None,,1930.8178929,1930.8178929,n,1929.7340181,1929.7340181,3.1842066000000386,,,1,001,2024-05-30_10h23.58.972,robot_nback_sign,2022.2.5,60.00056400528521,
L_Base_Z_For,True,2,robot,1,False,True,robot_stimuli\L_Base_Z_For.mp4,1,,,,,,,,,0,49,49,49,,,,,,,,,,,,,1934.4690181,1935.551797,,,,,,,1939.2403633,1953.9815549,1939.2403633,1953.9815549,1939.2403633,1953.9815549,1939.2403633,1953.9815549,48.20987654320988,6.180059899999833,space,,,,14.69686170000034,,,,,,,1934.4690181,1934.4690181,None,,1935.551797,1935.551797,c,1934.4690181,1934.4690181,1.7778429999999616,,,1,001,2024-05-30_10h23.58.972,robot_nback_sign,2022.2.5,60.00056400528521,
L_Torso_Y_For,False,1,robot,1,True,False,robot_stimuli\L_Torso_Y_For.mp4,1,,,,,,,,,0,50,50,50,,,,,,,,,,,,,1960.2887155000003,1961.3839944000001,,,,,,,1965.0224094,1965.0224094,1965.0224094,1965.0224094,1965.0224094,1965.0224094,1965.0224094,1965.0224094,None,None,None,,,,,,,,,,,1953.9815549,1953.9815549,space,6.284542600000009,1961.3839944000001,1961.3839944000001,None,,,,,,1,001,2024-05-30_10h23.58.972,robot_nback_sign,2022.2.5,60.00056400528521,
L_Base_Y_For,False,1,robot,1,False,False,robot_stimuli\L_Base_Y_For.mp4,1,,,,,,,,,0,51,51,51,,,,,,,,,,,,,1965.0224094,1966.1057826,,,,,,,1969.7472605000003,1969.7472605000003,1969.7472605000003,1969.7472605000003,1969.7472605000003,1969.7472605000003,1969.7472605000003,1969.7472605000003,None,None,None,,,,,,,,,,,1965.0224094,1965.0224094,None,,1966.1057826,1966.1057826,c,1965.0224094,1965.0224094,3.4564313999995875,,,1,001,2024-05-30_10h23.58.972,robot_nback_sign,2022.2.5,60.00056400528521,
R_Head_X_For,False,1,robot,1,False,False,robot_stimuli\R_Head_X_For.mp4,1,,,,,,,,,0,52,52,52,,,,,,,,,,,,,1969.7472605000003,1970.8335749000003,,,,,,,1974.4827322,1974.4827322,1974.4827322,1974.4827322,1974.4827322,1974.4827322,1974.4827322,1974.4827322,None,None,None,,,,,,,,,,,1969.7472605000003,1969.7472605000003,None,,1970.8335749000003,1970.8335749000003,n,1969.7472605000003,1969.7472605000003,3.4073196000000507,,,1,001,2024-05-30_10h23.58.972,robot_nback_sign,2022.2.5,60.00056400528521,
L_Torso_X_Back,False,1,robot,1,False,False,robot_stimuli\L_Torso_X_Back.mp4,1,,,,,,,,,0,53,53,53,,,,,,,,,,,,,1974.4827322,1975.5697734999999,,,,,,,1979.2212454,1979.2212454,1979.2212454,1979.2212454,1979.2212454,1979.2212454,1979.2212454,1979.2212454,None,None,None,,,,,,,,,,,1974.4827322,1974.4827322,None,,1975.5697734999999,1975.5697734999999,n,1974.4827322,1974.4827322,1.4325743000000557,,,1,001,2024-05-30_10h23.58.972,robot_nback_sign,2022.2.5,60.00056400528521,
R_Head_Y_Back,False,1,robot,1,False,False,robot_stimuli\R_Head_Y_Back.mp4,1,,,,,,,,,0,54,54,54,,,,,,,,,,,,,1979.2212454,1980.2992113,,,,,,,1983.9382749000001,1983.9382749000001,1983.9382749000001,1983.9382749000001,1983.9382749000001,1983.9382749000001,1983.9382749000001,1983.9382749000001,None,None,None,,,,,,,,,,,1979.2212454,1979.2212454,None,,1980.2992113,1980.2992113,n,1979.2212454,1979.2212454,0.9354668000001993,,,1,001,2024-05-30_10h23.58.972,robot_nback_sign,2022.2.5,60.00056400528521,
R_Torso_X_For,False,1,robot,1,False,False,robot_stimuli\R_Torso_X_For.mp4,1,,,,,,,,,0,55,55,55,,,,,,,,,,,,,1983.9382749000001,1985.0186551000002,,,,,,,1988.6695697,1988.6695697,1988.6695697,1988.6695697,1988.6695697,1988.6695697,1988.6695697,1988.6695697,None,None,None,,,,,,,,,,,1983.9382749000001,1983.9382749000001,None,,1985.0186551000002,1985.0186551000002,n,1983.9382749000001,1983.9382749000001,1.1191246999998157,,,1,001,2024-05-30_10h23.58.972,robot_nback_sign,2022.2.5,60.00056400528521,
R_Torso_X_For,True,1,robot,1,False,False,robot_stimuli\R_Torso_X_For.mp4,1,,,,,,,,,0,56,56,56,,,,,,,,,,,,,1988.6695697,1989.748396,,,,,,,1993.3885089999999,1993.3885089999999,1993.3885089999999,1993.3885089999999,1993.3885089999999,1993.3885089999999,1993.3885089999999,1993.3885089999999,None,None,None,,,,,,,,,,,1988.6695697,1988.6695697,None,,1989.748396,1989.748396,c,1988.6695697,1988.6695697,1.6688735999997562,,,1,001,2024-05-30_10h23.58.972,robot_nback_sign,2022.2.5,60.00056400528521,
R_Torso_X_Back,False,1,robot,1,False,False,robot_stimuli\R_Torso_X_Back.mp4,1,,,,,,,,,0,57,57,57,,,,,,,,,,,,,1993.3885089999999,1994.4679561000003,,,,,,,1998.1163040000001,1998.1163040000001,1998.1163040000001,1998.1163040000001,1998.1163040000001,1998.1163040000001,1998.1163040000001,1998.1163040000001,None,None,None,,,,,,,,,,,1993.3885089999999,1993.3885089999999,None,,1994.4679561000003,1994.4679561000003,n,1993.3885089999999,1993.3885089999999,2.4221987999995918,,,1,001,2024-05-30_10h23.58.972,robot_nback_sign,2022.2.5,60.00056400528521,
R_Base_X_Back,False,1,robot,1,False,False,robot_stimuli\R_Base_X_Back.mp4,1,,,,,,,,,0,58,58,58,,,,,,,,,,,,,1998.1163040000001,1999.2004844000003,,,,,,,2002.8500468000002,2002.8500468000002,2002.8500468000002,2002.8500468000002,2002.8500468000002,2002.8500468000002,2002.8500468000002,2002.8500468000002,None,None,None,,,,,,,,,,,1998.1163040000001,1998.1163040000001,None,,1999.2004844000003,1999.2004844000003,c,1998.1163040000001,1998.1163040000001,2.641018800000097,,,1,001,2024-05-30_10h23.58.972,robot_nback_sign,2022.2.5,60.00056400528521,
L_Torso_Y_For,False,1,robot,1,False,False,robot_stimuli\L_Torso_Y_For.mp4,1,,,,,,,,,0,59,59,59,,,,,,,,,,,,,2002.8500468000002,2003.9333651000002,,,,,,,2007.5727457000003,2007.5727457000003,2007.5727457000003,2007.5727457000003,2007.5727457000003,2007.5727457000003,2007.5727457000003,2007.5727457000003,None,None,None,,,,,,,,,,,2002.8500468000002,2002.8500468000002,None,,2003.9333651000002,2003.9333651000002,n,2002.8500468000002,2002.8500468000002,1.4762693000003537,,,1,001,2024-05-30_10h23.58.972,robot_nback_sign,2022.2.5,60.00056400528521,
L_Torso_Y_For,True,1,robot,1,False,False,robot_stimuli\L_Torso_Y_For.mp4,1,,,,,,,,,0,60,60,60,,,,,,,,,,,,,2007.5727457000003,2008.6513964,,,,,,,2012.3015725999999,2012.3015725999999,2012.3015725999999,2012.3015725999999,2012.3015725999999,2012.3015725999999,2012.3015725999999,2012.3015725999999,None,None,None,,,,,,,,,,,2007.5727457000003,2007.5727457000003,None,,2008.6513964,2008.6513964,c,2007.5727457000003,2007.5727457000003,2.0465147000001025,,,1,001,2024-05-30_10h23.58.972,robot_nback_sign,2022.2.5,60.00056400528521,
L_Head_X_For,False,1,robot,1,False,False,robot_stimuli\L_Head_X_For.mp4,1,,,,,,,,,0,61,61,61,,,,,,,,,,,,,2012.3015725999999,2013.3886062000001,,,,,,,2017.0725814000002,2017.0725814000002,2017.0725814000002,2017.0725814000002,2017.0725814000002,2017.0725814000002,2017.0725814000002,2017.0725814000002,None,None,None,,,,,,,,,,,2012.3015725999999,2012.3015725999999,None,,2013.3886062000001,2013.3886062000001,n,2012.3015725999999,2012.3015725999999,1.1489415000002055,,,1,001,2024-05-30_10h23.58.972,robot_nback_sign,2022.2.5,60.00056400528521,
L_Torso_Z_Back,False,1,robot,1,False,False,robot_stimuli\L_Torso_Z_Back.mp4,1,,,,,,,,,0,62,62,62,,,,,,,,,,,,,2017.0725814000002,2018.1525810000003,,,,,,,2021.8035613000002,2021.8035613000002,2021.8035613000002,2021.8035613000002,2021.8035613000002,2021.8035613000002,2021.8035613000002,2021.8035613000002,None,None,None,,,,,,,,,,,2017.0725814000002,2017.0725814000002,None,,2018.1525810000003,2018.1525810000003,n,2017.0725814000002,2017.0725814000002,2.889664200000084,,,1,001,2024-05-30_10h23.58.972,robot_nback_sign,2022.2.5,60.00056400528521,
L_Torso_Z_Back,True,1,robot,1,False,False,robot_stimuli\L_Torso_Z_Back.mp4,1,,,,,,,,,0,63,63,63,,,,,,,,,,,,,2021.8035613000002,2022.8824624,,,,,,,2026.5236363,2026.5236363,2026.5236363,2026.5236363,2026.5236363,2026.5236363,2026.5236363,2026.5236363,None,None,None,,,,,,,,,,,2021.8035613000002,2021.8035613000002,None,,2022.8824624,2022.8824624,c,2021.8035613000002,2021.8035613000002,1.4719380999996474,,,1,001,2024-05-30_10h23.58.972,robot_nback_sign,2022.2.5,60.00056400528521,
L_Head_X_Back,False,1,robot,1,False,False,robot_stimuli\L_Head_X_Back.mp4,1,,,,,,,,,0,64,64,64,,,,,,,,,,,,,2026.5236363,,,,,,,,2031.2563433999999,2031.2563433999999,2031.2563433999999,2031.2563433999999,2031.2563433999999,2031.2563433999999,2031.2563433999999,2031.2563433999999,None,None,None,,,,,,,,,,,2026.5236363,2026.5236363,None,,2027.616582,2027.616582,n,2026.5236363,2026.5236363,0.9766226000002689,,,1,001,2024-05-30_10h23.58.972,robot_nback_sign,2022.2.5,60.00056400528521,
R_Base_Z_Back,False,1,robot,1,False,False,robot_stimuli\R_Base_Z_Back.mp4,1,,,,,,,,,0,65,65,65,,,,,,,,,,,,,2031.2563433999999,2032.3380789000003,,,,,,,2035.9892007000003,2035.9892007000003,2035.9892007000003,2035.9892007000003,2035.9892007000003,2035.9892007000003,2035.9892007000003,2035.9892007000003,None,None,None,,,,,,,,,,,2031.2563433999999,2031.2563433999999,None,,2032.3380789000003,2032.3380789000003,n,2031.2563433999999,2031.2563433999999,1.2485645000002705,,,1,001,2024-05-30_10h23.58.972,robot_nback_sign,2022.2.5,60.00056400528521,
R_Base_Y_Back,False,1,robot,1,False,False,robot_stimuli\R_Base_Y_Back.mp4,1,,,,,,,,,0,66,66,66,,,,,,,,,,,,,2035.9892007000003,2037.0748363000002,,,,,,,2040.7147933,2040.7147933,2040.7147933,2040.7147933,2040.7147933,2040.7147933,2040.7147933,2040.7147933,None,None,None,,,,,,,,,,,2035.9892007000003,2035.9892007000003,None,,2037.0748363000002,2037.0748363000002,n,2035.9892007000003,2035.9892007000003,2.4876552000001766,,,1,001,2024-05-30_10h23.58.972,robot_nback_sign,2022.2.5,60.00056400528521,
L_Base_X_Back,False,1,robot,1,False,False,robot_stimuli\L_Base_X_Back.mp4,1,,,,,,,,,0,67,67,67,,,,,,,,,,,,,2040.7147933,2041.800345,,,,,,,2045.4437788999999,2045.4437788999999,2045.4437788999999,2045.4437788999999,2045.4437788999999,2045.4437788999999,2045.4437788999999,2045.4437788999999,None,None,None,,,,,,,,,,,2040.7147933,2040.7147933,None,,2041.800345,2041.800345,n,2040.7147933,2040.7147933,3.425071900000262,,,1,001,2024-05-30_10h23.58.972,robot_nback_sign,2022.2.5,60.00056400528521,
R_Arm_Z_For,False,1,robot,1,False,False,robot_stimuli\R_Arm_Z_For.mp4,1,,,,,,,,,0,68,68,68,,,,,,,,,,,,,2045.4437788999999,2046.5503597000002,,,,,,,2050.1895256000003,2050.1895256000003,2050.1895256000003,2050.1895256000003,2050.1895256000003,2050.1895256000003,2050.1895256000003,2050.1895256000003,None,None,None,,,,,,,,,,,2045.4437788999999,2045.4437788999999,None,,2046.5503597000002,2046.5503597000002,n,2045.4437788999999,2045.4437788999999,1.9324127999999519,,,1,001,2024-05-30_10h23.58.972,robot_nback_sign,2022.2.5,60.00056400528521,
R_Torso_Y_For,False,1,robot,1,False,False,robot_stimuli\R_Torso_Y_For.mp4,1,,,,,,,,,0,69,69,69,,,,,,,,,,,,,2050.1895256000003,2051.2664091,,,,,,,2054.9190794,2054.9190794,2054.9190794,2054.9190794,2054.9190794,2054.9190794,2054.9190794,2054.9190794,None,None,None,,,,,,,,,,,2050.1895256000003,2050.1895256000003,None,,2051.2664091,2051.2664091,n,2050.1895256000003,2050.1895256000003,1.4625025999999934,,,1,001,2024-05-30_10h23.58.972,robot_nback_sign,2022.2.5,60.00056400528521,
R_Torso_X_Back,False,1,robot,1,False,False,robot_stimuli\R_Torso_X_Back.mp4,1,,,,,,,,,0,70,70,70,,,,,,,,,,,,,2054.9190794,2056.0003625,,,,,,,2059.6517014,2059.6517014,2059.6517014,2059.6517014,2059.6517014,2059.6517014,2059.6517014,2059.6517014,None,None,None,,,,,,,,,,,2054.9190794,2054.9190794,None,,2056.0003625,2056.0003625,n,2054.9190794,2054.9190794,2.6417902999997978,,,1,001,2024-05-30_10h23.58.972,robot_nback_sign,2022.2.5,60.00056400528521,
R_Torso_X_Back,True,1,robot,1,False,False,robot_stimuli\R_Torso_X_Back.mp4,1,,,,,,,,,0,71,71,71,,,,,,,,,,,,,2059.6517014,2060.7340121,,,,,,,2064.3681225,2064.3681225,2064.3681225,2064.3681225,2064.3681225,2064.3681225,2064.3681225,2064.3681225,None,None,None,,,,,,,,,,,2059.6517014,2059.6517014,None,,2060.7340121,2060.7340121,c,2059.6517014,2059.6517014,3.211454799999615,,,1,001,2024-05-30_10h23.58.972,robot_nback_sign,2022.2.5,60.00056400528521,
R_Base_Y_For,False,1,robot,1,False,False,robot_stimuli\R_Base_Y_For.mp4,1,,,,,,,,,0,72,72,72,,,,,,,,,,,,,2064.3681225,2065.4502068,,,,,,,2069.0903093,2069.0903093,2069.0903093,2069.0903093,2069.0903093,2069.0903093,2069.0903093,2069.0903093,None,None,None,,,,,,,,,,,2064.3681225,2064.3681225,None,,2065.4502068,2065.4502068,n,2064.3681225,2064.3681225,3.3520178999998507,,,1,001,2024-05-30_10h23.58.972,robot_nback_sign,2022.2.5,60.00056400528521,
R_Base_Y_For,True,1,robot,1,False,False,robot_stimuli\R_Base_Y_For.mp4,1,,,,,,,,,0,73,73,73,,,,,,,,,,,,,2069.0903093,,,,,,,,2073.8213876,2073.8213876,2073.8213876,2073.8213876,2073.8213876,2073.8213876,2073.8213876,2073.8213876,None,None,None,,,,,,,,,,,2069.0903093,2069.0903093,None,,2070.1818894000003,2070.1818894000003,c,2069.0903093,2069.0903093,3.020611600000052,,,1,001,2024-05-30_10h23.58.972,robot_nback_sign,2022.2.5,60.00056400528521,
L_Torso_Z_For,False,1,robot,1,False,False,robot_stimuli\L_Torso_Z_For.mp4,1,,,,,,,,,0,74,74,74,,,,,,,,,,,,,2073.8213876,2074.8995728,,,,,,,2078.5397265,2078.5397265,2078.5397265,2078.5397265,2078.5397265,2078.5397265,2078.5397265,2078.5397265,None,None,None,,,,,,,,,,,2073.8213876,2073.8213876,None,,2074.8995728,2074.8995728,None,2073.8213876,2073.8213876,,,,1,001,2024-05-30_10h23.58.972,robot_nback_sign,2022.2.5,60.00056400528521,
R_Arm_Y_Back,False,1,robot,1,False,False,robot_stimuli\R_Arm_Y_Back.mp4,1,,,,,,,,,0,75,75,75,,,,,,,,,,,,,2078.5397265,2079.621521,,,,,,,2083.2706233,2083.2706233,2083.2706233,2083.2706233,2083.2706233,2083.2706233,2083.2706233,2083.2706233,None,None,None,,,,,,,,,,,2078.5397265,2078.5397265,None,,2079.621521,2079.621521,n,2078.5397265,2078.5397265,1.6040708000001587,,,1,001,2024-05-30_10h23.58.972,robot_nback_sign,2022.2.5,60.00056400528521,
R_Arm_Y_Back,True,1,robot,1,False,False,robot_stimuli\R_Arm_Y_Back.mp4,1,,,,,,,,,0,76,76,76,,,,,,,,,,,,,2083.2706233,2084.3475156,,,,,,,2087.9856974,2087.9856974,2087.9856974,2087.9856974,2087.9856974,2087.9856974,2087.9856974,2087.9856974,None,None,None,,,,,,,,,,,2083.2706233,2083.2706233,None,,2084.3475156,2084.3475156,None,2083.2706233,2083.2706233,,,,1,001,2024-05-30_10h23.58.972,robot_nback_sign,2022.2.5,60.00056400528521,
L_Base_Z_For,False,1,robot,1,False,False,robot_stimuli\L_Base_Z_For.mp4,1,,,,,,,,,0,77,77,77,,,,,,,,,,,,,2087.9856974,2089.0709566,,,,,,,2092.7210183,2092.7210183,2092.7210183,2092.7210183,2092.7210183,2092.7210183,2092.7210183,2092.7210183,None,None,None,,,,,,,,,,,2087.9856974,2087.9856974,None,,2089.0709566,2089.0709566,n,2087.9856974,2087.9856974,2.451247399999943,,,1,001,2024-05-30_10h23.58.972,robot_nback_sign,2022.2.5,60.00056400528521,
L_Head_X_For,False,1,robot,1,False,False,robot_stimuli\L_Head_X_For.mp4,1,,,,,,,,,0,78,78,78,,,,,,,,,,,,,2092.7210183,2093.8016718,,,,,,,2097.4857517,2097.4857517,2097.4857517,2097.4857517,2097.4857517,2097.4857517,2097.4857517,2097.4857517,None,None,None,,,,,,,,,,,2092.7210183,2092.7210183,None,,2093.8016718,2093.8016718,n,2092.7210183,2092.7210183,1.5041044000000738,,,1,001,2024-05-30_10h23.58.972,robot_nback_sign,2022.2.5,60.00056400528521,
L_Arm_X_For,False,1,robot,1,False,False,robot_stimuli\L_Arm_X_For.mp4,1,,,,,,,,,0,79,79,79,,,,,,,,,,,,,2097.4857517,2098.5687679000002,,,,,,,2102.2204169,2102.2204169,2102.2204169,2102.2204169,2102.2204169,2102.2204169,2102.2204169,2102.2204169,None,None,None,,,,,,,,,,,2097.4857517,2097.4857517,None,,2098.5687679000002,2098.5687679000002,None,2097.4857517,2097.4857517,,,,1,001,2024-05-30_10h23.58.972,robot_nback_sign,2022.2.5,60.00056400528521,
L_Torso_Y_Back,False,1,robot,1,False,False,robot_stimuli\L_Torso_Y_Back.mp4,1,,,,,,,,,0,80,80,80,,,,,,,,,,,,,2102.2204169,2103.3023282,,,,,,,2106.9506678000002,2106.9506678000002,2106.9506678000002,2106.9506678000002,2106.9506678000002,2106.9506678000002,2106.9506678000002,2106.9506678000002,None,None,None,,,,,,,,,,,2102.2204169,2102.2204169,None,,2103.3023282,2103.3023282,n,2102.2204169,2102.2204169,1.9472783999996182,,,1,001,2024-05-30_10h23.58.972,robot_nback_sign,2022.2.5,60.00056400528521,
L_Torso_Y_Back,True,1,robot,1,False,False,robot_stimuli\L_Torso_Y_Back.mp4,1,,,,,,,,,0,81,81,81,,,,,,,,,,,,,2106.9506678000002,2108.030881,,,,,,,2111.6704434000003,2111.6704434000003,2111.6704434000003,2111.6704434000003,2111.6704434000003,2111.6704434000003,2111.6704434000003,2111.6704434000003,None,None,None,,,,,,,,,,,2106.9506678000002,2106.9506678000002,None,,2108.030881,2108.030881,c,2106.9506678000002,2106.9506678000002,1.7789321000001337,,,1,001,2024-05-30_10h23.58.972,robot_nback_sign,2022.2.5,60.00056400528521,
L_Head_Z_Back,False,1,robot,1,False,False,robot_stimuli\L_Head_Z_Back.mp4,1,,,,,,,,,0,82,82,82,,,,,,,,,,,,,2111.6704434000003,2112.7503691,,,,,,,2116.3893992000003,2116.3893992000003,2116.3893992000003,2116.3893992000003,2116.3893992000003,2116.3893992000003,2116.3893992000003,2116.3893992000003,None,None,None,,,,,,,,,,,2111.6704434000003,2111.6704434000003,None,,2112.7503691,2112.7503691,n,2111.6704434000003,2111.6704434000003,1.642461500000195,,,1,001,2024-05-30_10h23.58.972,robot_nback_sign,2022.2.5,60.00056400528521,
L_Head_Z_Back,True,1,robot,1,False,False,robot_stimuli\L_Head_Z_Back.mp4,1,,,,,,,,,0,83,83,83,,,,,,,,,,,,,2116.3893992000003,2117.4631243,,,,,,,2121.1073972,2121.1073972,2121.1073972,2121.1073972,2121.1073972,2121.1073972,2121.1073972,2121.1073972,None,None,None,,,,,,,,,,,2116.3893992000003,2116.3893992000003,None,,2117.4631243,2117.4631243,c,2116.3893992000003,2116.3893992000003,1.2029543999998396,,,1,001,2024-05-30_10h23.58.972,robot_nback_sign,2022.2.5,60.00056400528521,
L_Head_Z_Back,True,1,robot,1,False,False,robot_stimuli\L_Head_Z_Back.mp4,1,,,,,,,,,0,84,84,84,,,,,,,,,,,,,2121.1073972,,,,,,,,2125.8520097,2125.8520097,2125.8520097,2125.8520097,2125.8520097,2125.8520097,2125.8520097,2125.8520097,None,None,None,,,,,,,,,,,2121.1073972,2121.1073972,None,,2122.2123558000003,2122.2123558000003,c,2121.1073972,2121.1073972,1.2216518000001315,,,1,001,2024-05-30_10h23.58.972,robot_nback_sign,2022.2.5,60.00056400528521,
L_Torso_X_For,False,1,robot,1,False,False,robot_stimuli\L_Torso_X_For.mp4,1,,,,,,,,,0,85,85,85,,,,,,,,,,,,,2125.8520097,2126.9347172000003,,,,,,,2130.5849214,2130.5849214,2130.5849214,2130.5849214,2130.5849214,2130.5849214,2130.5849214,2130.5849214,None,None,None,,,,,,,,,,,2125.8520097,2125.8520097,None,,2126.9347172000003,2126.9347172000003,n,2125.8520097,2125.8520097,2.586919100000273,,,1,001,2024-05-30_10h23.58.972,robot_nback_sign,2022.2.5,60.00056400528521,
L_Head_X_For,False,1,robot,1,False,False,robot_stimuli\L_Head_X_For.mp4,1,,,,,,,,,0,86,86,86,,,,,,,,,,,,,2130.5849214,2131.6677667,,,,,,,2135.3516131,2135.3516131,2135.3516131,2135.3516131,2135.3516131,2135.3516131,2135.3516131,2135.3516131,None,None,None,,,,,,,,,,,2130.5849214,2130.5849214,None,,2131.6677667,2131.6677667,n,2130.5849214,2130.5849214,1.6784840999999915,,,1,001,2024-05-30_10h23.58.972,robot_nback_sign,2022.2.5,60.00056400528521,
L_Head_Z_For,False,1,robot,1,False,False,robot_stimuli\L_Head_Z_For.mp4,1,,,,,,,,,0,87,87,87,,,,,,,,,,,,,2135.3516131,2136.4344937,,,,,,,2140.06432,2140.06432,2140.06432,2140.06432,2140.06432,2140.06432,2140.06432,2140.06432,None,None,None,,,,,,,,,,,2135.3516131,2135.3516131,None,,2136.4344937,2136.4344937,n,2135.3516131,2135.3516131,2.8560849000001554,,,1,001,2024-05-30_10h23.58.972,robot_nback_sign,2022.2.5,60.00056400528521,
R_Torso_X_For,False,1,robot,1,False,False,robot_stimuli\R_Torso_X_For.mp4,1,,,,,,,,,0,88,88,88,,,,,,,,,,,,,2140.06432,2141.1526817,,,,,,,2144.8029776000003,2144.8029776000003,2144.8029776000003,2144.8029776000003,2144.8029776000003,2144.8029776000003,2144.8029776000003,2144.8029776000003,None,None,None,,,,,,,,,,,2140.06432,2140.06432,None,,2141.1526817,2141.1526817,n,2140.06432,2140.06432,2.7456957000000557,,,1,001,2024-05-30_10h23.58.972,robot_nback_sign,2022.2.5,60.00056400528521,
R_Arm_X_For,False,1,robot,1,False,False,robot_stimuli\R_Arm_X_For.mp4,1,,,,,,,,,0,89,89,89,,,,,,,,,,,,,2144.8029776000003,2145.8832435,,,,,,,2149.5130709,2149.5130709,2149.5130709,2149.5130709,2149.5130709,2149.5130709,2149.5130709,2149.5130709,None,None,None,,,,,,,,,,,2144.8029776000003,2144.8029776000003,None,,2145.8832435,2145.8832435,None,2144.8029776000003,2144.8029776000003,,,,1,001,2024-05-30_10h23.58.972,robot_nback_sign,2022.2.5,60.00056400528521,
L_Head_Y_Back,False,1,robot,1,False,False,robot_stimuli\L_Head_Y_Back.mp4,1,,,,,,,,,0,90,90,90,,,,,,,,,,,,,2149.5130709,2150.6003018,,,,,,,2154.2400314,2154.2400314,2154.2400314,2154.2400314,2154.2400314,2154.2400314,2154.2400314,2154.2400314,None,None,None,,,,,,,,,,,2149.5130709,2149.5130709,None,,2150.6003018,2150.6003018,n,2149.5130709,2149.5130709,2.888536600000066,,,1,001,2024-05-30_10h23.58.972,robot_nback_sign,2022.2.5,60.00056400528521,
R_Arm_X_Back,False,1,robot,1,False,False,robot_stimuli\R_Arm_X_Back.mp4,1,,,,,,,,,0,91,91,91,,,,,,,,,,,,,2154.2400314,,,,,,,,2158.9921693,2158.9921693,2158.9921693,2158.9921693,2158.9921693,2158.9921693,2158.9921693,2158.9921693,None,None,None,,,,,,,,,,,2154.2400314,2154.2400314,None,,2155.3390763,2155.3390763,n,2154.2400314,2154.2400314,1.63126479999994,,,1,001,2024-05-30_10h23.58.972,robot_nback_sign,2022.2.5,60.00056400528521,
R_Base_X_For,False,1,robot,1,False,False,robot_stimuli\R_Base_X_For.mp4,1,,,,,,,,,0,92,92,92,,,,,,,,,,,,,2158.9921693,,,,,,,,2163.7388369,2163.7388369,2163.7388369,2163.7388369,2163.7388369,2163.7388369,2163.7388369,2163.7388369,None,None,None,,,,,,,,,,,2158.9921693,2158.9921693,None,,2160.0998222000003,2160.0998222000003,n,2158.9921693,2158.9921693,1.4461754000000155,,,1,001,2024-05-30_10h23.58.972,robot_nback_sign,2022.2.5,60.00056400528521,
L_Torso_X_Back,False,1,robot,1,False,False,robot_stimuli\L_Torso_X_Back.mp4,1,,,,,,,,,0,93,93,93,,,,,,,,,,,,,2163.7388369,2164.8168071,,,,,,,2168.4528476,2168.4528476,2168.4528476,2168.4528476,2168.4528476,2168.4528476,2168.4528476,2168.4528476,None,None,None,,,,,,,,,,,2163.7388369,2163.7388369,None,,2164.8168071,2164.8168071,n,2163.7388369,2163.7388369,2.9446991999999454,,,1,001,2024-05-30_10h23.58.972,robot_nback_sign,2022.2.5,60.00056400528521,
R_Torso_X_For,False,1,robot,1,False,False,robot_stimuli\R_Torso_X_For.mp4,1,,,,,,,,,0,94,94,94,,,,,,,,,,,,,2168.4528476,2169.5477812,,,,,,,2173.1871762,2173.1871762,2173.1871762,2173.1871762,2173.1871762,2173.1871762,2173.1871762,2173.1871762,None,None,None,,,,,,,,,,,2168.4528476,2168.4528476,None,,2169.5477812,2169.5477812,n,2168.4528476,2168.4528476,2.9982863999999836,,,1,001,2024-05-30_10h23.58.972,robot_nback_sign,2022.2.5,60.00056400528521,
R_Arm_Z_Back,False,1,robot,1,False,False,robot_stimuli\R_Arm_Z_Back.mp4,1,,,,,,,,,0,95,95,95,,,,,,,,,,,,,2173.1871762,2174.2682895000003,,,,,,,2177.9243267,2177.9243267,2177.9243267,2177.9243267,2177.9243267,2177.9243267,2177.9243267,2177.9243267,None,None,None,,,,,,,,,,,2173.1871762,2173.1871762,None,,2174.2682895000003,2174.2682895000003,n,2173.1871762,2173.1871762,1.8297610999999279,,,1,001,2024-05-30_10h23.58.972,robot_nback_sign,2022.2.5,60.00056400528521,
R_Arm_Z_Back,True,1,robot,1,False,False,robot_stimuli\R_Arm_Z_Back.mp4,1,,,,,,,,,0,96,96,96,,,,,,,,,,,,,2177.9243267,,,,,,,,2182.6689176,2182.6689176,2182.6689176,2182.6689176,2182.6689176,2182.6689176,2182.6689176,2182.6689176,None,None,None,,,,,,,,,,,2177.9243267,2177.9243267,None,,2179.0297344,2179.0297344,c,2177.9243267,2177.9243267,2.419317200000137,,,1,001,2024-05-30_10h23.58.972,robot_nback_sign,2022.2.5,60.00056400528521,
L_Torso_X_Back,False,1,robot,1,False,False,robot_stimuli\L_Torso_X_Back.mp4,1,,,,,,,,,0,97,97,97,,,,,,,,,,,,,2182.6689176,2183.7506121,,,,,,,2187.3826786,2187.3826786,2187.3826786,2187.3826786,2187.3826786,2187.3826786,2187.3826786,2187.3826786,None,None,None,,,,,,,,,,,2182.6689176,2182.6689176,None,,2183.7506121,2183.7506121,n,2182.6689176,2182.6689176,3.2750903999996126,,,1,001,2024-05-30_10h23.58.972,robot_nback_sign,2022.2.5,60.00056400528521,
R_Head_Y_For,False,1,robot,1,False,False,robot_stimuli\R_Head_Y_For.mp4,1,,,,,,,,,0,98,98,98,,,,,,,,,,,,,2187.3826786,2188.4688607000003,,,,,,,2192.1200716000003,2192.1200716000003,2192.1200716000003,2192.1200716000003,2192.1200716000003,2192.1200716000003,2192.1200716000003,2192.1200716000003,None,None,None,,,,,,,,,,,2187.3826786,2187.3826786,None,,2188.4688607000003,2188.4688607000003,n,2187.3826786,2187.3826786,1.140300400000001,,,1,001,2024-05-30_10h23.58.972,robot_nback_sign,2022.2.5,60.00056400528521,
R_Head_X_Back,False,1,robot,1,False,True,robot_stimuli\R_Head_X_Back.mp4,1,,,,,,,,,0,99,99,99,,,,,,,,,,,,,2192.1200716000003,2193.1999714,,,,,,,2196.8862722,2201.9211717000003,2196.8862722,2201.9211717000003,2196.8862722,2201.9211717000003,2196.8862722,2201.9211717000003,43.42592592592593,2.750820499999918,space,,,,4.978463200000192,,,,,,,2192.1200716000003,2192.1200716000003,None,,2193.1999714,2193.1999714,n,2192.1200716000003,2192.1200716000003,2.4816231999999445,,,1,001,2024-05-30_10h23.58.972,robot_nback_sign,2022.2.5,60.00056400528521,
R_Arm_X_Back,False,3,robot,1,True,False,robot_stimuli\R_Arm_X_Back.mp4,1,,,,,,,,,0,100,100,100,,,,,,,,,,,,,2213.8057722,2214.9017878,,,,,,,2218.5308152000002,2218.5308152000002,2218.5308152000002,2218.5308152000002,2218.5308152000002,2218.5308152000002,2218.5308152000002,2218.5308152000002,None,None,None,,,,,,,,,,,2201.9211717000003,2201.9211717000003,space,11.864789999999743,2214.9017878,2214.9017878,None,,,,,,1,001,2024-05-30_10h23.58.972,robot_nback_sign,2022.2.5,60.00056400528521,
L_Head_X_For,False,3,robot,1,False,False,robot_stimuli\L_Head_X_For.mp4,1,,,,,,,,,0,101,101,101,,,,,,,,,,,,,2218.5308152000002,2219.616289,,,,,,,2223.2800587,2223.2800587,2223.2800587,2223.2800587,2223.2800587,2223.2800587,2223.2800587,2223.2800587,None,None,None,,,,,,,,,,,2218.5308152000002,2218.5308152000002,None,,2219.616289,2219.616289,None,2218.5308152000002,2218.5308152000002,,,,1,001,2024-05-30_10h23.58.972,robot_nback_sign,2022.2.5,60.00056400528521,
R_Base_Z_Back,False,3,robot,1,False,False,robot_stimuli\R_Base_Z_Back.mp4,1,,,,,,,,,0,102,102,102,,,,,,,,,,,,,2223.2800587,2224.3665996,,,,,,,2228.0168945,2228.0168945,2228.0168945,2228.0168945,2228.0168945,2228.0168945,2228.0168945,2228.0168945,None,None,None,,,,,,,,,,,2223.2800587,2223.2800587,None,,2224.3665996,2224.3665996,None,2223.2800587,2223.2800587,,,,1,001,2024-05-30_10h23.58.972,robot_nback_sign,2022.2.5,60.00056400528521,
R_Head_X_Back,False,3,robot,1,False,False,robot_stimuli\R_Head_X_Back.mp4,1,,,,,,,,,0,103,103,103,,,,,,,,,,,,,2228.0168945,2229.0997862,,,,,,,2232.7407634,2232.7407634,2232.7407634,2232.7407634,2232.7407634,2232.7407634,2232.7407634,2232.7407634,None,None,None,,,,,,,,,,,2228.0168945,2228.0168945,None,,2229.0997862,2229.0997862,n,2228.0168945,2228.0168945,1.270340499999861,,,1,001,2024-05-30_10h23.58.972,robot_nback_sign,2022.2.5,60.00056400528521,
L_Head_X_For,True,3,robot,1,False,False,robot_stimuli\L_Head_X_For.mp4,1,,,,,,,,,0,104,104,104,,,,,,,,,,,,,2232.7407634,,,,,,,,2237.505576,2237.505576,2237.505576,2237.505576,2237.505576,2237.505576,2237.505576,2237.505576,None,None,None,,,,,,,,,,,2232.7407634,2232.7407634,None,,2233.8340937000003,2233.8340937000003,c,2232.7407634,2232.7407634,1.5115815000000339,,,1,001,2024-05-30_10h23.58.972,robot_nback_sign,2022.2.5,60.00056400528521,
R_Torso_X_For,False,3,robot,1,False,False,robot_stimuli\R_Torso_X_For.mp4,1,,,,,,,,,0,105,105,105,,,,,,,,,,,,,2237.505576,2238.5891356,,,,,,,2242.2379822000003,2242.2379822000003,2242.2379822000003,2242.2379822000003,2242.2379822000003,2242.2379822000003,2242.2379822000003,2242.2379822000003,None,None,None,,,,,,,,,,,2237.505576,2237.505576,None,,2238.5891356,2238.5891356,n,2237.505576,2237.505576,2.540261199999918,,,1,001,2024-05-30_10h23.58.972,robot_nback_sign,2022.2.5,60.00056400528521,
R_Torso_Y_Back,False,3,robot,1,False,False,robot_stimuli\R_Torso_Y_Back.mp4,1,,,,,,,,,0,106,106,106,,,,,,,,,,,,,2242.2379822000003,2243.3227604,,,,,,,2246.9640768,2246.9640768,2246.9640768,2246.9640768,2246.9640768,2246.9640768,2246.9640768,2246.9640768,None,None,None,,,,,,,,,,,2242.2379822000003,2242.2379822000003,None,,2243.3227604,2243.3227604,n,2242.2379822000003,2242.2379822000003,2.1112088000000995,,,1,001,2024-05-30_10h23.58.972,robot_nback_sign,2022.2.5,60.00056400528521,
R_Torso_X_For,False,3,robot,1,False,False,robot_stimuli\R_Torso_X_For.mp4,1,,,,,,,,,0,107,107,107,,,,,,,,,,,,,2246.9640768,2248.0501142000003,,,,,,,2251.6907549000002,2251.6907549000002,2251.6907549000002,2251.6907549000002,2251.6907549000002,2251.6907549000002,2251.6907549000002,2251.6907549000002,None,None,None,,,,,,,,,,,2246.9640768,2246.9640768,None,,2248.0501142000003,2248.0501142000003,n,2246.9640768,2246.9640768,2.2314783000002762,,,1,001,2024-05-30_10h23.58.972,robot_nback_sign,2022.2.5,60.00056400528521,
R_Torso_X_Back,False,3,robot,1,False,False,robot_stimuli\R_Torso_X_Back.mp4,1,,,,,,,,,0,108,108,108,,,,,,,,,,,,,2251.6907549000002,,,,,,,,2256.4376399000002,2256.4376399000002,2256.4376399000002,2256.4376399000002,2256.4376399000002,2256.4376399000002,2256.4376399000002,2256.4376399000002,None,None,None,,,,,,,,,,,2251.6907549000002,2251.6907549000002,None,,2252.7876804,2252.7876804,n,2251.6907549000002,2251.6907549000002,2.6062948000000006,,,1,001,2024-05-30_10h23.58.972,robot_nback_sign,2022.2.5,60.00056400528521,
L_Head_X_For,False,3,robot,1,False,False,robot_stimuli\L_Head_X_For.mp4,1,,,,,,,,,0,109,109,109,,,,,,,,,,,,,2256.4376399000002,2257.5168267,,,,,,,2261.2008562,2261.2008562,2261.2008562,2261.2008562,2261.2008562,2261.2008562,2261.2008562,2261.2008562,None,None,None,,,,,,,,,,,2256.4376399000002,2256.4376399000002,None,,2257.5168267,2257.5168267,n,2256.4376399000002,2256.4376399000002,1.3812202999998817,,,1,001,2024-05-30_10h23.58.972,robot_nback_sign,2022.2.5,60.00056400528521,
R_Base_Z_For,False,3,robot,1,False,False,robot_stimuli\R_Base_Z_For.mp4,1,,,,,,,,,0,110,110,110,,,,,,,,,,,,,2261.2008562,2262.2844068,,,,,,,2265.9349540000003,2265.9349540000003,2265.9349540000003,2265.9349540000003,2265.9349540000003,2265.9349540000003,2265.9349540000003,2265.9349540000003,None,None,None,,,,,,,,,,,2261.2008562,2261.2008562,None,,2262.2844068,2262.2844068,n,2261.2008562,2261.2008562,2.3023470999997926,,,1,001,2024-05-30_10h23.58.972,robot_nback_sign,2022.2.5,60.00056400528521,
R_Torso_X_Back,True,3,robot,1,False,False,robot_stimuli\R_Torso_X_Back.mp4,1,,,,,,,,,0,111,111,111,,,,,,,,,,,,,2265.9349540000003,2267.0246843,,,,,,,2270.663657,2270.663657,2270.663657,2270.663657,2270.663657,2270.663657,2270.663657,2270.663657,None,None,None,,,,,,,,,,,2265.9349540000003,2265.9349540000003,None,,2267.0246843,2267.0246843,c,2265.9349540000003,2265.9349540000003,2.184207099999753,,,1,001,2024-05-30_10h23.58.972,robot_nback_sign,2022.2.5,60.00056400528521,
R_Head_Z_Back,False,3,robot,1,False,False,robot_stimuli\R_Head_Z_Back.mp4,1,,,,,,,,,0,112,112,112,,,,,,,,,,,,,2270.663657,2271.7547618,,,,,,,2275.4041474,2275.4041474,2275.4041474,2275.4041474,2275.4041474,2275.4041474,2275.4041474,2275.4041474,None,None,None,,,,,,,,,,,2270.663657,2270.663657,None,,2271.7547618,2271.7547618,n,2270.663657,2270.663657,1.398243099999604,,,1,001,2024-05-30_10h23.58.972,robot_nback_sign,2022.2.5,60.00056400528521,
L_Torso_Z_For,False,3,robot,1,False,False,robot_stimuli\L_Torso_Z_For.mp4,1,,,,,,,,,0,113,113,113,,,,,,,,,,,,,2275.4041474,2276.4829095,,,,,,,2280.1141299,2280.1141299,2280.1141299,2280.1141299,2280.1141299,2280.1141299,2280.1141299,2280.1141299,None,None,None,,,,,,,,,,,2275.4041474,2275.4041474,None,,2276.4829095,2276.4829095,c,2275.4041474,2275.4041474,2.8150306999997383,,,1,001,2024-05-30_10h23.58.972,robot_nback_sign,2022.2.5,60.00056400528521,
L_Arm_Y_Back,False,3,robot,1,False,False,robot_stimuli\L_Arm_Y_Back.mp4,1,,,,,,,,,0,114,114,114,,,,,,,,,,,,,2280.1141299,2281.2071035,,,,,,,2284.8473389,2284.8473389,2284.8473389,2284.8473389,2284.8473389,2284.8473389,2284.8473389,2284.8473389,None,None,None,,,,,,,,,,,2280.1141299,2280.1141299,None,,2281.2071035,2281.2071035,n,2280.1141299,2280.1141299,3.0352214000000686,,,1,001,2024-05-30_10h23.58.972,robot_nback_sign,2022.2.5,60.00056400528521,
R_Arm_X_For,False,3,robot,1,False,False,robot_stimuli\R_Arm_X_For.mp4,1,,,,,,,,,0,115,115,115,,,,,,,,,,,,,2284.8473389,2285.9341814,,,,,,,2289.5851806,2289.5851806,2289.5851806,2289.5851806,2289.5851806,2289.5851806,2289.5851806,2289.5851806,None,None,None,,,,,,,,,,,2284.8473389,2284.8473389,None,,2285.9341814,2285.9341814,n,2284.8473389,2284.8473389,2.715347399999814,,,1,001,2024-05-30_10h23.58.972,robot_nback_sign,2022.2.5,60.00056400528521,
L_Torso_Y_Back,False,3,robot,1,False,False,robot_stimuli\L_Torso_Y_Back.mp4,1,,,,,,,,,0,116,116,116,,,,,,,,,,,,,2289.5851806,2290.666875,,,,,,,2294.2967903,2294.2967903,2294.2967903,2294.2967903,2294.2967903,2294.2967903,2294.2967903,2294.2967903,None,None,None,,,,,,,,,,,2289.5851806,2289.5851806,None,,2290.666875,2290.666875,n,2289.5851806,2289.5851806,2.375112600000307,,,1,001,2024-05-30_10h23.58.972,robot_nback_sign,2022.2.5,60.00056400528521,
R_Head_X_For,False,3,robot,1,False,False,robot_stimuli\R_Head_X_For.mp4,1,,,,,,,,,0,117,117,117,,,,,,,,,,,,,2294.2967903,2295.3899351,,,,,,,2299.0324961,2299.0324961,2299.0324961,2299.0324961,2299.0324961,2299.0324961,2299.0324961,2299.0324961,None,None,None,,,,,,,,,,,2294.2967903,2294.2967903,None,,2295.3899351,2295.3899351,n,2294.2967903,2294.2967903,2.556779399999982,,,1,001,2024-05-30_10h23.58.972,robot_nback_sign,2022.2.5,60.00056400528521,
R_Arm_Z_Back,False,3,robot,1,False,False,robot_stimuli\R_Arm_Z_Back.mp4,1,,,,,,,,,0,118,118,118,,,,,,,,,,,,,2299.0324961,2300.1329187,,,,,,,2303.7736318,2303.7736318,2303.7736318,2303.7736318,2303.7736318,2303.7736318,2303.7736318,2303.7736318,None,None,None,,,,,,,,,,,2299.0324961,2299.0324961,None,,2300.1329187,2300.1329187,n,2299.0324961,2299.0324961,2.149611899999968,,,1,001,2024-05-30_10h23.58.972,robot_nback_sign,2022.2.5,60.00056400528521,
R_Head_Z_Back,False,3,robot,1,False,False,robot_stimuli\R_Head_Z_Back.mp4,1,,,,,,,,,0,119,119,119,,,,,,,,,,,,,2303.7736318,,,,,,,,2308.5166105000003,2308.5166105000003,2308.5166105000003,2308.5166105000003,2308.5166105000003,2308.5166105000003,2308.5166105000003,2308.5166105000003,None,None,None,,,,,,,,,,,2303.7736318,2303.7736318,None,,2304.8679062,2304.8679062,n,2303.7736318,2303.7736318,2.3735694999996895,,,1,001,2024-05-30_10h23.58.972,robot_nback_sign,2022.2.5,60.00056400528521,
R_Arm_X_For,False,3,robot,1,False,False,robot_stimuli\R_Arm_X_For.mp4,1,,,,,,,,,0,120,120,120,,,,,,,,,,,,,2308.5166105000003,2309.600651,,,,,,,2313.2519398,2313.2519398,2313.2519398,2313.2519398,2313.2519398,2313.2519398,2313.2519398,2313.2519398,None,None,None,,,,,,,,,,,2308.5166105000003,2308.5166105000003,None,,2309.600651,2309.600651,n,2308.5166105000003,2308.5166105000003,3.5930535999997346,,,1,001,2024-05-30_10h23.58.972,robot_nback_sign,2022.2.5,60.00056400528521,
R_Torso_Z_Back,False,3,robot,1,False,False,robot_stimuli\R_Torso_Z_Back.mp4,1,,,,,,,,,0,121,121,121,,,,,,,,,,,,,2313.2519398,2314.3339662000003,,,,,,,2317.9736703,2317.9736703,2317.9736703,2317.9736703,2317.9736703,2317.9736703,2317.9736703,2317.9736703,None,None,None,,,,,,,,,,,2313.2519398,2313.2519398,None,,2314.3339662000003,2314.3339662000003,c,2313.2519398,2313.2519398,3.2593849000001,,,1,001,2024-05-30_10h23.58.972,robot_nback_sign,2022.2.5,60.00056400528521,
R_Arm_Y_For,False,3,robot,1,False,False,robot_stimuli\R_Arm_Y_For.mp4,1,,,,,,,,,0,122,122,122,,,,,,,,,,,,,2317.9736703,,,,,,,,2322.6851722,2322.6851722,2322.6851722,2322.6851722,2322.6851722,2322.6851722,2322.6851722,2322.6851722,None,None,None,,,,,,,,,,,2317.9736703,2317.9736703,None,,2319.0688415,2319.0688415,c,2317.9736703,2317.9736703,2.37342799999999,,,1,001,2024-05-30_10h23.58.972,robot_nback_sign,2022.2.5,60.00056400528521,
R_Arm_X_For,True,3,robot,1,False,False,robot_stimuli\R_Arm_X_For.mp4,1,,,,,,,,,0,123,123,123,,,,,,,,,,,,,2322.6851722,2323.7668549,,,,,,,2327.4188638,2327.4188638,2327.4188638,2327.4188638,2327.4188638,2327.4188638,2327.4188638,2327.4188638,None,None,None,,,,,,,,,,,2322.6851722,2322.6851722,None,,2323.7668549,2323.7668549,c,2322.6851722,2322.6851722,2.29147179999984,,,1,001,2024-05-30_10h23.58.972,robot_nback_sign,2022.2.5,60.00056400528521,
L_Head_X_Back,False,3,robot,1,False,False,robot_stimuli\L_Head_X_Back.mp4,1,,,,,,,,,0,124,124,124,,,,,,,,,,,,,2327.4188638,2328.5011178,,,,,,,2332.1510820000003,2332.1510820000003,2332.1510820000003,2332.1510820000003,2332.1510820000003,2332.1510820000003,2332.1510820000003,2332.1510820000003,None,None,None,,,,,,,,,,,2327.4188638,2327.4188638,None,,2328.5011178,2328.5011178,n,2327.4188638,2327.4188638,1.0444600999995828,,,1,001,2024-05-30_10h23.58.972,robot_nback_sign,2022.2.5,60.00056400528521,
R_Arm_Y_For,True,3,robot,1,False,False,robot_stimuli\R_Arm_Y_For.mp4,1,,,,,,,,,0,125,125,125,,,,,,,,,,,,,2332.1510820000003,2333.2351412000003,,,,,,,2336.852117,2336.852117,2336.852117,2336.852117,2336.852117,2336.852117,2336.852117,2336.852117,None,None,None,,,,,,,,,,,2332.1510820000003,2332.1510820000003,None,,2333.2351412000003,2333.2351412000003,c,2332.1510820000003,2332.1510820000003,2.6385409999999183,,,1,001,2024-05-30_10h23.58.972,robot_nback_sign,2022.2.5,60.00056400528521,
R_Arm_X_For,True,3,robot,1,False,False,robot_stimuli\R_Arm_X_For.mp4,1,,,,,,,,,0,126,126,126,,,,,,,,,,,,,2336.852117,2337.9334131,,,,,,,2341.5741222,2341.5741222,2341.5741222,2341.5741222,2341.5741222,2341.5741222,2341.5741222,2341.5741222,None,None,None,,,,,,,,,,,2336.852117,2336.852117,None,,2337.9334131,2337.9334131,c,2336.852117,2336.852117,2.2752707000000783,,,1,001,2024-05-30_10h23.58.972,robot_nback_sign,2022.2.5,60.00056400528521,
L_Head_Z_Back,False,3,robot,1,False,False,robot_stimuli\L_Head_Z_Back.mp4,1,,,,,,,,,0,127,127,127,,,,,,,,,,,,,2341.5741222,,,,,,,,2346.3184063,2346.3184063,2346.3184063,2346.3184063,2346.3184063,2346.3184063,2346.3184063,2346.3184063,None,None,None,,,,,,,,,,,2341.5741222,2341.5741222,None,,2342.6681944,2342.6681944,n,2341.5741222,2341.5741222,1.486188700000298,,,1,001,2024-05-30_10h23.58.972,robot_nback_sign,2022.2.5,60.00056400528521,
R_Arm_Y_For,True,3,robot,1,False,False,robot_stimuli\R_Arm_Y_For.mp4,1,,,,,,,,,0,128,128,128,,,,,,,,,,,,,2346.3184063,2347.3991631,,,,,,,2351.0054772000003,2351.0054772000003,2351.0054772000003,2351.0054772000003,2351.0054772000003,2351.0054772000003,2351.0054772000003,2351.0054772000003,None,None,None,,,,,,,,,,,2346.3184063,2346.3184063,None,,2347.3991631,2347.3991631,c,2346.3184063,2346.3184063,1.9223883999999316,,,1,001,2024-05-30_10h23.58.972,robot_nback_sign,2022.2.5,60.00056400528521,
R_Arm_Y_Back,False,3,robot,1,False,False,robot_stimuli\R_Arm_Y_Back.mp4,1,,,,,,,,,0,129,129,129,,,,,,,,,,,,,2351.0054772000003,2352.0873271,,,,,,,2355.7346801,2355.7346801,2355.7346801,2355.7346801,2355.7346801,2355.7346801,2355.7346801,2355.7346801,None,None,None,,,,,,,,,,,2351.0054772000003,2351.0054772000003,None,,2352.0873271,2352.0873271,n,2351.0054772000003,2351.0054772000003,2.954984999999965,,,1,001,2024-05-30_10h23.58.972,robot_nback_sign,2022.2.5,60.00056400528521,
L_Head_Z_Back,True,3,robot,1,False,False,robot_stimuli\L_Head_Z_Back.mp4,1,,,,,,,,,0,130,130,130,,,,,,,,,,,,,2355.7346801,2356.8162331,,,,,,,2360.4565344000002,2360.4565344000002,2360.4565344000002,2360.4565344000002,2360.4565344000002,2360.4565344000002,2360.4565344000002,2360.4565344000002,None,None,None,,,,,,,,,,,2355.7346801,2355.7346801,None,,2356.8162331,2356.8162331,c,2355.7346801,2355.7346801,2.19247979999966,,,1,001,2024-05-30_10h23.58.972,robot_nback_sign,2022.2.5,60.00056400528521,
L_Torso_Z_Back,False,3,robot,1,False,False,robot_stimuli\L_Torso_Z_Back.mp4,1,,,,,,,,,0,131,131,131,,,,,,,,,,,,,2360.4565344000002,2361.5343847,,,,,,,2365.1842767000003,2365.1842767000003,2365.1842767000003,2365.1842767000003,2365.1842767000003,2365.1842767000003,2365.1842767000003,2365.1842767000003,None,None,None,,,,,,,,,,,2360.4565344000002,2360.4565344000002,None,,2361.5343847,2361.5343847,n,2360.4565344000002,2360.4565344000002,1.2517019000002847,,,1,001,2024-05-30_10h23.58.972,robot_nback_sign,2022.2.5,60.00056400528521,
L_Head_X_Back,False,3,robot,1,False,False,robot_stimuli\L_Head_X_Back.mp4,1,,,,,,,,,0,132,132,132,,,,,,,,,,,,,2365.1842767000003,2366.2667114,,,,,,,2369.9056938,2369.9056938,2369.9056938,2369.9056938,2369.9056938,2369.9056938,2369.9056938,2369.9056938,None,None,None,,,,,,,,,,,2365.1842767000003,2365.1842767000003,None,,2366.2667114,2366.2667114,n,2365.1842767000003,2365.1842767000003,1.2152655999999524,,,1,001,2024-05-30_10h23.58.972,robot_nback_sign,2022.2.5,60.00056400528521,
R_Base_Y_For,False,3,robot,1,False,False,robot_stimuli\R_Base_Y_For.mp4,1,,,,,,,,,0,133,133,133,,,,,,,,,,,,,2369.9056938,2370.9837693,,,,,,,2374.6155692,2374.6155692,2374.6155692,2374.6155692,2374.6155692,2374.6155692,2374.6155692,2374.6155692,None,None,None,,,,,,,,,,,2369.9056938,2369.9056938,None,,2370.9837693,2370.9837693,n,2369.9056938,2369.9056938,1.6015979999998535,,,1,001,2024-05-30_10h23.58.972,robot_nback_sign,2022.2.5,60.00056400528521,
L_Base_Z_For,False,3,robot,1,False,False,robot_stimuli\L_Base_Z_For.mp4,1,,,,,,,,,0,134,134,134,,,,,,,,,,,,,2374.6155692,2375.7066788,,,,,,,2379.3492307,2379.3492307,2379.3492307,2379.3492307,2379.3492307,2379.3492307,2379.3492307,2379.3492307,None,None,None,,,,,,,,,,,2374.6155692,2374.6155692,None,,2375.7066788,2375.7066788,n,2374.6155692,2374.6155692,2.638775600000031,,,1,001,2024-05-30_10h23.58.972,robot_nback_sign,2022.2.5,60.00056400528521,
R_Base_Z_Back,False,3,robot,1,False,False,robot_stimuli\R_Base_Z_Back.mp4,1,,,,,,,,,0,135,135,135,,,,,,,,,,,,,2379.3492307,2380.4330913,,,,,,,2384.0645063,2384.0645063,2384.0645063,2384.0645063,2384.0645063,2384.0645063,2384.0645063,2384.0645063,None,None,None,,,,,,,,,,,2379.3492307,2379.3492307,None,,2380.4330913,2380.4330913,n,2379.3492307,2379.3492307,2.5520800000000463,,,1,001,2024-05-30_10h23.58.972,robot_nback_sign,2022.2.5,60.00056400528521,
R_Base_X_For,False,3,robot,1,False,False,robot_stimuli\R_Base_X_For.mp4,1,,,,,,,,,0,136,136,136,,,,,,,,,,,,,2384.0645063,2385.1503876,,,,,,,2388.7795812,2388.7795812,2388.7795812,2388.7795812,2388.7795812,2388.7795812,2388.7795812,2388.7795812,None,None,None,,,,,,,,,,,2384.0645063,2384.0645063,None,,2385.1503876,2385.1503876,n,2384.0645063,2384.0645063,2.49180889999991,,,1,001,2024-05-30_10h23.58.972,robot_nback_sign,2022.2.5,60.00056400528521,
L_Base_Z_For,True,3,robot,1,False,False,robot_stimuli\L_Base_Z_For.mp4,1,,,,,,,,,0,137,137,137,,,,,,,,,,,,,2388.7795812,2389.8664931000003,,,,,,,2393.497316,2393.497316,2393.497316,2393.497316,2393.497316,2393.497316,2393.497316,2393.497316,None,None,None,,,,,,,,,,,2388.7795812,2388.7795812,None,,2389.8664931000003,2389.8664931000003,c,2388.7795812,2388.7795812,2.631439599999908,,,1,001,2024-05-30_10h23.58.972,robot_nback_sign,2022.2.5,60.00056400528521,
R_Torso_Z_For,False,3,robot,1,False,False,robot_stimuli\R_Torso_Z_For.mp4,1,,,,,,,,,0,138,138,138,,,,,,,,,,,,,2393.497316,2394.5835761000003,,,,,,,2398.2234483,2398.2234483,2398.2234483,2398.2234483,2398.2234483,2398.2234483,2398.2234483,2398.2234483,None,None,None,,,,,,,,,,,2393.497316,2393.497316,None,,2394.5835761000003,2394.5835761000003,c,2393.497316,2393.497316,2.3866892000002053,,,1,001,2024-05-30_10h23.58.972,robot_nback_sign,2022.2.5,60.00056400528521,
R_Arm_Y_For,False,3,robot,1,False,False,robot_stimuli\R_Arm_Y_For.mp4,1,,,,,,,,,0,139,139,139,,,,,,,,,,,,,2398.2234483,2399.2998723,,,,,,,2402.9056696000002,2402.9056696000002,2402.9056696000002,2402.9056696000002,2402.9056696000002,2402.9056696000002,2402.9056696000002,2402.9056696000002,None,None,None,,,,,,,,,,,2398.2234483,2398.2234483,None,,2399.2998723,2399.2998723,n,2398.2234483,2398.2234483,2.445814699999687,,,1,001,2024-05-30_10h23.58.972,robot_nback_sign,2022.2.5,60.00056400528521,
L_Arm_X_Back,False,3,robot,1,False,False,robot_stimuli\L_Arm_X_Back.mp4,1,,,,,,,,,0,140,140,140,,,,,,,,,,,,,2402.9056696000002,2403.9858998,,,,,,,2407.6363158,2407.6363158,2407.6363158,2407.6363158,2407.6363158,2407.6363158,2407.6363158,2407.6363158,None,None,None,,,,,,,,,,,2402.9056696000002,2402.9056696000002,None,,2403.9858998,2403.9858998,n,2402.9056696000002,2402.9056696000002,2.4721515000002228,,,1,001,2024-05-30_10h23.58.972,robot_nback_sign,2022.2.5,60.00056400528521,
R_Head_Z_For,False,3,robot,1,False,False,robot_stimuli\R_Head_Z_For.mp4,1,,,,,,,,,0,141,141,141,,,,,,,,,,,,,2407.6363158,2408.717354,,,,,,,2412.367741,2412.367741,2412.367741,2412.367741,2412.367741,2412.367741,2412.367741,2412.367741,None,None,None,,,,,,,,,,,2407.6363158,2407.6363158,None,,2408.717354,2408.717354,n,2407.6363158,2407.6363158,1.8914035999997623,,,1,001,2024-05-30_10h23.58.972,robot_nback_sign,2022.2.5,60.00056400528521,
L_Base_Z_For,False,3,robot,1,False,False,robot_stimuli\L_Base_Z_For.mp4,1,,,,,,,,,0,142,142,142,,,,,,,,,,,,,2412.367741,2413.4507838,,,,,,,2417.0800369,2417.0800369,2417.0800369,2417.0800369,2417.0800369,2417.0800369,2417.0800369,2417.0800369,None,None,None,,,,,,,,,,,2412.367741,2412.367741,None,,2413.4507838,2413.4507838,n,2412.367741,2412.367741,1.2473492000000306,,,1,001,2024-05-30_10h23.58.972,robot_nback_sign,2022.2.5,60.00056400528521,
L_Arm_X_Back,True,3,robot,1,False,False,robot_stimuli\L_Arm_X_Back.mp4,1,,,,,,,,,0,143,143,143,,,,,,,,,,,,,2417.0800369,2418.1674824,,,,,,,2421.8050925000002,2421.8050925000002,2421.8050925000002,2421.8050925000002,2421.8050925000002,2421.8050925000002,2421.8050925000002,2421.8050925000002,None,None,None,,,,,,,,,,,2417.0800369,2417.0800369,None,,2418.1674824,2418.1674824,c,2417.0800369,2417.0800369,2.0029074999998784,,,1,001,2024-05-30_10h23.58.972,robot_nback_sign,2022.2.5,60.00056400528521,
L_Arm_X_Back,False,3,robot,1,False,False,robot_stimuli\L_Arm_X_Back.mp4,1,,,,,,,,,0,144,144,144,,,,,,,,,,,,,2421.8050925000002,2422.8823095000002,,,,,,,2426.5235199,2426.5235199,2426.5235199,2426.5235199,2426.5235199,2426.5235199,2426.5235199,2426.5235199,None,None,None,,,,,,,,,,,2421.8050925000002,2421.8050925000002,None,,2422.8823095000002,2422.8823095000002,n,2421.8050925000002,2421.8050925000002,2.6066167999998697,,,1,001,2024-05-30_10h23.58.972,robot_nback_sign,2022.2.5,60.00056400528521,
L_Head_Z_For,False,3,robot,1,False,False,robot_stimuli\L_Head_Z_For.mp4,1,,,,,,,,,0,145,145,145,,,,,,,,,,,,,2426.5235199,2427.6020869,,,,,,,2431.2509591000003,2431.2509591000003,2431.2509591000003,2431.2509591000003,2431.2509591000003,2431.2509591000003,2431.2509591000003,2431.2509591000003,None,None,None,,,,,,,,,,,2426.5235199,2426.5235199,None,,2427.6020869,2427.6020869,n,2426.5235199,2426.5235199,1.3997520999997732,,,1,001,2024-05-30_10h23.58.972,robot_nback_sign,2022.2.5,60.00056400528521,
R_Base_X_For,False,3,robot,1,False,False,robot_stimuli\R_Base_X_For.mp4,1,,,,,,,,,0,146,146,146,,,,,,,,,,,,,2431.2509591000003,2432.3350763000003,,,,,,,2435.9843119,2435.9843119,2435.9843119,2435.9843119,2435.9843119,2435.9843119,2435.9843119,2435.9843119,None,None,None,,,,,,,,,,,2431.2509591000003,2431.2509591000003,None,,2432.3350763000003,2432.3350763000003,n,2431.2509591000003,2431.2509591000003,2.498863599999936,,,1,001,2024-05-30_10h23.58.972,robot_nback_sign,2022.2.5,60.00056400528521,
L_Arm_X_For,False,3,robot,1,False,False,robot_stimuli\L_Arm_X_For.mp4,1,,,,,,,,,0,147,147,147,,,,,,,,,,,,,2435.9843119,2437.0680533,,,,,,,2440.7175805,2440.7175805,2440.7175805,2440.7175805,2440.7175805,2440.7175805,2440.7175805,2440.7175805,None,None,None,,,,,,,,,,,2435.9843119,2435.9843119,None,,2437.0680533,2437.0680533,c,2435.9843119,2435.9843119,2.2611907000001565,,,1,001,2024-05-30_10h23.58.972,robot_nback_sign,2022.2.5,60.00056400528521,
R_Base_Z_For,False,3,robot,1,False,False,robot_stimuli\R_Base_Z_For.mp4,1,,,,,,,,,0,148,148,148,,,,,,,,,,,,,2440.7175805,2441.799547,,,,,,,2445.4386224,2445.4386224,2445.4386224,2445.4386224,2445.4386224,2445.4386224,2445.4386224,2445.4386224,None,None,None,,,,,,,,,,,2440.7175805,2440.7175805,None,,2441.799547,2441.799547,n,2440.7175805,2440.7175805,0.9143675999999914,,,1,001,2024-05-30_10h23.58.972,robot_nback_sign,2022.2.5,60.00056400528521,
R_Base_X_For,True,3,robot,1,False,True,robot_stimuli\R_Base_X_For.mp4,1,,,,,,,,,0,149,149,149,,,,,,,,,,,,,2445.4386224,2446.5178112,,,,,,,2450.1907047,2454.2143327,2450.1907047,2454.2143327,2450.1907047,2454.2143327,2450.1907047,2454.2143327,48.364197530864196,3.1296581999999944,space,,,,3.9781410000001642,,,,,,,2445.4386224,2445.4386224,None,,2446.5178112,2446.5178112,n,2445.4386224,2445.4386224,2.4597589999999627,,,1,001,2024-05-30_10h23.58.972,robot_nback_sign,2022.2.5,60.00056400528521,
N,False,1,letter,2,True,False,robot_stimuli\\filler.mp4,1,,,,,,,,,0,150,150,150,,,,,,,,,,,,,2464.3225801,2465.3806799,,,,,,,2467.412288,2467.412288,2467.412288,2467.412288,2467.412288,2467.412288,2467.412288,2467.412288,None,None,None,,,,,,,,,,,2454.2143327,2454.2143327,space,10.076123699999812,,2465.3806799,n,,,1.5415107999998554,2465.3806799,2467.412288,1,001,2024-05-30_10h23.58.972,robot_nback_sign,2022.2.5,60.00056400528521,
X,False,1,letter,2,False,False,robot_stimuli\\filler.mp4,1,,,,,,,,,0,151,151,151,,,,,,,,,,,,,2467.412288,2468.4766668,,,,,,,2470.7092427000002,2470.7092427000002,2470.7092427000002,2470.7092427000002,2470.7092427000002,2470.7092427000002,2470.7092427000002,2470.7092427000002,None,None,None,,,,,,,,,,,2467.412288,2467.412288,None,,,2468.4766668,None,2467.412288,2467.412288,,2468.4766668,2470.7092427000002,1,001,2024-05-30_10h23.58.972,robot_nback_sign,2022.2.5,60.00056400528521,
V,False,1,letter,2,False,False,robot_stimuli\\filler.mp4,1,,,,,,,,,0,152,152,152,,,,,,,,,,,,,2470.7092427000002,,,,,,,,2473.8094364,2473.8094364,2473.8094364,2473.8094364,2473.8094364,2473.8094364,2473.8094364,2473.8094364,None,None,None,,,,,,,,,,,2470.7092427000002,2470.7092427000002,None,,,2471.7790828,n,2470.7092427000002,2470.7092427000002,0.9348147000001745,2471.7790828,2473.8094364,1,001,2024-05-30_10h23.58.972,robot_nback_sign,2022.2.5,60.00056400528521,
D,False,1,letter,2,False,False,robot_stimuli\\filler.mp4,1,,,,,,,,,0,153,153,153,,,,,,,,,,,,,2473.8094364,2474.8819976,,,,,,,2476.9124803,2476.9124803,2476.9124803,2476.9124803,2476.9124803,2476.9124803,2476.9124803,2476.9124803,None,None,None,,,,,,,,,,,2473.8094364,2473.8094364,None,,,2474.8819976,n,2473.8094364,2473.8094364,0.4718116999998756,2474.8819976,2476.9124803,1,001,2024-05-30_10h23.58.972,robot_nback_sign,2022.2.5,60.00056400528521,
H,False,1,letter,2,False,False,robot_stimuli\\filler.mp4,1,,,,,,,,,0,154,154,154,,,,,,,,,,,,,2476.9124803,2477.9768870000003,,,,,,,2480.2100328,2480.2100328,2480.2100328,2480.2100328,2480.2100328,2480.2100328,2480.2100328,2480.2100328,None,None,None,,,,,,,,,,,2476.9124803,2476.9124803,None,,,2477.9768870000003,n,2476.9124803,2476.9124803,0.42580829999963044,2477.9768870000003,2480.2100328,1,001,2024-05-30_10h23.58.972,robot_nback_sign,2022.2.5,60.00056400528521,
Z,False,1,letter,2,False,False,robot_stimuli\\filler.mp4,1,,,,,,,,,0,155,155,155,,,,,,,,,,,,,2480.2100328,2481.2770217,,,,,,,2483.3070198,2483.3070198,2483.3070198,2483.3070198,2483.3070198,2483.3070198,2483.3070198,2483.3070198,None,None,None,,,,,,,,,,,2480.2100328,2480.2100328,None,,,2481.2770217,n,2480.2100328,2480.2100328,0.5078755999999203,2481.2770217,2483.3070198,1,001,2024-05-30_10h23.58.972,robot_nback_sign,2022.2.5,60.00056400528521,
T,False,1,letter,2,False,False,robot_stimuli\\filler.mp4,1,,,,,,,,,0,156,156,156,,,,,,,,,,,,,2483.3070198,2484.3595585000003,,,,,,,2486.59098,2486.59098,2486.59098,2486.59098,2486.59098,2486.59098,2486.59098,2486.59098,None,None,None,,,,,,,,,,,2483.3070198,2483.3070198,None,,,2484.3595585000003,n,2483.3070198,2483.3070198,0.44242129999986446,2484.3595585000003,2486.59098,1,001,2024-05-30_10h23.58.972,robot_nback_sign,2022.2.5,60.00056400528521,
H,False,1,letter,2,False,False,robot_stimuli\\filler.mp4,1,,,,,,,,,0,157,157,157,,,,,,,,,,,,,2486.59098,,,,,,,,2489.6902715,2489.6902715,2489.6902715,2489.6902715,2489.6902715,2489.6902715,2489.6902715,2489.6902715,None,None,None,,,,,,,,,,,2486.59098,2486.59098,None,,,2487.6592312000002,n,2486.59098,2486.59098,0.44565069999964635,2487.6592312000002,2489.6902715,1,001,2024-05-30_10h23.58.972,robot_nback_sign,2022.2.5,60.00056400528521,
M,False,1,letter,2,False,False,robot_stimuli\\filler.mp4,1,,,,,,,,,0,158,158,158,,,,,,,,,,,,,2489.6902715,2490.7456298,,,,,,,2492.7788632,2492.7788632,2492.7788632,2492.7788632,2492.7788632,2492.7788632,2492.7788632,2492.7788632,None,None,None,,,,,,,,,,,2489.6902715,2489.6902715,None,,,2490.7456298,n,2489.6902715,2489.6902715,0.4330040000000963,2490.7456298,2492.7788632,1,001,2024-05-30_10h23.58.972,robot_nback_sign,2022.2.5,60.00056400528521,
B,False,1,letter,2,False,False,robot_stimuli\\filler.mp4,1,,,,,,,,,0,159,159,159,,,,,,,,,,,,,2492.7788632,2493.8431056,,,,,,,2495.8796282000003,2495.8796282000003,2495.8796282000003,2495.8796282000003,2495.8796282000003,2495.8796282000003,2495.8796282000003,2495.8796282000003,None,None,None,,,,,,,,,,,2492.7788632,2492.7788632,None,,,2493.8431056,n,2492.7788632,2492.7788632,0.4623671000000513,2493.8431056,2495.8796282000003,1,001,2024-05-30_10h23.58.972,robot_nback_sign,2022.2.5,60.00056400528521,
M,False,1,letter,2,False,False,robot_stimuli\\filler.mp4,1,,,,,,,,,0,160,160,160,,,,,,,,,,,,,2495.8796282000003,2496.9427873,,,,,,,2499.1691062,2499.1691062,2499.1691062,2499.1691062,2499.1691062,2499.1691062,2499.1691062,2499.1691062,None,None,None,,,,,,,,,,,2495.8796282000003,2495.8796282000003,None,,,2496.9427873,n,2495.8796282000003,2495.8796282000003,0.5144492999999102,2496.9427873,2499.1691062,1,001,2024-05-30_10h23.58.972,robot_nback_sign,2022.2.5,60.00056400528521,
K,False,1,letter,2,False,False,robot_stimuli\\filler.mp4,1,,,,,,,,,0,161,161,161,,,,,,,,,,,,,2499.1691062,2500.225727,,,,,,,2502.4514009,2502.4514009,2502.4514009,2502.4514009,2502.4514009,2502.4514009,2502.4514009,2502.4514009,None,None,None,,,,,,,,,,,2499.1691062,2499.1691062,None,,,2500.225727,n,2499.1691062,2499.1691062,0.4490495000001147,2500.225727,2502.4514009,1,001,2024-05-30_10h23.58.972,robot_nback_sign,2022.2.5,60.00056400528521,
S,False,1,letter,2,False,False,robot_stimuli\\filler.mp4,1,,,,,,,,,0,162,162,162,,,,,,,,,,,,,2502.4514009,2503.5101466,,,,,,,2505.5400621,2505.5400621,2505.5400621,2505.5400621,2505.5400621,2505.5400621,2505.5400621,2505.5400621,None,None,None,,,,,,,,,,,2502.4514009,2502.4514009,None,,,2503.5101466,n,2502.4514009,2502.4514009,0.523711599999956,2503.5101466,2505.5400621,1,001,2024-05-30_10h23.58.972,robot_nback_sign,2022.2.5,60.00056400528521,
K,False,1,letter,2,False,False,robot_stimuli\\filler.mp4,1,,,,,,,,,0,163,163,163,,,,,,,,,,,,,2505.5400621,2506.5941664,,,,,,,2508.6247006,2508.6247006,2508.6247006,2508.6247006,2508.6247006,2508.6247006,2508.6247006,2508.6247006,None,None,None,,,,,,,,,,,2505.5400621,2505.5400621,None,,,2506.5941664,n,2505.5400621,2505.5400621,0.9112484000003178,2506.5941664,2508.6247006,1,001,2024-05-30_10h23.58.972,robot_nback_sign,2022.2.5,60.00056400528521,
K,True,1,letter,2,False,False,robot_stimuli\\filler.mp4,1,,,,,,,,,0,164,164,164,,,,,,,,,,,,,2508.6247006,,,,,,,,2511.9187694,2511.9187694,2511.9187694,2511.9187694,2511.9187694,2511.9187694,2511.9187694,2511.9187694,None,None,None,,,,,,,,,,,2508.6247006,2508.6247006,None,,,2509.6947985,c,2508.6247006,2508.6247006,0.5315034999999853,2509.6947985,2511.9187694,1,001,2024-05-30_10h23.58.972,robot_nback_sign,2022.2.5,60.00056400528521,
