sequence,odd_ones,parameter,choices,target,target_idx,condition,stimuli,block,is_block_beginning,is_block_ending,sequence_fnames,target_fname,subject,retraining.thisRepN,retraining.thisTrialN,retraining.thisN,retraining.thisIndex,training.thisRepN,training.thisTrialN,training.thisN,training.thisIndex,training_sequence_loop.thisRepN,training_sequence_loop.thisTrialN,training_sequence_loop.thisN,training_sequence_loop.thisIndex,trials.thisRepN,trials.thisTrialN,trials.thisN,trials.thisIndex,sequence_loop.thisRepN,sequence_loop.thisTrialN,sequence_loop.thisN,sequence_loop.thisIndex,langage_text.started,langage_key.started,langage_key.keys,langage_key.rt,intro_text.started,intro_key.started,intro_key.keys,intro_key.rt,training_intro_text.started,training_intro_key.started,training_intro_key.keys,training_intro_key.rt,polygon.started,polygon.stopped,cue_before_text.started,cue_before_text.stopped,training_presentation_letter.started,training_presentation_letter.stopped,recall_key.started,recall_question.started,recall_answer.started,recall_key.keys,recall_key.rt,RSME_labels.started,RSME_labels.stopped,RSME_ticks.started,RSME_ticks.stopped,RSME_text.started,RSME_text.stopped,RSME_key.started,RSME_key.stopped,RSME_ticks.response,RSME_ticks.rt,RSME_key.keys,training_intro_text.stopped,training_intro_key.stopped,RSME_key.rt,training_presentation_movie.started,experiment_beginning_text.started,experiment_beginning_keys.started,experiment_beginning_key.started,experiment_beginning_key.keys,experiment_beginning_key.rt,block_intro_text.started,block_intro_key.started,block_intro_key.keys,block_intro_key.rt,presentation_movie.started,block_intro_text.stopped,block_intro_key.stopped,presentation_letter.started,presentation_letter.stopped,participant,session,date,expName,psychopyVersion,frameRate,
,,,,,,,,,,,,,,,,,,,,,,,,,,,,,,,,,,21.134599199998775,21.134599199998775,f,3.0698320000010426,,,,,,,,,,,,,,,,,,,,,,,,,,,,,,,,,,,,,,,,,,,,,,,,,7,001,2024-07-23_15h15.42.938,robot_cogshifting_sign,2022.2.5,59.96196013252798,
,,,,,,,,,,,,,,,,,,,,,,,,,,,,,,,,,,,,,,24.260883200000535,24.260883200000535,space,18.047454700001254,,,,,,,,,,,,,,,,,,,,,,,,,,,,,,,,,,,,,,,,,,,,,7,001,2024-07-23_15h15.42.938,robot_cogshifting_sign,2022.2.5,59.96196013252798,
"['red_bottom_G_45', 'red_right_S_45', 'red_right_X_0', 'blue_right_P_45']","{'color': 'blue_right_P_45', 'position': 'red_bottom_G_45', 'orientation': 'red_right_X_0'}",position,['position'],red_bottom_G_45,0,1,letter,2,True,False,"['robot_stimuli\\\\filler.mp4', 'robot_stimuli\\\\filler.mp4', 'robot_stimuli\\\\filler.mp4', 'robot_stimuli\\\\filler.mp4']",robot_stimuli\\filler.mp4,7,0,0,0,0,0,0,0,0,,,,,,,,,,,,,,,,,,,,,42.34079700000075,42.34079700000075,space,2.174902300001122,44.54277400000137,45.542581900001096,45.542581900001096,47.8978160000006,54.79712980000113,57.032589800001006,57.032589800001006,57.032589800001006,57.032589800001006,1,6.891301799998473,63.99484200000006,63.99484200000006,63.99484200000006,63.99484200000006,63.99484200000006,63.99484200000006,63.99484200000006,63.99484200000006,None,None,None,,,,,,,,,,,,,,,,,,,7,001,2024-07-23_15h15.42.938,robot_cogshifting_sign,2022.2.5,59.96196013252798,
"['blue_right_K_0', 'red_right_L_0', 'blue_right_J_45', 'blue_top_P_0']","{'color': 'red_right_L_0', 'position': 'blue_top_P_0', 'orientation': 'blue_right_J_45'}",color,['color'],red_right_L_0,1,1,letter,2,False,False,"['robot_stimuli\\\\filler.mp4', 'robot_stimuli\\\\filler.mp4', 'robot_stimuli\\\\filler.mp4', 'robot_stimuli\\\\filler.mp4']",robot_stimuli\\filler.mp4,7,0,0,0,0,0,1,1,1,,,,,,,,,,,,,,,,,,,,,63.99484200000006,63.99484200000006,None,,63.99484200000006,,65.00944549999986,,73.98362270000143,75.99964149999869,75.99964149999869,75.99964149999869,75.99964149999869,2,1.5157284000015352,77.54267249999975,77.54267249999975,77.54267249999975,77.54267249999975,77.54267249999975,77.54267249999975,77.54267249999975,77.54267249999975,None,None,None,63.99484200000006,63.99484200000006,,,,,,,,,,,,,,,,,7,001,2024-07-23_15h15.42.938,robot_cogshifting_sign,2022.2.5,59.96196013252798,
"['red_left_V_45', 'blue_left_S_45', 'blue_left_B_0', 'blue_right_J_45']","{'color': 'red_left_V_45', 'position': 'blue_right_J_45', 'orientation': 'blue_left_B_0'}",orientation,['orientation'],blue_left_B_0,2,1,letter,2,False,True,"['robot_stimuli\\\\filler.mp4', 'robot_stimuli\\\\filler.mp4', 'robot_stimuli\\\\filler.mp4', 'robot_stimuli\\\\filler.mp4']",robot_stimuli\\filler.mp4,7,0,0,0,0,0,2,2,2,,,,,,,,,,,,,,,,,,,,,77.54267249999975,77.54267249999975,None,,77.54267249999975,78.54285099999834,78.54285099999834,80.6158050999984,87.32619020000129,89.34565479999947,89.34565479999947,89.34565479999947,89.34565479999947,3,1.4426198999972257,90.86317129999952,98.2374936999986,90.86317129999952,98.2374936999986,90.86317129999952,98.2374936999986,90.86317129999952,98.2374936999986,7.006172839506167,4.959734100000787,space,77.54267249999975,77.54267249999975,7.30931199999759,,,,,,,,,,,,,,,,7,001,2024-07-23_15h15.42.938,robot_cogshifting_sign,2022.2.5,59.96196013252798,
"['blue_top_P_45', 'red_left_G_45', 'red_top_T_0', 'red_top_P_45']","{'color': 'blue_top_P_45', 'position': 'red_left_G_45', 'orientation': 'red_top_T_0'}",position,"['color', 'position']",red_left_G_45,1,2,letter,2,True,False,"['robot_stimuli\\\\filler.mp4', 'robot_stimuli\\\\filler.mp4', 'robot_stimuli\\\\filler.mp4', 'robot_stimuli\\\\filler.mp4']",robot_stimuli\\filler.mp4,7,0,0,0,0,0,3,3,3,,,,,,,,,,,,,,,,,,,,,98.2374936999986,98.2374936999986,space,1.7733177000009164,100.04282600000079,101.04283909999867,101.04283909999867,103.11117359999844,110.01605689999997,112.24225389999992,112.24225389999992,112.24225389999992,112.24225389999992,2,14.074178300001222,126.34276909999971,126.34276909999971,126.34276909999971,126.34276909999971,126.34276909999971,126.34276909999971,126.34276909999971,126.34276909999971,None,None,None,,,,,,,,,,,,,,,,,,,7,001,2024-07-23_15h15.42.938,robot_cogshifting_sign,2022.2.5,59.96196013252798,
"['blue_right_M_45', 'red_right_S_45', 'red_right_J_0', 'red_bottom_H_45']","{'color': 'blue_right_M_45', 'position': 'red_bottom_H_45', 'orientation': 'red_right_J_0'}",orientation,"['orientation', 'position']",red_right_J_0,2,2,letter,2,False,False,"['robot_stimuli\\\\filler.mp4', 'robot_stimuli\\\\filler.mp4', 'robot_stimuli\\\\filler.mp4', 'robot_stimuli\\\\filler.mp4']",robot_stimuli\\filler.mp4,7,0,0,0,0,0,4,4,4,,,,,,,,,,,,,,,,,,,,,126.34276909999971,126.34276909999971,None,,126.34276909999971,127.3427632999992,127.3427632999992,129.41062460000103,136.11095750000095,138.33470170000146,138.33470170000146,138.33470170000146,138.33470170000146,3,5.333814000001439,143.69288339999912,143.69288339999912,143.69288339999912,143.69288339999912,143.69288339999912,143.69288339999912,143.69288339999912,143.69288339999912,None,None,None,126.34276909999971,126.34276909999971,,,,,,,,,,,,,,,,,7,001,2024-07-23_15h15.42.938,robot_cogshifting_sign,2022.2.5,59.96196013252798,
"['red_right_J_0', 'blue_right_B_45', 'red_right_M_45', 'red_top_L_45']","{'color': 'blue_right_B_45', 'position': 'red_top_L_45', 'orientation': 'red_right_J_0'}",color,"['color', 'position']",blue_right_B_45,1,2,letter,2,False,True,"['robot_stimuli\\\\filler.mp4', 'robot_stimuli\\\\filler.mp4', 'robot_stimuli\\\\filler.mp4', 'robot_stimuli\\\\filler.mp4']",robot_stimuli\\filler.mp4,7,0,0,0,0,0,5,5,5,,,,,,,,,,,,,,,,,,,,,143.69288339999912,143.69288339999912,None,,143.69288339999912,144.69282759999987,144.69282759999987,146.75777630000084,153.2673504000013,155.48334389999945,155.48334389999945,155.48334389999945,155.48334389999945,2,2.1919290000005276,157.71749030000137,162.36007660000178,157.71749030000137,162.36007660000178,157.71749030000137,162.36007660000178,157.71749030000137,162.36007660000178,25.370370370370367,2.9460393999979715,space,143.69288339999912,143.69288339999912,4.58149609999964,,,,,,,,,,,,,,,,7,001,2024-07-23_15h15.42.938,robot_cogshifting_sign,2022.2.5,59.96196013252798,
"['red_bottom_M_45', 'blue_bottom_R_45', 'red_bottom_X_0', 'red_right_W_45']","{'color': 'blue_bottom_R_45', 'position': 'red_right_W_45', 'orientation': 'red_bottom_X_0'}",color,"['color', 'orientation', 'position']",blue_bottom_R_45,1,3,letter,2,True,False,"['robot_stimuli\\\\filler.mp4', 'robot_stimuli\\\\filler.mp4', 'robot_stimuli\\\\filler.mp4', 'robot_stimuli\\\\filler.mp4']",robot_stimuli\\filler.mp4,7,0,0,0,0,0,6,6,6,,,,,,,,,,,,,,,,,,,,,162.36007660000178,162.36007660000178,space,5.138793699999951,167.5262365000017,168.52621450000152,168.52621450000152,170.59184509999977,177.1120422999993,179.32725429999846,179.32725429999846,179.32725429999846,179.32725429999846,2,4.596757300001627,183.94271840000147,183.94271840000147,183.94271840000147,183.94271840000147,183.94271840000147,183.94271840000147,183.94271840000147,183.94271840000147,None,None,None,,,,,,,,,,,,,,,,,,,7,001,2024-07-23_15h15.42.938,robot_cogshifting_sign,2022.2.5,59.96196013252798,
"['red_top_J_45', 'blue_top_F_0', 'red_left_Q_0', 'red_top_J_0']","{'color': 'blue_top_F_0', 'position': 'red_left_Q_0', 'orientation': 'red_top_J_45'}",orientation,"['color', 'orientation', 'position']",red_top_J_45,0,3,letter,2,False,False,"['robot_stimuli\\\\filler.mp4', 'robot_stimuli\\\\filler.mp4', 'robot_stimuli\\\\filler.mp4', 'robot_stimuli\\\\filler.mp4']",robot_stimuli\\filler.mp4,7,0,0,0,0,0,7,7,7,,,,,,,,,,,,,,,,,,,,,183.94271840000147,183.94271840000147,None,,183.94271840000147,184.94305149999855,184.94305149999855,187.0089048000009,193.71522769999865,195.93449709999913,195.93449709999913,195.93449709999913,195.93449709999913,1,7.52432829999816,203.47634679999828,203.47634679999828,203.47634679999828,203.47634679999828,203.47634679999828,203.47634679999828,203.47634679999828,203.47634679999828,None,None,None,183.94271840000147,183.94271840000147,,,,,,,,,,,,,,,,,7,001,2024-07-23_15h15.42.938,robot_cogshifting_sign,2022.2.5,59.96196013252798,
"['red_right_H_0', 'red_left_M_0', 'blue_left_J_0', 'red_left_B_45']","{'color': 'blue_left_J_0', 'position': 'red_right_H_0', 'orientation': 'red_left_B_45'}",position,"['color', 'orientation', 'position']",red_right_H_0,0,3,letter,2,False,True,"['robot_stimuli\\\\filler.mp4', 'robot_stimuli\\\\filler.mp4', 'robot_stimuli\\\\filler.mp4', 'robot_stimuli\\\\filler.mp4']",robot_stimuli\\filler.mp4,7,0,0,0,0,0,8,8,8,,,,,,,,,,,,,,,,,,,,,203.47634679999828,203.47634679999828,None,,203.47634679999828,204.47632000000158,204.47632000000158,206.53477070000008,213.03049509999983,215.05150560000038,215.05150560000038,215.05150560000038,215.05150560000038,3,14.137135000000853,229.23463080000147,234.3937158000008,229.23463080000147,234.3937158000008,229.23463080000147,234.3937158000008,229.23463080000147,234.3937158000008,35.70987654320988,3.1074186000005284,space,203.47634679999828,203.47634679999828,5.10468530000071,,,,,,,,,,,,,,,,7,001,2024-07-23_15h15.42.938,robot_cogshifting_sign,2022.2.5,59.96196013252798,
"['R_Torso_Z_Back', 'R_Base_X_For', 'R_Base_Z_For', 'L_Base_Z_Back']","{'laterality': 'L_Base_Z_Back', 'localisation': 'R_Torso_Z_Back', 'movement': 'R_Base_X_For'}",laterality,['laterality'],L_Base_Z_Back,3,1,robot,1,True,False,"['robot_stimuli\\R_Torso_Z_Back.mp4', 'robot_stimuli\\R_Base_X_For.mp4', 'robot_stimuli\\R_Base_Z_For.mp4', 'robot_stimuli\\L_Base_Z_Back.mp4']",robot_stimuli\L_Base_Z_Back.mp4,7,0,0,0,0,0,9,9,9,,,,,,,,,,,,,,,,,,,,,234.3937158000008,234.3937158000008,space,3.97022189999916,238.3928718999996,239.39283179999984,239.39283179999984,241.49288199999864,,,256.2156356000014,256.2156356000014,256.2156356000014,4,4.876420500000677,261.10953599999993,261.10953599999993,261.10953599999993,261.10953599999993,261.10953599999993,261.10953599999993,261.10953599999993,261.10953599999993,None,None,None,,,,252.5869101999997,,,,,,,,,,,,,,,7,001,2024-07-23_15h15.42.938,robot_cogshifting_sign,2022.2.5,59.96196013252798,
"['R_Head_Z_For', 'L_Head_Z_For', 'L_Head_Y_Back', 'L_Torso_Z_Back']","{'laterality': 'R_Head_Z_For', 'localisation': 'L_Torso_Z_Back', 'movement': 'L_Head_Y_Back'}",movement,['movement'],L_Head_Y_Back,2,1,robot,1,False,False,"['robot_stimuli\\R_Head_Z_For.mp4', 'robot_stimuli\\L_Head_Z_For.mp4', 'robot_stimuli\\L_Head_Y_Back.mp4', 'robot_stimuli\\L_Torso_Z_Back.mp4']",robot_stimuli\L_Head_Y_Back.mp4,7,0,0,0,0,0,10,10,10,,,,,,,,,,,,,,,,,,,,,261.10953599999993,261.10953599999993,None,,261.10953599999993,262.10961410000164,262.10961410000164,264.1987979000005,,,278.88208849999864,278.88208849999864,278.88208849999864,4,10.849973799999134,289.75953909999953,289.75953909999953,289.75953909999953,289.75953909999953,289.75953909999953,289.75953909999953,289.75953909999953,289.75953909999953,None,None,None,261.10953599999993,261.10953599999993,,275.38635609999983,,,,,,,,,,,,,,,7,001,2024-07-23_15h15.42.938,robot_cogshifting_sign,2022.2.5,59.96196013252798,
"['L_Arm_Y_Back', 'L_Arm_Z_For', 'R_Arm_Y_Back', 'L_Torso_Y_For']","{'laterality': 'R_Arm_Y_Back', 'localisation': 'L_Torso_Y_For', 'movement': 'L_Arm_Z_For'}",localisation,['localisation'],L_Torso_Y_For,3,1,robot,1,False,True,"['robot_stimuli\\L_Arm_Y_Back.mp4', 'robot_stimuli\\L_Arm_Z_For.mp4', 'robot_stimuli\\R_Arm_Y_Back.mp4', 'robot_stimuli\\L_Torso_Y_For.mp4']",robot_stimuli\L_Torso_Y_For.mp4,7,0,0,0,0,0,11,11,11,,,,,,,,,,,,,,,,,,,,,289.75953909999953,289.75953909999953,None,,289.75953909999953,290.7595177000003,290.7595177000003,292.8518742999986,,,307.68698270000095,307.68698270000095,307.68698270000095,2,8.86133410000184,316.6000907000016,321.35249470000053,316.6000907000016,321.35249470000053,316.6000907000016,321.35249470000053,316.6000907000016,321.35249470000053,36.635802469135804,2.5029835000023013,space,289.75953909999953,289.75953909999953,4.683605599999282,304.0392396999996,,,,,,,,,,,,,,,7,001,2024-07-23_15h15.42.938,robot_cogshifting_sign,2022.2.5,59.96196013252798,
"['L_Arm_X_Back', 'L_Head_Z_For', 'R_Head_X_For', 'L_Head_X_Back']","{'laterality': 'R_Head_X_For', 'localisation': 'L_Arm_X_Back', 'movement': 'L_Head_Z_For'}",movement,"['localisation', 'movement']",L_Head_Z_For,1,2,robot,1,True,False,"['robot_stimuli\\L_Arm_X_Back.mp4', 'robot_stimuli\\L_Head_Z_For.mp4', 'robot_stimuli\\R_Head_X_For.mp4', 'robot_stimuli\\L_Head_X_Back.mp4']",robot_stimuli\L_Head_Z_For.mp4,7,0,0,0,0,0,12,12,12,,,,,,,,,,,,,,,,,,,,,321.35249470000053,321.35249470000053,space,3.994568400001299,325.3762596000015,326.3764556999995,326.3764556999995,328.4533357,,,343.2679384000003,343.2679384000003,343.2679384000003,2,12.816811299999245,356.1096681000017,356.1096681000017,356.1096681000017,356.1096681000017,356.1096681000017,356.1096681000017,356.1096681000017,356.1096681000017,None,None,None,,,,339.6205025999989,,,,,,,,,,,,,,,7,001,2024-07-23_15h15.42.938,robot_cogshifting_sign,2022.2.5,59.96196013252798,
"['L_Head_X_For', 'R_Head_Z_For', 'R_Head_X_Back', 'R_Arm_X_Back']","{'laterality': 'L_Head_X_For', 'localisation': 'R_Arm_X_Back', 'movement': 'R_Head_Z_For'}",localisation,"['localisation', 'movement']",R_Arm_X_Back,3,2,robot,1,False,False,"['robot_stimuli\\L_Head_X_For.mp4', 'robot_stimuli\\R_Head_Z_For.mp4', 'robot_stimuli\\R_Head_X_Back.mp4', 'robot_stimuli\\R_Arm_X_Back.mp4']",robot_stimuli\R_Arm_X_Back.mp4,7,0,0,0,0,0,13,13,13,,,,,,,,,,,,,,,,,,,,,356.1096681000017,356.1096681000017,None,,356.1096681000017,357.1096022999991,357.1096022999991,359.1927634999993,,,373.9356374000017,373.9356374000017,373.9356374000017,4,10.396163900000829,384.35966669999834,384.35966669999834,384.35966669999834,384.35966669999834,384.35966669999834,384.35966669999834,384.35966669999834,384.35966669999834,None,None,None,356.1096681000017,356.1096681000017,,370.3018701000001,,,,,,,,,,,,,,,7,001,2024-07-23_15h15.42.938,robot_cogshifting_sign,2022.2.5,59.96196013252798,
"['R_Head_Z_For', 'L_Torso_Z_Back', 'R_Torso_Y_Back', 'R_Torso_Z_Back']","{'laterality': 'L_Torso_Z_Back', 'localisation': 'R_Head_Z_For', 'movement': 'R_Torso_Y_Back'}",laterality,"['laterality', 'movement']",L_Torso_Z_Back,1,2,robot,1,False,True,"['robot_stimuli\\R_Head_Z_For.mp4', 'robot_stimuli\\L_Torso_Z_Back.mp4', 'robot_stimuli\\R_Torso_Y_Back.mp4', 'robot_stimuli\\R_Torso_Z_Back.mp4']",robot_stimuli\L_Torso_Z_Back.mp4,7,0,0,0,0,0,14,14,14,,,,,,,,,,,,,,,,,,,,,384.35966669999834,384.35966669999834,None,,384.35966669999834,385.3601114000012,385.3601114000012,387.4338095999992,,,402.1388154999986,402.1388154999986,402.1388154999986,2,2.1853332000027876,404.3674568999995,408.34539999999834,404.3674568999995,408.34539999999834,404.3674568999995,408.34539999999834,404.3674568999995,408.34539999999834,38.17901234567901,2.14894060000006,space,384.35966669999834,384.35966669999834,3.9312045000006037,398.4890464000018,,,,,,,,,,,,,,,7,001,2024-07-23_15h15.42.938,robot_cogshifting_sign,2022.2.5,59.96196013252798,
"['L_Arm_Y_For', 'R_Torso_Y_Back', 'L_Torso_Y_For', 'L_Torso_X_Back']","{'laterality': 'R_Torso_Y_Back', 'localisation': 'L_Arm_Y_For', 'movement': 'L_Torso_X_Back'}",movement,"['laterality', 'localisation', 'movement']",L_Torso_X_Back,3,3,robot,1,True,False,"['robot_stimuli\\L_Arm_Y_For.mp4', 'robot_stimuli\\R_Torso_Y_Back.mp4', 'robot_stimuli\\L_Torso_Y_For.mp4', 'robot_stimuli\\L_Torso_X_Back.mp4']",robot_stimuli\L_Torso_X_Back.mp4,7,0,0,0,0,0,15,15,15,,,,,,,,,,,,,,,,,,,,,408.34539999999834,408.34539999999834,space,1.9386128000005556,410.30958250000185,411.30980980000095,411.30980980000095,413.40231969999877,,,428.2217505000008,428.2217505000008,428.2217505000008,2,6.421927300001698,434.65973550000126,434.65973550000126,434.65973550000126,434.65973550000126,434.65973550000126,434.65973550000126,434.65973550000126,434.65973550000126,None,None,None,,,,424.57056400000147,,,,,,,,,,,,,,,7,001,2024-07-23_15h15.42.938,robot_cogshifting_sign,2022.2.5,59.96196013252798,
"['R_Head_Y_Back', 'R_Base_X_Back', 'R_Base_Y_For', 'L_Base_Y_Back']","{'laterality': 'L_Base_Y_Back', 'localisation': 'R_Head_Y_Back', 'movement': 'R_Base_X_Back'}",laterality,"['laterality', 'localisation', 'movement']",L_Base_Y_Back,3,3,robot,1,False,False,"['robot_stimuli\\R_Head_Y_Back.mp4', 'robot_stimuli\\R_Base_X_Back.mp4', 'robot_stimuli\\R_Base_Y_For.mp4', 'robot_stimuli\\L_Base_Y_Back.mp4']",robot_stimuli\L_Base_Y_Back.mp4,7,0,0,0,0,0,16,16,16,,,,,,,,,,,,,,,,,,,,,434.65973550000126,434.65973550000126,None,,434.65973550000126,435.6601011999992,435.6601011999992,437.74884329999986,,,452.4829444999996,452.4829444999996,452.4829444999996,4,2.5685297999989416,455.07659350000176,455.07659350000176,455.07659350000176,455.07659350000176,455.07659350000176,455.07659350000176,455.07659350000176,455.07659350000176,None,None,None,434.65973550000126,434.65973550000126,,448.91572520000045,,,,,,,,,,,,,,,7,001,2024-07-23_15h15.42.938,robot_cogshifting_sign,2022.2.5,59.96196013252798,
"['L_Arm_Z_For', 'L_Base_X_For', 'L_Base_Z_Back', 'R_Base_Z_Back']","{'laterality': 'R_Base_Z_Back', 'localisation': 'L_Arm_Z_For', 'movement': 'L_Base_X_For'}",localisation,"['laterality', 'localisation', 'movement']",L_Arm_Z_For,0,3,robot,1,False,True,"['robot_stimuli\\L_Arm_Z_For.mp4', 'robot_stimuli\\L_Base_X_For.mp4', 'robot_stimuli\\L_Base_Z_Back.mp4', 'robot_stimuli\\R_Base_Z_Back.mp4']",robot_stimuli\L_Arm_Z_For.mp4,7,0,0,0,0,0,17,17,17,,,,,,,,,,,,,,,,,,,,,455.07659350000176,455.07659350000176,None,,455.07659350000176,456.0767486000004,456.0767486000004,458.14707329999874,,,472.81868570000006,472.81868570000006,472.81868570000006,3,7.505900000000111,480.3673950000011,484.8850835999983,480.3673950000011,484.8850835999983,480.3673950000011,484.8850835999983,480.3673950000011,484.8850835999983,48.51851851851852,3.262808600000426,space,455.07659350000176,455.07659350000176,4.452377099998557,469.27396520000184,,,,,,,,,,,,,,,7,001,2024-07-23_15h15.42.938,robot_cogshifting_sign,2022.2.5,59.96196013252798,
,,,,,,,,,,,,,,0,0,0,0,,,,,,,,,,,,,,,,,,,,,,,,,,,,,,,,,,,,,,,,,,,,,,,,,,,,,,,484.8850835999983,484.8850835999983,484.8850835999983,c,95.30342569999993,,,,,,,,,,7,001,2024-07-23_15h15.42.938,robot_cogshifting_sign,2022.2.5,59.96196013252798,
"['L_Torso_Y_Back', 'R_Base_Y_For', 'R_Torso_Y_Back', 'R_Torso_Z_Back']","{'laterality': 'L_Torso_Y_Back', 'localisation': 'R_Base_Y_For', 'movement': 'R_Torso_Z_Back'}",laterality,"['laterality', 'movement']",L_Torso_Y_Back,0,2,robot,1,True,False,"['robot_stimuli\\L_Torso_Y_Back.mp4', 'robot_stimuli\\R_Base_Y_For.mp4', 'robot_stimuli\\R_Torso_Y_Back.mp4', 'robot_stimuli\\R_Torso_Z_Back.mp4']",robot_stimuli\L_Torso_Y_Back.mp4,7,,,,,,,,,,,,,0,0,0,0,,,,,,,,,,,,,,,,,,,586.9264651000012,589.0042465000006,,,603.6859274999988,603.6859274999988,603.6859274999988,2,6.533872500000143,610.2433063999997,610.2433063999997,610.2433063999997,610.2433063999997,610.2433063999997,610.2433063999997,610.2433063999997,610.2433063999997,None,None,None,,,,,,,,,,580.2263607999994,580.2263607999994,space,6.681154300000344,600.0506380000006,,,,,7,001,2024-07-23_15h15.42.938,robot_cogshifting_sign,2022.2.5,59.96196013252798,
"['L_Base_X_Back', 'L_Arm_Z_For', 'L_Base_Z_Back', 'R_Base_Z_For']","{'laterality': 'R_Base_Z_For', 'localisation': 'L_Arm_Z_For', 'movement': 'L_Base_X_Back'}",movement,"['laterality', 'movement']",L_Base_X_Back,0,2,robot,1,False,False,"['robot_stimuli\\L_Base_X_Back.mp4', 'robot_stimuli\\L_Arm_Z_For.mp4', 'robot_stimuli\\L_Base_Z_Back.mp4', 'robot_stimuli\\R_Base_Z_For.mp4']",robot_stimuli\L_Base_X_Back.mp4,7,,,,,,,,,,,,,0,1,1,1,,,,,,,,,,,,,,,,,,,610.2433063999997,612.3179218000005,,,627.1015187999983,627.1015187999983,627.1015187999983,2,4.662826400002814,631.7933803000014,631.7933803000014,631.7933803000014,631.7933803000014,631.7933803000014,631.7933803000014,631.7933803000014,631.7933803000014,None,None,None,,,,,,,,,,610.2433063999997,610.2433063999997,None,,623.4547104999983,610.2433063999997,610.2433063999997,,,7,001,2024-07-23_15h15.42.938,robot_cogshifting_sign,2022.2.5,59.96196013252798,
"['L_Torso_X_For', 'R_Torso_Y_For', 'L_Base_Y_Back', 'L_Torso_Y_Back']","{'laterality': 'R_Torso_Y_For', 'localisation': 'L_Base_Y_Back', 'movement': 'L_Torso_X_For'}",movement,"['localisation', 'movement']",L_Torso_X_For,0,2,robot,1,False,False,"['robot_stimuli\\L_Torso_X_For.mp4', 'robot_stimuli\\R_Torso_Y_For.mp4', 'robot_stimuli\\L_Base_Y_Back.mp4', 'robot_stimuli\\L_Torso_Y_Back.mp4']",robot_stimuli\L_Torso_X_For.mp4,7,,,,,,,,,,,,,0,2,2,2,,,,,,,,,,,,,,,,,,,631.7933803000014,633.8662102999988,,,648.4811617000014,648.4811617000014,648.4811617000014,2,8.954767100000026,657.4600602999999,657.4600602999999,657.4600602999999,657.4600602999999,657.4600602999999,657.4600602999999,657.4600602999999,657.4600602999999,None,None,None,,,,,,,,,,631.7933803000014,631.7933803000014,None,,644.9718194000016,631.7933803000014,631.7933803000014,,,7,001,2024-07-23_15h15.42.938,robot_cogshifting_sign,2022.2.5,59.96196013252798,
"['L_Head_Z_Back', 'R_Head_Z_For', 'L_Base_Z_Back', 'L_Head_Y_Back']","{'laterality': 'R_Head_Z_For', 'localisation': 'L_Base_Z_Back', 'movement': 'L_Head_Y_Back'}",localisation,"['laterality', 'localisation']",L_Base_Z_Back,2,2,robot,1,False,False,"['robot_stimuli\\L_Head_Z_Back.mp4', 'robot_stimuli\\R_Head_Z_For.mp4', 'robot_stimuli\\L_Base_Z_Back.mp4', 'robot_stimuli\\L_Head_Y_Back.mp4']",robot_stimuli\L_Base_Z_Back.mp4,7,,,,,,,,,,,,,0,3,3,3,,,,,,,,,,,,,,,,,,,657.4600602999999,659.5359284000006,,,674.3714046999994,674.3714046999994,674.3714046999994,3,5.6811909999996715,680.0767424000005,680.0767424000005,680.0767424000005,680.0767424000005,680.0767424000005,680.0767424000005,680.0767424000005,680.0767424000005,None,None,None,,,,,,,,,,657.4600602999999,657.4600602999999,None,,670.7214198000001,657.4600602999999,657.4600602999999,,,7,001,2024-07-23_15h15.42.938,robot_cogshifting_sign,2022.2.5,59.96196013252798,
"['L_Head_X_Back', 'R_Base_X_For', 'L_Base_Y_For', 'L_Base_X_Back']","{'laterality': 'R_Base_X_For', 'localisation': 'L_Head_X_Back', 'movement': 'L_Base_Y_For'}",laterality,"['laterality', 'movement']",R_Base_X_For,1,2,robot,1,False,False,"['robot_stimuli\\L_Head_X_Back.mp4', 'robot_stimuli\\R_Base_X_For.mp4', 'robot_stimuli\\L_Base_Y_For.mp4', 'robot_stimuli\\L_Base_X_Back.mp4']",robot_stimuli\R_Base_X_For.mp4,7,,,,,,,,,,,,,0,4,4,4,,,,,,,,,,,,,,,,,,,680.0767424000005,682.1660470999996,,,696.7498454999986,696.7498454999986,696.7498454999986,2,1.6851021999973455,698.4600164000003,698.4600164000003,698.4600164000003,698.4600164000003,698.4600164000003,698.4600164000003,698.4600164000003,698.4600164000003,None,None,None,,,,,,,,,,680.0767424000005,680.0767424000005,None,,693.1344739000015,680.0767424000005,680.0767424000005,,,7,001,2024-07-23_15h15.42.938,robot_cogshifting_sign,2022.2.5,59.96196013252798,
"['L_Torso_X_Back', 'R_Torso_Z_For', 'L_Torso_Z_For', 'L_Head_Z_For']","{'laterality': 'R_Torso_Z_For', 'localisation': 'L_Head_Z_For', 'movement': 'L_Torso_X_Back'}",localisation,"['localisation', 'movement']",L_Head_Z_For,3,2,robot,1,False,False,"['robot_stimuli\\L_Torso_X_Back.mp4', 'robot_stimuli\\R_Torso_Z_For.mp4', 'robot_stimuli\\L_Torso_Z_For.mp4', 'robot_stimuli\\L_Head_Z_For.mp4']",robot_stimuli\L_Head_Z_For.mp4,7,,,,,,,,,,,,,0,5,5,5,,,,,,,,,,,,,,,,,,,698.4600164000003,700.5330611999998,,,715.3368188999993,715.3368188999993,715.3368188999993,4,2.5711426000016218,717.9287995000013,717.9287995000013,717.9287995000013,717.9287995000013,717.9287995000013,717.9287995000013,717.9287995000013,717.9287995000013,None,None,None,,,,,,,,,,698.4600164000003,698.4600164000003,None,,711.7033789999987,698.4600164000003,698.4600164000003,,,7,001,2024-07-23_15h15.42.938,robot_cogshifting_sign,2022.2.5,59.96196013252798,
"['R_Base_X_Back', 'R_Head_Z_Back', 'L_Base_Z_For', 'R_Base_Z_Back']","{'laterality': 'L_Base_Z_For', 'localisation': 'R_Head_Z_Back', 'movement': 'R_Base_X_Back'}",localisation,"['laterality', 'localisation']",R_Head_Z_Back,1,2,robot,1,False,False,"['robot_stimuli\\R_Base_X_Back.mp4', 'robot_stimuli\\R_Head_Z_Back.mp4', 'robot_stimuli\\L_Base_Z_For.mp4', 'robot_stimuli\\R_Base_Z_Back.mp4']",robot_stimuli\R_Head_Z_Back.mp4,7,,,,,,,,,,,,,0,6,6,6,,,,,,,,,,,,,,,,,,,717.9287995000013,,,,734.731219199999,734.731219199999,734.731219199999,2,4.5043815999997605,739.2600411999993,739.2600411999993,739.2600411999993,739.2600411999993,739.2600411999993,739.2600411999993,739.2600411999993,739.2600411999993,None,None,None,,,,,,,,,,717.9287995000013,717.9287995000013,None,,731.1839566000017,717.9287995000013,717.9287995000013,,,7,001,2024-07-23_15h15.42.938,robot_cogshifting_sign,2022.2.5,59.96196013252798,
"['L_Head_Y_For', 'R_Head_Y_Back', 'L_Head_Z_For', 'L_Base_Y_Back']","{'laterality': 'R_Head_Y_Back', 'localisation': 'L_Base_Y_Back', 'movement': 'L_Head_Z_For'}",laterality,"['laterality', 'localisation']",R_Head_Y_Back,1,2,robot,1,False,False,"['robot_stimuli\\L_Head_Y_For.mp4', 'robot_stimuli\\R_Head_Y_Back.mp4', 'robot_stimuli\\L_Head_Z_For.mp4', 'robot_stimuli\\L_Base_Y_Back.mp4']",robot_stimuli\R_Head_Y_Back.mp4,7,,,,,,,,,,,,,0,7,7,7,,,,,,,,,,,,,,,,,,,739.2600411999993,741.3330969000017,,,756.0501476999998,756.0501476999998,756.0501476999998,2,2.1612324000016088,758.2436063999994,758.2436063999994,758.2436063999994,758.2436063999994,758.2436063999994,758.2436063999994,758.2436063999994,758.2436063999994,None,None,None,,,,,,,,,,739.2600411999993,739.2600411999993,None,,752.4836625999997,739.2600411999993,739.2600411999993,,,7,001,2024-07-23_15h15.42.938,robot_cogshifting_sign,2022.2.5,59.96196013252798,
"['L_Arm_Y_Back', 'R_Base_Y_Back', 'L_Base_Y_For', 'L_Base_Z_Back']","{'laterality': 'R_Base_Y_Back', 'localisation': 'L_Arm_Y_Back', 'movement': 'L_Base_Z_Back'}",movement,"['localisation', 'movement']",L_Base_Z_Back,3,2,robot,1,False,True,"['robot_stimuli\\L_Arm_Y_Back.mp4', 'robot_stimuli\\R_Base_Y_Back.mp4', 'robot_stimuli\\L_Base_Y_For.mp4', 'robot_stimuli\\L_Base_Z_Back.mp4']",robot_stimuli\L_Base_Z_Back.mp4,7,,,,,,,,,,,,,0,8,8,8,,,,,,,,,,,,,,,,,,,758.2436063999994,760.3144941999999,,,775.0121838999985,775.0121838999985,775.0121838999985,4,7.630599299998721,782.6853259999989,789.2635035999992,782.6853259999989,789.2635035999992,782.6853259999989,789.2635035999992,782.6853259999989,789.2635035999992,49.13580246913581,5.590039200000319,space,,,6.52598990000115,,,,,,,758.2436063999994,758.2436063999994,None,,771.3863259999998,758.2436063999994,758.2436063999994,,,7,001,2024-07-23_15h15.42.938,robot_cogshifting_sign,2022.2.5,59.96196013252798,
"['R_Arm_Z_Back', 'R_Arm_Y_For', 'R_Torso_Y_Back', 'L_Arm_Y_Back']","{'laterality': 'L_Arm_Y_Back', 'localisation': 'R_Torso_Y_Back', 'movement': 'R_Arm_Z_Back'}",movement,"['laterality', 'localisation', 'movement']",R_Arm_Z_Back,0,3,robot,1,True,False,"['robot_stimuli\\R_Arm_Z_Back.mp4', 'robot_stimuli\\R_Arm_Y_For.mp4', 'robot_stimuli\\R_Torso_Y_Back.mp4', 'robot_stimuli\\L_Arm_Y_Back.mp4']",robot_stimuli\R_Arm_Z_Back.mp4,7,,,,,,,,,,,,,0,9,9,9,,,,,,,,,,,,,,,,,,,793.9435064999998,796.0214631000017,,,810.7267720000018,810.7267720000018,810.7267720000018,2,6.012994799999433,816.7602431000014,816.7602431000014,816.7602431000014,816.7602431000014,816.7602431000014,816.7602431000014,816.7602431000014,816.7602431000014,None,None,None,,,,,,,,,,789.2635035999992,789.2635035999992,space,4.660293900000397,807.1040852000006,,,,,7,001,2024-07-23_15h15.42.938,robot_cogshifting_sign,2022.2.5,59.96196013252798,
"['L_Torso_Z_Back', 'L_Torso_Y_For', 'R_Torso_Y_For', 'L_Arm_Y_For']","{'laterality': 'R_Torso_Y_For', 'localisation': 'L_Arm_Y_For', 'movement': 'L_Torso_Z_Back'}",localisation,"['laterality', 'localisation', 'movement']",L_Arm_Y_For,3,3,robot,1,False,False,"['robot_stimuli\\L_Torso_Z_Back.mp4', 'robot_stimuli\\L_Torso_Y_For.mp4', 'robot_stimuli\\R_Torso_Y_For.mp4', 'robot_stimuli\\L_Arm_Y_For.mp4']",robot_stimuli\L_Arm_Y_For.mp4,7,,,,,,,,,,,,,0,10,10,10,,,,,,,,,,,,,,,,,,,816.7602431000014,818.8343553000013,,,833.5172168999998,833.5172168999998,833.5172168999998,2,13.150881800000207,846.693568499999,846.693568499999,846.693568499999,846.693568499999,846.693568499999,846.693568499999,846.693568499999,846.693568499999,None,None,None,,,,,,,,,,816.7602431000014,816.7602431000014,None,,829.8832812,816.7602431000014,816.7602431000014,,,7,001,2024-07-23_15h15.42.938,robot_cogshifting_sign,2022.2.5,59.96196013252798,
"['L_Head_Z_For', 'L_Base_X_Back', 'L_Head_X_Back', 'R_Head_X_For']","{'laterality': 'R_Head_X_For', 'localisation': 'L_Base_X_Back', 'movement': 'L_Head_Z_For'}",laterality,"['laterality', 'localisation', 'movement']",R_Head_X_For,3,3,robot,1,False,False,"['robot_stimuli\\L_Head_Z_For.mp4', 'robot_stimuli\\L_Base_X_Back.mp4', 'robot_stimuli\\L_Head_X_Back.mp4', 'robot_stimuli\\R_Head_X_For.mp4']",robot_stimuli\R_Head_X_For.mp4,7,,,,,,,,,,,,,0,11,11,11,,,,,,,,,,,,,,,,,,,846.693568499999,848.7740607000014,,,863.5655842999986,863.5655842999986,863.5655842999986,4,2.462487199998577,866.060197499999,866.060197499999,866.060197499999,866.060197499999,866.060197499999,866.060197499999,866.060197499999,866.060197499999,None,None,None,,,,,,,,,,846.693568499999,846.693568499999,None,,859.9228014,846.693568499999,846.693568499999,,,7,001,2024-07-23_15h15.42.938,robot_cogshifting_sign,2022.2.5,59.96196013252798,
"['L_Head_Z_Back', 'R_Base_Z_Back', 'L_Base_Z_Back', 'L_Base_Y_For']","{'laterality': 'R_Base_Z_Back', 'localisation': 'L_Head_Z_Back', 'movement': 'L_Base_Y_For'}",movement,"['laterality', 'localisation', 'movement']",L_Base_Y_For,3,3,robot,1,False,False,"['robot_stimuli\\L_Head_Z_Back.mp4', 'robot_stimuli\\R_Base_Z_Back.mp4', 'robot_stimuli\\L_Base_Z_Back.mp4', 'robot_stimuli\\L_Base_Y_For.mp4']",robot_stimuli\L_Base_Y_For.mp4,7,,,,,,,,,,,,,0,12,12,12,,,,,,,,,,,,,,,,,,,866.060197499999,868.134118599999,,,882.7284978999996,882.7284978999996,882.7284978999996,2,6.491721599999437,889.2435977999994,889.2435977999994,889.2435977999994,889.2435977999994,889.2435977999994,889.2435977999994,889.2435977999994,889.2435977999994,None,None,None,,,,,,,,,,866.060197499999,866.060197499999,None,,879.2036924999993,866.060197499999,866.060197499999,,,7,001,2024-07-23_15h15.42.938,robot_cogshifting_sign,2022.2.5,59.96196013252798,
"['R_Head_Z_For', 'L_Arm_Z_Back', 'L_Head_Z_Back', 'L_Head_Y_For']","{'laterality': 'R_Head_Z_For', 'localisation': 'L_Arm_Z_Back', 'movement': 'L_Head_Y_For'}",laterality,"['laterality', 'localisation', 'movement']",R_Head_Z_For,0,3,robot,1,False,False,"['robot_stimuli\\R_Head_Z_For.mp4', 'robot_stimuli\\L_Arm_Z_Back.mp4', 'robot_stimuli\\L_Head_Z_Back.mp4', 'robot_stimuli\\L_Head_Y_For.mp4']",robot_stimuli\R_Head_Z_For.mp4,7,,,,,,,,,,,,,0,13,13,13,,,,,,,,,,,,,,,,,,,889.2435977999994,891.3178513999992,,,906.1183926000012,906.1183926000012,906.1183926000012,2,2.0698522000020603,908.2102201999987,908.2102201999987,908.2102201999987,908.2102201999987,908.2102201999987,908.2102201999987,908.2102201999987,908.2102201999987,None,None,None,,,,,,,,,,889.2435977999994,889.2435977999994,None,,902.4845730999987,889.2435977999994,889.2435977999994,,,7,001,2024-07-23_15h15.42.938,robot_cogshifting_sign,2022.2.5,59.96196013252798,
"['L_Arm_Z_For', 'R_Arm_Y_Back', 'R_Head_Z_Back', 'R_Arm_Z_For']","{'laterality': 'L_Arm_Z_For', 'localisation': 'R_Head_Z_Back', 'movement': 'R_Arm_Y_Back'}",localisation,"['laterality', 'localisation', 'movement']",R_Head_Z_Back,2,3,robot,1,False,False,"['robot_stimuli\\L_Arm_Z_For.mp4', 'robot_stimuli\\R_Arm_Y_Back.mp4', 'robot_stimuli\\R_Head_Z_Back.mp4', 'robot_stimuli\\R_Arm_Z_For.mp4']",robot_stimuli\R_Head_Z_Back.mp4,7,,,,,,,,,,,,,0,14,14,14,,,,,,,,,,,,,,,,,,,908.2102201999987,910.2835307999994,,,925.0858058999984,925.0858058999984,925.0858058999984,2,5.893270600001415,931.0104370000008,931.0104370000008,931.0104370000008,931.0104370000008,931.0104370000008,931.0104370000008,931.0104370000008,931.0104370000008,None,None,None,,,,,,,,,,908.2102201999987,908.2102201999987,None,,921.4506513000015,908.2102201999987,908.2102201999987,,,7,001,2024-07-23_15h15.42.938,robot_cogshifting_sign,2022.2.5,59.96196013252798,
"['R_Base_Z_Back', 'R_Arm_Z_For', 'R_Base_Y_Back', 'L_Base_Z_For']","{'laterality': 'L_Base_Z_For', 'localisation': 'R_Arm_Z_For', 'movement': 'R_Base_Y_Back'}",laterality,"['laterality', 'localisation', 'movement']",L_Base_Z_For,3,3,robot,1,False,False,"['robot_stimuli\\R_Base_Z_Back.mp4', 'robot_stimuli\\R_Arm_Z_For.mp4', 'robot_stimuli\\R_Base_Y_Back.mp4', 'robot_stimuli\\L_Base_Z_For.mp4']",robot_stimuli\L_Base_Z_For.mp4,7,,,,,,,,,,,,,0,15,15,15,,,,,,,,,,,,,,,,,,,931.0104370000008,933.0812000000005,,,947.7846527000002,947.7846527000002,947.7846527000002,4,1.235299700001633,949.0434878000015,949.0434878000015,949.0434878000015,949.0434878000015,949.0434878000015,949.0434878000015,949.0434878000015,949.0434878000015,None,None,None,,,,,,,,,,931.0104370000008,931.0104370000008,None,,944.150247900001,931.0104370000008,931.0104370000008,,,7,001,2024-07-23_15h15.42.938,robot_cogshifting_sign,2022.2.5,59.96196013252798,
"['R_Torso_Y_For', 'R_Arm_Y_For', 'R_Torso_X_Back', 'L_Torso_Y_For']","{'laterality': 'L_Torso_Y_For', 'localisation': 'R_Arm_Y_For', 'movement': 'R_Torso_X_Back'}",localisation,"['laterality', 'localisation', 'movement']",R_Arm_Y_For,1,3,robot,1,False,False,"['robot_stimuli\\R_Torso_Y_For.mp4', 'robot_stimuli\\R_Arm_Y_For.mp4', 'robot_stimuli\\R_Torso_X_Back.mp4', 'robot_stimuli\\L_Torso_Y_For.mp4']",robot_stimuli\R_Arm_Y_For.mp4,7,,,,,,,,,,,,,0,16,16,16,,,,,,,,,,,,,,,,,,,949.0434878000015,951.1200921000018,,,965.8000046000016,965.8000046000016,965.8000046000016,2,4.787375700001576,970.6103161999999,970.6103161999999,970.6103161999999,970.6103161999999,970.6103161999999,970.6103161999999,970.6103161999999,970.6103161999999,None,None,None,,,,,,,,,,949.0434878000015,949.0434878000015,None,,962.155042800001,949.0434878000015,949.0434878000015,,,7,001,2024-07-23_15h15.42.938,robot_cogshifting_sign,2022.2.5,59.96196013252798,
"['R_Torso_Y_Back', 'L_Torso_Z_For', 'L_Arm_Y_Back', 'L_Torso_Y_Back']","{'laterality': 'R_Torso_Y_Back', 'localisation': 'L_Arm_Y_Back', 'movement': 'L_Torso_Z_For'}",movement,"['laterality', 'localisation', 'movement']",L_Torso_Z_For,1,3,robot,1,False,True,"['robot_stimuli\\R_Torso_Y_Back.mp4', 'robot_stimuli\\L_Torso_Z_For.mp4', 'robot_stimuli\\L_Arm_Y_Back.mp4', 'robot_stimuli\\L_Torso_Y_Back.mp4']",robot_stimuli\L_Torso_Z_For.mp4,7,,,,,,,,,,,,,0,17,17,17,,,,,,,,,,,,,,,,,,,970.6103161999999,972.6835668999993,,,987.3692962999994,987.3692962999994,987.3692962999994,1,6.6173410000010335,994.0352477999986,998.1430986000014,994.0352477999986,998.1430986000014,994.0352477999986,998.1430986000014,994.0352477999986,998.1430986000014,57.77777777777778,2.897713999998814,space,,,4.0559443999991345,,,,,,,970.6103161999999,970.6103161999999,None,,983.8648404000014,970.6103161999999,970.6103161999999,,,7,001,2024-07-23_15h15.42.938,robot_cogshifting_sign,2022.2.5,59.96196013252798,
"['R_Arm_Z_Back', 'L_Head_Z_Back', 'L_Arm_Z_Back', 'L_Arm_X_For']","{'laterality': 'R_Arm_Z_Back', 'localisation': 'L_Head_Z_Back', 'movement': 'L_Arm_X_For'}",movement,['movement'],L_Arm_X_For,3,1,robot,1,True,False,"['robot_stimuli\\R_Arm_Z_Back.mp4', 'robot_stimuli\\L_Head_Z_Back.mp4', 'robot_stimuli\\L_Arm_Z_Back.mp4', 'robot_stimuli\\L_Arm_X_For.mp4']",robot_stimuli\L_Arm_X_For.mp4,7,,,,,,,,,,,,,0,18,18,18,,,,,,,,,,,,,,,,,,,1002.5268431000004,1004.6027307000004,,,1019.3970092000018,1019.3970092000018,1019.3970092000018,1,14.998012000000017,1034.4269253999992,1034.4269253999992,1034.4269253999992,1034.4269253999992,1034.4269253999992,1034.4269253999992,1034.4269253999992,1034.4269253999992,None,None,None,,,,,,,,,,998.1430986000014,998.1430986000014,space,4.36491340000066,1015.7674563,,,,,7,001,2024-07-23_15h15.42.938,robot_cogshifting_sign,2022.2.5,59.96196013252798,
"['L_Torso_Z_Back', 'L_Torso_X_For', 'R_Torso_Z_Back', 'L_Arm_Z_For']","{'laterality': 'R_Torso_Z_Back', 'localisation': 'L_Arm_Z_For', 'movement': 'L_Torso_X_For'}",laterality,['laterality'],R_Torso_Z_Back,2,1,robot,1,False,False,"['robot_stimuli\\L_Torso_Z_Back.mp4', 'robot_stimuli\\L_Torso_X_For.mp4', 'robot_stimuli\\R_Torso_Z_Back.mp4', 'robot_stimuli\\L_Arm_Z_For.mp4']",robot_stimuli\R_Torso_Z_Back.mp4,7,,,,,,,,,,,,,0,19,19,19,,,,,,,,,,,,,,,,,,,1034.4269253999992,1036.5007724999996,,,1051.1876884999983,1051.1876884999983,1051.1876884999983,3,1.1189091000014741,1052.3270276000003,1052.3270276000003,1052.3270276000003,1052.3270276000003,1052.3270276000003,1052.3270276000003,1052.3270276000003,1052.3270276000003,None,None,None,,,,,,,,,,1034.4269253999992,1034.4269253999992,None,,1047.5526610999987,1034.4269253999992,1034.4269253999992,,,7,001,2024-07-23_15h15.42.938,robot_cogshifting_sign,2022.2.5,59.96196013252798,
"['R_Torso_Z_For', 'R_Torso_X_Back', 'R_Base_X_Back', 'L_Torso_X_Back']","{'laterality': 'L_Torso_X_Back', 'localisation': 'R_Base_X_Back', 'movement': 'R_Torso_Z_For'}",laterality,['laterality'],L_Torso_X_Back,3,1,robot,1,False,False,"['robot_stimuli\\R_Torso_Z_For.mp4', 'robot_stimuli\\R_Torso_X_Back.mp4', 'robot_stimuli\\R_Base_X_Back.mp4', 'robot_stimuli\\L_Torso_X_Back.mp4']",robot_stimuli\L_Torso_X_Back.mp4,7,,,,,,,,,,,,,0,20,20,20,,,,,,,,,,,,,,,,,,,1052.3270276000003,1054.4012311000006,,,1069.2024358999988,1069.2024358999988,1069.2024358999988,4,0.6570753999985754,1069.8771085000008,1069.8771085000008,1069.8771085000008,1069.8771085000008,1069.8771085000008,1069.8771085000008,1069.8771085000008,1069.8771085000008,None,None,None,,,,,,,,,,1052.3270276000003,1052.3270276000003,None,,1065.5697254000006,1052.3270276000003,1052.3270276000003,,,7,001,2024-07-23_15h15.42.938,robot_cogshifting_sign,2022.2.5,59.96196013252798,
"['R_Head_X_Back', 'L_Head_X_For', 'L_Head_Z_For', 'L_Base_X_For']","{'laterality': 'R_Head_X_Back', 'localisation': 'L_Base_X_For', 'movement': 'L_Head_Z_For'}",laterality,['laterality'],R_Head_X_Back,0,1,robot,1,False,False,"['robot_stimuli\\R_Head_X_Back.mp4', 'robot_stimuli\\L_Head_X_For.mp4', 'robot_stimuli\\L_Head_Z_For.mp4', 'robot_stimuli\\L_Base_X_For.mp4']",robot_stimuli\R_Head_X_Back.mp4,7,,,,,,,,,,,,,0,21,21,21,,,,,,,,,,,,,,,,,,,1069.8771085000008,1071.951200200001,,,1086.6475876000004,1086.6475876000004,1086.6475876000004,1,1.0286680000026536,1087.693721399999,1087.693721399999,1087.693721399999,1087.693721399999,1087.693721399999,1087.693721399999,1087.693721399999,1087.693721399999,None,None,None,,,,,,,,,,1069.8771085000008,1069.8771085000008,None,,1083.0726285000019,1069.8771085000008,1069.8771085000008,,,7,001,2024-07-23_15h15.42.938,robot_cogshifting_sign,2022.2.5,59.96196013252798,
"['R_Base_Y_Back', 'L_Base_Y_For', 'L_Arm_Y_Back', 'L_Base_X_Back']","{'laterality': 'R_Base_Y_Back', 'localisation': 'L_Arm_Y_Back', 'movement': 'L_Base_X_Back'}",movement,['movement'],L_Base_X_Back,3,1,robot,1,False,False,"['robot_stimuli\\R_Base_Y_Back.mp4', 'robot_stimuli\\L_Base_Y_For.mp4', 'robot_stimuli\\L_Arm_Y_Back.mp4', 'robot_stimuli\\L_Base_X_Back.mp4']",robot_stimuli\L_Base_X_Back.mp4,7,,,,,,,,,,,,,0,22,22,22,,,,,,,,,,,,,,,,,,,1087.693721399999,1089.764317199999,,,1104.4676686999992,1104.4676686999992,1104.4676686999992,3,3.7116445999999996,1108.2102941999983,1108.2102941999983,1108.2102941999983,1108.2102941999983,1108.2102941999983,1108.2102941999983,1108.2102941999983,1108.2102941999983,None,None,None,,,,,,,,,,1087.693721399999,1087.693721399999,None,,1100.8551195,1087.693721399999,1087.693721399999,,,7,001,2024-07-23_15h15.42.938,robot_cogshifting_sign,2022.2.5,59.96196013252798,
"['L_Head_X_For', 'R_Head_X_Back', 'L_Head_Y_Back', 'L_Base_X_Back']","{'laterality': 'R_Head_X_Back', 'localisation': 'L_Base_X_Back', 'movement': 'L_Head_Y_Back'}",localisation,['localisation'],L_Base_X_Back,3,1,robot,1,False,False,"['robot_stimuli\\L_Head_X_For.mp4', 'robot_stimuli\\R_Head_X_Back.mp4', 'robot_stimuli\\L_Head_Y_Back.mp4', 'robot_stimuli\\L_Base_X_Back.mp4']",robot_stimuli\L_Base_X_Back.mp4,7,,,,,,,,,,,,,0,23,23,23,,,,,,,,,,,,,,,,,,,1108.2102941999983,1110.2847881999987,,,1124.9997017999995,1124.9997017999995,1124.9997017999995,4,1.1793300999997882,1126.2105463000007,1126.2105463000007,1126.2105463000007,1126.2105463000007,1126.2105463000007,1126.2105463000007,1126.2105463000007,1126.2105463000007,None,None,None,,,,,,,,,,1108.2102941999983,1108.2102941999983,None,,1121.3842350999985,1108.2102941999983,1108.2102941999983,,,7,001,2024-07-23_15h15.42.938,robot_cogshifting_sign,2022.2.5,59.96196013252798,
"['R_Arm_Y_Back', 'L_Arm_Y_For', 'L_Base_Y_Back', 'L_Arm_Z_For']","{'laterality': 'R_Arm_Y_Back', 'localisation': 'L_Base_Y_Back', 'movement': 'L_Arm_Z_For'}",movement,['movement'],L_Arm_Z_For,3,1,robot,1,False,False,"['robot_stimuli\\R_Arm_Y_Back.mp4', 'robot_stimuli\\L_Arm_Y_For.mp4', 'robot_stimuli\\L_Base_Y_Back.mp4', 'robot_stimuli\\L_Arm_Z_For.mp4']",robot_stimuli\L_Arm_Z_For.mp4,7,,,,,,,,,,,,,0,24,24,24,,,,,,,,,,,,,,,,,,,1126.2105463000007,1128.2848426000019,,,1143.0343442000012,1143.0343442000012,1143.0343442000012,4,2.74486479999905,1145.8104222000002,1145.8104222000002,1145.8104222000002,1145.8104222000002,1145.8104222000002,1145.8104222000002,1145.8104222000002,1145.8104222000002,None,None,None,,,,,,,,,,1126.2105463000007,1126.2105463000007,None,,1139.3999068999983,1126.2105463000007,1126.2105463000007,,,7,001,2024-07-23_15h15.42.938,robot_cogshifting_sign,2022.2.5,59.96196013252798,
"['L_Base_X_Back', 'R_Base_X_For', 'L_Base_Z_For', 'L_Head_X_For']","{'laterality': 'R_Base_X_For', 'localisation': 'L_Head_X_For', 'movement': 'L_Base_Z_For'}",localisation,['localisation'],L_Head_X_For,3,1,robot,1,False,False,"['robot_stimuli\\L_Base_X_Back.mp4', 'robot_stimuli\\R_Base_X_For.mp4', 'robot_stimuli\\L_Base_Z_For.mp4', 'robot_stimuli\\L_Head_X_For.mp4']",robot_stimuli\L_Head_X_For.mp4,7,,,,,,,,,,,,,0,25,25,25,,,,,,,,,,,,,,,,,,,1145.8104222000002,1147.8868651999983,,,1162.4798099,1162.4798099,1162.4798099,4,1.2921972000003734,1163.7938367999996,1163.7938367999996,1163.7938367999996,1163.7938367999996,1163.7938367999996,1163.7938367999996,1163.7938367999996,1163.7938367999996,None,None,None,,,,,,,,,,1145.8104222000002,1145.8104222000002,None,,1158.9209546999991,1145.8104222000002,1145.8104222000002,,,7,001,2024-07-23_15h15.42.938,robot_cogshifting_sign,2022.2.5,59.96196013252798,
"['R_Arm_X_Back', 'L_Base_X_For', 'R_Base_Y_For', 'R_Base_X_Back']","{'laterality': 'L_Base_X_For', 'localisation': 'R_Arm_X_Back', 'movement': 'R_Base_Y_For'}",localisation,['localisation'],R_Arm_X_Back,0,1,robot,1,False,True,"['robot_stimuli\\R_Arm_X_Back.mp4', 'robot_stimuli\\L_Base_X_For.mp4', 'robot_stimuli\\R_Base_Y_For.mp4', 'robot_stimuli\\R_Base_X_Back.mp4']",robot_stimuli\R_Arm_X_Back.mp4,7,,,,,,,,,,,,,0,26,26,26,,,,,,,,,,,,,,,,,,,1163.7938367999996,1165.8622209999994,,,1180.5987501000018,1180.5987501000018,1180.5987501000018,2,8.477713199998107,1189.1176014000011,1193.6108950999987,1189.1176014000011,1193.6108950999987,1189.1176014000011,1193.6108950999987,1189.1176014000011,1193.6108950999987,57.77777777777778,2.409371800000372,space,,,4.428878699996858,,,,,,,1163.7938367999996,1163.7938367999996,None,,1176.9645248000015,1163.7938367999996,1163.7938367999996,,,7,001,2024-07-23_15h15.42.938,robot_cogshifting_sign,2022.2.5,59.96196013252798,
"['blue_right_K_45', 'blue_top_B_0', 'blue_right_H_0', 'red_right_G_0']","{'color': 'red_right_G_0', 'position': 'blue_top_B_0', 'orientation': 'blue_right_K_45'}",position,"['color', 'position']",blue_top_B_0,1,2,letter,2,True,False,"['robot_stimuli\\\\filler.mp4', 'robot_stimuli\\\\filler.mp4', 'robot_stimuli\\\\filler.mp4', 'robot_stimuli\\\\filler.mp4']",robot_stimuli\\filler.mp4,7,,,,,,,,,,,,,0,27,27,27,,,,,,,,,,,,,,,,,,,1226.4603410000018,1228.5241508,,,1237.2026493999983,1237.2026493999983,1237.2026493999983,2,3.1765506000010646,1240.4105229999986,1240.4105229999986,1240.4105229999986,1240.4105229999986,1240.4105229999986,1240.4105229999986,1240.4105229999986,1240.4105229999986,None,None,None,,,,,,,,,,1193.6108950999987,1193.6108950999987,space,32.817495999999664,,,,1234.9807648999995,1237.2026493999983,7,001,2024-07-23_15h15.42.938,robot_cogshifting_sign,2022.2.5,59.96196013252798,
"['blue_bottom_N_0', 'blue_bottom_D_45', 'red_bottom_J_45', 'blue_right_C_45']","{'color': 'red_bottom_J_45', 'position': 'blue_right_C_45', 'orientation': 'blue_bottom_N_0'}",position,"['color', 'position']",blue_right_C_45,3,2,letter,2,False,False,"['robot_stimuli\\\\filler.mp4', 'robot_stimuli\\\\filler.mp4', 'robot_stimuli\\\\filler.mp4', 'robot_stimuli\\\\filler.mp4']",robot_stimuli\\filler.mp4,7,,,,,,,,,,,,,0,28,28,28,,,,,,,,,,,,,,,,,,,1240.4105229999986,1242.4710593000018,,,1251.160173100001,1251.160173100001,1251.160173100001,3,20.644253200000094,1271.8272767000017,1271.8272767000017,1271.8272767000017,1271.8272767000017,1271.8272767000017,1271.8272767000017,1271.8272767000017,1271.8272767000017,None,None,None,,,,,,,,,,1240.4105229999986,1240.4105229999986,None,,,1240.4105229999986,1240.4105229999986,1249.1413957000004,1251.160173100001,7,001,2024-07-23_15h15.42.938,robot_cogshifting_sign,2022.2.5,59.96196013252798,
"['blue_right_F_0', 'red_left_P_0', 'blue_left_G_45', 'blue_left_R_0']","{'color': 'red_left_P_0', 'position': 'blue_right_F_0', 'orientation': 'blue_left_G_45'}",orientation,"['color', 'orientation']",blue_left_G_45,2,2,letter,2,False,False,"['robot_stimuli\\\\filler.mp4', 'robot_stimuli\\\\filler.mp4', 'robot_stimuli\\\\filler.mp4', 'robot_stimuli\\\\filler.mp4']",robot_stimuli\\filler.mp4,7,,,,,,,,,,,,,0,29,29,29,,,,,,,,,,,,,,,,,,,1271.8272767000017,1273.8825179999985,,,1282.5601279000002,1282.5601279000002,1282.5601279000002,3,3.4762902000002214,1286.060642200002,1286.060642200002,1286.060642200002,1286.060642200002,1286.060642200002,1286.060642200002,1286.060642200002,1286.060642200002,None,None,None,,,,,,,,,,1271.8272767000017,1271.8272767000017,None,,,1271.8272767000017,1271.8272767000017,1280.5447967,1282.5601279000002,7,001,2024-07-23_15h15.42.938,robot_cogshifting_sign,2022.2.5,59.96196013252798,
"['blue_top_J_0', 'red_top_G_0', 'blue_bottom_K_0', 'blue_top_B_45']","{'color': 'red_top_G_0', 'position': 'blue_bottom_K_0', 'orientation': 'blue_top_B_45'}",color,"['color', 'position']",red_top_G_0,1,2,letter,2,False,False,"['robot_stimuli\\\\filler.mp4', 'robot_stimuli\\\\filler.mp4', 'robot_stimuli\\\\filler.mp4', 'robot_stimuli\\\\filler.mp4']",robot_stimuli\\filler.mp4,7,,,,,,,,,,,,,0,30,30,30,,,,,,,,,,,,,,,,,,,1286.060642200002,1288.1172692,,,1297.0111193000012,1297.0111193000012,1297.0111193000012,2,1.9289567000014358,1298.9605574000016,1298.9605574000016,1298.9605574000016,1298.9605574000016,1298.9605574000016,1298.9605574000016,1298.9605574000016,1298.9605574000016,None,None,None,,,,,,,,,,1286.060642200002,1286.060642200002,None,,,1286.060642200002,1286.060642200002,1294.9925685000017,1297.0111193000012,7,001,2024-07-23_15h15.42.938,robot_cogshifting_sign,2022.2.5,59.96196013252798,
"['red_left_Z_45', 'blue_top_G_45', 'blue_left_F_0', 'blue_left_K_45']","{'color': 'red_left_Z_45', 'position': 'blue_top_G_45', 'orientation': 'blue_left_F_0'}",orientation,"['orientation', 'position']",blue_left_F_0,2,2,letter,2,False,False,"['robot_stimuli\\\\filler.mp4', 'robot_stimuli\\\\filler.mp4', 'robot_stimuli\\\\filler.mp4', 'robot_stimuli\\\\filler.mp4']",robot_stimuli\\filler.mp4,7,,,,,,,,,,,,,0,31,31,31,,,,,,,,,,,,,,,,,,,1298.9605574000016,1301.0198352000007,,,1309.9061304999996,1309.9061304999996,1309.9061304999996,3,8.568830100000923,1318.493891099999,1318.493891099999,1318.493891099999,1318.493891099999,1318.493891099999,1318.493891099999,1318.493891099999,1318.493891099999,None,None,None,,,,,,,,,,1298.9605574000016,1298.9605574000016,None,,,1298.9605574000016,1298.9605574000016,1307.6886563000007,1309.9061304999996,7,001,2024-07-23_15h15.42.938,robot_cogshifting_sign,2022.2.5,59.96196013252798,
"['blue_left_M_45', 'blue_top_P_45', 'blue_top_F_0', 'red_top_R_45']","{'color': 'red_top_R_45', 'position': 'blue_left_M_45', 'orientation': 'blue_top_F_0'}",color,"['color', 'position']",red_top_R_45,3,2,letter,2,False,False,"['robot_stimuli\\\\filler.mp4', 'robot_stimuli\\\\filler.mp4', 'robot_stimuli\\\\filler.mp4', 'robot_stimuli\\\\filler.mp4']",robot_stimuli\\filler.mp4,7,,,,,,,,,,,,,0,32,32,32,,,,,,,,,,,,,,,,,,,1318.493891099999,1320.5482823999992,,,1329.4303327000016,1329.4303327000016,1329.4303327000016,4,2.1888622999977088,1331.6437139000009,1331.6437139000009,1331.6437139000009,1331.6437139000009,1331.6437139000009,1331.6437139000009,1331.6437139000009,1331.6437139000009,None,None,None,,,,,,,,,,1318.493891099999,1318.493891099999,None,,,1318.493891099999,1318.493891099999,1327.2135261000003,1329.4303327000016,7,001,2024-07-23_15h15.42.938,robot_cogshifting_sign,2022.2.5,59.96196013252798,
"['red_right_L_45', 'blue_left_B_45', 'red_left_T_0', 'red_left_B_45']","{'color': 'blue_left_B_45', 'position': 'red_right_L_45', 'orientation': 'red_left_T_0'}",orientation,"['orientation', 'position']",red_left_T_0,2,2,letter,2,False,False,"['robot_stimuli\\\\filler.mp4', 'robot_stimuli\\\\filler.mp4', 'robot_stimuli\\\\filler.mp4', 'robot_stimuli\\\\filler.mp4']",robot_stimuli\\filler.mp4,7,,,,,,,,,,,,,0,33,33,33,,,,,,,,,,,,,,,,,,,1331.6437139000009,1333.7055500999995,,,1342.3727829000018,1342.3727829000018,1342.3727829000018,3,4.166739999996935,1346.560540999999,1346.560540999999,1346.560540999999,1346.560540999999,1346.560540999999,1346.560540999999,1346.560540999999,1346.560540999999,None,None,None,,,,,,,,,,1331.6437139000009,1331.6437139000009,None,,,1331.6437139000009,1331.6437139000009,1340.3544051999997,1342.3727829000018,7,001,2024-07-23_15h15.42.938,robot_cogshifting_sign,2022.2.5,59.96196013252798,
"['blue_left_P_45', 'blue_left_B_0', 'blue_top_G_45', 'red_left_M_45']","{'color': 'red_left_M_45', 'position': 'blue_top_G_45', 'orientation': 'blue_left_B_0'}",position,"['orientation', 'position']",blue_top_G_45,2,2,letter,2,False,False,"['robot_stimuli\\\\filler.mp4', 'robot_stimuli\\\\filler.mp4', 'robot_stimuli\\\\filler.mp4', 'robot_stimuli\\\\filler.mp4']",robot_stimuli\\filler.mp4,7,,,,,,,,,,,,,0,34,34,34,,,,,,,,,,,,,,,,,,,1346.560540999999,1348.6310602999984,,,1357.315389700001,1357.315389700001,1357.315389700001,3,4.047011399998155,1361.3940762999991,1361.3940762999991,1361.3940762999991,1361.3940762999991,1361.3940762999991,1361.3940762999991,1361.3940762999991,1361.3940762999991,None,None,None,,,,,,,,,,1346.560540999999,1346.560540999999,None,,,1346.560540999999,1346.560540999999,1355.2932819999987,1357.315389700001,7,001,2024-07-23_15h15.42.938,robot_cogshifting_sign,2022.2.5,59.96196013252798,
"['blue_bottom_P_45', 'blue_top_Z_0', 'red_top_V_45', 'blue_top_C_45']","{'color': 'red_top_V_45', 'position': 'blue_bottom_P_45', 'orientation': 'blue_top_Z_0'}",color,"['color', 'orientation']",red_top_V_45,2,2,letter,2,False,True,"['robot_stimuli\\\\filler.mp4', 'robot_stimuli\\\\filler.mp4', 'robot_stimuli\\\\filler.mp4', 'robot_stimuli\\\\filler.mp4']",robot_stimuli\\filler.mp4,7,,,,,,,,,,,,,0,35,35,35,,,,,,,,,,,,,,,,,,,1361.3940762999991,1363.4503895000016,,,1372.3288641,1372.3288641,1372.3288641,3,2.4181403999973554,1374.8026691999985,1379.9875930000017,1374.8026691999985,1379.9875930000017,1374.8026691999985,1379.9875930000017,1374.8026691999985,1379.9875930000017,50.67901234567901,3.556367600001977,space,,,5.1445740000017395,,,,,,,1361.3940762999991,1361.3940762999991,None,,,1361.3940762999991,1361.3940762999991,1370.115249800001,1372.3288641,7,001,2024-07-23_15h15.42.938,robot_cogshifting_sign,2022.2.5,59.96196013252798,
"['red_left_R_0', 'blue_left_X_0', 'red_left_D_45', 'red_bottom_J_0']","{'color': 'blue_left_X_0', 'position': 'red_bottom_J_0', 'orientation': 'red_left_D_45'}",orientation,['orientation'],red_left_D_45,2,1,letter,2,True,False,"['robot_stimuli\\\\filler.mp4', 'robot_stimuli\\\\filler.mp4', 'robot_stimuli\\\\filler.mp4', 'robot_stimuli\\\\filler.mp4']",robot_stimuli\\filler.mp4,7,,,,,,,,,,,,,0,36,36,36,,,,,,,,,,,,,,,,,,,1385.2104427000013,1387.2643838000004,,,1396.3579639000018,1396.3579639000018,1396.3579639000018,3,3.7336928000004264,1400.1109505999993,1400.1109505999993,1400.1109505999993,1400.1109505999993,1400.1109505999993,1400.1109505999993,1400.1109505999993,1400.1109505999993,None,None,None,,,,,,,,,,1379.9875930000017,1379.9875930000017,space,5.191485999999713,,,,1394.1356731000014,1396.3579639000018,7,001,2024-07-23_15h15.42.938,robot_cogshifting_sign,2022.2.5,59.96196013252798,
"['red_top_M_0', 'red_left_G_45', 'blue_top_W_45', 'red_top_B_45']","{'color': 'blue_top_W_45', 'position': 'red_left_G_45', 'orientation': 'red_top_M_0'}",orientation,['orientation'],red_top_M_0,0,1,letter,2,False,False,"['robot_stimuli\\\\filler.mp4', 'robot_stimuli\\\\filler.mp4', 'robot_stimuli\\\\filler.mp4', 'robot_stimuli\\\\filler.mp4']",robot_stimuli\\filler.mp4,7,,,,,,,,,,,,,0,37,37,37,,,,,,,,,,,,,,,,,,,1400.1109505999993,1402.1710931999987,,,1411.0558225999994,1411.0558225999994,1411.0558225999994,1,1.2279395000005024,1412.3106807000004,1412.3106807000004,1412.3106807000004,1412.3106807000004,1412.3106807000004,1412.3106807000004,1412.3106807000004,1412.3106807000004,None,None,None,,,,,,,,,,1400.1109505999993,1400.1109505999993,None,,,1400.1109505999993,1400.1109505999993,1409.0404053999991,1411.0558225999994,7,001,2024-07-23_15h15.42.938,robot_cogshifting_sign,2022.2.5,59.96196013252798,
"['blue_right_W_45', 'red_right_D_0', 'blue_left_F_0', 'blue_right_B_0']","{'color': 'red_right_D_0', 'position': 'blue_left_F_0', 'orientation': 'blue_right_W_45'}",position,['position'],blue_left_F_0,2,1,letter,2,False,False,"['robot_stimuli\\\\filler.mp4', 'robot_stimuli\\\\filler.mp4', 'robot_stimuli\\\\filler.mp4', 'robot_stimuli\\\\filler.mp4']",robot_stimuli\\filler.mp4,7,,,,,,,,,,,,,0,38,38,38,,,,,,,,,,,,,,,,,,,1412.3106807000004,1414.3645983999995,,,1423.2403244999987,1423.2403244999987,1423.2403244999987,3,1.3792553999992379,1424.6439917999996,1424.6439917999996,1424.6439917999996,1424.6439917999996,1424.6439917999996,1424.6439917999996,1424.6439917999996,1424.6439917999996,None,None,None,,,,,,,,,,1412.3106807000004,1412.3106807000004,None,,,1412.3106807000004,1412.3106807000004,1421.0336696999984,1423.2403244999987,7,001,2024-07-23_15h15.42.938,robot_cogshifting_sign,2022.2.5,59.96196013252798,
"['blue_left_V_45', 'blue_right_B_45', 'red_left_N_45', 'blue_left_P_0']","{'color': 'red_left_N_45', 'position': 'blue_right_B_45', 'orientation': 'blue_left_P_0'}",orientation,['orientation'],blue_left_P_0,3,1,letter,2,False,False,"['robot_stimuli\\\\filler.mp4', 'robot_stimuli\\\\filler.mp4', 'robot_stimuli\\\\filler.mp4', 'robot_stimuli\\\\filler.mp4']",robot_stimuli\\filler.mp4,7,,,,,,,,,,,,,0,39,39,39,,,,,,,,,,,,,,,,,,,1424.6439917999996,1426.6992457999986,,,1435.381700500002,1435.381700500002,1435.381700500002,4,0.3498010000002978,1435.7610391999988,1435.7610391999988,1435.7610391999988,1435.7610391999988,1435.7610391999988,1435.7610391999988,1435.7610391999988,1435.7610391999988,None,None,None,,,,,,,,,,1424.6439917999996,1424.6439917999996,None,,,1424.6439917999996,1424.6439917999996,1433.1687673999986,1435.381700500002,7,001,2024-07-23_15h15.42.938,robot_cogshifting_sign,2022.2.5,59.96196013252798,
"['blue_bottom_T_0', 'red_bottom_D_45', 'red_left_S_0', 'red_bottom_T_0']","{'color': 'blue_bottom_T_0', 'position': 'red_left_S_0', 'orientation': 'red_bottom_D_45'}",color,['color'],blue_bottom_T_0,0,1,letter,2,False,False,"['robot_stimuli\\\\filler.mp4', 'robot_stimuli\\\\filler.mp4', 'robot_stimuli\\\\filler.mp4', 'robot_stimuli\\\\filler.mp4']",robot_stimuli\\filler.mp4,7,,,,,,,,,,,,,0,40,40,40,,,,,,,,,,,,,,,,,,,1435.7610391999988,1437.815114699999,,,1446.5009710999984,1446.5009710999984,1446.5009710999984,1,0.5502151999971829,1447.0773805999997,1447.0773805999997,1447.0773805999997,1447.0773805999997,1447.0773805999997,1447.0773805999997,1447.0773805999997,1447.0773805999997,None,None,None,,,,,,,,,,1435.7610391999988,1435.7610391999988,None,,,1435.7610391999988,1435.7610391999988,1444.2806055,1446.5009710999984,7,001,2024-07-23_15h15.42.938,robot_cogshifting_sign,2022.2.5,59.96196013252798,
"['red_bottom_J_0', 'blue_bottom_S_45', 'red_top_R_45', 'red_bottom_K_45']","{'color': 'blue_bottom_S_45', 'position': 'red_top_R_45', 'orientation': 'red_bottom_J_0'}",color,['color'],blue_bottom_S_45,1,1,letter,2,False,False,"['robot_stimuli\\\\filler.mp4', 'robot_stimuli\\\\filler.mp4', 'robot_stimuli\\\\filler.mp4', 'robot_stimuli\\\\filler.mp4']",robot_stimuli\\filler.mp4,7,,,,,,,,,,,,,0,41,41,41,,,,,,,,,,,,,,,,,,,1447.0773805999997,1449.1332078999985,,,1457.8194030000013,1457.8194030000013,1457.8194030000013,2,1.112196699999913,1458.9605721000007,1458.9605721000007,1458.9605721000007,1458.9605721000007,1458.9605721000007,1458.9605721000007,1458.9605721000007,1458.9605721000007,None,None,None,,,,,,,,,,1447.0773805999997,1447.0773805999997,None,,,1447.0773805999997,1447.0773805999997,1455.8034917000004,1457.8194030000013,7,001,2024-07-23_15h15.42.938,robot_cogshifting_sign,2022.2.5,59.96196013252798,
"['red_top_R_45', 'red_left_S_0', 'red_left_L_45', 'blue_left_F_45']","{'color': 'blue_left_F_45', 'position': 'red_top_R_45', 'orientation': 'red_left_S_0'}",color,['color'],blue_left_F_45,3,1,letter,2,False,False,"['robot_stimuli\\\\filler.mp4', 'robot_stimuli\\\\filler.mp4', 'robot_stimuli\\\\filler.mp4', 'robot_stimuli\\\\filler.mp4']",robot_stimuli\\filler.mp4,7,,,,,,,,,,,,,0,42,42,42,,,,,,,,,,,,,,,,,,,1458.9605721000007,1461.0131871999984,,,1469.8900857000008,1469.8900857000008,1469.8900857000008,4,0.985689099998126,1470.893963999999,1470.893963999999,1470.893963999999,1470.893963999999,1470.893963999999,1470.893963999999,1470.893963999999,1470.893963999999,None,None,None,,,,,,,,,,1458.9605721000007,1458.9605721000007,None,,,1458.9605721000007,1458.9605721000007,1467.6841762000004,1469.8900857000008,7,001,2024-07-23_15h15.42.938,robot_cogshifting_sign,2022.2.5,59.96196013252798,
"['red_top_H_45', 'blue_bottom_T_45', 'blue_top_H_45', 'blue_top_N_0']","{'color': 'red_top_H_45', 'position': 'blue_bottom_T_45', 'orientation': 'blue_top_N_0'}",position,['position'],blue_bottom_T_45,1,1,letter,2,False,False,"['robot_stimuli\\\\filler.mp4', 'robot_stimuli\\\\filler.mp4', 'robot_stimuli\\\\filler.mp4', 'robot_stimuli\\\\filler.mp4']",robot_stimuli\\filler.mp4,7,,,,,,,,,,,,,0,43,43,43,,,,,,,,,,,,,,,,,,,1470.893963999999,1472.948274800001,,,1481.4171276000015,1481.4171276000015,1481.4171276000015,2,0.9692496999996365,1482.4106122999983,1482.4106122999983,1482.4106122999983,1482.4106122999983,1482.4106122999983,1482.4106122999983,1482.4106122999983,1482.4106122999983,None,None,None,,,,,,,,,,1470.893963999999,1470.893963999999,None,,,1470.893963999999,1470.893963999999,1479.4081871000017,1481.4171276000015,7,001,2024-07-23_15h15.42.938,robot_cogshifting_sign,2022.2.5,59.96196013252798,
"['blue_bottom_N_0', 'red_bottom_B_45', 'red_bottom_S_0', 'red_right_N_0']","{'color': 'blue_bottom_N_0', 'position': 'red_right_N_0', 'orientation': 'red_bottom_B_45'}",position,['position'],red_right_N_0,3,1,letter,2,False,True,"['robot_stimuli\\\\filler.mp4', 'robot_stimuli\\\\filler.mp4', 'robot_stimuli\\\\filler.mp4', 'robot_stimuli\\\\filler.mp4']",robot_stimuli\\filler.mp4,7,,,,,,,,,,,,,0,44,44,44,,,,,,,,,,,,,,,,,,,1482.4106122999983,1484.4648607000017,,,1492.9524732999998,1492.9524732999998,1492.9524732999998,4,0.40270629999940866,1493.4025704000014,1500.9740198,1493.4025704000014,1500.9740198,1493.4025704000014,1500.9740198,1493.4025704000014,1500.9740198,19.814814814814813,5.842098600001918,space,,,7.520760999999766,,,,,,,1482.4106122999983,1482.4106122999983,None,,,1482.4106122999983,1482.4106122999983,1490.9364193000001,1492.9524732999998,7,001,2024-07-23_15h15.42.938,robot_cogshifting_sign,2022.2.5,59.96196013252798,
"['blue_top_V_45', 'red_right_Q_45', 'blue_right_K_0', 'blue_right_V_45']","{'color': 'red_right_Q_45', 'position': 'blue_top_V_45', 'orientation': 'blue_right_K_0'}",orientation,"['color', 'orientation', 'position']",blue_right_K_0,2,3,letter,2,True,False,"['robot_stimuli\\\\filler.mp4', 'robot_stimuli\\\\filler.mp4', 'robot_stimuli\\\\filler.mp4', 'robot_stimuli\\\\filler.mp4']",robot_stimuli\\filler.mp4,7,,,,,,,,,,,,,0,45,45,45,,,,,,,,,,,,,,,,,,,1506.2439919999997,1508.299046,,,1516.7928702999998,1516.7928702999998,1516.7928702999998,3,7.810677299999952,1524.6273941,1524.6273941,1524.6273941,1524.6273941,1524.6273941,1524.6273941,1524.6273941,1524.6273941,None,None,None,,,,,,,,,,1500.9740198,1500.9740198,space,5.252828299999237,,,,1514.7715166000016,1516.7928702999998,7,001,2024-07-23_15h15.42.938,robot_cogshifting_sign,2022.2.5,59.96196013252798,
"['red_left_M_0', 'blue_left_V_0', 'red_bottom_C_0', 'red_left_Q_45']","{'color': 'blue_left_V_0', 'position': 'red_bottom_C_0', 'orientation': 'red_left_Q_45'}",color,"['color', 'orientation', 'position']",blue_left_V_0,1,3,letter,2,False,False,"['robot_stimuli\\\\filler.mp4', 'robot_stimuli\\\\filler.mp4', 'robot_stimuli\\\\filler.mp4', 'robot_stimuli\\\\filler.mp4']",robot_stimuli\\filler.mp4,7,,,,,,,,,,,,,0,46,46,46,,,,,,,,,,,,,,,,,,,1524.6273941,1526.6817125999987,,,1535.381242899999,1535.381242899999,1535.381242899999,2,2.438579399997252,1537.8441786000003,1537.8441786000003,1537.8441786000003,1537.8441786000003,1537.8441786000003,1537.8441786000003,1537.8441786000003,1537.8441786000003,None,None,None,,,,,,,,,,1524.6273941,1524.6273941,None,,,1524.6273941,1524.6273941,1533.3573816999997,1535.381242899999,7,001,2024-07-23_15h15.42.938,robot_cogshifting_sign,2022.2.5,59.96196013252798,
"['red_top_B_45', 'blue_top_N_0', 'blue_top_G_45', 'blue_right_N_45']","{'color': 'red_top_B_45', 'position': 'blue_right_N_45', 'orientation': 'blue_top_N_0'}",position,"['color', 'orientation', 'position']",blue_right_N_45,3,3,letter,2,False,False,"['robot_stimuli\\\\filler.mp4', 'robot_stimuli\\\\filler.mp4', 'robot_stimuli\\\\filler.mp4', 'robot_stimuli\\\\filler.mp4']",robot_stimuli\\filler.mp4,7,,,,,,,,,,,,,0,47,47,47,,,,,,,,,,,,,,,,,,,1537.8441786000003,1539.9048495999996,,,1548.571430600001,1548.571430600001,1548.571430600001,4,4.191971000000194,1552.7942110000004,1552.7942110000004,1552.7942110000004,1552.7942110000004,1552.7942110000004,1552.7942110000004,1552.7942110000004,1552.7942110000004,None,None,None,,,,,,,,,,1537.8441786000003,1537.8441786000003,None,,,1537.8441786000003,1537.8441786000003,1546.5556041000018,1548.571430600001,7,001,2024-07-23_15h15.42.938,robot_cogshifting_sign,2022.2.5,59.96196013252798,
"['red_top_H_0', 'blue_top_J_0', 'red_top_L_45', 'red_left_D_0']","{'color': 'blue_top_J_0', 'position': 'red_left_D_0', 'orientation': 'red_top_L_45'}",position,"['color', 'orientation', 'position']",red_left_D_0,3,3,letter,2,False,False,"['robot_stimuli\\\\filler.mp4', 'robot_stimuli\\\\filler.mp4', 'robot_stimuli\\\\filler.mp4', 'robot_stimuli\\\\filler.mp4']",robot_stimuli\\filler.mp4,7,,,,,,,,,,,,,0,48,48,48,,,,,,,,,,,,,,,,,,,1552.7942110000004,1554.8485634999997,,,1563.3235649999988,1563.3235649999988,1563.3235649999988,4,4.759990099999413,1568.1108893000019,1568.1108893000019,1568.1108893000019,1568.1108893000019,1568.1108893000019,1568.1108893000019,1568.1108893000019,1568.1108893000019,None,None,None,,,,,,,,,,1552.7942110000004,1552.7942110000004,None,,,1552.7942110000004,1552.7942110000004,1561.3096793000004,1563.3235649999988,7,001,2024-07-23_15h15.42.938,robot_cogshifting_sign,2022.2.5,59.96196013252798,
"['red_right_Z_0', 'red_left_S_45', 'red_right_V_45', 'blue_right_G_45']","{'color': 'blue_right_G_45', 'position': 'red_left_S_45', 'orientation': 'red_right_Z_0'}",orientation,"['color', 'orientation', 'position']",red_right_Z_0,0,3,letter,2,False,False,"['robot_stimuli\\\\filler.mp4', 'robot_stimuli\\\\filler.mp4', 'robot_stimuli\\\\filler.mp4', 'robot_stimuli\\\\filler.mp4']",robot_stimuli\\filler.mp4,7,,,,,,,,,,,,,0,49,49,49,,,,,,,,,,,,,,,,,,,1568.1108893000019,1570.1675155000012,,,1579.0470118000012,1579.0470118000012,1579.0470118000012,2,7.195745699998952,1586.260828999999,1586.260828999999,1586.260828999999,1586.260828999999,1586.260828999999,1586.260828999999,1586.260828999999,1586.260828999999,None,None,None,,,,,,,,,,1568.1108893000019,1568.1108893000019,None,,,1568.1108893000019,1568.1108893000019,1576.8320927999994,1579.0470118000012,7,001,2024-07-23_15h15.42.938,robot_cogshifting_sign,2022.2.5,59.96196013252798,
"['red_left_Z_45', 'blue_right_P_45', 'blue_left_J_45', 'blue_left_N_0']","{'color': 'red_left_Z_45', 'position': 'blue_right_P_45', 'orientation': 'blue_left_N_0'}",position,"['color', 'orientation', 'position']",blue_right_P_45,1,3,letter,2,False,False,"['robot_stimuli\\\\filler.mp4', 'robot_stimuli\\\\filler.mp4', 'robot_stimuli\\\\filler.mp4', 'robot_stimuli\\\\filler.mp4']",robot_stimuli\\filler.mp4,7,,,,,,,,,,,,,0,50,50,50,,,,,,,,,,,,,,,,,,,1586.260828999999,1588.3159311999989,,,1597.2100968999985,1597.2100968999985,1597.2100968999985,3,8.328919399998995,1605.5609786999994,1605.5609786999994,1605.5609786999994,1605.5609786999994,1605.5609786999994,1605.5609786999994,1605.5609786999994,1605.5609786999994,None,None,None,,,,,,,,,,1586.260828999999,1586.260828999999,None,,,1586.260828999999,1586.260828999999,1594.9963572000015,1597.2100968999985,7,001,2024-07-23_15h15.42.938,robot_cogshifting_sign,2022.2.5,59.96196013252798,
"['red_right_N_0', 'blue_right_F_45', 'blue_top_D_0', 'blue_right_J_0']","{'color': 'red_right_N_0', 'position': 'blue_top_D_0', 'orientation': 'blue_right_F_45'}",color,"['color', 'orientation', 'position']",red_right_N_0,0,3,letter,2,False,False,"['robot_stimuli\\\\filler.mp4', 'robot_stimuli\\\\filler.mp4', 'robot_stimuli\\\\filler.mp4', 'robot_stimuli\\\\filler.mp4']",robot_stimuli\\filler.mp4,7,,,,,,,,,,,,,0,51,51,51,,,,,,,,,,,,,,,,,,,1605.5609786999994,1607.6197947,,,1616.3091596999984,1616.3091596999984,1616.3091596999984,2,6.430046299999958,1622.760663000001,1622.760663000001,1622.760663000001,1622.760663000001,1622.760663000001,1622.760663000001,1622.760663000001,1622.760663000001,None,None,None,,,,,,,,,,1605.5609786999994,1605.5609786999994,None,,,1605.5609786999994,1605.5609786999994,1614.2865046000006,1616.3091596999984,7,001,2024-07-23_15h15.42.938,robot_cogshifting_sign,2022.2.5,59.96196013252798,
"['blue_bottom_Z_0', 'red_top_C_0', 'blue_top_Q_45', 'blue_top_P_0']","{'color': 'red_top_C_0', 'position': 'blue_bottom_Z_0', 'orientation': 'blue_top_Q_45'}",color,"['color', 'orientation', 'position']",red_top_C_0,1,3,letter,2,False,False,"['robot_stimuli\\\\filler.mp4', 'robot_stimuli\\\\filler.mp4', 'robot_stimuli\\\\filler.mp4', 'robot_stimuli\\\\filler.mp4']",robot_stimuli\\filler.mp4,7,,,,,,,,,,,,,0,52,52,52,,,,,,,,,,,,,,,,,,,1622.760663000001,1624.8193280999985,,,1633.2837040000013,1633.2837040000013,1633.2837040000013,2,3.719756899998174,1637.0275222000018,1637.0275222000018,1637.0275222000018,1637.0275222000018,1637.0275222000018,1637.0275222000018,1637.0275222000018,1637.0275222000018,None,None,None,,,,,,,,,,1622.760663000001,1622.760663000001,None,,,1622.760663000001,1622.760663000001,1631.2716126000014,1633.2837040000013,7,001,2024-07-23_15h15.42.938,robot_cogshifting_sign,2022.2.5,59.96196013252798,
"['red_top_H_45', 'red_left_T_0', 'blue_top_N_0', 'red_top_R_0']","{'color': 'blue_top_N_0', 'position': 'red_left_T_0', 'orientation': 'red_top_H_45'}",orientation,"['color', 'orientation', 'position']",red_top_H_45,0,3,letter,2,False,True,"['robot_stimuli\\\\filler.mp4', 'robot_stimuli\\\\filler.mp4', 'robot_stimuli\\\\filler.mp4', 'robot_stimuli\\\\filler.mp4']",robot_stimuli\\filler.mp4,7,,,,,,,,,,,,,0,53,53,53,,,,,,,,,,,,,,,,,,,1637.0275222000018,1639.087281,,,1647.9634661000018,1647.9634661000018,1647.9634661000018,3,17.783584900000278,1665.8051491000006,1669.9524557000004,1665.8051491000006,1669.9524557000004,1665.8051491000006,1669.9524557000004,1665.8051491000006,1669.9524557000004,57.160493827160494,2.769245100000262,space,,,4.102090899999894,,,,,,,1637.0275222000018,1637.0275222000018,None,,,1637.0275222000018,1637.0275222000018,1645.7511054999995,1647.9634661000018,7,001,2024-07-23_15h15.42.938,robot_cogshifting_sign,2022.2.5,59.96196013252798,
"['L_Arm_Y_For', 'L_Arm_X_For', 'L_Torso_Y_For', 'R_Arm_Y_For']","{'laterality': 'R_Arm_Y_For', 'localisation': 'L_Torso_Y_For', 'movement': 'L_Arm_X_For'}",localisation,['localisation'],L_Torso_Y_For,2,1,robot,3,True,False,"['robot_stimuli\\L_Arm_Y_For.mp4', 'robot_stimuli\\L_Arm_X_For.mp4', 'robot_stimuli\\L_Torso_Y_For.mp4', 'robot_stimuli\\R_Arm_Y_For.mp4']",robot_stimuli\L_Torso_Y_For.mp4,7,,,,,,,,,,,,,0,54,54,54,,,,,,,,,,,,,,,,,,,1673.977343800001,1676.0650735000017,,,1690.7364205000013,1690.7364205000013,1690.7364205000013,4,14.098965400000452,1704.8608550999998,1704.8608550999998,1704.8608550999998,1704.8608550999998,1704.8608550999998,1704.8608550999998,1704.8608550999998,1704.8608550999998,None,None,None,,,,,,,,,,1669.9524557000004,1669.9524557000004,space,3.9939847999994527,1687.2231530999998,,,,,7,001,2024-07-23_15h15.42.938,robot_cogshifting_sign,2022.2.5,59.96196013252798,
"['L_Arm_Z_For', 'L_Arm_X_Back', 'R_Arm_X_For', 'L_Base_X_Back']","{'laterality': 'R_Arm_X_For', 'localisation': 'L_Base_X_Back', 'movement': 'L_Arm_Z_For'}",laterality,['laterality'],R_Arm_X_For,2,1,robot,3,False,False,"['robot_stimuli\\L_Arm_Z_For.mp4', 'robot_stimuli\\L_Arm_X_Back.mp4', 'robot_stimuli\\R_Arm_X_For.mp4', 'robot_stimuli\\L_Base_X_Back.mp4']",robot_stimuli\R_Arm_X_For.mp4,7,,,,,,,,,,,,,0,55,55,55,,,,,,,,,,,,,,,,,,,1704.8608550999998,1706.9371496999993,,,1721.6839096000003,1721.6839096000003,1721.6839096000003,3,1.232061300001078,1722.9442998000013,1722.9442998000013,1722.9442998000013,1722.9442998000013,1722.9442998000013,1722.9442998000013,1722.9442998000013,1722.9442998000013,None,None,None,,,,,,,,,,1704.8608550999998,1704.8608550999998,None,,1718.0816430999985,1704.8608550999998,1704.8608550999998,,,7,001,2024-07-23_15h15.42.938,robot_cogshifting_sign,2022.2.5,59.96196013252798,
"['L_Base_Z_Back', 'L_Arm_Z_Back', 'L_Arm_X_For', 'R_Arm_Z_Back']","{'laterality': 'R_Arm_Z_Back', 'localisation': 'L_Base_Z_Back', 'movement': 'L_Arm_X_For'}",laterality,['laterality'],R_Arm_Z_Back,3,1,robot,3,False,False,"['robot_stimuli\\L_Base_Z_Back.mp4', 'robot_stimuli\\L_Arm_Z_Back.mp4', 'robot_stimuli\\L_Arm_X_For.mp4', 'robot_stimuli\\R_Arm_Z_Back.mp4']",robot_stimuli\R_Arm_Z_Back.mp4,7,,,,,,,,,,,,,0,56,56,56,,,,,,,,,,,,,,,,,,,1722.9442998000013,1725.0207488000015,,,1739.8001742999986,1739.8001742999986,1739.8001742999986,4,1.2192968999988807,1741.044395500001,1741.044395500001,1741.044395500001,1741.044395500001,1741.044395500001,1741.044395500001,1741.044395500001,1741.044395500001,None,None,None,,,,,,,,,,1722.9442998000013,1722.9442998000013,None,,1736.1691224999995,1722.9442998000013,1722.9442998000013,,,7,001,2024-07-23_15h15.42.938,robot_cogshifting_sign,2022.2.5,59.96196013252798,
"['R_Torso_Y_Back', 'R_Torso_Z_Back', 'L_Torso_Z_Back', 'R_Arm_Z_For']","{'laterality': 'L_Torso_Z_Back', 'localisation': 'R_Arm_Z_For', 'movement': 'R_Torso_Y_Back'}",movement,['movement'],R_Torso_Y_Back,0,1,robot,3,False,False,"['robot_stimuli\\R_Torso_Y_Back.mp4', 'robot_stimuli\\R_Torso_Z_Back.mp4', 'robot_stimuli\\L_Torso_Z_Back.mp4', 'robot_stimuli\\R_Arm_Z_For.mp4']",robot_stimuli\R_Torso_Y_Back.mp4,7,,,,,,,,,,,,,0,57,57,57,,,,,,,,,,,,,,,,,,,1741.044395500001,1743.1261398999995,,,1757.7994006000008,1757.7994006000008,1757.7994006000008,1,5.284514899998612,1763.1108544999988,1763.1108544999988,1763.1108544999988,1763.1108544999988,1763.1108544999988,1763.1108544999988,1763.1108544999988,1763.1108544999988,None,None,None,,,,,,,,,,1741.044395500001,1741.044395500001,None,,1754.1637988000002,1741.044395500001,1741.044395500001,,,7,001,2024-07-23_15h15.42.938,robot_cogshifting_sign,2022.2.5,59.96196013252798,
"['L_Torso_Z_For', 'L_Arm_X_For', 'R_Torso_X_Back', 'L_Torso_X_Back']","{'laterality': 'R_Torso_X_Back', 'localisation': 'L_Arm_X_For', 'movement': 'L_Torso_Z_For'}",movement,['movement'],L_Torso_Z_For,0,1,robot,3,False,False,"['robot_stimuli\\L_Torso_Z_For.mp4', 'robot_stimuli\\L_Arm_X_For.mp4', 'robot_stimuli\\R_Torso_X_Back.mp4', 'robot_stimuli\\L_Torso_X_Back.mp4']",robot_stimuli\L_Torso_Z_For.mp4,7,,,,,,,,,,,,,0,58,58,58,,,,,,,,,,,,,,,,,,,1763.1108544999988,1765.1850560999992,,,1780.0133662000007,1780.0133662000007,1780.0133662000007,1,10.109958400000323,1790.1443378000004,1790.1443378000004,1790.1443378000004,1790.1443378000004,1790.1443378000004,1790.1443378000004,1790.1443378000004,1790.1443378000004,None,None,None,,,,,,,,,,1763.1108544999988,1763.1108544999988,None,,1776.3788839000008,1763.1108544999988,1763.1108544999988,,,7,001,2024-07-23_15h15.42.938,robot_cogshifting_sign,2022.2.5,59.96196013252798,
"['R_Torso_Z_For', 'R_Head_X_Back', 'L_Head_Z_For', 'R_Head_Z_For']","{'laterality': 'L_Head_Z_For', 'localisation': 'R_Torso_Z_For', 'movement': 'R_Head_X_Back'}",localisation,['localisation'],R_Torso_Z_For,0,1,robot,3,False,False,"['robot_stimuli\\R_Torso_Z_For.mp4', 'robot_stimuli\\R_Head_X_Back.mp4', 'robot_stimuli\\L_Head_Z_For.mp4', 'robot_stimuli\\R_Head_Z_For.mp4']",robot_stimuli\R_Torso_Z_For.mp4,7,,,,,,,,,,,,,0,59,59,59,,,,,,,,,,,,,,,,,,,1790.1443378000004,1792.2189533000019,,,1807.034789199999,1807.034789199999,1807.034789199999,1,1.3210958000017854,1808.3775773000016,1808.3775773000016,1808.3775773000016,1808.3775773000016,1808.3775773000016,1808.3775773000016,1808.3775773000016,1808.3775773000016,None,None,None,,,,,,,,,,1790.1443378000004,1790.1443378000004,None,,1803.3855040999988,1790.1443378000004,1790.1443378000004,,,7,001,2024-07-23_15h15.42.938,robot_cogshifting_sign,2022.2.5,59.96196013252798,
"['L_Base_Z_For', 'L_Arm_X_For', 'L_Base_X_Back', 'R_Base_X_Back']","{'laterality': 'R_Base_X_Back', 'localisation': 'L_Arm_X_For', 'movement': 'L_Base_Z_For'}",movement,['movement'],L_Base_Z_For,0,1,robot,3,False,False,"['robot_stimuli\\L_Base_Z_For.mp4', 'robot_stimuli\\L_Arm_X_For.mp4', 'robot_stimuli\\L_Base_X_Back.mp4', 'robot_stimuli\\R_Base_X_Back.mp4']",robot_stimuli\L_Base_Z_For.mp4,7,,,,,,,,,,,,,0,60,60,60,,,,,,,,,,,,,,,,,,,1808.3775773000016,1810.4522260999984,,,1825.2027578000016,1825.2027578000016,1825.2027578000016,2,1.520325600002252,1826.7443955000017,1826.7443955000017,1826.7443955000017,1826.7443955000017,1826.7443955000017,1826.7443955000017,1826.7443955000017,1826.7443955000017,None,None,None,,,,,,,,,,1808.3775773000016,1808.3775773000016,None,,1821.5639330000013,1808.3775773000016,1808.3775773000016,,,7,001,2024-07-23_15h15.42.938,robot_cogshifting_sign,2022.2.5,59.96196013252798,
"['R_Head_X_For', 'R_Head_Y_For', 'L_Head_X_For', 'R_Torso_X_Back']","{'laterality': 'L_Head_X_For', 'localisation': 'R_Torso_X_Back', 'movement': 'R_Head_Y_For'}",localisation,['localisation'],R_Torso_X_Back,3,1,robot,3,False,False,"['robot_stimuli\\R_Head_X_For.mp4', 'robot_stimuli\\R_Head_Y_For.mp4', 'robot_stimuli\\L_Head_X_For.mp4', 'robot_stimuli\\R_Torso_X_Back.mp4']",robot_stimuli\R_Torso_X_Back.mp4,7,,,,,,,,,,,,,0,61,61,61,,,,,,,,,,,,,,,,,,,1826.7443955000017,1828.8198348000005,,,1843.5391627999998,1843.5391627999998,1843.5391627999998,4,0.49596220000239555,1844.0608890000003,1844.0608890000003,1844.0608890000003,1844.0608890000003,1844.0608890000003,1844.0608890000003,1844.0608890000003,1844.0608890000003,None,None,None,,,,,,,,,,1826.7443955000017,1826.7443955000017,None,,1839.903289400001,1826.7443955000017,1826.7443955000017,,,7,001,2024-07-23_15h15.42.938,robot_cogshifting_sign,2022.2.5,59.96196013252798,
"['R_Base_Z_For', 'R_Arm_Y_Back', 'R_Base_Y_For', 'L_Base_Y_Back']","{'laterality': 'L_Base_Y_Back', 'localisation': 'R_Arm_Y_Back', 'movement': 'R_Base_Z_For'}",laterality,['laterality'],L_Base_Y_Back,3,1,robot,3,False,True,"['robot_stimuli\\R_Base_Z_For.mp4', 'robot_stimuli\\R_Arm_Y_Back.mp4', 'robot_stimuli\\R_Base_Y_For.mp4', 'robot_stimuli\\L_Base_Y_Back.mp4']",robot_stimuli\L_Base_Y_Back.mp4,7,,,,,,,,,,,,,0,62,62,62,,,,,,,,,,,,,,,,,,,1844.0608890000003,1846.1370051999984,,,1860.903274100001,1860.903274100001,1860.903274100001,4,0.6759756000028574,1861.6350028999987,1867.9672858000013,1861.6350028999987,1867.9672858000013,1861.6350028999987,1867.9672858000013,1861.6350028999987,1867.9672858000013,38.64197530864198,4.376569600000948,space,,,6.264634099999967,,,,,,,1844.0608890000003,1844.0608890000003,None,,1857.3241567000005,1844.0608890000003,1844.0608890000003,,,7,001,2024-07-23_15h15.42.938,robot_cogshifting_sign,2022.2.5,59.96196013252798,
"['L_Arm_X_Back', 'R_Arm_Z_For', 'R_Base_X_For', 'R_Arm_X_Back']","{'laterality': 'L_Arm_X_Back', 'localisation': 'R_Base_X_For', 'movement': 'R_Arm_Z_For'}",movement,"['laterality', 'movement']",R_Arm_Z_For,1,2,robot,3,True,False,"['robot_stimuli\\L_Arm_X_Back.mp4', 'robot_stimuli\\R_Arm_Z_For.mp4', 'robot_stimuli\\R_Base_X_For.mp4', 'robot_stimuli\\R_Arm_X_Back.mp4']",robot_stimuli\R_Arm_Z_For.mp4,7,,,,,,,,,,,,,0,63,63,63,,,,,,,,,,,,,,,,,,,1871.4109549999994,1873.4876562999998,,,1888.1703105000015,1888.1703105000015,1888.1703105000015,1,7.328529099999287,1895.5276612999987,1895.5276612999987,1895.5276612999987,1895.5276612999987,1895.5276612999987,1895.5276612999987,1895.5276612999987,1895.5276612999987,None,None,None,,,,,,,,,,1867.9672858000013,1867.9672858000013,space,3.427921400001651,1884.5319769999987,,,,,7,001,2024-07-23_15h15.42.938,robot_cogshifting_sign,2022.2.5,59.96196013252798,
"['L_Torso_Z_Back', 'R_Base_Z_Back', 'L_Base_Y_Back', 'L_Base_Z_Back']","{'laterality': 'R_Base_Z_Back', 'localisation': 'L_Torso_Z_Back', 'movement': 'L_Base_Y_Back'}",laterality,"['laterality', 'movement']",R_Base_Z_Back,1,2,robot,3,False,False,"['robot_stimuli\\L_Torso_Z_Back.mp4', 'robot_stimuli\\R_Base_Z_Back.mp4', 'robot_stimuli\\L_Base_Y_Back.mp4', 'robot_stimuli\\L_Base_Z_Back.mp4']",robot_stimuli\R_Base_Z_Back.mp4,7,,,,,,,,,,,,,0,64,64,64,,,,,,,,,,,,,,,,,,,1895.5276612999987,1897.6019987,,,1912.1175054000014,1912.1175054000014,1912.1175054000014,2,2.9092893000015465,1915.0444887000012,1915.0444887000012,1915.0444887000012,1915.0444887000012,1915.0444887000012,1915.0444887000012,1915.0444887000012,1915.0444887000012,None,None,None,,,,,,,,,,1895.5276612999987,1895.5276612999987,None,,1908.4716265999996,1895.5276612999987,1895.5276612999987,,,7,001,2024-07-23_15h15.42.938,robot_cogshifting_sign,2022.2.5,59.96196013252798,
"['R_Torso_X_Back', 'R_Arm_X_Back', 'R_Arm_Z_Back', 'L_Arm_X_For']","{'laterality': 'L_Arm_X_For', 'localisation': 'R_Torso_X_Back', 'movement': 'R_Arm_Z_Back'}",laterality,"['laterality', 'localisation']",L_Arm_X_For,3,2,robot,3,False,False,"['robot_stimuli\\R_Torso_X_Back.mp4', 'robot_stimuli\\R_Arm_X_Back.mp4', 'robot_stimuli\\R_Arm_Z_Back.mp4', 'robot_stimuli\\L_Arm_X_For.mp4']",robot_stimuli\L_Arm_X_For.mp4,7,,,,,,,,,,,,,0,65,65,65,,,,,,,,,,,,,,,,,,,1915.0444887000012,1917.1201642999986,,,1931.9406434000011,1931.9406434000011,1931.9406434000011,4,1.5987573999991582,1933.560925400001,1933.560925400001,1933.560925400001,1933.560925400001,1933.560925400001,1933.560925400001,1933.560925400001,1933.560925400001,None,None,None,,,,,,,,,,1915.0444887000012,1915.0444887000012,None,,1928.285026900001,1915.0444887000012,1915.0444887000012,,,7,001,2024-07-23_15h15.42.938,robot_cogshifting_sign,2022.2.5,59.96196013252798,
"['R_Base_X_Back', 'R_Torso_X_Back', 'L_Base_X_Back', 'R_Base_Y_For']","{'laterality': 'L_Base_X_Back', 'localisation': 'R_Torso_X_Back', 'movement': 'R_Base_Y_For'}",localisation,"['laterality', 'localisation']",R_Torso_X_Back,1,2,robot,3,False,False,"['robot_stimuli\\R_Base_X_Back.mp4', 'robot_stimuli\\R_Torso_X_Back.mp4', 'robot_stimuli\\L_Base_X_Back.mp4', 'robot_stimuli\\R_Base_Y_For.mp4']",robot_stimuli\R_Torso_X_Back.mp4,7,,,,,,,,,,,,,0,66,66,66,,,,,,,,,,,,,,,,,,,1933.560925400001,1935.6526244000015,,,1950.4368421,1950.4368421,1950.4368421,2,5.303326900000684,1955.7610620000014,1955.7610620000014,1955.7610620000014,1955.7610620000014,1955.7610620000014,1955.7610620000014,1955.7610620000014,1955.7610620000014,None,None,None,,,,,,,,,,1933.560925400001,1933.560925400001,None,,1946.7904464999992,1933.560925400001,1933.560925400001,,,7,001,2024-07-23_15h15.42.938,robot_cogshifting_sign,2022.2.5,59.96196013252798,
"['R_Base_Y_For', 'R_Torso_Y_Back', 'L_Torso_Y_Back', 'R_Torso_Z_For']","{'laterality': 'L_Torso_Y_Back', 'localisation': 'R_Base_Y_For', 'movement': 'R_Torso_Z_For'}",localisation,"['laterality', 'localisation']",R_Base_Y_For,0,2,robot,3,False,False,"['robot_stimuli\\R_Base_Y_For.mp4', 'robot_stimuli\\R_Torso_Y_Back.mp4', 'robot_stimuli\\L_Torso_Y_Back.mp4', 'robot_stimuli\\R_Torso_Z_For.mp4']",robot_stimuli\R_Base_Y_For.mp4,7,,,,,,,,,,,,,0,67,67,67,,,,,,,,,,,,,,,,,,,1955.7610620000014,1957.8348748999997,,,1972.4826443999991,1972.4826443999991,1972.4826443999991,3,9.737040500000148,1982.2445202999988,1982.2445202999988,1982.2445202999988,1982.2445202999988,1982.2445202999988,1982.2445202999988,1982.2445202999988,1982.2445202999988,None,None,None,,,,,,,,,,1955.7610620000014,1955.7610620000014,None,,1968.8511647999985,1955.7610620000014,1955.7610620000014,,,7,001,2024-07-23_15h15.42.938,robot_cogshifting_sign,2022.2.5,59.96196013252798,
"['R_Head_Y_Back', 'R_Arm_Y_For', 'L_Head_Y_For', 'R_Head_X_Back']","{'laterality': 'L_Head_Y_For', 'localisation': 'R_Arm_Y_For', 'movement': 'R_Head_X_Back'}",movement,"['localisation', 'movement']",R_Head_X_Back,3,2,robot,3,False,False,"['robot_stimuli\\R_Head_Y_Back.mp4', 'robot_stimuli\\R_Arm_Y_For.mp4', 'robot_stimuli\\L_Head_Y_For.mp4', 'robot_stimuli\\R_Head_X_Back.mp4']",robot_stimuli\R_Head_X_Back.mp4,7,,,,,,,,,,,,,0,68,68,68,,,,,,,,,,,,,,,,,,,1982.2445202999988,1984.3296188999993,,,1998.9838253000016,1998.9838253000016,1998.9838253000016,2,15.684161799999856,2014.6945540000015,2014.6945540000015,2014.6945540000015,2014.6945540000015,2014.6945540000015,2014.6945540000015,2014.6945540000015,2014.6945540000015,None,None,None,,,,,,,,,,1982.2445202999988,1982.2445202999988,None,,1995.3501719000014,1982.2445202999988,1982.2445202999988,,,7,001,2024-07-23_15h15.42.938,robot_cogshifting_sign,2022.2.5,59.96196013252798,
"['R_Torso_Y_For', 'R_Base_Y_Back', 'R_Torso_X_For', 'L_Torso_Y_Back']","{'laterality': 'L_Torso_Y_Back', 'localisation': 'R_Base_Y_Back', 'movement': 'R_Torso_X_For'}",localisation,"['laterality', 'localisation']",R_Base_Y_Back,1,2,robot,3,False,False,"['robot_stimuli\\R_Torso_Y_For.mp4', 'robot_stimuli\\R_Base_Y_Back.mp4', 'robot_stimuli\\R_Torso_X_For.mp4', 'robot_stimuli\\L_Torso_Y_Back.mp4']",robot_stimuli\R_Base_Y_Back.mp4,7,,,,,,,,,,,,,0,69,69,69,,,,,,,,,,,,,,,,,,,2014.6945540000015,2016.7708682000011,,,2031.4512935999992,2031.4512935999992,2031.4512935999992,2,8.768391300000076,2040.2446625000011,2040.2446625000011,2040.2446625000011,2040.2446625000011,2040.2446625000011,2040.2446625000011,2040.2446625000011,2040.2446625000011,None,None,None,,,,,,,,,,2014.6945540000015,2014.6945540000015,None,,2027.9388978999996,2014.6945540000015,2014.6945540000015,,,7,001,2024-07-23_15h15.42.938,robot_cogshifting_sign,2022.2.5,59.96196013252798,
"['L_Base_X_Back', 'R_Base_Y_For', 'R_Base_X_For', 'R_Head_X_Back']","{'laterality': 'L_Base_X_Back', 'localisation': 'R_Head_X_Back', 'movement': 'R_Base_Y_For'}",movement,"['laterality', 'movement']",R_Base_Y_For,1,2,robot,3,False,False,"['robot_stimuli\\L_Base_X_Back.mp4', 'robot_stimuli\\R_Base_Y_For.mp4', 'robot_stimuli\\R_Base_X_For.mp4', 'robot_stimuli\\R_Head_X_Back.mp4']",robot_stimuli\R_Base_Y_For.mp4,7,,,,,,,,,,,,,0,70,70,70,,,,,,,,,,,,,,,,,,,2040.2446625000011,2042.3205630000011,,,2056.986728,2056.986728,2056.986728,3,16.08882319999975,2073.0945428000014,2073.0945428000014,2073.0945428000014,2073.0945428000014,2073.0945428000014,2073.0945428000014,2073.0945428000014,2073.0945428000014,None,None,None,,,,,,,,,,2040.2446625000011,2040.2446625000011,None,,2053.3484757000006,2040.2446625000011,2040.2446625000011,,,7,001,2024-07-23_15h15.42.938,robot_cogshifting_sign,2022.2.5,59.96196013252798,
"['R_Base_Y_For', 'L_Base_Z_For', 'L_Head_Y_For', 'L_Base_Y_Back']","{'laterality': 'R_Base_Y_For', 'localisation': 'L_Head_Y_For', 'movement': 'L_Base_Z_For'}",laterality,"['laterality', 'localisation']",R_Base_Y_For,0,2,robot,3,False,True,"['robot_stimuli\\R_Base_Y_For.mp4', 'robot_stimuli\\L_Base_Z_For.mp4', 'robot_stimuli\\L_Head_Y_For.mp4', 'robot_stimuli\\L_Base_Y_Back.mp4']",robot_stimuli\R_Base_Y_For.mp4,7,,,,,,,,,,,,,0,71,71,71,,,,,,,,,,,,,,,,,,,2073.0945428000014,2075.1719524,,,2089.9210036000004,2089.9210036000004,2089.9210036000004,1,3.8347743000012997,2093.8030590000017,2097.8009869000016,2093.8030590000017,2097.8009869000016,2093.8030590000017,2097.8009869000016,2093.8030590000017,2097.8009869000016,55.46296296296297,2.706281900002068,space,,,3.9440551999978197,,,,,,,2073.0945428000014,2073.0945428000014,None,,2086.3528006999986,2073.0945428000014,2073.0945428000014,,,7,001,2024-07-23_15h15.42.938,robot_cogshifting_sign,2022.2.5,59.96196013252798,
"['L_Arm_X_For', 'R_Arm_Z_For', 'L_Torso_Z_Back', 'L_Arm_Z_For']","{'laterality': 'R_Arm_Z_For', 'localisation': 'L_Torso_Z_Back', 'movement': 'L_Arm_X_For'}",localisation,"['laterality', 'localisation', 'movement']",L_Torso_Z_Back,2,3,robot,3,True,False,"['robot_stimuli\\L_Arm_X_For.mp4', 'robot_stimuli\\R_Arm_Z_For.mp4', 'robot_stimuli\\L_Torso_Z_Back.mp4', 'robot_stimuli\\L_Arm_Z_For.mp4']",robot_stimuli\L_Torso_Z_Back.mp4,7,,,,,,,,,,,,,0,72,72,72,,,,,,,,,,,,,,,,,,,2167.3280369999993,2169.4045050999994,,,2184.071879700001,2184.071879700001,2184.071879700001,2,7.722906699997111,2191.8113304,2191.8113304,2191.8113304,2191.8113304,2191.8113304,2191.8113304,2191.8113304,2191.8113304,None,None,None,,,,,,,,,,2097.8009869000016,2097.8009869000016,space,69.49792739999975,2180.4363844,,,,,7,001,2024-07-23_15h15.42.938,robot_cogshifting_sign,2022.2.5,59.96196013252798,
"['R_Head_Y_For', 'L_Head_Y_Back', 'R_Head_Z_For', 'R_Arm_Y_For']","{'laterality': 'L_Head_Y_Back', 'localisation': 'R_Arm_Y_For', 'movement': 'R_Head_Z_For'}",movement,"['laterality', 'localisation', 'movement']",R_Head_Z_For,2,3,robot,3,False,False,"['robot_stimuli\\R_Head_Y_For.mp4', 'robot_stimuli\\L_Head_Y_Back.mp4', 'robot_stimuli\\R_Head_Z_For.mp4', 'robot_stimuli\\R_Arm_Y_For.mp4']",robot_stimuli\R_Head_Z_For.mp4,7,,,,,,,,,,,,,0,73,73,73,,,,,,,,,,,,,,,,,,,2191.8113304,2193.8850813999998,,,2208.5666235999997,2208.5666235999997,2208.5666235999997,4,8.037328099999286,2216.627999200002,2216.627999200002,2216.627999200002,2216.627999200002,2216.627999200002,2216.627999200002,2216.627999200002,2216.627999200002,None,None,None,,,,,,,,,,2191.8113304,2191.8113304,None,,2205.0585849000017,2191.8113304,2191.8113304,,,7,001,2024-07-23_15h15.42.938,robot_cogshifting_sign,2022.2.5,59.96196013252798,
"['L_Torso_Z_Back', 'R_Base_Z_For', 'L_Base_Y_Back', 'L_Base_Z_Back']","{'laterality': 'R_Base_Z_For', 'localisation': 'L_Torso_Z_Back', 'movement': 'L_Base_Y_Back'}",laterality,"['laterality', 'localisation', 'movement']",R_Base_Z_For,1,3,robot,3,False,False,"['robot_stimuli\\L_Torso_Z_Back.mp4', 'robot_stimuli\\R_Base_Z_For.mp4', 'robot_stimuli\\L_Base_Y_Back.mp4', 'robot_stimuli\\L_Base_Z_Back.mp4']",robot_stimuli\R_Base_Z_For.mp4,7,,,,,,,,,,,,,0,74,74,74,,,,,,,,,,,,,,,,,,,2216.627999200002,2218.7024482999987,,,2233.3023747000007,2233.3023747000007,2233.3023747000007,2,1.4766163999993296,2234.811189600001,2234.811189600001,2234.811189600001,2234.811189600001,2234.811189600001,2234.811189600001,2234.811189600001,2234.811189600001,None,None,None,,,,,,,,,,2216.627999200002,2216.627999200002,None,,2229.6640130999986,2216.627999200002,2216.627999200002,,,7,001,2024-07-23_15h15.42.938,robot_cogshifting_sign,2022.2.5,59.96196013252798,
"['R_Head_Z_Back', 'L_Torso_Z_For', 'L_Head_Z_Back', 'L_Head_Y_Back']","{'laterality': 'R_Head_Z_Back', 'localisation': 'L_Torso_Z_For', 'movement': 'L_Head_Y_Back'}",laterality,"['laterality', 'localisation', 'movement']",R_Head_Z_Back,0,3,robot,3,False,False,"['robot_stimuli\\R_Head_Z_Back.mp4', 'robot_stimuli\\L_Torso_Z_For.mp4', 'robot_stimuli\\L_Head_Z_Back.mp4', 'robot_stimuli\\L_Head_Y_Back.mp4']",robot_stimuli\R_Head_Z_Back.mp4,7,,,,,,,,,,,,,0,75,75,75,,,,,,,,,,,,,,,,,,,2234.811189600001,2236.8821884999998,,,2251.702389000002,2251.702389000002,2251.702389000002,2,8.45199959999809,2260.1782810000004,2260.1782810000004,2260.1782810000004,2260.1782810000004,2260.1782810000004,2260.1782810000004,2260.1782810000004,2260.1782810000004,None,None,None,,,,,,,,,,2234.811189600001,2234.811189600001,None,,2248.0604096999996,2234.811189600001,2234.811189600001,,,7,001,2024-07-23_15h15.42.938,robot_cogshifting_sign,2022.2.5,59.96196013252798,
"['L_Torso_Z_For', 'L_Torso_Y_For', 'R_Torso_Z_For', 'L_Base_Z_For']","{'laterality': 'R_Torso_Z_For', 'localisation': 'L_Base_Z_For', 'movement': 'L_Torso_Y_For'}",localisation,"['laterality', 'localisation', 'movement']",L_Base_Z_For,3,3,robot,3,False,False,"['robot_stimuli\\L_Torso_Z_For.mp4', 'robot_stimuli\\L_Torso_Y_For.mp4', 'robot_stimuli\\R_Torso_Z_For.mp4', 'robot_stimuli\\L_Base_Z_For.mp4']",robot_stimuli\L_Base_Z_For.mp4,7,,,,,,,,,,,,,0,76,76,76,,,,,,,,,,,,,,,,,,,2260.1782810000004,2262.2536476999994,,,2277.034456900001,2277.034456900001,2277.034456900001,2,24.848833600000944,2301.9117719999995,2301.9117719999995,2301.9117719999995,2301.9117719999995,2301.9117719999995,2301.9117719999995,2301.9117719999995,2301.9117719999995,None,None,None,,,,,,,,,,2260.1782810000004,2260.1782810000004,None,,2273.398539599999,2260.1782810000004,2260.1782810000004,,,7,001,2024-07-23_15h15.42.938,robot_cogshifting_sign,2022.2.5,59.96196013252798,
"['L_Head_Y_Back', 'R_Head_Z_Back', 'R_Torso_Y_Back', 'R_Head_Y_For']","{'laterality': 'L_Head_Y_Back', 'localisation': 'R_Torso_Y_Back', 'movement': 'R_Head_Z_Back'}",laterality,"['laterality', 'localisation', 'movement']",L_Head_Y_Back,0,3,robot,3,False,False,"['robot_stimuli\\L_Head_Y_Back.mp4', 'robot_stimuli\\R_Head_Z_Back.mp4', 'robot_stimuli\\R_Torso_Y_Back.mp4', 'robot_stimuli\\R_Head_Y_For.mp4']",robot_stimuli\L_Head_Y_Back.mp4,7,,,,,,,,,,,,,0,77,77,77,,,,,,,,,,,,,,,,,,,2301.9117719999995,2303.984884199999,,,2318.7678473999986,2318.7678473999986,2318.7678473999986,2,2.9080070000018168,2321.694915799999,2321.694915799999,2321.694915799999,2321.694915799999,2321.694915799999,2321.694915799999,2321.694915799999,2321.694915799999,None,None,None,,,,,,,,,,2301.9117719999995,2301.9117719999995,None,,2315.133131300001,2301.9117719999995,2301.9117719999995,,,7,001,2024-07-23_15h15.42.938,robot_cogshifting_sign,2022.2.5,59.96196013252798,
"['L_Arm_Y_For', 'R_Arm_Y_For', 'L_Arm_Z_For', 'L_Head_Y_Back']","{'laterality': 'R_Arm_Y_For', 'localisation': 'L_Head_Y_Back', 'movement': 'L_Arm_Z_For'}",localisation,"['laterality', 'localisation', 'movement']",L_Head_Y_Back,3,3,robot,3,False,False,"['robot_stimuli\\L_Arm_Y_For.mp4', 'robot_stimuli\\R_Arm_Y_For.mp4', 'robot_stimuli\\L_Arm_Z_For.mp4', 'robot_stimuli\\L_Head_Y_Back.mp4']",robot_stimuli\L_Head_Y_Back.mp4,7,,,,,,,,,,,,,0,78,78,78,,,,,,,,,,,,,,,,,,,2321.694915799999,2323.769155599999,,,2338.4380391000013,2338.4380391000013,2338.4380391000013,4,1.6841762000003655,2340.1450221999985,2340.1450221999985,2340.1450221999985,2340.1450221999985,2340.1450221999985,2340.1450221999985,2340.1450221999985,2340.1450221999985,None,None,None,,,,,,,,,,2321.694915799999,2321.694915799999,None,,2334.8017129,2321.694915799999,2321.694915799999,,,7,001,2024-07-23_15h15.42.938,robot_cogshifting_sign,2022.2.5,59.96196013252798,
"['L_Base_X_For', 'L_Head_Z_Back', 'L_Head_X_Back', 'R_Head_X_For']","{'laterality': 'R_Head_X_For', 'localisation': 'L_Base_X_For', 'movement': 'L_Head_Z_Back'}",movement,"['laterality', 'localisation', 'movement']",L_Head_Z_Back,1,3,robot,3,False,False,"['robot_stimuli\\L_Base_X_For.mp4', 'robot_stimuli\\L_Head_Z_Back.mp4', 'robot_stimuli\\L_Head_X_Back.mp4', 'robot_stimuli\\R_Head_X_For.mp4']",robot_stimuli\L_Head_Z_Back.mp4,7,,,,,,,,,,,,,0,79,79,79,,,,,,,,,,,,,,,,,,,2340.1450221999985,2342.2183455999984,,,2356.9701553000014,2356.9701553000014,2356.9701553000014,2,7.176807399999234,2364.1781766999993,2364.1781766999993,2364.1781766999993,2364.1781766999993,2364.1781766999993,2364.1781766999993,2364.1781766999993,2364.1781766999993,None,None,None,,,,,,,,,,2340.1450221999985,2340.1450221999985,None,,2353.3299262,2340.1450221999985,2340.1450221999985,,,7,001,2024-07-23_15h15.42.938,robot_cogshifting_sign,2022.2.5,59.96196013252798,
"['L_Torso_Y_For', 'L_Head_Z_Back', 'L_Torso_Z_For', 'R_Torso_Z_For']","{'laterality': 'R_Torso_Z_For', 'localisation': 'L_Head_Z_Back', 'movement': 'L_Torso_Y_For'}",movement,"['laterality', 'localisation', 'movement']",L_Torso_Y_For,0,3,robot,3,False,True,"['robot_stimuli\\L_Torso_Y_For.mp4', 'robot_stimuli\\L_Head_Z_Back.mp4', 'robot_stimuli\\L_Torso_Z_For.mp4', 'robot_stimuli\\R_Torso_Z_For.mp4']",robot_stimuli\L_Torso_Y_For.mp4,7,,,,,,,,,,,,,0,80,80,80,,,,,,,,,,,,,,,,,,,2364.1781766999993,2366.2527298999994,,,2381.0652396000005,2381.0652396000005,2381.0652396000005,2,9.666235400000005,2390.7860183999983,2395.351858599999,2390.7860183999983,2395.351858599999,2390.7860183999983,2395.351858599999,2390.7860183999983,2395.351858599999,59.783950617283956,3.291944299999159,space,,,4.512400399999024,,,,,,,2364.1781766999993,2364.1781766999993,None,,2377.418729199999,2364.1781766999993,2364.1781766999993,,,7,001,2024-07-23_15h15.42.938,robot_cogshifting_sign,2022.2.5,59.96196013252798,
"['blue_right_R_45', 'red_right_S_45', 'red_right_N_0', 'red_bottom_D_45']","{'color': 'blue_right_R_45', 'position': 'red_bottom_D_45', 'orientation': 'red_right_N_0'}",color,['color'],blue_right_R_45,0,1,letter,4,True,False,"['robot_stimuli\\\\filler.mp4', 'robot_stimuli\\\\filler.mp4', 'robot_stimuli\\\\filler.mp4', 'robot_stimuli\\\\filler.mp4']",robot_stimuli\\filler.mp4,7,,,,,,,,,,,,,0,81,81,81,,,,,,,,,,,,,,,,,,,2399.9948189999996,2402.048926700001,,,2410.5273763000005,2410.5273763000005,2410.5273763000005,1,1.4195337999990443,2411.9779748,2411.9779748,2411.9779748,2411.9779748,2411.9779748,2411.9779748,2411.9779748,2411.9779748,None,None,None,,,,,,,,,,2395.351858599999,2395.351858599999,space,4.619852499999979,,,,2408.50504,2410.5273763000005,7,001,2024-07-23_15h15.42.938,robot_cogshifting_sign,2022.2.5,59.96196013252798,
"['blue_right_V_45', 'blue_top_H_45', 'blue_top_W_0', 'red_top_C_45']","{'color': 'red_top_C_45', 'position': 'blue_right_V_45', 'orientation': 'blue_top_W_0'}",position,['position'],blue_right_V_45,0,1,letter,4,False,False,"['robot_stimuli\\\\filler.mp4', 'robot_stimuli\\\\filler.mp4', 'robot_stimuli\\\\filler.mp4', 'robot_stimuli\\\\filler.mp4']",robot_stimuli\\filler.mp4,7,,,,,,,,,,,,,0,82,82,82,,,,,,,,,,,,,,,,,,,2411.9779748,2414.0315201999983,,,2422.513527700001,2422.513527700001,2422.513527700001,1,0.9526624999998603,2423.494744399999,2423.494744399999,2423.494744399999,2423.494744399999,2423.494744399999,2423.494744399999,2423.494744399999,2423.494744399999,None,None,None,,,,,,,,,,2411.9779748,2411.9779748,None,,,2411.9779748,2411.9779748,2420.2981972000016,2422.513527700001,7,001,2024-07-23_15h15.42.938,robot_cogshifting_sign,2022.2.5,59.96196013252798,
"['red_right_M_0', 'blue_right_T_0', 'red_bottom_G_0', 'red_right_P_45']","{'color': 'blue_right_T_0', 'position': 'red_bottom_G_0', 'orientation': 'red_right_P_45'}",position,['position'],red_bottom_G_0,2,1,letter,4,False,False,"['robot_stimuli\\\\filler.mp4', 'robot_stimuli\\\\filler.mp4', 'robot_stimuli\\\\filler.mp4', 'robot_stimuli\\\\filler.mp4']",robot_stimuli\\filler.mp4,7,,,,,,,,,,,,,0,83,83,83,,,,,,,,,,,,,,,,,,,2423.494744399999,2425.5525959000006,,,2434.0282050999995,2434.0282050999995,2434.0282050999995,2,11.175385700000334,2445.228114900001,2445.228114900001,2445.228114900001,2445.228114900001,2445.228114900001,2445.228114900001,2445.228114900001,2445.228114900001,None,None,None,,,,,,,,,,2423.494744399999,2423.494744399999,None,,,2423.494744399999,2423.494744399999,2432.0109873,2434.0282050999995,7,001,2024-07-23_15h15.42.938,robot_cogshifting_sign,2022.2.5,59.96196013252798,
"['red_left_Z_45', 'red_right_J_0', 'blue_right_S_45', 'red_right_D_45']","{'color': 'blue_right_S_45', 'position': 'red_left_Z_45', 'orientation': 'red_right_J_0'}",orientation,['orientation'],red_right_J_0,1,1,letter,4,False,False,"['robot_stimuli\\\\filler.mp4', 'robot_stimuli\\\\filler.mp4', 'robot_stimuli\\\\filler.mp4', 'robot_stimuli\\\\filler.mp4']",robot_stimuli\\filler.mp4,7,,,,,,,,,,,,,0,84,84,84,,,,,,,,,,,,,,,,,,,2445.228114900001,2447.2838521999984,,,2456.1760657000013,2456.1760657000013,2456.1760657000013,2,1.3394392000009248,2457.5450504,2457.5450504,2457.5450504,2457.5450504,2457.5450504,2457.5450504,2457.5450504,2457.5450504,None,None,None,,,,,,,,,,2445.228114900001,2445.228114900001,None,,,2445.228114900001,2445.228114900001,2454.152649200001,2456.1760657000013,7,001,2024-07-23_15h15.42.938,robot_cogshifting_sign,2022.2.5,59.96196013252798,
"['red_left_X_0', 'red_right_M_0', 'blue_left_F_0', 'red_left_R_45']","{'color': 'blue_left_F_0', 'position': 'red_right_M_0', 'orientation': 'red_left_R_45'}",position,['position'],red_right_M_0,1,1,letter,4,False,False,"['robot_stimuli\\\\filler.mp4', 'robot_stimuli\\\\filler.mp4', 'robot_stimuli\\\\filler.mp4', 'robot_stimuli\\\\filler.mp4']",robot_stimuli\\filler.mp4,7,,,,,,,,,,,,,0,85,85,85,,,,,,,,,,,,,,,,,,,2457.5450504,2459.5994266999987,,,2467.8779902999995,2467.8779902999995,2467.8779902999995,2,1.6524882999983674,2469.5616394999997,2469.5616394999997,2469.5616394999997,2469.5616394999997,2469.5616394999997,2469.5616394999997,2469.5616394999997,2469.5616394999997,None,None,None,,,,,,,,,,2457.5450504,2457.5450504,None,,,2457.5450504,2457.5450504,2465.8561389999995,2467.8779902999995,7,001,2024-07-23_15h15.42.938,robot_cogshifting_sign,2022.2.5,59.96196013252798,
