sequence,is_target,condition,stimuli,block,is_block_beginning,is_block_ending,fname,subject,retraining.thisRepN,retraining.thisTrialN,retraining.thisN,retraining.thisIndex,training.thisRepN,training.thisTrialN,training.thisN,training.thisIndex,trials.thisRepN,trials.thisTrialN,trials.thisN,trials.thisIndex,langage_text.started,langage_key.started,langage_key.keys,langage_key.rt,intro_text.started,intro_key.started,intro_key.keys,intro_key.rt,training_robot_intro_text.started,training_robot_intro_key.started,training_robot_intro_key.keys,training_robot_intro_key.rt,cross.started,cross.stopped,training_letter.started,training_robot_key.started,training_robot_question.started,training_robot_keys.started,training_letter.stopped,training_robot_key.keys,RSME_labels.started,RSME_labels.stopped,RSME_ticks.started,RSME_ticks.stopped,RSME_text.started,RSME_text.stopped,RSME_key.started,RSME_key.stopped,RSME_ticks.response,RSME_ticks.rt,RSME_key.keys,training_robot_intro_text.stopped,training_robot_intro_key.stopped,training_robot_key.rt,RSME_key.rt,training_robot_movie.started,experiment_beginning_text.started,experiment_beginning_keys.started,experiment_beginning_key.started,experiment_beginning_key.keys,experiment_beginning_key.rt,block_intro_text.started,block_intro_key.started,block_intro_key.keys,block_intro_key.rt,letter.started,key.started,letter.stopped,key.keys,block_intro_text.stopped,block_intro_key.stopped,key.rt,movie.started,participant,session,date,expName,psychopyVersion,frameRate,Unnamed: 80
,,,,,,,,,,,,,,,,,,,,,13.243225299999992,13.243225299999992,f,238.8509787,,,,,,,,,,,,,,,,,,,,,,,,,,,,,,,,,,,,,,,,,,,,,,,,,,14,1,2024-06-19_13h09.25.927,robot_nback_sign,2022.2.5,60.09091755826497,
,,,,,,,,,,,,,,,,,,,,,,,,,252.1542307,252.1542307,space,91.73025150000004,,,,,,,,,,,,,,,,,,,,,,,,,,,,,,,,,,,,,,,,,,,,,,14,1,2024-06-19_13h09.25.927,robot_nback_sign,2022.2.5,60.09091755826497,
D,False,1.0,letter,1.0,True,False,robot_stimuli\\filler.mp4,14.0,0.0,0.0,0.0,0.0,0.0,0.0,0.0,0.0,,,,,,,,,,,,,343.939701,343.939701,space,83.02449130000005,426.9827844,428.4816305,428.4816305,428.4816305,428.4816305,428.4816305,430.79308359999993,None,430.79308359999993,430.79308359999993,430.79308359999993,430.79308359999993,430.79308359999993,430.79308359999993,430.79308359999993,430.79308359999993,None,None,None,,,,,,,,,,,,,,,,,,,,,,,14,1,2024-06-19_13h09.25.927,robot_nback_sign,2022.2.5,60.09091755826497,
D,True,1.0,letter,1.0,False,False,robot_stimuli\\filler.mp4,14.0,0.0,0.0,0.0,0.0,0.0,1.0,1.0,1.0,,,,,,,,,,,,,430.79308359999993,430.79308359999993,None,,430.79308359999993,,431.8633454999999,431.8633454999999,431.8633454999999,431.8633454999999,433.8964626,None,433.8964626,433.8964626,433.8964626,433.8964626,433.8964626,433.8964626,433.8964626,433.8964626,None,None,None,430.79308359999993,430.79308359999993,,,,,,,,,,,,,,,,,,,,,14,1,2024-06-19_13h09.25.927,robot_nback_sign,2022.2.5,60.09091755826497,
P,False,1.0,letter,1.0,False,False,robot_stimuli\\filler.mp4,14.0,0.0,0.0,0.0,0.0,0.0,2.0,2.0,2.0,,,,,,,,,,,,,433.8964626,433.8964626,None,,433.8964626,434.97247329999993,434.97247329999993,434.97247329999993,434.97247329999993,434.97247329999993,437.00486849999993,c,437.00486849999993,437.00486849999993,437.00486849999993,437.00486849999993,437.00486849999993,437.00486849999993,437.00486849999993,437.00486849999993,None,None,None,433.8964626,433.8964626,0.1852714000000617,,,,,,,,,,,,,,,,,,,,14,1,2024-06-19_13h09.25.927,robot_nback_sign,2022.2.5,60.09091755826497,
N,False,1.0,letter,1.0,False,False,robot_stimuli\\filler.mp4,14.0,0.0,0.0,0.0,0.0,0.0,3.0,3.0,3.0,,,,,,,,,,,,,437.00486849999993,437.00486849999993,None,,437.00486849999993,438.0877446,438.0877446,438.0877446,438.0877446,438.0877446,440.3136086999999,None,440.3136086999999,440.3136086999999,440.3136086999999,440.3136086999999,440.3136086999999,440.3136086999999,440.3136086999999,440.3136086999999,None,None,None,437.00486849999993,437.00486849999993,,,,,,,,,,,,,,,,,,,,,14,1,2024-06-19_13h09.25.927,robot_nback_sign,2022.2.5,60.09091755826497,
N,True,1.0,letter,1.0,False,False,robot_stimuli\\filler.mp4,14.0,0.0,0.0,0.0,0.0,0.0,4.0,4.0,4.0,,,,,,,,,,,,,440.3136086999999,440.3136086999999,None,,440.3136086999999,441.3803981,441.3803981,441.3803981,441.3803981,441.3803981,443.4168292,c,443.4168292,443.4168292,443.4168292,443.4168292,443.4168292,443.4168292,443.4168292,443.4168292,None,None,None,440.3136086999999,440.3136086999999,1.0082430000000215,,,,,,,,,,,,,,,,,,,,14,1,2024-06-19_13h09.25.927,robot_nback_sign,2022.2.5,60.09091755826497,
S,False,1.0,letter,1.0,False,True,robot_stimuli\\filler.mp4,14.0,0.0,0.0,0.0,0.0,0.0,5.0,5.0,5.0,,,,,,,,,,,,,443.4168292,443.4168292,None,,443.4168292,444.4820434999999,444.4820434999999,444.4820434999999,444.4820434999999,444.4820434999999,446.5699789,None,446.5699789,468.9030263,446.5699789,468.9030263,446.5699789,468.9030263,446.5699789,468.9030263,33.54938271604938,20.792747299999974,space,443.4168292,443.4168292,,22.265996699999988,,,,,,,,,,,,,,,,,,,14,1,2024-06-19_13h09.25.927,robot_nback_sign,2022.2.5,60.09091755826497,
R,False,2.0,letter,1.0,True,False,robot_stimuli\\filler.mp4,14.0,0.0,0.0,0.0,0.0,0.0,6.0,6.0,6.0,,,,,,,,,,,,,468.9030263,468.9030263,space,11.214436399999984,480.1492458,481.2295954,481.2295954,481.2295954,481.2295954,481.2295954,483.2535199,None,483.2535199,483.2535199,483.2535199,483.2535199,483.2535199,483.2535199,483.2535199,483.2535199,None,None,None,,,,,,,,,,,,,,,,,,,,,,,14,1,2024-06-19_13h09.25.927,robot_nback_sign,2022.2.5,60.09091755826497,
R,False,2.0,letter,1.0,False,False,robot_stimuli\\filler.mp4,14.0,0.0,0.0,0.0,0.0,0.0,7.0,7.0,7.0,,,,,,,,,,,,,483.2535199,483.2535199,None,,483.2535199,484.3335751999999,484.3335751999999,484.3335751999999,484.3335751999999,484.3335751999999,486.3666867,None,486.3666867,486.3666867,486.3666867,486.3666867,486.3666867,486.3666867,486.3666867,486.3666867,None,None,None,483.2535199,483.2535199,,,,,,,,,,,,,,,,,,,,,14,1,2024-06-19_13h09.25.927,robot_nback_sign,2022.2.5,60.09091755826497,
W,False,2.0,letter,1.0,False,False,robot_stimuli\\filler.mp4,14.0,0.0,0.0,0.0,0.0,0.0,8.0,8.0,8.0,,,,,,,,,,,,,486.3666867,486.3666867,None,,486.3666867,487.435574,487.435574,487.435574,487.435574,487.435574,489.6635918999999,None,489.6635918999999,489.6635918999999,489.6635918999999,489.6635918999999,489.6635918999999,489.6635918999999,489.6635918999999,489.6635918999999,None,None,None,486.3666867,486.3666867,,,,,,,,,,,,,,,,,,,,,14,1,2024-06-19_13h09.25.927,robot_nback_sign,2022.2.5,60.09091755826497,
Q,False,2.0,letter,1.0,False,False,robot_stimuli\\filler.mp4,14.0,0.0,0.0,0.0,0.0,0.0,9.0,9.0,9.0,,,,,,,,,,,,,489.6635918999999,489.6635918999999,None,,489.6635918999999,490.7340078,490.7340078,490.7340078,490.7340078,490.7340078,492.9615789,None,492.9615789,492.9615789,492.9615789,492.9615789,492.9615789,492.9615789,492.9615789,492.9615789,None,None,None,489.6635918999999,489.6635918999999,,,,,,,,,,,,,,,,,,,,,14,1,2024-06-19_13h09.25.927,robot_nback_sign,2022.2.5,60.09091755826497,
W,True,2.0,letter,1.0,False,False,robot_stimuli\\filler.mp4,14.0,0.0,0.0,0.0,0.0,0.0,10.0,10.0,10.0,,,,,,,,,,,,,492.9615789,492.9615789,None,,492.9615789,494.0322013,494.0322013,494.0322013,494.0322013,494.0322013,496.0695791,c,496.0695791,496.0695791,496.0695791,496.0695791,496.0695791,496.0695791,496.0695791,496.0695791,None,None,None,492.9615789,492.9615789,1.1815993000000449,,,,,,,,,,,,,,,,,,,,14,1,2024-06-19_13h09.25.927,robot_nback_sign,2022.2.5,60.09091755826497,
Q,True,2.0,letter,1.0,False,True,robot_stimuli\\filler.mp4,14.0,0.0,0.0,0.0,0.0,0.0,11.0,11.0,11.0,,,,,,,,,,,,,496.0695791,496.0695791,None,,496.0695791,497.1483496999999,497.1483496999999,497.1483496999999,497.1483496999999,497.1483496999999,499.21050159999993,None,499.21050159999993,510.0759451,499.21050159999993,510.0759451,499.21050159999993,510.0759451,499.21050159999993,510.0759451,29.999999999999993,9.824532900000008,space,496.0695791,496.0695791,,10.81771919999997,,,,,,,,,,,,,,,,,,,14,1,2024-06-19_13h09.25.927,robot_nback_sign,2022.2.5,60.09091755826497,
Z,False,3.0,letter,1.0,True,False,robot_stimuli\\filler.mp4,14.0,0.0,0.0,0.0,0.0,0.0,12.0,12.0,12.0,,,,,,,,,,,,,510.0759451,510.0759451,space,3.848911799999968,513.9493047,515.0240392,515.0240392,515.0240392,515.0240392,515.0240392,517.246408,None,517.246408,517.246408,517.246408,517.246408,517.246408,517.246408,517.246408,517.246408,None,None,None,,,,,,,,,,,,,,,,,,,,,,,14,1,2024-06-19_13h09.25.927,robot_nback_sign,2022.2.5,60.09091755826497,
C,False,3.0,letter,1.0,False,False,robot_stimuli\\filler.mp4,14.0,0.0,0.0,0.0,0.0,0.0,13.0,13.0,13.0,,,,,,,,,,,,,517.246408,517.246408,None,,517.246408,518.3188845999999,518.3188845999999,518.3188845999999,518.3188845999999,518.3188845999999,520.5499417999999,None,520.5499417999999,520.5499417999999,520.5499417999999,520.5499417999999,520.5499417999999,520.5499417999999,520.5499417999999,520.5499417999999,None,None,None,517.246408,517.246408,,,,,,,,,,,,,,,,,,,,,14,1,2024-06-19_13h09.25.927,robot_nback_sign,2022.2.5,60.09091755826497,
K,False,3.0,letter,1.0,False,False,robot_stimuli\\filler.mp4,14.0,0.0,0.0,0.0,0.0,0.0,14.0,14.0,14.0,,,,,,,,,,,,,520.5499417999999,520.5499417999999,None,,520.5499417999999,521.6172364,521.6172364,521.6172364,521.6172364,521.6172364,523.8508869,None,523.8508869,523.8508869,523.8508869,523.8508869,523.8508869,523.8508869,523.8508869,523.8508869,None,None,None,520.5499417999999,520.5499417999999,,,,,,,,,,,,,,,,,,,,,14,1,2024-06-19_13h09.25.927,robot_nback_sign,2022.2.5,60.09091755826497,
Z,True,3.0,letter,1.0,False,False,robot_stimuli\\filler.mp4,14.0,0.0,0.0,0.0,0.0,0.0,15.0,15.0,15.0,,,,,,,,,,,,,523.8508869,523.8508869,None,,523.8508869,,524.9313682,524.9313682,524.9313682,524.9313682,526.9593348,c,526.9593348,526.9593348,526.9593348,526.9593348,526.9593348,526.9593348,526.9593348,526.9593348,None,None,None,523.8508869,523.8508869,1.7206951999999944,,,,,,,,,,,,,,,,,,,,14,1,2024-06-19_13h09.25.927,robot_nback_sign,2022.2.5,60.09091755826497,
C,True,3.0,letter,1.0,False,False,robot_stimuli\\filler.mp4,14.0,0.0,0.0,0.0,0.0,0.0,16.0,16.0,16.0,,,,,,,,,,,,,526.9593348,526.9593348,None,,526.9593348,528.0355453,528.0355453,528.0355453,528.0355453,528.0355453,530.2629492,c,530.2629492,530.2629492,530.2629492,530.2629492,530.2629492,530.2629492,530.2629492,530.2629492,None,None,None,526.9593348,526.9593348,1.3695125999998652,,,,,,,,,,,,,,,,,,,,14,1,2024-06-19_13h09.25.927,robot_nback_sign,2022.2.5,60.09091755826497,
D,False,3.0,letter,1.0,False,True,robot_stimuli\\filler.mp4,14.0,0.0,0.0,0.0,0.0,0.0,17.0,17.0,17.0,,,,,,,,,,,,,530.2629492,530.2629492,None,,530.2629492,531.3311904999999,531.3311904999999,531.3311904999999,531.3311904999999,531.3311904999999,533.391896,None,533.391896,540.3434123,533.391896,540.3434123,533.391896,540.3434123,533.391896,540.3434123,44.04320987654321,4.384802499999978,space,530.2629492,530.2629492,,6.9084407,,,,,,,,,,,,,,,,,,,14,1,2024-06-19_13h09.25.927,robot_nback_sign,2022.2.5,60.09091755826497,
R_Torso_X_Back,False,1.0,robot,2.0,True,False,robot_stimuli\R_Torso_X_Back.mp4,14.0,0.0,0.0,0.0,0.0,0.0,18.0,18.0,18.0,,,,,,,,,,,,,540.3434123,540.3434123,space,6.062514699999923,546.4327844,547.554001,,547.554001,547.554001,547.554001,,None,551.1855542999999,551.1855542999999,551.1855542999999,551.1855542999999,551.1855542999999,551.1855542999999,551.1855542999999,551.1855542999999,None,None,None,,,,,547.554001,,,,,,,,,,,,,,,,,,14,1,2024-06-19_13h09.25.927,robot_nback_sign,2022.2.5,60.09091755826497,
R_Arm_X_For,False,1.0,robot,2.0,False,False,robot_stimuli\R_Arm_X_For.mp4,14.0,0.0,0.0,0.0,0.0,0.0,19.0,19.0,19.0,,,,,,,,,,,,,551.1855542999999,551.1855542999999,None,,551.1855542999999,,,552.3003219999999,552.3003219999999,552.3003219999999,,n,555.9453255999999,555.9453255999999,555.9453255999999,555.9453255999999,555.9453255999999,555.9453255999999,555.9453255999999,555.9453255999999,None,None,None,551.1855542999999,551.1855542999999,3.1770039999998687,,552.3003219999999,,,,,,,,,,,,,,,,,,14,1,2024-06-19_13h09.25.927,robot_nback_sign,2022.2.5,60.09091755826497,
R_Base_Y_Back,False,1.0,robot,2.0,False,False,robot_stimuli\R_Base_Y_Back.mp4,14.0,0.0,0.0,0.0,0.0,0.0,20.0,20.0,20.0,,,,,,,,,,,,,555.9453255999999,555.9453255999999,None,,555.9453255999999,557.0475246,,557.0475246,557.0475246,557.0475246,,None,560.7025080999999,560.7025080999999,560.7025080999999,560.7025080999999,560.7025080999999,560.7025080999999,560.7025080999999,560.7025080999999,None,None,None,555.9453255999999,555.9453255999999,,,557.0475246,,,,,,,,,,,,,,,,,,14,1,2024-06-19_13h09.25.927,robot_nback_sign,2022.2.5,60.09091755826497,
R_Base_Y_Back,True,1.0,robot,2.0,False,False,robot_stimuli\R_Base_Y_Back.mp4,14.0,0.0,0.0,0.0,0.0,0.0,21.0,21.0,21.0,,,,,,,,,,,,,560.7025080999999,560.7025080999999,None,,560.7025080999999,,,561.8068218,561.8068218,561.8068218,,c,565.4507654,565.4507654,565.4507654,565.4507654,565.4507654,565.4507654,565.4507654,565.4507654,None,None,None,560.7025080999999,560.7025080999999,2.175236799999965,,561.8068218,,,,,,,,,,,,,,,,,,14,1,2024-06-19_13h09.25.927,robot_nback_sign,2022.2.5,60.09091755826497,
R_Torso_Y_For,False,1.0,robot,2.0,False,False,robot_stimuli\R_Torso_Y_For.mp4,14.0,0.0,0.0,0.0,0.0,0.0,22.0,22.0,22.0,,,,,,,,,,,,,565.4507654,565.4507654,None,,565.4507654,,,566.5587597,566.5587597,566.5587597,,None,570.1920746999999,570.1920746999999,570.1920746999999,570.1920746999999,570.1920746999999,570.1920746999999,570.1920746999999,570.1920746999999,None,None,None,565.4507654,565.4507654,,,566.5587597,,,,,,,,,,,,,,,,,,14,1,2024-06-19_13h09.25.927,robot_nback_sign,2022.2.5,60.09091755826497,
R_Torso_Y_For,True,1.0,robot,2.0,False,True,robot_stimuli\R_Torso_Y_For.mp4,14.0,0.0,0.0,0.0,0.0,0.0,23.0,23.0,23.0,,,,,,,,,,,,,570.1920746999999,570.1920746999999,None,,570.1920746999999,571.2906399,,571.2906399,571.2906399,571.2906399,,None,574.9658056,589.9895455999999,574.9658056,589.9895455999999,574.9658056,589.9895455999999,574.9658056,589.9895455999999,42.808641975308646,14.716201500000011,space,570.1920746999999,570.1920746999999,,14.974619599999954,571.2906399,,,,,,,,,,,,,,,,,,14,1,2024-06-19_13h09.25.927,robot_nback_sign,2022.2.5,60.09091755826497,
R_Arm_Z_For,False,2.0,robot,2.0,True,False,robot_stimuli\R_Arm_Z_For.mp4,14.0,0.0,0.0,0.0,0.0,0.0,24.0,24.0,24.0,,,,,,,,,,,,,589.9895455999999,589.9895455999999,space,4.68723769999994,594.6993046,595.795123,,595.795123,595.795123,595.795123,,None,599.4342571,599.4342571,599.4342571,599.4342571,599.4342571,599.4342571,599.4342571,599.4342571,None,None,None,,,,,595.795123,,,,,,,,,,,,,,,,,,14,1,2024-06-19_13h09.25.927,robot_nback_sign,2022.2.5,60.09091755826497,
L_Arm_X_Back,False,2.0,robot,2.0,False,False,robot_stimuli\L_Arm_X_Back.mp4,14.0,0.0,0.0,0.0,0.0,0.0,25.0,25.0,25.0,,,,,,,,,,,,,599.4342571,599.4342571,None,,599.4342571,,,600.5440583,600.5440583,600.5440583,,None,604.1778174,604.1778174,604.1778174,604.1778174,604.1778174,604.1778174,604.1778174,604.1778174,None,None,None,599.4342571,599.4342571,,,600.5440583,,,,,,,,,,,,,,,,,,14,1,2024-06-19_13h09.25.927,robot_nback_sign,2022.2.5,60.09091755826497,
L_Torso_Z_Back,False,2.0,robot,2.0,False,False,robot_stimuli\L_Torso_Z_Back.mp4,14.0,0.0,0.0,0.0,0.0,0.0,26.0,26.0,26.0,,,,,,,,,,,,,604.1778174,604.1778174,None,,604.1778174,605.2774964,,605.2774964,605.2774964,605.2774964,,n,608.7865168999999,608.7865168999999,608.7865168999999,608.7865168999999,608.7865168999999,608.7865168999999,608.7865168999999,608.7865168999999,None,None,None,604.1778174,604.1778174,3.270462599999945,,605.2774964,,,,,,,,,,,,,,,,,,14,1,2024-06-19_13h09.25.927,robot_nback_sign,2022.2.5,60.09091755826497,
L_Arm_X_Back,True,2.0,robot,2.0,False,False,robot_stimuli\L_Arm_X_Back.mp4,14.0,0.0,0.0,0.0,0.0,0.0,27.0,27.0,27.0,,,,,,,,,,,,,608.7865168999999,608.7865168999999,None,,608.7865168999999,609.8973049,,609.8973049,609.8973049,609.8973049,,c,613.5444063,613.5444063,613.5444063,613.5444063,613.5444063,613.5444063,613.5444063,613.5444063,None,None,None,608.7865168999999,608.7865168999999,3.274447600000002,,609.8973049,,,,,,,,,,,,,,,,,,14,1,2024-06-19_13h09.25.927,robot_nback_sign,2022.2.5,60.09091755826497,
R_Torso_X_Back,False,2.0,robot,2.0,False,False,robot_stimuli\R_Torso_X_Back.mp4,14.0,0.0,0.0,0.0,0.0,0.0,28.0,28.0,28.0,,,,,,,,,,,,,613.5444063,613.5444063,None,,613.5444063,614.6438310999999,,614.6438310999999,614.6438310999999,614.6438310999999,,c,618.281896,618.281896,618.281896,618.281896,618.281896,618.281896,618.281896,618.281896,None,None,None,613.5444063,613.5444063,2.432459699999953,,614.6438310999999,,,,,,,,,,,,,,,,,,14,1,2024-06-19_13h09.25.927,robot_nback_sign,2022.2.5,60.09091755826497,
L_Arm_X_Back,True,2.0,robot,2.0,False,True,robot_stimuli\L_Arm_X_Back.mp4,14.0,0.0,0.0,0.0,0.0,0.0,29.0,29.0,29.0,,,,,,,,,,,,,618.281896,618.281896,None,,618.281896,619.3632253999999,,619.3632253999999,619.3632253999999,619.3632253999999,,n,623.0421219,634.0437079999999,623.0421219,634.0437079999999,623.0421219,634.0437079999999,623.0421219,634.0437079999999,56.23456790123457,10.056103600000029,space,618.281896,618.281896,2.601754599999907,10.930273400000004,619.3632253999999,,,,,,,,,,,,,,,,,,14,1,2024-06-19_13h09.25.927,robot_nback_sign,2022.2.5,60.09091755826497,
R_Torso_Z_For,False,3.0,robot,2.0,True,False,robot_stimuli\R_Torso_Z_For.mp4,14.0,0.0,0.0,0.0,0.0,0.0,30.0,30.0,30.0,,,,,,,,,,,,,634.0437079999999,634.0437079999999,space,2.4499496999999053,636.5160040999999,637.6014680999999,,637.6014680999999,637.6014680999999,637.6014680999999,,None,641.249071,641.249071,641.249071,641.249071,641.249071,641.249071,641.249071,641.249071,None,None,None,,,,,637.6014680999999,,,,,,,,,,,,,,,,,,14,1,2024-06-19_13h09.25.927,robot_nback_sign,2022.2.5,60.09091755826497,
L_Head_Z_Back,False,3.0,robot,2.0,False,False,robot_stimuli\L_Head_Z_Back.mp4,14.0,0.0,0.0,0.0,0.0,0.0,31.0,31.0,31.0,,,,,,,,,,,,,641.249071,641.249071,None,,641.249071,642.3386783999999,,642.3386783999999,642.3386783999999,642.3386783999999,,None,645.9783761,645.9783761,645.9783761,645.9783761,645.9783761,645.9783761,645.9783761,645.9783761,None,None,None,641.249071,641.249071,,,642.3386783999999,,,,,,,,,,,,,,,,,,14,1,2024-06-19_13h09.25.927,robot_nback_sign,2022.2.5,60.09091755826497,
L_Base_Z_Back,False,3.0,robot,2.0,False,False,robot_stimuli\L_Base_Z_Back.mp4,14.0,0.0,0.0,0.0,0.0,0.0,32.0,32.0,32.0,,,,,,,,,,,,,645.9783761,645.9783761,None,,645.9783761,647.0658797,,647.0658797,647.0658797,647.0658797,,None,650.7142746999999,650.7142746999999,650.7142746999999,650.7142746999999,650.7142746999999,650.7142746999999,650.7142746999999,650.7142746999999,None,None,None,645.9783761,645.9783761,,,647.0658797,,,,,,,,,,,,,,,,,,14,1,2024-06-19_13h09.25.927,robot_nback_sign,2022.2.5,60.09091755826497,
R_Torso_Z_For,True,3.0,robot,2.0,False,False,robot_stimuli\R_Torso_Z_For.mp4,14.0,0.0,0.0,0.0,0.0,0.0,33.0,33.0,33.0,,,,,,,,,,,,,650.7142746999999,650.7142746999999,None,,650.7142746999999,651.7951399,,651.7951399,651.7951399,651.7951399,,c,655.448493,655.448493,655.448493,655.448493,655.448493,655.448493,655.448493,655.448493,None,None,None,650.7142746999999,650.7142746999999,3.561006499999934,,651.7951399,,,,,,,,,,,,,,,,,,14,1,2024-06-19_13h09.25.927,robot_nback_sign,2022.2.5,60.09091755826497,
L_Head_Z_Back,True,3.0,robot,2.0,False,False,robot_stimuli\L_Head_Z_Back.mp4,14.0,0.0,0.0,0.0,0.0,0.0,34.0,34.0,34.0,,,,,,,,,,,,,655.448493,655.448493,None,,655.448493,656.530312,,656.530312,656.530312,656.530312,,None,660.1799437,660.1799437,660.1799437,660.1799437,660.1799437,660.1799437,660.1799437,660.1799437,None,None,None,655.448493,655.448493,,,656.530312,,,,,,,,,,,,,,,,,,14,1,2024-06-19_13h09.25.927,robot_nback_sign,2022.2.5,60.09091755826497,
L_Head_Y_Back,False,3.0,robot,2.0,False,True,robot_stimuli\L_Head_Y_Back.mp4,14.0,0.0,0.0,0.0,0.0,0.0,35.0,35.0,35.0,,,,,,,,,,,,,660.1799437,660.1799437,None,,660.1799437,661.2615589999999,,661.2615589999999,661.2615589999999,661.2615589999999,,None,664.9406657,1250.021144,664.9406657,1250.021144,664.9406657,1250.021144,664.9406657,1250.021144,39.876543209876544,574.3726041000001,space,660.1799437,660.1799437,,585.0145464000002,661.2615589999999,,,,,,,,,,,,,,,,,,14,1,2024-06-19_13h09.25.927,robot_nback_sign,2022.2.5,60.09091755826497,
,,,,,,,,,0.0,0.0,0.0,0.0,,,,,,,,,,,,,,,,,,,,,,,,,,,,,,,,,,,,,,,,,,,,,1250.021144,1250.021144,1250.021144,c,3.789917800000097,,,,,,,,,,,,,14,1,2024-06-19_13h09.25.927,robot_nback_sign,2022.2.5,60.09091755826497,
W,False,3.0,letter,1.0,True,False,robot_stimuli\\filler.mp4,14.0,,,,,,,,,0.0,0.0,0.0,0.0,,,,,,,,,,,,,1259.0990410000002,1260.161793,,,,,,,1262.1840815,1262.1840815,1262.1840815,1262.1840815,1262.1840815,1262.1840815,1262.1840815,1262.1840815,None,None,None,,,,,,,,,,,1253.8736427,1253.8736427,space,5.2019556999999566,1260.161793,1260.161793,1262.1840815,None,,,,,14,1,2024-06-19_13h09.25.927,robot_nback_sign,2022.2.5,60.09091755826497,
D,False,3.0,letter,1.0,False,False,robot_stimuli\\filler.mp4,14.0,,,,,,,,,0.0,1.0,1.0,1.0,,,,,,,,,,,,,1262.1840815,,,,,,,,1265.2890169,1265.2890169,1265.2890169,1265.2890169,1265.2890169,1265.2890169,1265.2890169,1265.2890169,None,None,None,,,,,,,,,,,1262.1840815,1262.1840815,None,,1263.2638715,1263.2638715,1265.2890169,n,1262.1840815,1262.1840815,1.3089362000001472,,14,1,2024-06-19_13h09.25.927,robot_nback_sign,2022.2.5,60.09091755826497,
P,False,3.0,letter,1.0,False,False,robot_stimuli\\filler.mp4,14.0,,,,,,,,,0.0,2.0,2.0,2.0,,,,,,,,,,,,,1265.2890169,1266.3529379,,,,,,,1268.5836968,1268.5836968,1268.5836968,1268.5836968,1268.5836968,1268.5836968,1268.5836968,1268.5836968,None,None,None,,,,,,,,,,,1265.2890169,1265.2890169,None,,1266.3529379,1266.3529379,1268.5836968,n,1265.2890169,1265.2890169,1.2026263999999571,,14,1,2024-06-19_13h09.25.927,robot_nback_sign,2022.2.5,60.09091755826497,
S,False,3.0,letter,1.0,False,False,robot_stimuli\\filler.mp4,14.0,,,,,,,,,0.0,3.0,3.0,3.0,,,,,,,,,,,,,1268.5836968,,,,,,,,1271.6883092,1271.6883092,1271.6883092,1271.6883092,1271.6883092,1271.6883092,1271.6883092,1271.6883092,None,None,None,,,,,,,,,,,1268.5836968,1268.5836968,None,,1269.6537853,1269.6537853,1271.6883092,n,1268.5836968,1268.5836968,1.374508899999995,,14,1,2024-06-19_13h09.25.927,robot_nback_sign,2022.2.5,60.09091755826497,
Z,False,3.0,letter,1.0,False,False,robot_stimuli\\filler.mp4,14.0,,,,,,,,,0.0,4.0,4.0,4.0,,,,,,,,,,,,,1271.6883092,1272.7521882,,,,,,,1274.9874586,1274.9874586,1274.9874586,1274.9874586,1274.9874586,1274.9874586,1274.9874586,1274.9874586,None,None,None,,,,,,,,,,,1271.6883092,1271.6883092,None,,1272.7521882,1272.7521882,1274.9874586,n,1271.6883092,1271.6883092,0.988646599999896,,14,1,2024-06-19_13h09.25.927,robot_nback_sign,2022.2.5,60.09091755826497,
P,True,3.0,letter,1.0,False,False,robot_stimuli\\filler.mp4,14.0,,,,,,,,,0.0,5.0,5.0,5.0,,,,,,,,,,,,,1274.9874586,1276.0540539,,,,,,,1278.0841493,1278.0841493,1278.0841493,1278.0841493,1278.0841493,1278.0841493,1278.0841493,1278.0841493,None,None,None,,,,,,,,,,,1274.9874586,1274.9874586,None,,1276.0540539,1276.0540539,1278.0841493,c,1274.9874586,1274.9874586,0.8775309000000959,,14,1,2024-06-19_13h09.25.927,robot_nback_sign,2022.2.5,60.09091755826497,
N,False,3.0,letter,1.0,False,False,robot_stimuli\\filler.mp4,14.0,,,,,,,,,0.0,6.0,6.0,6.0,,,,,,,,,,,,,1278.0841493,,,,,,,,1281.3792704,1281.3792704,1281.3792704,1281.3792704,1281.3792704,1281.3792704,1281.3792704,1281.3792704,None,None,None,,,,,,,,,,,1278.0841493,1278.0841493,None,,1279.1525605000002,1279.1525605000002,1281.3792704,c,1278.0841493,1278.0841493,1.5075865000002011,,14,1,2024-06-19_13h09.25.927,robot_nback_sign,2022.2.5,60.09091755826497,
M,False,3.0,letter,1.0,False,False,robot_stimuli\\filler.mp4,14.0,,,,,,,,,0.0,7.0,7.0,7.0,,,,,,,,,,,,,1281.3792704,1282.4409192,,,,,,,1284.4704398,1284.4704398,1284.4704398,1284.4704398,1284.4704398,1284.4704398,1284.4704398,1284.4704398,None,None,None,,,,,,,,,,,1281.3792704,1281.3792704,None,,1282.4409192,1282.4409192,1284.4704398,n,1281.3792704,1281.3792704,0.8100148000001752,,14,1,2024-06-19_13h09.25.927,robot_nback_sign,2022.2.5,60.09091755826497,
K,False,3.0,letter,1.0,False,False,robot_stimuli\\filler.mp4,14.0,,,,,,,,,0.0,8.0,8.0,8.0,,,,,,,,,,,,,1284.4704398,1285.5462463,,,,,,,1287.5750522,1287.5750522,1287.5750522,1287.5750522,1287.5750522,1287.5750522,1287.5750522,1287.5750522,None,None,None,,,,,,,,,,,1284.4704398,1284.4704398,None,,1285.5462463,1285.5462463,1287.5750522,n,1284.4704398,1284.4704398,1.050630600000062,,14,1,2024-06-19_13h09.25.927,robot_nback_sign,2022.2.5,60.09091755826497,
V,False,3.0,letter,1.0,False,False,robot_stimuli\\filler.mp4,14.0,,,,,,,,,0.0,9.0,9.0,9.0,,,,,,,,,,,,,1287.5750522,1288.6379126000002,,,,,,,1290.6716877,1290.6716877,1290.6716877,1290.6716877,1290.6716877,1290.6716877,1290.6716877,1290.6716877,None,None,None,,,,,,,,,,,1287.5750522,1287.5750522,None,,1288.6379126000002,1288.6379126000002,1290.6716877,n,1287.5750522,1287.5750522,0.8863572000001056,,14,1,2024-06-19_13h09.25.927,robot_nback_sign,2022.2.5,60.09091755826497,
S,False,3.0,letter,1.0,False,False,robot_stimuli\\filler.mp4,14.0,,,,,,,,,0.0,10.0,10.0,10.0,,,,,,,,,,,,,1290.6716877,1291.7367512,,,,,,,1293.9672064,1293.9672064,1293.9672064,1293.9672064,1293.9672064,1293.9672064,1293.9672064,1293.9672064,None,None,None,,,,,,,,,,,1290.6716877,1290.6716877,None,,1291.7367512,1291.7367512,1293.9672064,c,1290.6716877,1290.6716877,0.8435378999998591,,14,1,2024-06-19_13h09.25.927,robot_nback_sign,2022.2.5,60.09091755826497,
G,False,3.0,letter,1.0,False,False,robot_stimuli\\filler.mp4,14.0,,,,,,,,,0.0,11.0,11.0,11.0,,,,,,,,,,,,,1293.9672064,,,,,,,,1297.0768012,1297.0768012,1297.0768012,1297.0768012,1297.0768012,1297.0768012,1297.0768012,1297.0768012,None,None,None,,,,,,,,,,,1293.9672064,1293.9672064,None,,1295.0395963,1295.0395963,1297.0768012,n,1293.9672064,1293.9672064,0.6275240000000792,,14,1,2024-06-19_13h09.25.927,robot_nback_sign,2022.2.5,60.09091755826497,
Z,False,3.0,letter,1.0,False,False,robot_stimuli\\filler.mp4,14.0,,,,,,,,,0.0,12.0,12.0,12.0,,,,,,,,,,,,,1297.0768012,1298.1484887,,,,,,,1300.1801503000002,1300.1801503000002,1300.1801503000002,1300.1801503000002,1300.1801503000002,1300.1801503000002,1300.1801503000002,1300.1801503000002,None,None,None,,,,,,,,,,,1297.0768012,1297.0768012,None,,1298.1484887,1298.1484887,1300.1801503000002,n,1297.0768012,1297.0768012,1.6956910000002097,,14,1,2024-06-19_13h09.25.927,robot_nback_sign,2022.2.5,60.09091755826497,
M,False,3.0,letter,1.0,False,False,robot_stimuli\\filler.mp4,14.0,,,,,,,,,0.0,13.0,13.0,13.0,,,,,,,,,,,,,1300.1801503000002,1301.2458541,,,,,,,1303.2724052,1303.2724052,1303.2724052,1303.2724052,1303.2724052,1303.2724052,1303.2724052,1303.2724052,None,None,None,,,,,,,,,,,1300.1801503000002,1300.1801503000002,None,,1301.2458541,1301.2458541,1303.2724052,c,1300.1801503000002,1300.1801503000002,0.6377452000000119,,14,1,2024-06-19_13h09.25.927,robot_nback_sign,2022.2.5,60.09091755826497,
G,True,3.0,letter,1.0,False,False,robot_stimuli\\filler.mp4,14.0,,,,,,,,,0.0,14.0,14.0,14.0,,,,,,,,,,,,,1303.2724052,1304.3394225000002,,,,,,,1306.5668366,1306.5668366,1306.5668366,1306.5668366,1306.5668366,1306.5668366,1306.5668366,1306.5668366,None,None,None,,,,,,,,,,,1303.2724052,1303.2724052,None,,1304.3394225000002,1304.3394225000002,1306.5668366,c,1303.2724052,1303.2724052,1.5840997999999615,,14,1,2024-06-19_13h09.25.927,robot_nback_sign,2022.2.5,60.09091755826497,
G,False,3.0,letter,1.0,False,False,robot_stimuli\\filler.mp4,14.0,,,,,,,,,0.0,15.0,15.0,15.0,,,,,,,,,,,,,1306.5668366,1307.6283957,,,,,,,1309.6603031000002,1309.6603031000002,1309.6603031000002,1309.6603031000002,1309.6603031000002,1309.6603031000002,1309.6603031000002,1309.6603031000002,None,None,None,,,,,,,,,,,1306.5668366,1306.5668366,None,,1307.6283957,1307.6283957,1309.6603031000002,n,1306.5668366,1306.5668366,1.0064713000002428,,14,1,2024-06-19_13h09.25.927,robot_nback_sign,2022.2.5,60.09091755826497,
Q,False,3.0,letter,1.0,False,False,robot_stimuli\\filler.mp4,14.0,,,,,,,,,0.0,16.0,16.0,16.0,,,,,,,,,,,,,1309.6603031000002,1310.7197527,,,,,,,1312.7441502,1312.7441502,1312.7441502,1312.7441502,1312.7441502,1312.7441502,1312.7441502,1312.7441502,None,None,None,,,,,,,,,,,1309.6603031000002,1309.6603031000002,None,,1310.7197527,1310.7197527,1312.7441502,c,1309.6603031000002,1309.6603031000002,1.9316443000001016,,14,1,2024-06-19_13h09.25.927,robot_nback_sign,2022.2.5,60.09091755826497,
R,False,3.0,letter,1.0,False,False,robot_stimuli\\filler.mp4,14.0,,,,,,,,,0.0,17.0,17.0,17.0,,,,,,,,,,,,,1312.7441502,1313.8032628,,,,,,,1316.0376938000002,1316.0376938000002,1316.0376938000002,1316.0376938000002,1316.0376938000002,1316.0376938000002,1316.0376938000002,1316.0376938000002,None,None,None,,,,,,,,,,,1312.7441502,1312.7441502,None,,1313.8032628,1313.8032628,1316.0376938000002,n,1312.7441502,1312.7441502,0.5369237999999257,,14,1,2024-06-19_13h09.25.927,robot_nback_sign,2022.2.5,60.09091755826497,
L,False,3.0,letter,1.0,False,False,robot_stimuli\\filler.mp4,14.0,,,,,,,,,0.0,18.0,18.0,18.0,,,,,,,,,,,,,1316.0376938000002,1317.1032892,,,,,,,1319.1273671,1319.1273671,1319.1273671,1319.1273671,1319.1273671,1319.1273671,1319.1273671,1319.1273671,None,None,None,,,,,,,,,,,1316.0376938000002,1316.0376938000002,None,,1317.1032892,1317.1032892,1319.1273671,None,1316.0376938000002,1316.0376938000002,,,14,1,2024-06-19_13h09.25.927,robot_nback_sign,2022.2.5,60.09091755826497,
Q,True,3.0,letter,1.0,False,False,robot_stimuli\\filler.mp4,14.0,,,,,,,,,0.0,19.0,19.0,19.0,,,,,,,,,,,,,1319.1273671,1320.1873739,,,,,,,1322.2135217,1322.2135217,1322.2135217,1322.2135217,1322.2135217,1322.2135217,1322.2135217,1322.2135217,None,None,None,,,,,,,,,,,1319.1273671,1319.1273671,None,,1320.1873739,1320.1873739,1322.2135217,c,1319.1273671,1319.1273671,0.9844024000002208,,14,1,2024-06-19_13h09.25.927,robot_nback_sign,2022.2.5,60.09091755826497,
D,False,3.0,letter,1.0,False,False,robot_stimuli\\filler.mp4,14.0,,,,,,,,,0.0,20.0,20.0,20.0,,,,,,,,,,,,,1322.2135217,1323.269737,,,,,,,1325.302142,1325.302142,1325.302142,1325.302142,1325.302142,1325.302142,1325.302142,1325.302142,None,None,None,,,,,,,,,,,1322.2135217,1322.2135217,None,,1323.269737,1323.269737,1325.302142,n,1322.2135217,1322.2135217,1.0057885000001932,,14,1,2024-06-19_13h09.25.927,robot_nback_sign,2022.2.5,60.09091755826497,
L,True,3.0,letter,1.0,False,False,robot_stimuli\\filler.mp4,14.0,,,,,,,,,0.0,21.0,21.0,21.0,,,,,,,,,,,,,1325.302142,,,,,,,,1328.5931602,1328.5931602,1328.5931602,1328.5931602,1328.5931602,1328.5931602,1328.5931602,1328.5931602,None,None,None,,,,,,,,,,,1325.302142,1325.302142,None,,1326.3701258,1326.3701258,1328.5931602,c,1325.302142,1325.302142,1.3379138000001092,,14,1,2024-06-19_13h09.25.927,robot_nback_sign,2022.2.5,60.09091755826497,
Q,True,3.0,letter,1.0,False,False,robot_stimuli\\filler.mp4,14.0,,,,,,,,,0.0,22.0,22.0,22.0,,,,,,,,,,,,,1328.5931602,1329.6525926000002,,,,,,,1331.6881375,1331.6881375,1331.6881375,1331.6881375,1331.6881375,1331.6881375,1331.6881375,1331.6881375,None,None,None,,,,,,,,,,,1328.5931602,1328.5931602,None,,1329.6525926000002,1329.6525926000002,1331.6881375,None,1328.5931602,1328.5931602,,,14,1,2024-06-19_13h09.25.927,robot_nback_sign,2022.2.5,60.09091755826497,
P,False,3.0,letter,1.0,False,False,robot_stimuli\\filler.mp4,14.0,,,,,,,,,0.0,23.0,23.0,23.0,,,,,,,,,,,,,1331.6881375,1332.762048,,,,,,,1334.791787,1334.791787,1334.791787,1334.791787,1334.791787,1334.791787,1334.791787,1334.791787,None,None,None,,,,,,,,,,,1331.6881375,1331.6881375,None,,1332.762048,1332.762048,1334.791787,None,1331.6881375,1331.6881375,,,14,1,2024-06-19_13h09.25.927,robot_nback_sign,2022.2.5,60.09091755826497,
L,True,3.0,letter,1.0,False,False,robot_stimuli\\filler.mp4,14.0,,,,,,,,,0.0,24.0,24.0,24.0,,,,,,,,,,,,,1334.791787,1335.8531978,,,,,,,1338.0822698000002,1338.0822698000002,1338.0822698000002,1338.0822698000002,1338.0822698000002,1338.0822698000002,1338.0822698000002,1338.0822698000002,None,None,None,,,,,,,,,,,1334.791787,1334.791787,None,,1335.8531978,1335.8531978,1338.0822698000002,c,1334.791787,1334.791787,1.12682120000008,,14,1,2024-06-19_13h09.25.927,robot_nback_sign,2022.2.5,60.09091755826497,
K,False,3.0,letter,1.0,False,False,robot_stimuli\\filler.mp4,14.0,,,,,,,,,0.0,25.0,25.0,25.0,,,,,,,,,,,,,1338.0822698000002,1339.1357047,,,,,,,1341.359277,1341.359277,1341.359277,1341.359277,1341.359277,1341.359277,1341.359277,1341.359277,None,None,None,,,,,,,,,,,1338.0822698000002,1338.0822698000002,None,,1339.1357047,1339.1357047,1341.359277,None,1338.0822698000002,1338.0822698000002,,,14,1,2024-06-19_13h09.25.927,robot_nback_sign,2022.2.5,60.09091755826497,
P,True,3.0,letter,1.0,False,False,robot_stimuli\\filler.mp4,14.0,,,,,,,,,0.0,26.0,26.0,26.0,,,,,,,,,,,,,1341.359277,1342.4222921,,,,,,,1344.6493539,1344.6493539,1344.6493539,1344.6493539,1344.6493539,1344.6493539,1344.6493539,1344.6493539,None,None,None,,,,,,,,,,,1341.359277,1341.359277,None,,1342.4222921,1342.4222921,1344.6493539,c,1341.359277,1341.359277,1.9023896000001912,,14,1,2024-06-19_13h09.25.927,robot_nback_sign,2022.2.5,60.09091755826497,
M,False,3.0,letter,1.0,False,False,robot_stimuli\\filler.mp4,14.0,,,,,,,,,0.0,27.0,27.0,27.0,,,,,,,,,,,,,1344.6493539,1345.7016478,,,,,,,1347.9323264000002,1347.9323264000002,1347.9323264000002,1347.9323264000002,1347.9323264000002,1347.9323264000002,1347.9323264000002,1347.9323264000002,None,None,None,,,,,,,,,,,1344.6493539,1344.6493539,None,,1345.7016478,1345.7016478,1347.9323264000002,None,1344.6493539,1344.6493539,,,14,1,2024-06-19_13h09.25.927,robot_nback_sign,2022.2.5,60.09091755826497,
K,True,3.0,letter,1.0,False,False,robot_stimuli\\filler.mp4,14.0,,,,,,,,,0.0,28.0,28.0,28.0,,,,,,,,,,,,,1347.9323264000002,1348.9867144,,,,,,,1351.2195118000002,1351.2195118000002,1351.2195118000002,1351.2195118000002,1351.2195118000002,1351.2195118000002,1351.2195118000002,1351.2195118000002,None,None,None,,,,,,,,,,,1347.9323264000002,1347.9323264000002,None,,1348.9867144,1348.9867144,1351.2195118000002,c,1347.9323264000002,1347.9323264000002,0.9369697000000484,,14,1,2024-06-19_13h09.25.927,robot_nback_sign,2022.2.5,60.09091755826497,
V,False,3.0,letter,1.0,False,False,robot_stimuli\\filler.mp4,14.0,,,,,,,,,0.0,29.0,29.0,29.0,,,,,,,,,,,,,1351.2195118000002,1352.2870498,,,,,,,1354.5110527000002,1354.5110527000002,1354.5110527000002,1354.5110527000002,1354.5110527000002,1354.5110527000002,1354.5110527000002,1354.5110527000002,None,None,None,,,,,,,,,,,1351.2195118000002,1351.2195118000002,None,,1352.2870498,1352.2870498,1354.5110527000002,n,1351.2195118000002,1351.2195118000002,0.9095297000002064,,14,1,2024-06-19_13h09.25.927,robot_nback_sign,2022.2.5,60.09091755826497,
G,False,3.0,letter,1.0,False,False,robot_stimuli\\filler.mp4,14.0,,,,,,,,,0.0,30.0,30.0,30.0,,,,,,,,,,,,,1354.5110527000002,1355.5694208,,,,,,,1357.7936366,1357.7936366,1357.7936366,1357.7936366,1357.7936366,1357.7936366,1357.7936366,1357.7936366,None,None,None,,,,,,,,,,,1354.5110527000002,1354.5110527000002,None,,1355.5694208,1355.5694208,1357.7936366,n,1354.5110527000002,1354.5110527000002,1.1387983000000474,,14,1,2024-06-19_13h09.25.927,robot_nback_sign,2022.2.5,60.09091755826497,
N,False,3.0,letter,1.0,False,False,robot_stimuli\\filler.mp4,14.0,,,,,,,,,0.0,31.0,31.0,31.0,,,,,,,,,,,,,1357.7936366,1358.8526485,,,,,,,1361.0873998000002,1361.0873998000002,1361.0873998000002,1361.0873998000002,1361.0873998000002,1361.0873998000002,1361.0873998000002,1361.0873998000002,None,None,None,,,,,,,,,,,1357.7936366,1357.7936366,None,,1358.8526485,1358.8526485,1361.0873998000002,n,1357.7936366,1357.7936366,1.495494900000125,,14,1,2024-06-19_13h09.25.927,robot_nback_sign,2022.2.5,60.09091755826497,
J,False,3.0,letter,1.0,False,False,robot_stimuli\\filler.mp4,14.0,,,,,,,,,0.0,32.0,32.0,32.0,,,,,,,,,,,,,1361.0873998000002,1362.1548414,,,,,,,1364.1824027,1364.1824027,1364.1824027,1364.1824027,1364.1824027,1364.1824027,1364.1824027,1364.1824027,None,None,None,,,,,,,,,,,1361.0873998000002,1361.0873998000002,None,,1362.1548414,1362.1548414,1364.1824027,n,1361.0873998000002,1361.0873998000002,0.968379000000226,,14,1,2024-06-19_13h09.25.927,robot_nback_sign,2022.2.5,60.09091755826497,
W,False,3.0,letter,1.0,False,False,robot_stimuli\\filler.mp4,14.0,,,,,,,,,0.0,33.0,33.0,33.0,,,,,,,,,,,,,1364.1824027,1365.2384125,,,,,,,1367.4629181,1367.4629181,1367.4629181,1367.4629181,1367.4629181,1367.4629181,1367.4629181,1367.4629181,None,None,None,,,,,,,,,,,1364.1824027,1364.1824027,None,,1365.2384125,1365.2384125,1367.4629181,n,1364.1824027,1364.1824027,1.1896067000000985,,14,1,2024-06-19_13h09.25.927,robot_nback_sign,2022.2.5,60.09091755826497,
V,False,3.0,letter,1.0,False,False,robot_stimuli\\filler.mp4,14.0,,,,,,,,,0.0,34.0,34.0,34.0,,,,,,,,,,,,,1367.4629181,1368.5299353,,,,,,,1370.5546931,1370.5546931,1370.5546931,1370.5546931,1370.5546931,1370.5546931,1370.5546931,1370.5546931,None,None,None,,,,,,,,,,,1367.4629181,1367.4629181,None,,1368.5299353,1368.5299353,1370.5546931,c,1367.4629181,1367.4629181,0.8887791999999024,,14,1,2024-06-19_13h09.25.927,robot_nback_sign,2022.2.5,60.09091755826497,
M,False,3.0,letter,1.0,False,False,robot_stimuli\\filler.mp4,14.0,,,,,,,,,0.0,35.0,35.0,35.0,,,,,,,,,,,,,1370.5546931,1371.6193767,,,,,,,1373.8487096,1373.8487096,1373.8487096,1373.8487096,1373.8487096,1373.8487096,1373.8487096,1373.8487096,None,None,None,,,,,,,,,,,1370.5546931,1370.5546931,None,,1371.6193767,1371.6193767,1373.8487096,c,1370.5546931,1370.5546931,1.4473885000000737,,14,1,2024-06-19_13h09.25.927,robot_nback_sign,2022.2.5,60.09091755826497,
Q,False,3.0,letter,1.0,False,False,robot_stimuli\\filler.mp4,14.0,,,,,,,,,0.0,36.0,36.0,36.0,,,,,,,,,,,,,1373.8487096,1374.9035012000002,,,,,,,1376.9273698000002,1376.9273698000002,1376.9273698000002,1376.9273698000002,1376.9273698000002,1376.9273698000002,1376.9273698000002,1376.9273698000002,None,None,None,,,,,,,,,,,1373.8487096,1373.8487096,None,,1374.9035012000002,1374.9035012000002,1376.9273698000002,n,1373.8487096,1373.8487096,0.8525052000000812,,14,1,2024-06-19_13h09.25.927,robot_nback_sign,2022.2.5,60.09091755826497,
G,False,3.0,letter,1.0,False,False,robot_stimuli\\filler.mp4,14.0,,,,,,,,,0.0,37.0,37.0,37.0,,,,,,,,,,,,,1376.9273698000002,1377.9863662,,,,,,,1380.0145406,1380.0145406,1380.0145406,1380.0145406,1380.0145406,1380.0145406,1380.0145406,1380.0145406,None,None,None,,,,,,,,,,,1376.9273698000002,1376.9273698000002,None,,1377.9863662,1377.9863662,1380.0145406,c,1376.9273698000002,1376.9273698000002,1.9542589000000987,,14,1,2024-06-19_13h09.25.927,robot_nback_sign,2022.2.5,60.09091755826497,
M,True,3.0,letter,1.0,False,False,robot_stimuli\\filler.mp4,14.0,,,,,,,,,0.0,38.0,38.0,38.0,,,,,,,,,,,,,1380.0145406,1381.0705919000002,,,,,,,1383.0964619,1383.0964619,1383.0964619,1383.0964619,1383.0964619,1383.0964619,1383.0964619,1383.0964619,None,None,None,,,,,,,,,,,1380.0145406,1380.0145406,None,,1381.0705919000002,1381.0705919000002,1383.0964619,c,1380.0145406,1380.0145406,1.9884105000001853,,14,1,2024-06-19_13h09.25.927,robot_nback_sign,2022.2.5,60.09091755826497,
Q,True,3.0,letter,1.0,False,False,robot_stimuli\\filler.mp4,14.0,,,,,,,,,0.0,39.0,39.0,39.0,,,,,,,,,,,,,1383.0964619,1384.1552038,,,,,,,1386.3833008,1386.3833008,1386.3833008,1386.3833008,1386.3833008,1386.3833008,1386.3833008,1386.3833008,None,None,None,,,,,,,,,,,1383.0964619,1383.0964619,None,,1384.1552038,1384.1552038,1386.3833008,c,1383.0964619,1383.0964619,1.8799947000000827,,14,1,2024-06-19_13h09.25.927,robot_nback_sign,2022.2.5,60.09091755826497,
R,False,3.0,letter,1.0,False,False,robot_stimuli\\filler.mp4,14.0,,,,,,,,,0.0,40.0,40.0,40.0,,,,,,,,,,,,,1386.3833008,1387.4367421000002,,,,,,,1389.4665288,1389.4665288,1389.4665288,1389.4665288,1389.4665288,1389.4665288,1389.4665288,1389.4665288,None,None,None,,,,,,,,,,,1386.3833008,1386.3833008,None,,1387.4367421000002,1387.4367421000002,1389.4665288,n,1386.3833008,1386.3833008,1.4142325999999628,,14,1,2024-06-19_13h09.25.927,robot_nback_sign,2022.2.5,60.09091755826497,
G,False,3.0,letter,1.0,False,False,robot_stimuli\\filler.mp4,14.0,,,,,,,,,0.0,41.0,41.0,41.0,,,,,,,,,,,,,1389.4665288,1390.5187282000002,,,,,,,1392.5450814,1392.5450814,1392.5450814,1392.5450814,1392.5450814,1392.5450814,1392.5450814,1392.5450814,None,None,None,,,,,,,,,,,1389.4665288,1389.4665288,None,,1390.5187282000002,1390.5187282000002,1392.5450814,c,1389.4665288,1389.4665288,1.285286500000069,,14,1,2024-06-19_13h09.25.927,robot_nback_sign,2022.2.5,60.09091755826497,
L,False,3.0,letter,1.0,False,False,robot_stimuli\\filler.mp4,14.0,,,,,,,,,0.0,42.0,42.0,42.0,,,,,,,,,,,,,1392.5450814,1393.6034331,,,,,,,1395.8337592,1395.8337592,1395.8337592,1395.8337592,1395.8337592,1395.8337592,1395.8337592,1395.8337592,None,None,None,,,,,,,,,,,1392.5450814,1392.5450814,None,,1393.6034331,1393.6034331,1395.8337592,None,1392.5450814,1392.5450814,,,14,1,2024-06-19_13h09.25.927,robot_nback_sign,2022.2.5,60.09091755826497,
K,False,3.0,letter,1.0,False,False,robot_stimuli\\filler.mp4,14.0,,,,,,,,,0.0,43.0,43.0,43.0,,,,,,,,,,,,,1395.8337592,,,,,,,,1398.9327929,1398.9327929,1398.9327929,1398.9327929,1398.9327929,1398.9327929,1398.9327929,1398.9327929,None,None,None,,,,,,,,,,,1395.8337592,1395.8337592,None,,1396.9027565,1396.9027565,1398.9327929,None,1395.8337592,1395.8337592,,,14,1,2024-06-19_13h09.25.927,robot_nback_sign,2022.2.5,60.09091755826497,
B,False,3.0,letter,1.0,False,False,robot_stimuli\\filler.mp4,14.0,,,,,,,,,0.0,44.0,44.0,44.0,,,,,,,,,,,,,1398.9327929,1399.9871709,,,,,,,1402.0183294,1402.0183294,1402.0183294,1402.0183294,1402.0183294,1402.0183294,1402.0183294,1402.0183294,None,None,None,,,,,,,,,,,1398.9327929,1398.9327929,None,,1399.9871709,1399.9871709,1402.0183294,None,1398.9327929,1398.9327929,,,14,1,2024-06-19_13h09.25.927,robot_nback_sign,2022.2.5,60.09091755826497,
T,False,3.0,letter,1.0,False,False,robot_stimuli\\filler.mp4,14.0,,,,,,,,,0.0,45.0,45.0,45.0,,,,,,,,,,,,,1402.0183294,,,,,,,,1405.3152795,1405.3152795,1405.3152795,1405.3152795,1405.3152795,1405.3152795,1405.3152795,1405.3152795,None,None,None,,,,,,,,,,,1402.0183294,1402.0183294,None,,1403.0857642,1403.0857642,1405.3152795,None,1402.0183294,1402.0183294,,,14,1,2024-06-19_13h09.25.927,robot_nback_sign,2022.2.5,60.09091755826497,
F,False,3.0,letter,1.0,False,False,robot_stimuli\\filler.mp4,14.0,,,,,,,,,0.0,46.0,46.0,46.0,,,,,,,,,,,,,1405.3152795,1406.3697837,,,,,,,1408.5977302,1408.5977302,1408.5977302,1408.5977302,1408.5977302,1408.5977302,1408.5977302,1408.5977302,None,None,None,,,,,,,,,,,1405.3152795,1405.3152795,None,,1406.3697837,1406.3697837,1408.5977302,None,1405.3152795,1405.3152795,,,14,1,2024-06-19_13h09.25.927,robot_nback_sign,2022.2.5,60.09091755826497,
S,False,3.0,letter,1.0,False,False,robot_stimuli\\filler.mp4,14.0,,,,,,,,,0.0,47.0,47.0,47.0,,,,,,,,,,,,,1408.5977302,1409.6526781,,,,,,,1411.6813905,1411.6813905,1411.6813905,1411.6813905,1411.6813905,1411.6813905,1411.6813905,1411.6813905,None,None,None,,,,,,,,,,,1408.5977302,1408.5977302,None,,1409.6526781,1409.6526781,1411.6813905,n,1408.5977302,1408.5977302,1.821993400000196,,14,1,2024-06-19_13h09.25.927,robot_nback_sign,2022.2.5,60.09091755826497,
C,False,3.0,letter,1.0,False,False,robot_stimuli\\filler.mp4,14.0,,,,,,,,,0.0,48.0,48.0,48.0,,,,,,,,,,,,,1411.6813905,1412.7372411,,,,,,,1414.7692025,1414.7692025,1414.7692025,1414.7692025,1414.7692025,1414.7692025,1414.7692025,1414.7692025,None,None,None,,,,,,,,,,,1411.6813905,1411.6813905,None,,1412.7372411,1412.7372411,1414.7692025,n,1411.6813905,1411.6813905,1.8185261000001844,,14,1,2024-06-19_13h09.25.927,robot_nback_sign,2022.2.5,60.09091755826497,
K,False,3.0,letter,1.0,False,True,robot_stimuli\\filler.mp4,14.0,,,,,,,,,0.0,49.0,49.0,49.0,,,,,,,,,,,,,1414.7692025,1415.836039,,,,,,,1417.8914808000002,1428.8735477,1417.8914808000002,1428.8735477,1417.8914808000002,1428.8735477,1417.8914808000002,1428.8735477,69.50617283950616,7.702232900000126,space,,,,10.911749700000058,,,,,,,1414.7692025,1414.7692025,None,,1415.836039,1415.836039,1417.8914808000002,c,1414.7692025,1414.7692025,1.3674367000001837,,14,1,2024-06-19_13h09.25.927,robot_nback_sign,2022.2.5,60.09091755826497,
N,False,1.0,letter,1.0,True,False,robot_stimuli\\filler.mp4,14.0,,,,,,,,,0.0,50.0,50.0,50.0,,,,,,,,,,,,,1431.2325108,1432.2903454,,,,,,,1434.314425,1434.314425,1434.314425,1434.314425,1434.314425,1434.314425,1434.314425,1434.314425,None,None,None,,,,,,,,,,,1428.8735477,1428.8735477,space,2.3371588000000827,1432.2903454,1432.2903454,1434.314425,None,,,,,14,1,2024-06-19_13h09.25.927,robot_nback_sign,2022.2.5,60.09091755826497,
Z,False,1.0,letter,1.0,False,False,robot_stimuli\\filler.mp4,14.0,,,,,,,,,0.0,51.0,51.0,51.0,,,,,,,,,,,,,1434.314425,1435.3738346,,,,,,,1437.5983967000002,1437.5983967000002,1437.5983967000002,1437.5983967000002,1437.5983967000002,1437.5983967000002,1437.5983967000002,1437.5983967000002,None,None,None,,,,,,,,,,,1434.314425,1434.314425,None,,1435.3738346,1435.3738346,1437.5983967000002,n,1434.314425,1434.314425,0.3578094999998882,,14,1,2024-06-19_13h09.25.927,robot_nback_sign,2022.2.5,60.09091755826497,
Z,True,1.0,letter,1.0,False,False,robot_stimuli\\filler.mp4,14.0,,,,,,,,,0.0,52.0,52.0,52.0,,,,,,,,,,,,,1437.5983967000002,1438.651953,,,,,,,1440.881053,1440.881053,1440.881053,1440.881053,1440.881053,1440.881053,1440.881053,1440.881053,None,None,None,,,,,,,,,,,1437.5983967000002,1437.5983967000002,None,,1438.651953,1438.651953,1440.881053,c,1437.5983967000002,1437.5983967000002,0.6952848000001666,,14,1,2024-06-19_13h09.25.927,robot_nback_sign,2022.2.5,60.09091755826497,
M,False,1.0,letter,1.0,False,False,robot_stimuli\\filler.mp4,14.0,,,,,,,,,0.0,53.0,53.0,53.0,,,,,,,,,,,,,1440.881053,1441.9364825,,,,,,,1443.972187,1443.972187,1443.972187,1443.972187,1443.972187,1443.972187,1443.972187,1443.972187,None,None,None,,,,,,,,,,,1440.881053,1440.881053,None,,1441.9364825,1441.9364825,1443.972187,n,1440.881053,1440.881053,0.843548899999945,,14,1,2024-06-19_13h09.25.927,robot_nback_sign,2022.2.5,60.09091755826497,
R,False,1.0,letter,1.0,False,False,robot_stimuli\\filler.mp4,14.0,,,,,,,,,0.0,54.0,54.0,54.0,,,,,,,,,,,,,1443.972187,1445.0356228,,,,,,,1447.2601923,1447.2601923,1447.2601923,1447.2601923,1447.2601923,1447.2601923,1447.2601923,1447.2601923,None,None,None,,,,,,,,,,,1443.972187,1443.972187,None,,1445.0356228,1445.0356228,1447.2601923,n,1443.972187,1443.972187,0.7676870000001088,,14,1,2024-06-19_13h09.25.927,robot_nback_sign,2022.2.5,60.09091755826497,
R,True,1.0,letter,1.0,False,False,robot_stimuli\\filler.mp4,14.0,,,,,,,,,0.0,55.0,55.0,55.0,,,,,,,,,,,,,1447.2601923,1448.3186794,,,,,,,1450.5442716,1450.5442716,1450.5442716,1450.5442716,1450.5442716,1450.5442716,1450.5442716,1450.5442716,None,None,None,,,,,,,,,,,1447.2601923,1447.2601923,None,,1448.3186794,1448.3186794,1450.5442716,c,1447.2601923,1447.2601923,0.8283859000001428,,14,1,2024-06-19_13h09.25.927,robot_nback_sign,2022.2.5,60.09091755826497,
R,True,1.0,letter,1.0,False,False,robot_stimuli\\filler.mp4,14.0,,,,,,,,,0.0,56.0,56.0,56.0,,,,,,,,,,,,,1450.5442716,1451.6015823,,,,,,,1453.8314093,1453.8314093,1453.8314093,1453.8314093,1453.8314093,1453.8314093,1453.8314093,1453.8314093,None,None,None,,,,,,,,,,,1450.5442716,1450.5442716,None,,1451.6015823,1451.6015823,1453.8314093,c,1450.5442716,1450.5442716,0.8742362000001265,,14,1,2024-06-19_13h09.25.927,robot_nback_sign,2022.2.5,60.09091755826497,
P,False,1.0,letter,1.0,False,False,robot_stimuli\\filler.mp4,14.0,,,,,,,,,0.0,57.0,57.0,57.0,,,,,,,,,,,,,1453.8314093,1454.8961137,,,,,,,1456.9302668,1456.9302668,1456.9302668,1456.9302668,1456.9302668,1456.9302668,1456.9302668,1456.9302668,None,None,None,,,,,,,,,,,1453.8314093,1453.8314093,None,,1454.8961137,1454.8961137,1456.9302668,n,1453.8314093,1453.8314093,0.7798008999999126,,14,1,2024-06-19_13h09.25.927,robot_nback_sign,2022.2.5,60.09091755826497,
X,False,1.0,letter,1.0,False,False,robot_stimuli\\filler.mp4,14.0,,,,,,,,,0.0,58.0,58.0,58.0,,,,,,,,,,,,,1456.9302668,1457.9961812,,,,,,,1460.0219081,1460.0219081,1460.0219081,1460.0219081,1460.0219081,1460.0219081,1460.0219081,1460.0219081,None,None,None,,,,,,,,,,,1456.9302668,1456.9302668,None,,1457.9961812,1457.9961812,1460.0219081,n,1456.9302668,1456.9302668,1.959654100000165,,14,1,2024-06-19_13h09.25.927,robot_nback_sign,2022.2.5,60.09091755826497,
P,False,1.0,letter,1.0,False,False,robot_stimuli\\filler.mp4,14.0,,,,,,,,,0.0,59.0,59.0,59.0,,,,,,,,,,,,,1460.0219081,1461.0870783,,,,,,,1463.1127223,1463.1127223,1463.1127223,1463.1127223,1463.1127223,1463.1127223,1463.1127223,1463.1127223,None,None,None,,,,,,,,,,,1460.0219081,1460.0219081,None,,1461.0870783,1461.0870783,1463.1127223,None,1460.0219081,1460.0219081,,,14,1,2024-06-19_13h09.25.927,robot_nback_sign,2022.2.5,60.09091755826497,
L,False,1.0,letter,1.0,False,False,robot_stimuli\\filler.mp4,14.0,,,,,,,,,0.0,60.0,60.0,60.0,,,,,,,,,,,,,1463.1127223,1464.1696576000002,,,,,,,1466.3972531000002,1466.3972531000002,1466.3972531000002,1466.3972531000002,1466.3972531000002,1466.3972531000002,1466.3972531000002,1466.3972531000002,None,None,None,,,,,,,,,,,1463.1127223,1463.1127223,None,,1464.1696576000002,1464.1696576000002,1466.3972531000002,None,1463.1127223,1463.1127223,,,14,1,2024-06-19_13h09.25.927,robot_nback_sign,2022.2.5,60.09091755826497,
X,False,1.0,letter,1.0,False,False,robot_stimuli\\filler.mp4,14.0,,,,,,,,,0.0,61.0,61.0,61.0,,,,,,,,,,,,,1466.3972531000002,1467.4534857,,,,,,,1469.4825402,1469.4825402,1469.4825402,1469.4825402,1469.4825402,1469.4825402,1469.4825402,1469.4825402,None,None,None,,,,,,,,,,,1466.3972531000002,1466.3972531000002,None,,1467.4534857,1467.4534857,1469.4825402,n,1466.3972531000002,1466.3972531000002,0.9895769000000598,,14,1,2024-06-19_13h09.25.927,robot_nback_sign,2022.2.5,60.09091755826497,
T,False,1.0,letter,1.0,False,False,robot_stimuli\\filler.mp4,14.0,,,,,,,,,0.0,62.0,62.0,62.0,,,,,,,,,,,,,1469.4825402,1470.5360745,,,,,,,1472.5662884,1472.5662884,1472.5662884,1472.5662884,1472.5662884,1472.5662884,1472.5662884,1472.5662884,None,None,None,,,,,,,,,,,1469.4825402,1469.4825402,None,,1470.5360745,1470.5360745,1472.5662884,n,1469.4825402,1469.4825402,1.1315376000000867,,14,1,2024-06-19_13h09.25.927,robot_nback_sign,2022.2.5,60.09091755826497,
T,True,1.0,letter,1.0,False,False,robot_stimuli\\filler.mp4,14.0,,,,,,,,,0.0,63.0,63.0,63.0,,,,,,,,,,,,,1472.5662884,1473.6208676,,,,,,,1475.8429663000002,1475.8429663000002,1475.8429663000002,1475.8429663000002,1475.8429663000002,1475.8429663000002,1475.8429663000002,1475.8429663000002,None,None,None,,,,,,,,,,,1472.5662884,1472.5662884,None,,1473.6208676,1473.6208676,1475.8429663000002,c,1472.5662884,1472.5662884,0.5737833000001444,,14,1,2024-06-19_13h09.25.927,robot_nback_sign,2022.2.5,60.09091755826497,
G,False,1.0,letter,1.0,False,False,robot_stimuli\\filler.mp4,14.0,,,,,,,,,0.0,64.0,64.0,64.0,,,,,,,,,,,,,1475.8429663000002,1476.9031792,,,,,,,1478.9323249,1478.9323249,1478.9323249,1478.9323249,1478.9323249,1478.9323249,1478.9323249,1478.9323249,None,None,None,,,,,,,,,,,1475.8429663000002,1475.8429663000002,None,,1476.9031792,1476.9031792,1478.9323249,n,1475.8429663000002,1475.8429663000002,1.5006160000001216,,14,1,2024-06-19_13h09.25.927,robot_nback_sign,2022.2.5,60.09091755826497,
T,False,1.0,letter,1.0,False,False,robot_stimuli\\filler.mp4,14.0,,,,,,,,,0.0,65.0,65.0,65.0,,,,,,,,,,,,,1478.9323249,1479.9857597,,,,,,,1482.2110393,1482.2110393,1482.2110393,1482.2110393,1482.2110393,1482.2110393,1482.2110393,1482.2110393,None,None,None,,,,,,,,,,,1478.9323249,1478.9323249,None,,1479.9857597,1479.9857597,1482.2110393,n,1478.9323249,1478.9323249,0.7620397000001446,,14,1,2024-06-19_13h09.25.927,robot_nback_sign,2022.2.5,60.09091755826497,
J,False,1.0,letter,1.0,False,False,robot_stimuli\\filler.mp4,14.0,,,,,,,,,0.0,66.0,66.0,66.0,,,,,,,,,,,,,1482.2110393,1483.269218,,,,,,,1485.5010491,1485.5010491,1485.5010491,1485.5010491,1485.5010491,1485.5010491,1485.5010491,1485.5010491,None,None,None,,,,,,,,,,,1482.2110393,1482.2110393,None,,1483.269218,1483.269218,1485.5010491,n,1482.2110393,1482.2110393,0.6458112000001108,,14,1,2024-06-19_13h09.25.927,robot_nback_sign,2022.2.5,60.09091755826497,
G,False,1.0,letter,1.0,False,False,robot_stimuli\\filler.mp4,14.0,,,,,,,,,0.0,67.0,67.0,67.0,,,,,,,,,,,,,1485.5010491,,,,,,,,1488.8017153,1488.8017153,1488.8017153,1488.8017153,1488.8017153,1488.8017153,1488.8017153,1488.8017153,None,None,None,,,,,,,,,,,1485.5010491,1485.5010491,None,,1486.5700685000002,1486.5700685000002,1488.8017153,n,1485.5010491,1485.5010491,0.5288716000000875,,14,1,2024-06-19_13h09.25.927,robot_nback_sign,2022.2.5,60.09091755826497,
K,False,1.0,letter,1.0,False,False,robot_stimuli\\filler.mp4,14.0,,,,,,,,,0.0,68.0,68.0,68.0,,,,,,,,,,,,,1488.8017153,,,,,,,,1491.9007739,1491.9007739,1491.9007739,1491.9007739,1491.9007739,1491.9007739,1491.9007739,1491.9007739,None,None,None,,,,,,,,,,,1488.8017153,1488.8017153,None,,1489.8710571,1489.8710571,1491.9007739,n,1488.8017153,1488.8017153,1.180434100000042,,14,1,2024-06-19_13h09.25.927,robot_nback_sign,2022.2.5,60.09091755826497,
Q,False,1.0,letter,1.0,False,False,robot_stimuli\\filler.mp4,14.0,,,,,,,,,0.0,69.0,69.0,69.0,,,,,,,,,,,,,1491.9007739,,,,,,,,1495.0046738,1495.0046738,1495.0046738,1495.0046738,1495.0046738,1495.0046738,1495.0046738,1495.0046738,None,None,None,,,,,,,,,,,1491.9007739,1491.9007739,None,,1492.9712911,1492.9712911,1495.0046738,n,1491.9007739,1491.9007739,0.8731858000001864,,14,1,2024-06-19_13h09.25.927,robot_nback_sign,2022.2.5,60.09091755826497,
V,False,1.0,letter,1.0,False,False,robot_stimuli\\filler.mp4,14.0,,,,,,,,,0.0,70.0,70.0,70.0,,,,,,,,,,,,,1495.0046738,1496.0693248,,,,,,,1498.0947597000002,1498.0947597000002,1498.0947597000002,1498.0947597000002,1498.0947597000002,1498.0947597000002,1498.0947597000002,1498.0947597000002,None,None,None,,,,,,,,,,,1495.0046738,1495.0046738,None,,1496.0693248,1496.0693248,1498.0947597000002,n,1495.0046738,1495.0046738,0.8785928000000638,,14,1,2024-06-19_13h09.25.927,robot_nback_sign,2022.2.5,60.09091755826497,
R,False,1.0,letter,1.0,False,False,robot_stimuli\\filler.mp4,14.0,,,,,,,,,0.0,71.0,71.0,71.0,,,,,,,,,,,,,1498.0947597000002,1499.1616172,,,,,,,1501.193257,1501.193257,1501.193257,1501.193257,1501.193257,1501.193257,1501.193257,1501.193257,None,None,None,,,,,,,,,,,1498.0947597000002,1498.0947597000002,None,,1499.1616172,1499.1616172,1501.193257,n,1498.0947597000002,1498.0947597000002,0.8899163000001806,,14,1,2024-06-19_13h09.25.927,robot_nback_sign,2022.2.5,60.09091755826497,
B,False,1.0,letter,1.0,False,False,robot_stimuli\\filler.mp4,14.0,,,,,,,,,0.0,72.0,72.0,72.0,,,,,,,,,,,,,1501.193257,1502.2557239,,,,,,,1504.4744565,1504.4744565,1504.4744565,1504.4744565,1504.4744565,1504.4744565,1504.4744565,1504.4744565,None,None,None,,,,,,,,,,,1501.193257,1501.193257,None,,1502.2557239,1502.2557239,1504.4744565,n,1501.193257,1501.193257,0.6108726000000786,,14,1,2024-06-19_13h09.25.927,robot_nback_sign,2022.2.5,60.09091755826497,
L,False,1.0,letter,1.0,False,False,robot_stimuli\\filler.mp4,14.0,,,,,,,,,0.0,73.0,73.0,73.0,,,,,,,,,,,,,1504.4744565,1505.5365228,,,,,,,1507.5610198000002,1507.5610198000002,1507.5610198000002,1507.5610198000002,1507.5610198000002,1507.5610198000002,1507.5610198000002,1507.5610198000002,None,None,None,,,,,,,,,,,1504.4744565,1504.4744565,None,,1505.5365228,1505.5365228,1507.5610198000002,n,1504.4744565,1504.4744565,1.10766380000004,,14,1,2024-06-19_13h09.25.927,robot_nback_sign,2022.2.5,60.09091755826497,
Q,False,1.0,letter,1.0,False,False,robot_stimuli\\filler.mp4,14.0,,,,,,,,,0.0,74.0,74.0,74.0,,,,,,,,,,,,,1507.5610198000002,1508.6198324000002,,,,,,,1510.8429989,1510.8429989,1510.8429989,1510.8429989,1510.8429989,1510.8429989,1510.8429989,1510.8429989,None,None,None,,,,,,,,,,,1507.5610198000002,1507.5610198000002,None,,1508.6198324000002,1508.6198324000002,1510.8429989,n,1507.5610198000002,1507.5610198000002,1.2719149000000414,,14,1,2024-06-19_13h09.25.927,robot_nback_sign,2022.2.5,60.09091755826497,
Q,True,1.0,letter,1.0,False,False,robot_stimuli\\filler.mp4,14.0,,,,,,,,,0.0,75.0,75.0,75.0,,,,,,,,,,,,,1510.8429989,1511.9008847,,,,,,,1514.1324301000002,1514.1324301000002,1514.1324301000002,1514.1324301000002,1514.1324301000002,1514.1324301000002,1514.1324301000002,1514.1324301000002,None,None,None,,,,,,,,,,,1510.8429989,1510.8429989,None,,1511.9008847,1511.9008847,1514.1324301000002,c,1510.8429989,1510.8429989,0.6475739999999348,,14,1,2024-06-19_13h09.25.927,robot_nback_sign,2022.2.5,60.09091755826497,
V,False,1.0,letter,1.0,False,False,robot_stimuli\\filler.mp4,14.0,,,,,,,,,0.0,76.0,76.0,76.0,,,,,,,,,,,,,1514.1324301000002,1515.1862321,,,,,,,1517.4181111,1517.4181111,1517.4181111,1517.4181111,1517.4181111,1517.4181111,1517.4181111,1517.4181111,None,None,None,,,,,,,,,,,1514.1324301000002,1514.1324301000002,None,,1515.1862321,1515.1862321,1517.4181111,n,1514.1324301000002,1514.1324301000002,1.080319300000241,,14,1,2024-06-19_13h09.25.927,robot_nback_sign,2022.2.5,60.09091755826497,
T,False,1.0,letter,1.0,False,False,robot_stimuli\\filler.mp4,14.0,,,,,,,,,0.0,77.0,77.0,77.0,,,,,,,,,,,,,1517.4181111,,,,,,,,1520.5192161,1520.5192161,1520.5192161,1520.5192161,1520.5192161,1520.5192161,1520.5192161,1520.5192161,None,None,None,,,,,,,,,,,1517.4181111,1517.4181111,None,,1518.4861672000002,1518.4861672000002,1520.5192161,n,1517.4181111,1517.4181111,1.2777162999999234,,14,1,2024-06-19_13h09.25.927,robot_nback_sign,2022.2.5,60.09091755826497,
C,False,1.0,letter,1.0,False,False,robot_stimuli\\filler.mp4,14.0,,,,,,,,,0.0,78.0,78.0,78.0,,,,,,,,,,,,,1520.5192161,1521.5874558,,,,,,,1523.615023,1523.615023,1523.615023,1523.615023,1523.615023,1523.615023,1523.615023,1523.615023,None,None,None,,,,,,,,,,,1520.5192161,1520.5192161,None,,1521.5874558,1521.5874558,1523.615023,n,1520.5192161,1520.5192161,1.3274204999998744,,14,1,2024-06-19_13h09.25.927,robot_nback_sign,2022.2.5,60.09091755826497,
G,False,1.0,letter,1.0,False,False,robot_stimuli\\filler.mp4,14.0,,,,,,,,,0.0,79.0,79.0,79.0,,,,,,,,,,,,,1523.615023,1524.6709824000002,,,,,,,1526.6990297,1526.6990297,1526.6990297,1526.6990297,1526.6990297,1526.6990297,1526.6990297,1526.6990297,None,None,None,,,,,,,,,,,1523.615023,1523.615023,None,,1524.6709824000002,1524.6709824000002,1526.6990297,n,1523.615023,1523.615023,0.7489279000002114,,14,1,2024-06-19_13h09.25.927,robot_nback_sign,2022.2.5,60.09091755826497,
X,False,1.0,letter,1.0,False,False,robot_stimuli\\filler.mp4,14.0,,,,,,,,,0.0,80.0,80.0,80.0,,,,,,,,,,,,,1526.6990297,1527.7525077,,,,,,,1529.9817281,1529.9817281,1529.9817281,1529.9817281,1529.9817281,1529.9817281,1529.9817281,1529.9817281,None,None,None,,,,,,,,,,,1526.6990297,1526.6990297,None,,1527.7525077,1527.7525077,1529.9817281,n,1526.6990297,1526.6990297,1.650196500000078,,14,1,2024-06-19_13h09.25.927,robot_nback_sign,2022.2.5,60.09091755826497,
X,True,1.0,letter,1.0,False,False,robot_stimuli\\filler.mp4,14.0,,,,,,,,,0.0,81.0,81.0,81.0,,,,,,,,,,,,,1529.9817281,1531.0355811000002,,,,,,,1533.2695094,1533.2695094,1533.2695094,1533.2695094,1533.2695094,1533.2695094,1533.2695094,1533.2695094,None,None,None,,,,,,,,,,,1529.9817281,1529.9817281,None,,1531.0355811000002,1531.0355811000002,1533.2695094,c,1529.9817281,1529.9817281,0.4882468000001552,,14,1,2024-06-19_13h09.25.927,robot_nback_sign,2022.2.5,60.09091755826497,
V,False,1.0,letter,1.0,False,False,robot_stimuli\\filler.mp4,14.0,,,,,,,,,0.0,82.0,82.0,82.0,,,,,,,,,,,,,1533.2695094,1534.3363324000002,,,,,,,1536.5616189,1536.5616189,1536.5616189,1536.5616189,1536.5616189,1536.5616189,1536.5616189,1536.5616189,None,None,None,,,,,,,,,,,1533.2695094,1533.2695094,None,,1534.3363324000002,1534.3363324000002,1536.5616189,n,1533.2695094,1533.2695094,1.3305329000000654,,14,1,2024-06-19_13h09.25.927,robot_nback_sign,2022.2.5,60.09091755826497,
L,False,1.0,letter,1.0,False,False,robot_stimuli\\filler.mp4,14.0,,,,,,,,,0.0,83.0,83.0,83.0,,,,,,,,,,,,,1536.5616189,1537.6200948,,,,,,,1539.6544896,1539.6544896,1539.6544896,1539.6544896,1539.6544896,1539.6544896,1539.6544896,1539.6544896,None,None,None,,,,,,,,,,,1536.5616189,1536.5616189,None,,1537.6200948,1537.6200948,1539.6544896,n,1536.5616189,1536.5616189,0.8391016000001343,,14,1,2024-06-19_13h09.25.927,robot_nback_sign,2022.2.5,60.09091755826497,
V,False,1.0,letter,1.0,False,False,robot_stimuli\\filler.mp4,14.0,,,,,,,,,0.0,84.0,84.0,84.0,,,,,,,,,,,,,1539.6544896,1540.7196307000002,,,,,,,1542.9527812,1542.9527812,1542.9527812,1542.9527812,1542.9527812,1542.9527812,1542.9527812,1542.9527812,None,None,None,,,,,,,,,,,1539.6544896,1539.6544896,None,,1540.7196307000002,1540.7196307000002,1542.9527812,n,1539.6544896,1539.6544896,1.2043908999999928,,14,1,2024-06-19_13h09.25.927,robot_nback_sign,2022.2.5,60.09091755826497,
R,False,1.0,letter,1.0,False,False,robot_stimuli\\filler.mp4,14.0,,,,,,,,,0.0,85.0,85.0,85.0,,,,,,,,,,,,,1542.9527812,1544.0212144000002,,,,,,,1546.0533563,1546.0533563,1546.0533563,1546.0533563,1546.0533563,1546.0533563,1546.0533563,1546.0533563,None,None,None,,,,,,,,,,,1542.9527812,1542.9527812,None,,1544.0212144000002,1544.0212144000002,1546.0533563,n,1542.9527812,1542.9527812,0.4933119000000658,,14,1,2024-06-19_13h09.25.927,robot_nback_sign,2022.2.5,60.09091755826497,
X,False,1.0,letter,1.0,False,False,robot_stimuli\\filler.mp4,14.0,,,,,,,,,0.0,86.0,86.0,86.0,,,,,,,,,,,,,1546.0533563,1547.1200998000002,,,,,,,1549.3496937,1549.3496937,1549.3496937,1549.3496937,1549.3496937,1549.3496937,1549.3496937,1549.3496937,None,None,None,,,,,,,,,,,1546.0533563,1546.0533563,None,,1547.1200998000002,1547.1200998000002,1549.3496937,n,1546.0533563,1546.0533563,0.7396448000000362,,14,1,2024-06-19_13h09.25.927,robot_nback_sign,2022.2.5,60.09091755826497,
H,False,1.0,letter,1.0,False,False,robot_stimuli\\filler.mp4,14.0,,,,,,,,,0.0,87.0,87.0,87.0,,,,,,,,,,,,,1549.3496937,1550.4034458,,,,,,,1552.4306963,1552.4306963,1552.4306963,1552.4306963,1552.4306963,1552.4306963,1552.4306963,1552.4306963,None,None,None,,,,,,,,,,,1549.3496937,1549.3496937,None,,1550.4034458,1550.4034458,1552.4306963,n,1549.3496937,1549.3496937,0.839776999999998,,14,1,2024-06-19_13h09.25.927,robot_nback_sign,2022.2.5,60.09091755826497,
G,False,1.0,letter,1.0,False,False,robot_stimuli\\filler.mp4,14.0,,,,,,,,,0.0,88.0,88.0,88.0,,,,,,,,,,,,,1552.4306963,1553.4875467000002,,,,,,,1555.719566,1555.719566,1555.719566,1555.719566,1555.719566,1555.719566,1555.719566,1555.719566,None,None,None,,,,,,,,,,,1552.4306963,1552.4306963,None,,1553.4875467000002,1553.4875467000002,1555.719566,n,1552.4306963,1552.4306963,0.9800542999999776,,14,1,2024-06-19_13h09.25.927,robot_nback_sign,2022.2.5,60.09091755826497,
G,True,1.0,letter,1.0,False,False,robot_stimuli\\filler.mp4,14.0,,,,,,,,,0.0,89.0,89.0,89.0,,,,,,,,,,,,,1555.719566,1556.7848944,,,,,,,1559.0162046,1559.0162046,1559.0162046,1559.0162046,1559.0162046,1559.0162046,1559.0162046,1559.0162046,None,None,None,,,,,,,,,,,1555.719566,1555.719566,None,,1556.7848944,1556.7848944,1559.0162046,c,1555.719566,1555.719566,1.3713542999999788,,14,1,2024-06-19_13h09.25.927,robot_nback_sign,2022.2.5,60.09091755826497,
Q,False,1.0,letter,1.0,False,False,robot_stimuli\\filler.mp4,14.0,,,,,,,,,0.0,90.0,90.0,90.0,,,,,,,,,,,,,1559.0162046,1560.069534,,,,,,,1562.3016275,1562.3016275,1562.3016275,1562.3016275,1562.3016275,1562.3016275,1562.3016275,1562.3016275,None,None,None,,,,,,,,,,,1559.0162046,1559.0162046,None,,1560.069534,1560.069534,1562.3016275,None,1559.0162046,1559.0162046,,,14,1,2024-06-19_13h09.25.927,robot_nback_sign,2022.2.5,60.09091755826497,
S,False,1.0,letter,1.0,False,False,robot_stimuli\\filler.mp4,14.0,,,,,,,,,0.0,91.0,91.0,91.0,,,,,,,,,,,,,1562.3016275,,,,,,,,1565.5973473,1565.5973473,1565.5973473,1565.5973473,1565.5973473,1565.5973473,1565.5973473,1565.5973473,None,None,None,,,,,,,,,,,1562.3016275,1562.3016275,None,,1563.3688693,1563.3688693,1565.5973473,n,1562.3016275,1562.3016275,1.43490610000012,,14,1,2024-06-19_13h09.25.927,robot_nback_sign,2022.2.5,60.09091755826497,
S,True,1.0,letter,1.0,False,False,robot_stimuli\\filler.mp4,14.0,,,,,,,,,0.0,92.0,92.0,92.0,,,,,,,,,,,,,1565.5973473,1566.6513491,,,,,,,1568.8742424000002,1568.8742424000002,1568.8742424000002,1568.8742424000002,1568.8742424000002,1568.8742424000002,1568.8742424000002,1568.8742424000002,None,None,None,,,,,,,,,,,1565.5973473,1565.5973473,None,,1566.6513491,1566.6513491,1568.8742424000002,c,1565.5973473,1565.5973473,0.7365924000001485,,14,1,2024-06-19_13h09.25.927,robot_nback_sign,2022.2.5,60.09091755826497,
S,True,1.0,letter,1.0,False,False,robot_stimuli\\filler.mp4,14.0,,,,,,,,,0.0,93.0,93.0,93.0,,,,,,,,,,,,,1568.8742424000002,1569.9356934,,,,,,,1572.1623581,1572.1623581,1572.1623581,1572.1623581,1572.1623581,1572.1623581,1572.1623581,1572.1623581,None,None,None,,,,,,,,,,,1568.8742424000002,1568.8742424000002,None,,1569.9356934,1569.9356934,1572.1623581,c,1568.8742424000002,1568.8742424000002,1.1639919999998654,,14,1,2024-06-19_13h09.25.927,robot_nback_sign,2022.2.5,60.09091755826497,
N,False,1.0,letter,1.0,False,False,robot_stimuli\\filler.mp4,14.0,,,,,,,,,0.0,94.0,94.0,94.0,,,,,,,,,,,,,1572.1623581,1573.2195384,,,,,,,1575.2540282,1575.2540282,1575.2540282,1575.2540282,1575.2540282,1575.2540282,1575.2540282,1575.2540282,None,None,None,,,,,,,,,,,1572.1623581,1572.1623581,None,,1573.2195384,1573.2195384,1575.2540282,n,1572.1623581,1572.1623581,1.3752603999999735,,14,1,2024-06-19_13h09.25.927,robot_nback_sign,2022.2.5,60.09091755826497,
F,False,1.0,letter,1.0,False,False,robot_stimuli\\filler.mp4,14.0,,,,,,,,,0.0,95.0,95.0,95.0,,,,,,,,,,,,,1575.2540282,1576.3309138000002,,,,,,,1578.3614964,1578.3614964,1578.3614964,1578.3614964,1578.3614964,1578.3614964,1578.3614964,1578.3614964,None,None,None,,,,,,,,,,,1575.2540282,1575.2540282,None,,1576.3309138000002,1576.3309138000002,1578.3614964,n,1575.2540282,1575.2540282,0.6874891000000787,,14,1,2024-06-19_13h09.25.927,robot_nback_sign,2022.2.5,60.09091755826497,
F,True,1.0,letter,1.0,False,False,robot_stimuli\\filler.mp4,14.0,,,,,,,,,0.0,96.0,96.0,96.0,,,,,,,,,,,,,1578.3614964,1579.4183079000002,,,,,,,1581.6478755,1581.6478755,1581.6478755,1581.6478755,1581.6478755,1581.6478755,1581.6478755,1581.6478755,None,None,None,,,,,,,,,,,1578.3614964,1578.3614964,None,,1579.4183079000002,1579.4183079000002,1581.6478755,c,1578.3614964,1578.3614964,0.7286237000001563,,14,1,2024-06-19_13h09.25.927,robot_nback_sign,2022.2.5,60.09091755826497,
V,False,1.0,letter,1.0,False,False,robot_stimuli\\filler.mp4,14.0,,,,,,,,,0.0,97.0,97.0,97.0,,,,,,,,,,,,,1581.6478755,1582.7039051000002,,,,,,,1584.7312326,1584.7312326,1584.7312326,1584.7312326,1584.7312326,1584.7312326,1584.7312326,1584.7312326,None,None,None,,,,,,,,,,,1581.6478755,1581.6478755,None,,1582.7039051000002,1582.7039051000002,1584.7312326,n,1581.6478755,1581.6478755,0.5945118000000491,,14,1,2024-06-19_13h09.25.927,robot_nback_sign,2022.2.5,60.09091755826497,
R,False,1.0,letter,1.0,False,False,robot_stimuli\\filler.mp4,14.0,,,,,,,,,0.0,98.0,98.0,98.0,,,,,,,,,,,,,1584.7312326,1585.7883521,,,,,,,1588.0155372000002,1588.0155372000002,1588.0155372000002,1588.0155372000002,1588.0155372000002,1588.0155372000002,1588.0155372000002,1588.0155372000002,None,None,None,,,,,,,,,,,1584.7312326,1584.7312326,None,,1585.7883521,1585.7883521,1588.0155372000002,n,1584.7312326,1584.7312326,0.9598489000000824,,14,1,2024-06-19_13h09.25.927,robot_nback_sign,2022.2.5,60.09091755826497,
Z,False,1.0,letter,1.0,False,True,robot_stimuli\\filler.mp4,14.0,,,,,,,,,0.0,99.0,99.0,99.0,,,,,,,,,,,,,1588.0155372000002,1589.0703134,,,,,,,1591.1238396,1605.311064,1591.1238396,1605.311064,1591.1238396,1605.311064,1591.1238396,1605.311064,54.84567901234567,12.118434100000059,space,,,,14.118410900000155,,,,,,,1588.0155372000002,1588.0155372000002,None,,1589.0703134,1589.0703134,1591.1238396,n,1588.0155372000002,1588.0155372000002,1.8448151000000903,,14,1,2024-06-19_13h09.25.927,robot_nback_sign,2022.2.5,60.09091755826497,
N,False,2.0,letter,1.0,True,False,robot_stimuli\\filler.mp4,14.0,,,,,,,,,0.0,100.0,100.0,100.0,,,,,,,,,,,,,1611.8825509,1612.9420125,,,,,,,1614.9660769000002,1614.9660769000002,1614.9660769000002,1614.9660769000002,1614.9660769000002,1614.9660769000002,1614.9660769000002,1614.9660769000002,None,None,None,,,,,,,,,,,1605.311064,1605.311064,space,6.539570500000167,1612.9420125,1612.9420125,1614.9660769000002,None,,,,,14,1,2024-06-19_13h09.25.927,robot_nback_sign,2022.2.5,60.09091755826497,
X,False,2.0,letter,1.0,False,False,robot_stimuli\\filler.mp4,14.0,,,,,,,,,0.0,101.0,101.0,101.0,,,,,,,,,,,,,1614.9660769000002,1616.0199138,,,,,,,1618.2443629000002,1618.2443629000002,1618.2443629000002,1618.2443629000002,1618.2443629000002,1618.2443629000002,1618.2443629000002,1618.2443629000002,None,None,None,,,,,,,,,,,1614.9660769000002,1614.9660769000002,None,,1616.0199138,1616.0199138,1618.2443629000002,None,1614.9660769000002,1614.9660769000002,,,14,1,2024-06-19_13h09.25.927,robot_nback_sign,2022.2.5,60.09091755826497,
D,False,2.0,letter,1.0,False,False,robot_stimuli\\filler.mp4,14.0,,,,,,,,,0.0,102.0,102.0,102.0,,,,,,,,,,,,,1618.2443629000002,1619.3035702000002,,,,,,,1621.3314408,1621.3314408,1621.3314408,1621.3314408,1621.3314408,1621.3314408,1621.3314408,1621.3314408,None,None,None,,,,,,,,,,,1618.2443629000002,1618.2443629000002,None,,1619.3035702000002,1619.3035702000002,1621.3314408,None,1618.2443629000002,1618.2443629000002,,,14,1,2024-06-19_13h09.25.927,robot_nback_sign,2022.2.5,60.09091755826497,
B,False,2.0,letter,1.0,False,False,robot_stimuli\\filler.mp4,14.0,,,,,,,,,0.0,103.0,103.0,103.0,,,,,,,,,,,,,1621.3314408,1622.3983804000002,,,,,,,1624.4163051,1624.4163051,1624.4163051,1624.4163051,1624.4163051,1624.4163051,1624.4163051,1624.4163051,None,None,None,,,,,,,,,,,1621.3314408,1621.3314408,None,,1622.3983804000002,1622.3983804000002,1624.4163051,None,1621.3314408,1621.3314408,,,14,1,2024-06-19_13h09.25.927,robot_nback_sign,2022.2.5,60.09091755826497,
Q,False,2.0,letter,1.0,False,False,robot_stimuli\\filler.mp4,14.0,,,,,,,,,0.0,104.0,104.0,104.0,,,,,,,,,,,,,1624.4163051,1625.4691789,,,,,,,1627.5000139,1627.5000139,1627.5000139,1627.5000139,1627.5000139,1627.5000139,1627.5000139,1627.5000139,None,None,None,,,,,,,,,,,1624.4163051,1624.4163051,None,,1625.4691789,1625.4691789,1627.5000139,None,1624.4163051,1624.4163051,,,14,1,2024-06-19_13h09.25.927,robot_nback_sign,2022.2.5,60.09091755826497,
V,False,2.0,letter,1.0,False,False,robot_stimuli\\filler.mp4,14.0,,,,,,,,,0.0,105.0,105.0,105.0,,,,,,,,,,,,,1627.5000139,1628.5532994,,,,,,,1630.5876942,1630.5876942,1630.5876942,1630.5876942,1630.5876942,1630.5876942,1630.5876942,1630.5876942,None,None,None,,,,,,,,,,,1627.5000139,1627.5000139,None,,1628.5532994,1628.5532994,1630.5876942,n,1627.5000139,1627.5000139,1.130443599999893,,14,1,2024-06-19_13h09.25.927,robot_nback_sign,2022.2.5,60.09091755826497,
D,False,2.0,letter,1.0,False,False,robot_stimuli\\filler.mp4,14.0,,,,,,,,,0.0,106.0,106.0,106.0,,,,,,,,,,,,,1630.5876942,1631.6543472,,,,,,,1633.6811497,1633.6811497,1633.6811497,1633.6811497,1633.6811497,1633.6811497,1633.6811497,1633.6811497,None,None,None,,,,,,,,,,,1630.5876942,1630.5876942,None,,1631.6543472,1631.6543472,1633.6811497,c,1630.5876942,1630.5876942,1.3886361000000704,,14,1,2024-06-19_13h09.25.927,robot_nback_sign,2022.2.5,60.09091755826497,
X,False,2.0,letter,1.0,False,False,robot_stimuli\\filler.mp4,14.0,,,,,,,,,0.0,107.0,107.0,107.0,,,,,,,,,,,,,1633.6811497,1634.7358290000002,,,,,,,1636.7712869000002,1636.7712869000002,1636.7712869000002,1636.7712869000002,1636.7712869000002,1636.7712869000002,1636.7712869000002,1636.7712869000002,None,None,None,,,,,,,,,,,1633.6811497,1633.6811497,None,,1634.7358290000002,1634.7358290000002,1636.7712869000002,c,1633.6811497,1633.6811497,1.6357134000000713,,14,1,2024-06-19_13h09.25.927,robot_nback_sign,2022.2.5,60.09091755826497,
D,True,2.0,letter,1.0,False,False,robot_stimuli\\filler.mp4,14.0,,,,,,,,,0.0,108.0,108.0,108.0,,,,,,,,,,,,,1636.7712869000002,1637.8371877000002,,,,,,,1639.8619532,1639.8619532,1639.8619532,1639.8619532,1639.8619532,1639.8619532,1639.8619532,1639.8619532,None,None,None,,,,,,,,,,,1636.7712869000002,1636.7712869000002,None,,1637.8371877000002,1637.8371877000002,1639.8619532,c,1636.7712869000002,1636.7712869000002,0.6867815000001372,,14,1,2024-06-19_13h09.25.927,robot_nback_sign,2022.2.5,60.09091755826497,
V,False,2.0,letter,1.0,False,False,robot_stimuli\\filler.mp4,14.0,,,,,,,,,0.0,109.0,109.0,109.0,,,,,,,,,,,,,1639.8619532,1640.920297,,,,,,,1643.1426956,1643.1426956,1643.1426956,1643.1426956,1643.1426956,1643.1426956,1643.1426956,1643.1426956,None,None,None,,,,,,,,,,,1639.8619532,1639.8619532,None,,1640.920297,1640.920297,1643.1426956,n,1639.8619532,1639.8619532,1.1941852999999298,,14,1,2024-06-19_13h09.25.927,robot_nback_sign,2022.2.5,60.09091755826497,
T,False,2.0,letter,1.0,False,False,robot_stimuli\\filler.mp4,14.0,,,,,,,,,0.0,110.0,110.0,110.0,,,,,,,,,,,,,1643.1426956,1644.2042517,,,,,,,1646.2326870000002,1646.2326870000002,1646.2326870000002,1646.2326870000002,1646.2326870000002,1646.2326870000002,1646.2326870000002,1646.2326870000002,None,None,None,,,,,,,,,,,1643.1426956,1643.1426956,None,,1644.2042517,1644.2042517,1646.2326870000002,None,1643.1426956,1643.1426956,,,14,1,2024-06-19_13h09.25.927,robot_nback_sign,2022.2.5,60.09091755826497,
V,True,2.0,letter,1.0,False,False,robot_stimuli\\filler.mp4,14.0,,,,,,,,,0.0,111.0,111.0,111.0,,,,,,,,,,,,,1646.2326870000002,1647.2858563,,,,,,,1649.5191997000002,1649.5191997000002,1649.5191997000002,1649.5191997000002,1649.5191997000002,1649.5191997000002,1649.5191997000002,1649.5191997000002,None,None,None,,,,,,,,,,,1646.2326870000002,1646.2326870000002,None,,1647.2858563,1647.2858563,1649.5191997000002,c,1646.2326870000002,1646.2326870000002,1.1726213000000314,,14,1,2024-06-19_13h09.25.927,robot_nback_sign,2022.2.5,60.09091755826497,
T,True,2.0,letter,1.0,False,False,robot_stimuli\\filler.mp4,14.0,,,,,,,,,0.0,112.0,112.0,112.0,,,,,,,,,,,,,1649.5191997000002,,,,,,,,1652.6156151,1652.6156151,1652.6156151,1652.6156151,1652.6156151,1652.6156151,1652.6156151,1652.6156151,None,None,None,,,,,,,,,,,1649.5191997000002,1649.5191997000002,None,,1650.5874620000002,1650.5874620000002,1652.6156151,c,1649.5191997000002,1649.5191997000002,1.102972300000005,,14,1,2024-06-19_13h09.25.927,robot_nback_sign,2022.2.5,60.09091755826497,
T,False,2.0,letter,1.0,False,False,robot_stimuli\\filler.mp4,14.0,,,,,,,,,0.0,113.0,113.0,113.0,,,,,,,,,,,,,1652.6156151,1653.6683164,,,,,,,1655.8962127,1655.8962127,1655.8962127,1655.8962127,1655.8962127,1655.8962127,1655.8962127,1655.8962127,None,None,None,,,,,,,,,,,1652.6156151,1652.6156151,None,,1653.6683164,1653.6683164,1655.8962127,None,1652.6156151,1652.6156151,,,14,1,2024-06-19_13h09.25.927,robot_nback_sign,2022.2.5,60.09091755826497,
G,False,2.0,letter,1.0,False,False,robot_stimuli\\filler.mp4,14.0,,,,,,,,,0.0,114.0,114.0,114.0,,,,,,,,,,,,,1655.8962127,1656.9545124,,,,,,,1658.987921,1658.987921,1658.987921,1658.987921,1658.987921,1658.987921,1658.987921,1658.987921,None,None,None,,,,,,,,,,,1655.8962127,1655.8962127,None,,1656.9545124,1656.9545124,1658.987921,n,1655.8962127,1655.8962127,1.5205079000000694,,14,1,2024-06-19_13h09.25.927,robot_nback_sign,2022.2.5,60.09091755826497,
X,False,2.0,letter,1.0,False,False,robot_stimuli\\filler.mp4,14.0,,,,,,,,,0.0,115.0,115.0,115.0,,,,,,,,,,,,,1658.987921,1660.0525733000002,,,,,,,1662.0822602,1662.0822602,1662.0822602,1662.0822602,1662.0822602,1662.0822602,1662.0822602,1662.0822602,None,None,None,,,,,,,,,,,1658.987921,1658.987921,None,,1660.0525733000002,1660.0525733000002,1662.0822602,n,1658.987921,1658.987921,1.790384900000248,,14,1,2024-06-19_13h09.25.927,robot_nback_sign,2022.2.5,60.09091755826497,
S,False,2.0,letter,1.0,False,False,robot_stimuli\\filler.mp4,14.0,,,,,,,,,0.0,116.0,116.0,116.0,,,,,,,,,,,,,1662.0822602,1663.137643,,,,,,,1665.1633873,1665.1633873,1665.1633873,1665.1633873,1665.1633873,1665.1633873,1665.1633873,1665.1633873,None,None,None,,,,,,,,,,,1662.0822602,1662.0822602,None,,1663.137643,1663.137643,1665.1633873,None,1662.0822602,1662.0822602,,,14,1,2024-06-19_13h09.25.927,robot_nback_sign,2022.2.5,60.09091755826497,
P,False,2.0,letter,1.0,False,False,robot_stimuli\\filler.mp4,14.0,,,,,,,,,0.0,117.0,117.0,117.0,,,,,,,,,,,,,1665.1633873,1666.2194666,,,,,,,1668.4484089,1668.4484089,1668.4484089,1668.4484089,1668.4484089,1668.4484089,1668.4484089,1668.4484089,None,None,None,,,,,,,,,,,1665.1633873,1665.1633873,None,,1666.2194666,1666.2194666,1668.4484089,n,1665.1633873,1665.1633873,1.279191600000189,,14,1,2024-06-19_13h09.25.927,robot_nback_sign,2022.2.5,60.09091755826497,
J,False,2.0,letter,1.0,False,False,robot_stimuli\\filler.mp4,14.0,,,,,,,,,0.0,118.0,118.0,118.0,,,,,,,,,,,,,1668.4484089,1669.5044863,,,,,,,1671.5301881,1671.5301881,1671.5301881,1671.5301881,1671.5301881,1671.5301881,1671.5301881,1671.5301881,None,None,None,,,,,,,,,,,1668.4484089,1668.4484089,None,,1669.5044863,1669.5044863,1671.5301881,n,1668.4484089,1668.4484089,1.0662978000001146,,14,1,2024-06-19_13h09.25.927,robot_nback_sign,2022.2.5,60.09091755826497,
P,True,2.0,letter,1.0,False,False,robot_stimuli\\filler.mp4,14.0,,,,,,,,,0.0,119.0,119.0,119.0,,,,,,,,,,,,,1671.5301881,1672.5858549000002,,,,,,,1674.8090646,1674.8090646,1674.8090646,1674.8090646,1674.8090646,1674.8090646,1674.8090646,1674.8090646,None,None,None,,,,,,,,,,,1671.5301881,1671.5301881,None,,1672.5858549000002,1672.5858549000002,1674.8090646,c,1671.5301881,1671.5301881,0.9943185999999002,,14,1,2024-06-19_13h09.25.927,robot_nback_sign,2022.2.5,60.09091755826497,
L,False,2.0,letter,1.0,False,False,robot_stimuli\\filler.mp4,14.0,,,,,,,,,0.0,120.0,120.0,120.0,,,,,,,,,,,,,1674.8090646,1675.8699818,,,,,,,1677.8944235,1677.8944235,1677.8944235,1677.8944235,1677.8944235,1677.8944235,1677.8944235,1677.8944235,None,None,None,,,,,,,,,,,1674.8090646,1674.8090646,None,,1675.8699818,1675.8699818,1677.8944235,n,1674.8090646,1674.8090646,1.4766229000000235,,14,1,2024-06-19_13h09.25.927,robot_nback_sign,2022.2.5,60.09091755826497,
R,False,2.0,letter,1.0,False,False,robot_stimuli\\filler.mp4,14.0,,,,,,,,,0.0,121.0,121.0,121.0,,,,,,,,,,,,,1677.8944235,1678.9527064,,,,,,,1681.1811201,1681.1811201,1681.1811201,1681.1811201,1681.1811201,1681.1811201,1681.1811201,1681.1811201,None,None,None,,,,,,,,,,,1677.8944235,1677.8944235,None,,1678.9527064,1678.9527064,1681.1811201,n,1677.8944235,1677.8944235,1.1230125000000442,,14,1,2024-06-19_13h09.25.927,robot_nback_sign,2022.2.5,60.09091755826497,
N,False,2.0,letter,1.0,False,False,robot_stimuli\\filler.mp4,14.0,,,,,,,,,0.0,122.0,122.0,122.0,,,,,,,,,,,,,1681.1811201,1682.2373123,,,,,,,1684.2701176,1684.2701176,1684.2701176,1684.2701176,1684.2701176,1684.2701176,1684.2701176,1684.2701176,None,None,None,,,,,,,,,,,1681.1811201,1681.1811201,None,,1682.2373123,1682.2373123,1684.2701176,n,1681.1811201,1681.1811201,0.9973917000000654,,14,1,2024-06-19_13h09.25.927,robot_nback_sign,2022.2.5,60.09091755826497,
V,False,2.0,letter,1.0,False,False,robot_stimuli\\filler.mp4,14.0,,,,,,,,,0.0,123.0,123.0,123.0,,,,,,,,,,,,,1684.2701176,1685.3357288,,,,,,,1687.3623249,1687.3623249,1687.3623249,1687.3623249,1687.3623249,1687.3623249,1687.3623249,1687.3623249,None,None,None,,,,,,,,,,,1684.2701176,1684.2701176,None,,1685.3357288,1685.3357288,1687.3623249,n,1684.2701176,1684.2701176,1.9475412000000176,,14,1,2024-06-19_13h09.25.927,robot_nback_sign,2022.2.5,60.09091755826497,
K,False,2.0,letter,1.0,False,False,robot_stimuli\\filler.mp4,14.0,,,,,,,,,0.0,124.0,124.0,124.0,,,,,,,,,,,,,1687.3623249,1688.4210183,,,,,,,1690.6529115,1690.6529115,1690.6529115,1690.6529115,1690.6529115,1690.6529115,1690.6529115,1690.6529115,None,None,None,,,,,,,,,,,1687.3623249,1687.3623249,None,,1688.4210183,1688.4210183,1690.6529115,n,1687.3623249,1687.3623249,0.9427240000000836,,14,1,2024-06-19_13h09.25.927,robot_nback_sign,2022.2.5,60.09091755826497,
D,False,2.0,letter,1.0,False,False,robot_stimuli\\filler.mp4,14.0,,,,,,,,,0.0,125.0,125.0,125.0,,,,,,,,,,,,,1690.6529115,1691.7196077,,,,,,,1693.9486636,1693.9486636,1693.9486636,1693.9486636,1693.9486636,1693.9486636,1693.9486636,1693.9486636,None,None,None,,,,,,,,,,,1690.6529115,1690.6529115,None,,1691.7196077,1691.7196077,1693.9486636,n,1690.6529115,1690.6529115,1.2358534999999335,,14,1,2024-06-19_13h09.25.927,robot_nback_sign,2022.2.5,60.09091755826497,
K,True,2.0,letter,1.0,False,False,robot_stimuli\\filler.mp4,14.0,,,,,,,,,0.0,126.0,126.0,126.0,,,,,,,,,,,,,1693.9486636,1695.010309,,,,,,,1697.0375503,1697.0375503,1697.0375503,1697.0375503,1697.0375503,1697.0375503,1697.0375503,1697.0375503,None,None,None,,,,,,,,,,,1693.9486636,1693.9486636,None,,1695.010309,1695.010309,1697.0375503,c,1693.9486636,1693.9486636,0.8006241999999872,,14,1,2024-06-19_13h09.25.927,robot_nback_sign,2022.2.5,60.09091755826497,
B,False,2.0,letter,1.0,False,False,robot_stimuli\\filler.mp4,14.0,,,,,,,,,0.0,127.0,127.0,127.0,,,,,,,,,,,,,1697.0375503,1698.1022532000002,,,,,,,1700.1282039,1700.1282039,1700.1282039,1700.1282039,1700.1282039,1700.1282039,1700.1282039,1700.1282039,None,None,None,,,,,,,,,,,1697.0375503,1697.0375503,None,,1698.1022532000002,1698.1022532000002,1700.1282039,None,1697.0375503,1697.0375503,,,14,1,2024-06-19_13h09.25.927,robot_nback_sign,2022.2.5,60.09091755826497,
Q,False,2.0,letter,1.0,False,False,robot_stimuli\\filler.mp4,14.0,,,,,,,,,0.0,128.0,128.0,128.0,,,,,,,,,,,,,1700.1282039,1701.1874441,,,,,,,1703.2165885000002,1703.2165885000002,1703.2165885000002,1703.2165885000002,1703.2165885000002,1703.2165885000002,1703.2165885000002,1703.2165885000002,None,None,None,,,,,,,,,,,1700.1282039,1700.1282039,None,,1701.1874441,1701.1874441,1703.2165885000002,n,1700.1282039,1700.1282039,0.6562892000000318,,14,1,2024-06-19_13h09.25.927,robot_nback_sign,2022.2.5,60.09091755826497,
H,False,2.0,letter,1.0,False,False,robot_stimuli\\filler.mp4,14.0,,,,,,,,,0.0,129.0,129.0,129.0,,,,,,,,,,,,,1703.2165885000002,1704.2691499,,,,,,,1706.3004897,1706.3004897,1706.3004897,1706.3004897,1706.3004897,1706.3004897,1706.3004897,1706.3004897,None,None,None,,,,,,,,,,,1703.2165885000002,1703.2165885000002,None,,1704.2691499,1704.2691499,1706.3004897,n,1703.2165885000002,1703.2165885000002,1.959085300000055,,14,1,2024-06-19_13h09.25.927,robot_nback_sign,2022.2.5,60.09091755826497,
Z,False,2.0,letter,1.0,False,False,robot_stimuli\\filler.mp4,14.0,,,,,,,,,0.0,130.0,130.0,130.0,,,,,,,,,,,,,1706.3004897,1707.3545015000002,,,,,,,1709.3858501,1709.3858501,1709.3858501,1709.3858501,1709.3858501,1709.3858501,1709.3858501,1709.3858501,None,None,None,,,,,,,,,,,1706.3004897,1706.3004897,None,,1707.3545015000002,1707.3545015000002,1709.3858501,n,1706.3004897,1706.3004897,1.0335431000001734,,14,1,2024-06-19_13h09.25.927,robot_nback_sign,2022.2.5,60.09091755826497,
K,False,2.0,letter,1.0,False,False,robot_stimuli\\filler.mp4,14.0,,,,,,,,,0.0,131.0,131.0,131.0,,,,,,,,,,,,,1709.3858501,1710.4523231,,,,,,,1712.6793655,1712.6793655,1712.6793655,1712.6793655,1712.6793655,1712.6793655,1712.6793655,1712.6793655,None,None,None,,,,,,,,,,,1709.3858501,1709.3858501,None,,1710.4523231,1710.4523231,1712.6793655,n,1709.3858501,1709.3858501,1.6075593000001334,,14,1,2024-06-19_13h09.25.927,robot_nback_sign,2022.2.5,60.09091755826497,
X,False,2.0,letter,1.0,False,False,robot_stimuli\\filler.mp4,14.0,,,,,,,,,0.0,132.0,132.0,132.0,,,,,,,,,,,,,1712.6793655,1713.73716,,,,,,,1715.9680945,1715.9680945,1715.9680945,1715.9680945,1715.9680945,1715.9680945,1715.9680945,1715.9680945,None,None,None,,,,,,,,,,,1712.6793655,1712.6793655,None,,1713.73716,1713.73716,1715.9680945,n,1712.6793655,1712.6793655,1.9300861000000111,,14,1,2024-06-19_13h09.25.927,robot_nback_sign,2022.2.5,60.09091755826497,
L,False,2.0,letter,1.0,False,False,robot_stimuli\\filler.mp4,14.0,,,,,,,,,0.0,133.0,133.0,133.0,,,,,,,,,,,,,1715.9680945,,,,,,,,1719.2687745,1719.2687745,1719.2687745,1719.2687745,1719.2687745,1719.2687745,1719.2687745,1719.2687745,None,None,None,,,,,,,,,,,1715.9680945,1715.9680945,None,,1717.0356445,1717.0356445,1719.2687745,n,1715.9680945,1715.9680945,1.7046025000000498,,14,1,2024-06-19_13h09.25.927,robot_nback_sign,2022.2.5,60.09091755826497,
J,False,2.0,letter,1.0,False,False,robot_stimuli\\filler.mp4,14.0,,,,,,,,,0.0,134.0,134.0,134.0,,,,,,,,,,,,,1719.2687745,,,,,,,,1722.3609743000002,1722.3609743000002,1722.3609743000002,1722.3609743000002,1722.3609743000002,1722.3609743000002,1722.3609743000002,1722.3609743000002,None,None,None,,,,,,,,,,,1719.2687745,1719.2687745,None,,1720.3375098,1720.3375098,1722.3609743000002,n,1719.2687745,1719.2687745,0.9939315000000022,,14,1,2024-06-19_13h09.25.927,robot_nback_sign,2022.2.5,60.09091755826497,
C,False,2.0,letter,1.0,False,False,robot_stimuli\\filler.mp4,14.0,,,,,,,,,0.0,135.0,135.0,135.0,,,,,,,,,,,,,1722.3609743000002,1723.4198143,,,,,,,1725.4435938,1725.4435938,1725.4435938,1725.4435938,1725.4435938,1725.4435938,1725.4435938,1725.4435938,None,None,None,,,,,,,,,,,1722.3609743000002,1722.3609743000002,None,,1723.4198143,1723.4198143,1725.4435938,n,1722.3609743000002,1722.3609743000002,1.023062000000067,,14,1,2024-06-19_13h09.25.927,robot_nback_sign,2022.2.5,60.09091755826497,
J,True,2.0,letter,1.0,False,False,robot_stimuli\\filler.mp4,14.0,,,,,,,,,0.0,136.0,136.0,136.0,,,,,,,,,,,,,1725.4435938,1726.504388,,,,,,,1728.5357232,1728.5357232,1728.5357232,1728.5357232,1728.5357232,1728.5357232,1728.5357232,1728.5357232,None,None,None,,,,,,,,,,,1725.4435938,1725.4435938,None,,1726.504388,1726.504388,1728.5357232,c,1725.4435938,1725.4435938,0.7299920000001237,,14,1,2024-06-19_13h09.25.927,robot_nback_sign,2022.2.5,60.09091755826497,
W,False,2.0,letter,1.0,False,False,robot_stimuli\\filler.mp4,14.0,,,,,,,,,0.0,137.0,137.0,137.0,,,,,,,,,,,,,1728.5357232,1729.6054601,,,,,,,1731.8325960000002,1731.8325960000002,1731.8325960000002,1731.8325960000002,1731.8325960000002,1731.8325960000002,1731.8325960000002,1731.8325960000002,None,None,None,,,,,,,,,,,1728.5357232,1728.5357232,None,,1729.6054601,1729.6054601,1731.8325960000002,n,1728.5357232,1728.5357232,0.7987104000002034,,14,1,2024-06-19_13h09.25.927,robot_nback_sign,2022.2.5,60.09091755826497,
M,False,2.0,letter,1.0,False,False,robot_stimuli\\filler.mp4,14.0,,,,,,,,,0.0,138.0,138.0,138.0,,,,,,,,,,,,,1731.8325960000002,1732.8858943,,,,,,,1734.9212561000002,1734.9212561000002,1734.9212561000002,1734.9212561000002,1734.9212561000002,1734.9212561000002,1734.9212561000002,1734.9212561000002,None,None,None,,,,,,,,,,,1731.8325960000002,1731.8325960000002,None,,1732.8858943,1732.8858943,1734.9212561000002,n,1731.8325960000002,1731.8325960000002,1.805868000000004,,14,1,2024-06-19_13h09.25.927,robot_nback_sign,2022.2.5,60.09091755826497,
F,False,2.0,letter,1.0,False,False,robot_stimuli\\filler.mp4,14.0,,,,,,,,,0.0,139.0,139.0,139.0,,,,,,,,,,,,,1734.9212561000002,1735.9852258,,,,,,,1738.2165773000002,1738.2165773000002,1738.2165773000002,1738.2165773000002,1738.2165773000002,1738.2165773000002,1738.2165773000002,1738.2165773000002,None,None,None,,,,,,,,,,,1734.9212561000002,1734.9212561000002,None,,1735.9852258,1735.9852258,1738.2165773000002,None,1734.9212561000002,1734.9212561000002,,,14,1,2024-06-19_13h09.25.927,robot_nback_sign,2022.2.5,60.09091755826497,
Z,False,2.0,letter,1.0,False,False,robot_stimuli\\filler.mp4,14.0,,,,,,,,,0.0,140.0,140.0,140.0,,,,,,,,,,,,,1738.2165773000002,1739.2698296,,,,,,,1741.3036693,1741.3036693,1741.3036693,1741.3036693,1741.3036693,1741.3036693,1741.3036693,1741.3036693,None,None,None,,,,,,,,,,,1738.2165773000002,1738.2165773000002,None,,1739.2698296,1739.2698296,1741.3036693,None,1738.2165773000002,1738.2165773000002,,,14,1,2024-06-19_13h09.25.927,robot_nback_sign,2022.2.5,60.09091755826497,
F,True,2.0,letter,1.0,False,False,robot_stimuli\\filler.mp4,14.0,,,,,,,,,0.0,141.0,141.0,141.0,,,,,,,,,,,,,1741.3036693,1742.3707677,,,,,,,1744.4038405,1744.4038405,1744.4038405,1744.4038405,1744.4038405,1744.4038405,1744.4038405,1744.4038405,None,None,None,,,,,,,,,,,1741.3036693,1741.3036693,None,,1742.3707677,1742.3707677,1744.4038405,c,1741.3036693,1741.3036693,0.8728377000000762,,14,1,2024-06-19_13h09.25.927,robot_nback_sign,2022.2.5,60.09091755826497,
G,False,2.0,letter,1.0,False,False,robot_stimuli\\filler.mp4,14.0,,,,,,,,,0.0,142.0,142.0,142.0,,,,,,,,,,,,,1744.4038405,1745.4702663,,,,,,,1747.4965047,1747.4965047,1747.4965047,1747.4965047,1747.4965047,1747.4965047,1747.4965047,1747.4965047,None,None,None,,,,,,,,,,,1744.4038405,1744.4038405,None,,1745.4702663,1745.4702663,1747.4965047,n,1744.4038405,1744.4038405,1.0687856000000409,,14,1,2024-06-19_13h09.25.927,robot_nback_sign,2022.2.5,60.09091755826497,
F,True,2.0,letter,1.0,False,False,robot_stimuli\\filler.mp4,14.0,,,,,,,,,0.0,143.0,143.0,143.0,,,,,,,,,,,,,1747.4965047,1748.5531128,,,,,,,1750.5829601,1750.5829601,1750.5829601,1750.5829601,1750.5829601,1750.5829601,1750.5829601,1750.5829601,None,None,None,,,,,,,,,,,1747.4965047,1747.4965047,None,,1748.5531128,1748.5531128,1750.5829601,c,1747.4965047,1747.4965047,1.6497516000002577,,14,1,2024-06-19_13h09.25.927,robot_nback_sign,2022.2.5,60.09091755826497,
G,True,2.0,letter,1.0,False,False,robot_stimuli\\filler.mp4,14.0,,,,,,,,,0.0,144.0,144.0,144.0,,,,,,,,,,,,,1750.5829601,1751.6366205000002,,,,,,,1753.6688398,1753.6688398,1753.6688398,1753.6688398,1753.6688398,1753.6688398,1753.6688398,1753.6688398,None,None,None,,,,,,,,,,,1750.5829601,1750.5829601,None,,1751.6366205000002,1751.6366205000002,1753.6688398,c,1750.5829601,1750.5829601,1.550891200000109,,14,1,2024-06-19_13h09.25.927,robot_nback_sign,2022.2.5,60.09091755826497,
P,False,2.0,letter,1.0,False,False,robot_stimuli\\filler.mp4,14.0,,,,,,,,,0.0,145.0,145.0,145.0,,,,,,,,,,,,,1753.6688398,,,,,,,,1756.9617647,1756.9617647,1756.9617647,1756.9617647,1756.9617647,1756.9617647,1756.9617647,1756.9617647,None,None,None,,,,,,,,,,,1753.6688398,1753.6688398,None,,1754.736051,1754.736051,1756.9617647,n,1753.6688398,1753.6688398,0.9720217000002264,,14,1,2024-06-19_13h09.25.927,robot_nback_sign,2022.2.5,60.09091755826497,
Z,False,2.0,letter,1.0,False,False,robot_stimuli\\filler.mp4,14.0,,,,,,,,,0.0,146.0,146.0,146.0,,,,,,,,,,,,,1756.9617647,1758.0209080000002,,,,,,,1760.0570715,1760.0570715,1760.0570715,1760.0570715,1760.0570715,1760.0570715,1760.0570715,1760.0570715,None,None,None,,,,,,,,,,,1756.9617647,1756.9617647,None,,1758.0209080000002,1758.0209080000002,1760.0570715,n,1756.9617647,1756.9617647,0.9827751999999634,,14,1,2024-06-19_13h09.25.927,robot_nback_sign,2022.2.5,60.09091755826497,
P,True,2.0,letter,1.0,False,False,robot_stimuli\\filler.mp4,14.0,,,,,,,,,0.0,147.0,147.0,147.0,,,,,,,,,,,,,1760.0570715,1761.1194403000002,,,,,,,1763.3495211000002,1763.3495211000002,1763.3495211000002,1763.3495211000002,1763.3495211000002,1763.3495211000002,1763.3495211000002,1763.3495211000002,None,None,None,,,,,,,,,,,1760.0570715,1760.0570715,None,,1761.1194403000002,1761.1194403000002,1763.3495211000002,c,1760.0570715,1760.0570715,0.9239148000002332,,14,1,2024-06-19_13h09.25.927,robot_nback_sign,2022.2.5,60.09091755826497,
N,False,2.0,letter,1.0,False,False,robot_stimuli\\filler.mp4,14.0,,,,,,,,,0.0,148.0,148.0,148.0,,,,,,,,,,,,,1763.3495211000002,1764.4023806,,,,,,,1766.4357572,1766.4357572,1766.4357572,1766.4357572,1766.4357572,1766.4357572,1766.4357572,1766.4357572,None,None,None,,,,,,,,,,,1763.3495211000002,1763.3495211000002,None,,1764.4023806,1764.4023806,1766.4357572,n,1763.3495211000002,1763.3495211000002,1.1769858000000966,,14,1,2024-06-19_13h09.25.927,robot_nback_sign,2022.2.5,60.09091755826497,
B,False,2.0,letter,1.0,False,True,robot_stimuli\\filler.mp4,14.0,,,,,,,,,0.0,149.0,149.0,149.0,,,,,,,,,,,,,1766.4357572,1767.5021203,,,,,,,1769.7658514,1780.4475869,1769.7658514,1780.4475869,1769.7658514,1780.4475869,1769.7658514,1780.4475869,57.9320987654321,9.623783300000014,space,,,,10.637260499999996,,,,,,,1766.4357572,1766.4357572,None,,1767.5021203,1767.5021203,1769.7658514,None,1766.4357572,1766.4357572,,,14,1,2024-06-19_13h09.25.927,robot_nback_sign,2022.2.5,60.09091755826497,
R_Base_X_For,False,1.0,robot,2.0,True,False,robot_stimuli\R_Base_X_For.mp4,14.0,,,,,,,,,0.0,150.0,150.0,150.0,,,,,,,,,,,,,1789.8658012,1790.9500196,,,,,,,1794.4994806,1794.4994806,1794.4994806,1794.4994806,1794.4994806,1794.4994806,1794.4994806,1794.4994806,None,None,None,,,,,,,,,,,1780.4475869,1780.4475869,space,9.395716699999952,,1790.9500196,,None,,,,1790.9500196,14,1,2024-06-19_13h09.25.927,robot_nback_sign,2022.2.5,60.09091755826497,
R_Base_X_Back,False,1.0,robot,2.0,False,False,robot_stimuli\R_Base_X_Back.mp4,14.0,,,,,,,,,0.0,151.0,151.0,151.0,,,,,,,,,,,,,1794.4994806,1795.5813135,,,,,,,1799.2362276,1799.2362276,1799.2362276,1799.2362276,1799.2362276,1799.2362276,1799.2362276,1799.2362276,None,None,None,,,,,,,,,,,1794.4994806,1794.4994806,None,,,1795.5813135,,c,1794.4994806,1794.4994806,3.165139000000039,1795.5813135,14,1,2024-06-19_13h09.25.927,robot_nback_sign,2022.2.5,60.09091755826497,
L_Torso_Z_For,False,1.0,robot,2.0,False,False,robot_stimuli\L_Torso_Z_For.mp4,14.0,,,,,,,,,0.0,152.0,152.0,152.0,,,,,,,,,,,,,1799.2362276,1800.3421646000002,,,,,,,1803.9832692,1803.9832692,1803.9832692,1803.9832692,1803.9832692,1803.9832692,1803.9832692,1803.9832692,None,None,None,,,,,,,,,,,1799.2362276,1799.2362276,None,,,1800.3421646000002,,None,1799.2362276,1799.2362276,,1800.3421646000002,14,1,2024-06-19_13h09.25.927,robot_nback_sign,2022.2.5,60.09091755826497,
R_Torso_X_Back,False,1.0,robot,2.0,False,False,robot_stimuli\R_Torso_X_Back.mp4,14.0,,,,,,,,,0.0,153.0,153.0,153.0,,,,,,,,,,,,,1803.9832692,1805.0599803,,,,,,,1808.6897875,1808.6897875,1808.6897875,1808.6897875,1808.6897875,1808.6897875,1808.6897875,1808.6897875,None,None,None,,,,,,,,,,,1803.9832692,1803.9832692,None,,,1805.0599803,,n,1803.9832692,1803.9832692,1.9187986000000308,1805.0599803,14,1,2024-06-19_13h09.25.927,robot_nback_sign,2022.2.5,60.09091755826497,
R_Arm_Z_Back,False,1.0,robot,2.0,False,False,robot_stimuli\R_Arm_Z_Back.mp4,14.0,,,,,,,,,0.0,154.0,154.0,154.0,,,,,,,,,,,,,1808.6897875,1809.7813697,,,,,,,1813.434165,1813.434165,1813.434165,1813.434165,1813.434165,1813.434165,1813.434165,1813.434165,None,None,None,,,,,,,,,,,1808.6897875,1808.6897875,None,,,1809.7813697,,None,1808.6897875,1808.6897875,,1809.7813697,14,1,2024-06-19_13h09.25.927,robot_nback_sign,2022.2.5,60.09091755826497,
R_Arm_Z_Back,True,1.0,robot,2.0,False,False,robot_stimuli\R_Arm_Z_Back.mp4,14.0,,,,,,,,,0.0,155.0,155.0,155.0,,,,,,,,,,,,,1813.434165,,,,,,,,1818.1774778,1818.1774778,1818.1774778,1818.1774778,1818.1774778,1818.1774778,1818.1774778,1818.1774778,None,None,None,,,,,,,,,,,1813.434165,1813.434165,None,,,1814.5377459,,c,1813.434165,1813.434165,2.5844519000000616,1814.5377459,14,1,2024-06-19_13h09.25.927,robot_nback_sign,2022.2.5,60.09091755826497,
R_Arm_Z_Back,True,1.0,robot,2.0,False,False,robot_stimuli\R_Arm_Z_Back.mp4,14.0,,,,,,,,,0.0,156.0,156.0,156.0,,,,,,,,,,,,,1818.1774778,1819.2569199,,,,,,,1822.9008688,1822.9008688,1822.9008688,1822.9008688,1822.9008688,1822.9008688,1822.9008688,1822.9008688,None,None,None,,,,,,,,,,,1818.1774778,1818.1774778,None,,,1819.2569199,,c,1818.1774778,1818.1774778,2.897125499999987,1819.2569199,14,1,2024-06-19_13h09.25.927,robot_nback_sign,2022.2.5,60.09091755826497,
R_Torso_Z_For,False,1.0,robot,2.0,False,False,robot_stimuli\R_Torso_Z_For.mp4,14.0,,,,,,,,,0.0,157.0,157.0,157.0,,,,,,,,,,,,,1822.9008688,,,,,,,,1827.6501012,1827.6501012,1827.6501012,1827.6501012,1827.6501012,1827.6501012,1827.6501012,1827.6501012,None,None,None,,,,,,,,,,,1822.9008688,1822.9008688,None,,,1824.0067273,,n,1822.9008688,1822.9008688,2.276034600000088,1824.0067273,14,1,2024-06-19_13h09.25.927,robot_nback_sign,2022.2.5,60.09091755826497,
R_Torso_Y_Back,False,1.0,robot,2.0,False,False,robot_stimuli\R_Torso_Y_Back.mp4,14.0,,,,,,,,,0.0,158.0,158.0,158.0,,,,,,,,,,,,,1827.6501012,1828.7416892,,,,,,,1832.3818138,1832.3818138,1832.3818138,1832.3818138,1832.3818138,1832.3818138,1832.3818138,1832.3818138,None,None,None,,,,,,,,,,,1827.6501012,1827.6501012,None,,,1828.7416892,,n,1827.6501012,1827.6501012,2.773391400000122,1828.7416892,14,1,2024-06-19_13h09.25.927,robot_nback_sign,2022.2.5,60.09091755826497,
L_Head_X_Back,False,1.0,robot,2.0,False,False,robot_stimuli\L_Head_X_Back.mp4,14.0,,,,,,,,,0.0,159.0,159.0,159.0,,,,,,,,,,,,,1832.3818138,1833.4588073,,,,,,,1837.0913855,1837.0913855,1837.0913855,1837.0913855,1837.0913855,1837.0913855,1837.0913855,1837.0913855,None,None,None,,,,,,,,,,,1832.3818138,1832.3818138,None,,,1833.4588073,,n,1832.3818138,1832.3818138,3.127318100000224,1833.4588073,14,1,2024-06-19_13h09.25.927,robot_nback_sign,2022.2.5,60.09091755826497,
L_Head_X_Back,True,1.0,robot,2.0,False,False,robot_stimuli\L_Head_X_Back.mp4,14.0,,,,,,,,,0.0,160.0,160.0,160.0,,,,,,,,,,,,,1837.0913855,1838.1739743,,,,,,,1841.8136267,1841.8136267,1841.8136267,1841.8136267,1841.8136267,1841.8136267,1841.8136267,1841.8136267,None,None,None,,,,,,,,,,,1837.0913855,1837.0913855,None,,,1838.1739743,,c,1837.0913855,1837.0913855,1.917274800000172,1838.1739743,14,1,2024-06-19_13h09.25.927,robot_nback_sign,2022.2.5,60.09091755826497,
R_Torso_Z_Back,False,1.0,robot,2.0,False,False,robot_stimuli\R_Torso_Z_Back.mp4,14.0,,,,,,,,,0.0,161.0,161.0,161.0,,,,,,,,,,,,,1841.8136267,1842.894055,,,,,,,1846.5446555,1846.5446555,1846.5446555,1846.5446555,1846.5446555,1846.5446555,1846.5446555,1846.5446555,None,None,None,,,,,,,,,,,1841.8136267,1841.8136267,None,,,1842.894055,,None,1841.8136267,1841.8136267,,1842.894055,14,1,2024-06-19_13h09.25.927,robot_nback_sign,2022.2.5,60.09091755826497,
R_Head_X_Back,False,1.0,robot,2.0,False,False,robot_stimuli\R_Head_X_Back.mp4,14.0,,,,,,,,,0.0,162.0,162.0,162.0,,,,,,,,,,,,,1846.5446555,1847.6322313,,,,,,,1851.2833438,1851.2833438,1851.2833438,1851.2833438,1851.2833438,1851.2833438,1851.2833438,1851.2833438,None,None,None,,,,,,,,,,,1846.5446555,1846.5446555,None,,,1847.6322313,,n,1846.5446555,1846.5446555,2.249928799999992,1847.6322313,14,1,2024-06-19_13h09.25.927,robot_nback_sign,2022.2.5,60.09091755826497,
L_Head_Y_For,False,1.0,robot,2.0,False,False,robot_stimuli\L_Head_Y_For.mp4,14.0,,,,,,,,,0.0,163.0,163.0,163.0,,,,,,,,,,,,,1851.2833438,1852.3641663,,,,,,,1856.0126316,1856.0126316,1856.0126316,1856.0126316,1856.0126316,1856.0126316,1856.0126316,1856.0126316,None,None,None,,,,,,,,,,,1851.2833438,1851.2833438,None,,,1852.3641663,,None,1851.2833438,1851.2833438,,1852.3641663,14,1,2024-06-19_13h09.25.927,robot_nback_sign,2022.2.5,60.09091755826497,
R_Head_Y_For,False,1.0,robot,2.0,False,False,robot_stimuli\R_Head_Y_For.mp4,14.0,,,,,,,,,0.0,164.0,164.0,164.0,,,,,,,,,,,,,1856.0126316,1857.0934289,,,,,,,1860.7226596,1860.7226596,1860.7226596,1860.7226596,1860.7226596,1860.7226596,1860.7226596,1860.7226596,None,None,None,,,,,,,,,,,1856.0126316,1856.0126316,None,,,1857.0934289,,n,1856.0126316,1856.0126316,1.574072500000142,1857.0934289,14,1,2024-06-19_13h09.25.927,robot_nback_sign,2022.2.5,60.09091755826497,
R_Base_Y_For,False,1.0,robot,2.0,False,False,robot_stimuli\R_Base_Y_For.mp4,14.0,,,,,,,,,0.0,165.0,165.0,165.0,,,,,,,,,,,,,1860.7226596,1861.8116202,,,,,,,1865.4634908,1865.4634908,1865.4634908,1865.4634908,1865.4634908,1865.4634908,1865.4634908,1865.4634908,None,None,None,,,,,,,,,,,1860.7226596,1860.7226596,None,,,1861.8116202,,None,1860.7226596,1860.7226596,,1861.8116202,14,1,2024-06-19_13h09.25.927,robot_nback_sign,2022.2.5,60.09091755826497,
L_Torso_Z_For,False,1.0,robot,2.0,False,False,robot_stimuli\L_Torso_Z_For.mp4,14.0,,,,,,,,,0.0,166.0,166.0,166.0,,,,,,,,,,,,,1865.4634908,1866.5438249,,,,,,,1870.1962963,1870.1962963,1870.1962963,1870.1962963,1870.1962963,1870.1962963,1870.1962963,1870.1962963,None,None,None,,,,,,,,,,,1865.4634908,1865.4634908,None,,,1866.5438249,,n,1865.4634908,1865.4634908,1.3712811000001182,1866.5438249,14,1,2024-06-19_13h09.25.927,robot_nback_sign,2022.2.5,60.09091755826497,
L_Torso_Z_For,True,1.0,robot,2.0,False,False,robot_stimuli\L_Torso_Z_For.mp4,14.0,,,,,,,,,0.0,167.0,167.0,167.0,,,,,,,,,,,,,1870.1962963,1871.2734924,,,,,,,1874.9158889,1874.9158889,1874.9158889,1874.9158889,1874.9158889,1874.9158889,1874.9158889,1874.9158889,None,None,None,,,,,,,,,,,1870.1962963,1870.1962963,None,,,1871.2734924,,c,1870.1962963,1870.1962963,3.265421300000156,1871.2734924,14,1,2024-06-19_13h09.25.927,robot_nback_sign,2022.2.5,60.09091755826497,
