sequence,odd_ones,parameter,choices,target,target_idx,condition,stimuli,block,is_block_beginning,is_block_ending,sequence_fnames,target_fname,subject,retraining.thisRepN,retraining.thisTrialN,retraining.thisN,retraining.thisIndex,training.thisRepN,training.thisTrialN,training.thisN,training.thisIndex,training_sequence_loop.thisRepN,training_sequence_loop.thisTrialN,training_sequence_loop.thisN,training_sequence_loop.thisIndex,trials.thisRepN,trials.thisTrialN,trials.thisN,trials.thisIndex,sequence_loop.thisRepN,sequence_loop.thisTrialN,sequence_loop.thisN,sequence_loop.thisIndex,langage_text.started,langage_key.started,langage_key.keys,langage_key.rt,intro_text.started,intro_key.started,intro_key.keys,intro_key.rt,training_intro_text.started,training_intro_key.started,training_intro_key.keys,training_intro_key.rt,polygon.started,polygon.stopped,cue_before_text.started,cue_before_text.stopped,training_presentation_letter.started,training_presentation_letter.stopped,recall_key.started,recall_question.started,recall_answer.started,recall_key.keys,recall_key.rt,RSME_labels.started,RSME_labels.stopped,RSME_ticks.started,RSME_ticks.stopped,RSME_text.started,RSME_text.stopped,RSME_key.started,RSME_key.stopped,RSME_ticks.response,RSME_ticks.rt,RSME_key.keys,training_intro_text.stopped,training_intro_key.stopped,RSME_key.rt,training_presentation_movie.started,experiment_beginning_text.started,experiment_beginning_keys.started,experiment_beginning_key.started,experiment_beginning_key.keys,experiment_beginning_key.rt,block_intro_text.started,block_intro_key.started,block_intro_key.keys,block_intro_key.rt,presentation_letter.started,presentation_letter.stopped,block_intro_text.stopped,block_intro_key.stopped,presentation_movie.started,participant,session,date,expName,psychopyVersion,frameRate,
,,,,,,,,,,,,,,,,,,,,,,,,,,,,,,,,,,12.69006909999996,12.69006909999996,f,0.7996025999999574,,,,,,,,,,,,,,,,,,,,,,,,,,,,,,,,,,,,,,,,,,,,,,,,,6,001,2024-07-23_09h02.49.305,robot_cogshifting_sign,2022.2.5,59.94186837604167,
,,,,,,,,,,,,,,,,,,,,,,,,,,,,,,,,,,,,,,13.55053190000001,13.55053190000001,space,97.86777210000002,,,,,,,,,,,,,,,,,,,,,,,,,,,,,,,,,,,,,,,,,,,,,6,001,2024-07-23_09h02.49.305,robot_cogshifting_sign,2022.2.5,59.94186837604167,
"['blue_left_R_45', 'blue_top_D_45', 'blue_top_Q_0', 'red_top_G_45']","{'color': 'red_top_G_45', 'position': 'blue_left_R_45', 'orientation': 'blue_top_Q_0'}",color,['color'],red_top_G_45,3,1,letter,1,True,False,"['robot_stimuli\\\\filler.mp4', 'robot_stimuli\\\\filler.mp4', 'robot_stimuli\\\\filler.mp4', 'robot_stimuli\\\\filler.mp4']",robot_stimuli\\filler.mp4,6,0,0,0,0,0,0,0,0,,,,,,,,,,,,,,,,,,,,,111.46526930000005,111.46526930000005,space,4.887217400000054,116.37935200000004,117.37929480000003,117.37929480000003,119.85554920000004,126.36094249999996,128.3967715,128.3967715,128.3967715,128.3967715,4,23.54817890000004,152.0741494,152.0741494,152.0741494,152.0741494,152.0741494,152.0741494,152.0741494,152.0741494,None,None,None,,,,,,,,,,,,,,,,,,,6,001,2024-07-23_09h02.49.305,robot_cogshifting_sign,2022.2.5,59.94186837604167,
"['blue_right_L_45', 'blue_top_H_45', 'red_top_R_45', 'blue_top_X_0']","{'color': 'red_top_R_45', 'position': 'blue_right_L_45', 'orientation': 'blue_top_X_0'}",orientation,['orientation'],blue_top_X_0,3,1,letter,1,False,False,"['robot_stimuli\\\\filler.mp4', 'robot_stimuli\\\\filler.mp4', 'robot_stimuli\\\\filler.mp4', 'robot_stimuli\\\\filler.mp4']",robot_stimuli\\filler.mp4,6,0,0,0,0,0,1,1,1,,,,,,,,,,,,,,,,,,,,,152.0741494,152.0741494,None,,152.0741494,,153.0791196,,161.48351209999998,163.70324330000005,163.70324330000005,163.70324330000005,163.70324330000005,4,2.713954199999989,166.4460967,166.4460967,166.4460967,166.4460967,166.4460967,166.4460967,166.4460967,166.4460967,None,None,None,152.0741494,152.0741494,,,,,,,,,,,,,,,,,6,001,2024-07-23_09h02.49.305,robot_cogshifting_sign,2022.2.5,59.94186837604167,
"['blue_right_D_0', 'red_left_C_0', 'blue_left_P_45', 'blue_left_C_0']","{'color': 'red_left_C_0', 'position': 'blue_right_D_0', 'orientation': 'blue_left_P_45'}",position,['position'],blue_right_D_0,0,1,letter,1,False,True,"['robot_stimuli\\\\filler.mp4', 'robot_stimuli\\\\filler.mp4', 'robot_stimuli\\\\filler.mp4', 'robot_stimuli\\\\filler.mp4']",robot_stimuli\\filler.mp4,6,0,0,0,0,0,2,2,2,,,,,,,,,,,,,,,,,,,,,166.4460967,166.4460967,None,,166.4460967,167.44590619999997,167.44590619999997,169.52747969999996,176.20982760000004,178.2376544,178.2376544,178.2376544,178.2376544,1,1.4040858999999273,179.7191305,185.85178110000004,179.7191305,185.85178110000004,179.7191305,185.85178110000004,179.7191305,185.85178110000004,4.537037037037034,4.1172632999999905,space,166.4460967,166.4460967,6.073338300000046,,,,,,,,,,,,,,,,6,001,2024-07-23_09h02.49.305,robot_cogshifting_sign,2022.2.5,59.94186837604167,
"['red_bottom_J_45', 'blue_right_V_45', 'red_right_M_45', 'red_right_Q_0']","{'color': 'blue_right_V_45', 'position': 'red_bottom_J_45', 'orientation': 'red_right_Q_0'}",position,"['color', 'position']",red_bottom_J_45,0,2,letter,1,True,False,"['robot_stimuli\\\\filler.mp4', 'robot_stimuli\\\\filler.mp4', 'robot_stimuli\\\\filler.mp4', 'robot_stimuli\\\\filler.mp4']",robot_stimuli\\filler.mp4,6,0,0,0,0,0,3,3,3,,,,,,,,,,,,,,,,,,,,,185.85178110000004,185.85178110000004,space,2.2687067000000525,188.14617520000002,189.14627140000005,189.14627140000005,191.21514639999998,197.90362649999997,200.1217428,200.1217428,200.1217428,200.1217428,1,4.8400857000000315,204.97938020000004,204.97938020000004,204.97938020000004,204.97938020000004,204.97938020000004,204.97938020000004,204.97938020000004,204.97938020000004,None,None,None,,,,,,,,,,,,,,,,,,,6,001,2024-07-23_09h02.49.305,robot_cogshifting_sign,2022.2.5,59.94186837604167,
"['blue_bottom_X_0', 'red_bottom_S_45', 'red_bottom_X_0', 'red_left_X_0']","{'color': 'blue_bottom_X_0', 'position': 'red_left_X_0', 'orientation': 'red_bottom_S_45'}",color,"['color', 'orientation']",blue_bottom_X_0,0,2,letter,1,False,False,"['robot_stimuli\\\\filler.mp4', 'robot_stimuli\\\\filler.mp4', 'robot_stimuli\\\\filler.mp4', 'robot_stimuli\\\\filler.mp4']",robot_stimuli\\filler.mp4,6,0,0,0,0,0,4,4,4,,,,,,,,,,,,,,,,,,,,,204.97938020000004,204.97938020000004,None,,204.97938020000004,205.98108590000004,205.98108590000004,,214.76070700000002,216.79287,216.79287,216.79287,216.79287,2,3.8488333999999895,220.66291890000002,220.66291890000002,220.66291890000002,220.66291890000002,220.66291890000002,220.66291890000002,220.66291890000002,220.66291890000002,None,None,None,204.97938020000004,204.97938020000004,,,,,,,,,,,,,,,,,6,001,2024-07-23_09h02.49.305,robot_cogshifting_sign,2022.2.5,59.94186837604167,
"['blue_top_G_45', 'blue_left_P_45', 'blue_left_X_0', 'red_left_X_45']","{'color': 'red_left_X_45', 'position': 'blue_top_G_45', 'orientation': 'blue_left_X_0'}",orientation,"['orientation', 'position']",blue_left_X_0,2,2,letter,1,False,True,"['robot_stimuli\\\\filler.mp4', 'robot_stimuli\\\\filler.mp4', 'robot_stimuli\\\\filler.mp4', 'robot_stimuli\\\\filler.mp4']",robot_stimuli\\filler.mp4,6,0,0,0,0,0,5,5,5,,,,,,,,,,,,,,,,,,,,,220.66291890000002,220.66291890000002,None,,220.66291890000002,221.6629679,221.6629679,223.73378690000004,230.62978780000003,232.65407900000002,232.65407900000002,232.65407900000002,232.65407900000002,1,5.394853699999999,238.11523190000003,244.12723589999996,238.11523190000003,244.12723589999996,238.11523190000003,244.12723589999996,238.11523190000003,244.12723589999996,17.03703703703703,4.683338899999967,space,220.66291890000002,220.66291890000002,5.965418,,,,,,,,,,,,,,,,6,001,2024-07-23_09h02.49.305,robot_cogshifting_sign,2022.2.5,59.94186837604167,
"['blue_bottom_P_0', 'blue_left_V_0', 'blue_bottom_S_45', 'red_bottom_P_0']","{'color': 'red_bottom_P_0', 'position': 'blue_left_V_0', 'orientation': 'blue_bottom_S_45'}",position,"['color', 'orientation', 'position']",blue_left_V_0,1,3,letter,1,True,False,"['robot_stimuli\\\\filler.mp4', 'robot_stimuli\\\\filler.mp4', 'robot_stimuli\\\\filler.mp4', 'robot_stimuli\\\\filler.mp4']",robot_stimuli\\filler.mp4,6,0,0,0,0,0,6,6,6,,,,,,,,,,,,,,,,,,,,,244.12723589999996,244.12723589999996,space,3.4422680000000128,247.59622920000004,248.59631119999995,248.59631119999995,250.661429,256.95788689999995,258.9830322,258.9830322,258.9830322,258.9830322,2,3.538656099999912,262.54629049999994,262.54629049999994,262.54629049999994,262.54629049999994,262.54629049999994,262.54629049999994,262.54629049999994,262.54629049999994,None,None,None,,,,,,,,,,,,,,,,,,,6,001,2024-07-23_09h02.49.305,robot_cogshifting_sign,2022.2.5,59.94186837604167,
"['red_right_D_45', 'blue_right_D_0', 'red_bottom_G_0', 'red_right_Z_0']","{'color': 'blue_right_D_0', 'position': 'red_bottom_G_0', 'orientation': 'red_right_D_45'}",color,"['color', 'orientation', 'position']",blue_right_D_0,1,3,letter,1,False,False,"['robot_stimuli\\\\filler.mp4', 'robot_stimuli\\\\filler.mp4', 'robot_stimuli\\\\filler.mp4', 'robot_stimuli\\\\filler.mp4']",robot_stimuli\\filler.mp4,6,0,0,0,0,0,7,7,7,,,,,,,,,,,,,,,,,,,,,262.54629049999994,262.54629049999994,None,,262.54629049999994,263.54660119999994,263.54660119999994,265.617705,272.31165480000004,274.33032349999996,274.33032349999996,274.33032349999996,274.33032349999996,2,4.431462399999987,278.77943619999996,278.77943619999996,278.77943619999996,278.77943619999996,278.77943619999996,278.77943619999996,278.77943619999996,278.77943619999996,None,None,None,262.54629049999994,262.54629049999994,,,,,,,,,,,,,,,,,6,001,2024-07-23_09h02.49.305,robot_cogshifting_sign,2022.2.5,59.94186837604167,
"['blue_right_P_45', 'red_right_C_45', 'red_right_T_0', 'red_bottom_S_45']","{'color': 'blue_right_P_45', 'position': 'red_bottom_S_45', 'orientation': 'red_right_T_0'}",orientation,"['color', 'orientation', 'position']",red_right_T_0,2,3,letter,1,False,True,"['robot_stimuli\\\\filler.mp4', 'robot_stimuli\\\\filler.mp4', 'robot_stimuli\\\\filler.mp4', 'robot_stimuli\\\\filler.mp4']",robot_stimuli\\filler.mp4,6,0,0,0,0,0,8,8,8,,,,,,,,,,,,,,,,,,,,,278.77943619999996,278.77943619999996,None,,278.77943619999996,279.77975879999997,279.77975879999997,281.83875149999994,288.310569,290.3367342,290.3367342,290.3367342,290.3367342,3,3.4487307000000555,293.8426541,298.05727260000003,293.8426541,298.05727260000003,293.8426541,298.05727260000003,293.8426541,298.05727260000003,24.290123456790123,2.8536148999999114,space,278.77943619999996,278.77943619999996,4.1425874999999905,,,,,,,,,,,,,,,,6,001,2024-07-23_09h02.49.305,robot_cogshifting_sign,2022.2.5,59.94186837604167,
"['R_Head_Z_For', 'L_Head_X_For', 'L_Torso_Z_For', 'L_Head_Z_For']","{'laterality': 'R_Head_Z_For', 'localisation': 'L_Torso_Z_For', 'movement': 'L_Head_X_For'}",localisation,['localisation'],L_Torso_Z_For,2,1,robot,2,True,False,"['robot_stimuli\\R_Head_Z_For.mp4', 'robot_stimuli\\L_Head_X_For.mp4', 'robot_stimuli\\L_Torso_Z_For.mp4', 'robot_stimuli\\L_Head_Z_For.mp4']",robot_stimuli\L_Torso_Z_For.mp4,6,0,0,0,0,0,9,9,9,,,,,,,,,,,,,,,,,,,,,298.05727260000003,298.05727260000003,space,18.135108399999922,316.21279689999994,317.21308969999995,317.21308969999995,319.311918,,,334.08345369999995,334.08345369999995,334.08345369999995,3,3.4305806999999504,337.54630569999995,337.54630569999995,337.54630569999995,337.54630569999995,337.54630569999995,337.54630569999995,337.54630569999995,337.54630569999995,None,None,None,,,,330.4466234,,,,,,,,,,,,,,,6,001,2024-07-23_09h02.49.305,robot_cogshifting_sign,2022.2.5,59.94186837604167,
"['L_Arm_Z_For', 'R_Arm_X_For', 'R_Arm_Z_For', 'R_Torso_Z_Back']","{'laterality': 'L_Arm_Z_For', 'localisation': 'R_Torso_Z_Back', 'movement': 'R_Arm_X_For'}",laterality,['laterality'],L_Arm_Z_For,0,1,robot,2,False,False,"['robot_stimuli\\L_Arm_Z_For.mp4', 'robot_stimuli\\R_Arm_X_For.mp4', 'robot_stimuli\\R_Arm_Z_For.mp4', 'robot_stimuli\\R_Torso_Z_Back.mp4']",robot_stimuli\L_Arm_Z_For.mp4,6,0,0,0,0,0,10,10,10,,,,,,,,,,,,,,,,,,,,,337.54630569999995,337.54630569999995,None,,337.54630569999995,338.54628649999995,338.54628649999995,340.621402,,,355.43440079999993,355.43440079999993,355.43440079999993,2,10.81499040000017,366.2797472000001,366.2797472000001,366.2797472000001,366.2797472000001,366.2797472000001,366.2797472000001,366.2797472000001,366.2797472000001,None,None,None,337.54630569999995,337.54630569999995,,351.8062563,,,,,,,,,,,,,,,6,001,2024-07-23_09h02.49.305,robot_cogshifting_sign,2022.2.5,59.94186837604167,
"['R_Head_Z_Back', 'R_Head_Y_For', 'L_Head_Z_For', 'R_Arm_Z_Back']","{'laterality': 'L_Head_Z_For', 'localisation': 'R_Arm_Z_Back', 'movement': 'R_Head_Y_For'}",movement,['movement'],R_Head_Y_For,1,1,robot,2,False,True,"['robot_stimuli\\R_Head_Z_Back.mp4', 'robot_stimuli\\R_Head_Y_For.mp4', 'robot_stimuli\\L_Head_Z_For.mp4', 'robot_stimuli\\R_Arm_Z_Back.mp4']",robot_stimuli\R_Head_Y_For.mp4,6,0,0,0,0,0,11,11,11,,,,,,,,,,,,,,,,,,,,,366.2797472000001,366.2797472000001,None,,366.2797472000001,367.2796638000001,367.2796638000001,369.3746622,,,384.18982760000006,384.18982760000006,384.18982760000006,2,3.060540800000126,387.3039758000001,391.6225550999999,387.3039758000001,391.6225550999999,387.3039758000001,391.6225550999999,387.3039758000001,391.6225550999999,34.166666666666664,3.11477119999995,space,366.2797472000001,366.2797472000001,4.264855199999829,380.5549666999999,,,,,,,,,,,,,,,6,001,2024-07-23_09h02.49.305,robot_cogshifting_sign,2022.2.5,59.94186837604167,
"['R_Base_Z_For', 'R_Arm_Y_Back', 'R_Arm_Z_For', 'L_Arm_Z_Back']","{'laterality': 'L_Arm_Z_Back', 'localisation': 'R_Base_Z_For', 'movement': 'R_Arm_Y_Back'}",movement,"['laterality', 'movement']",R_Arm_Y_Back,1,2,robot,2,True,False,"['robot_stimuli\\R_Base_Z_For.mp4', 'robot_stimuli\\R_Arm_Y_Back.mp4', 'robot_stimuli\\R_Arm_Z_For.mp4', 'robot_stimuli\\L_Arm_Z_Back.mp4']",robot_stimuli\R_Arm_Y_Back.mp4,6,0,0,0,0,0,12,12,12,,,,,,,,,,,,,,,,,,,,,391.6225550999999,391.6225550999999,space,4.379272800000081,396.0296138,397.0295861999999,397.0295861999999,399.1127396999999,,,413.89652220000005,413.89652220000005,413.89652220000005,2,5.608599199999844,419.529578,419.529578,419.529578,419.529578,419.529578,419.529578,419.529578,419.529578,None,None,None,,,,410.27290729999993,,,,,,,,,,,,,,,6,001,2024-07-23_09h02.49.305,robot_cogshifting_sign,2022.2.5,59.94186837604167,
"['L_Arm_X_For', 'L_Base_Z_For', 'R_Arm_Z_For', 'L_Arm_Z_Back']","{'laterality': 'R_Arm_Z_For', 'localisation': 'L_Base_Z_For', 'movement': 'L_Arm_X_For'}",localisation,"['localisation', 'movement']",L_Base_Z_For,1,2,robot,2,False,False,"['robot_stimuli\\L_Arm_X_For.mp4', 'robot_stimuli\\L_Base_Z_For.mp4', 'robot_stimuli\\R_Arm_Z_For.mp4', 'robot_stimuli\\L_Arm_Z_Back.mp4']",robot_stimuli\L_Base_Z_For.mp4,6,0,0,0,0,0,13,13,13,,,,,,,,,,,,,,,,,,,,,419.529578,419.529578,None,,419.529578,420.52998489999993,420.52998489999993,422.60886990000006,,,437.4878493,437.4878493,437.4878493,3,5.065840999999864,442.5795862000001,442.5795862000001,442.5795862000001,442.5795862000001,442.5795862000001,442.5795862000001,442.5795862000001,442.5795862000001,None,None,None,419.529578,419.529578,,433.8408725999999,,,,,,,,,,,,,,,6,001,2024-07-23_09h02.49.305,robot_cogshifting_sign,2022.2.5,59.94186837604167,
"['R_Arm_X_Back', 'L_Base_X_For', 'R_Base_Z_Back', 'R_Base_X_For']","{'laterality': 'L_Base_X_For', 'localisation': 'R_Arm_X_Back', 'movement': 'R_Base_Z_Back'}",laterality,"['laterality', 'movement']",L_Base_X_For,1,2,robot,2,False,True,"['robot_stimuli\\R_Arm_X_Back.mp4', 'robot_stimuli\\L_Base_X_For.mp4', 'robot_stimuli\\R_Base_Z_Back.mp4', 'robot_stimuli\\R_Base_X_For.mp4']",robot_stimuli\L_Base_X_For.mp4,6,0,0,0,0,0,14,14,14,,,,,,,,,,,,,,,,,,,,,442.5795862000001,442.5795862000001,None,,442.5795862000001,443.57981469999993,443.57981469999993,445.65791449999995,,,460.23237159999996,460.23237159999996,460.23237159999996,4,13.545212199999924,473.82102539999994,478.7971338000001,473.82102539999994,478.7971338000001,473.82102539999994,478.7971338000001,473.82102539999994,478.7971338000001,33.85802469135802,3.802102300000115,space,442.5795862000001,442.5795862000001,4.924825999999939,456.7050885,,,,,,,,,,,,,,,6,001,2024-07-23_09h02.49.305,robot_cogshifting_sign,2022.2.5,59.94186837604167,
"['L_Base_Y_For', 'L_Head_X_Back', 'L_Base_X_For', 'R_Base_X_Back']","{'laterality': 'R_Base_X_Back', 'localisation': 'L_Head_X_Back', 'movement': 'L_Base_Y_For'}",localisation,"['laterality', 'localisation', 'movement']",L_Head_X_Back,1,3,robot,2,True,False,"['robot_stimuli\\L_Base_Y_For.mp4', 'robot_stimuli\\L_Head_X_Back.mp4', 'robot_stimuli\\L_Base_X_For.mp4', 'robot_stimuli\\R_Base_X_Back.mp4']",robot_stimuli\L_Head_X_Back.mp4,6,0,0,0,0,0,15,15,15,,,,,,,,,,,,,,,,,,,,,478.7971338000001,478.7971338000001,space,2.756704199999831,481.57973720000007,482.5797567999999,482.5797567999999,484.6579186,,,499.2879921,499.2879921,499.2879921,4,1.5932348999999704,500.91302740000003,500.91302740000003,500.91302740000003,500.91302740000003,500.91302740000003,500.91302740000003,500.91302740000003,500.91302740000003,None,None,None,,,,495.6405039,,,,,,,,,,,,,,,6,001,2024-07-23_09h02.49.305,robot_cogshifting_sign,2022.2.5,59.94186837604167,
"['R_Base_X_For', 'R_Head_Z_For', 'L_Head_X_For', 'R_Head_X_For']","{'laterality': 'L_Head_X_For', 'localisation': 'R_Base_X_For', 'movement': 'R_Head_Z_For'}",laterality,"['laterality', 'localisation', 'movement']",L_Head_X_For,2,3,robot,2,False,False,"['robot_stimuli\\R_Base_X_For.mp4', 'robot_stimuli\\R_Head_Z_For.mp4', 'robot_stimuli\\L_Head_X_For.mp4', 'robot_stimuli\\R_Head_X_For.mp4']",robot_stimuli\L_Head_X_For.mp4,6,0,0,0,0,0,16,16,16,,,,,,,,,,,,,,,,,,,,,500.91302740000003,500.91302740000003,None,,500.91302740000003,501.91314019999993,501.91314019999993,503.9891521999999,,,518.6177379,518.6177379,518.6177379,3,6.416096299999936,525.0630606999999,525.0630606999999,525.0630606999999,525.0630606999999,525.0630606999999,525.0630606999999,525.0630606999999,525.0630606999999,None,None,None,500.91302740000003,500.91302740000003,,514.9815679,,,,,,,,,,,,,,,6,001,2024-07-23_09h02.49.305,robot_cogshifting_sign,2022.2.5,59.94186837604167,
"['R_Arm_X_For', 'L_Arm_X_Back', 'R_Head_X_For', 'R_Arm_Z_Back']","{'laterality': 'L_Arm_X_Back', 'localisation': 'R_Head_X_For', 'movement': 'R_Arm_Z_Back'}",movement,"['laterality', 'localisation', 'movement']",R_Arm_Z_Back,3,3,robot,2,False,True,"['robot_stimuli\\R_Arm_X_For.mp4', 'robot_stimuli\\L_Arm_X_Back.mp4', 'robot_stimuli\\R_Head_X_For.mp4', 'robot_stimuli\\R_Arm_Z_Back.mp4']",robot_stimuli\R_Arm_Z_Back.mp4,6,0,0,0,0,0,17,17,17,,,,,,,,,,,,,,,,,,,,,525.0630606999999,525.0630606999999,None,,525.0630606999999,526.0631702,526.0631702,528.1368776999999,,,542.957063,542.957063,542.957063,2,5.675409700000046,548.6869032999999,552.6536144,548.6869032999999,552.6536144,548.6869032999999,552.6536144,548.6869032999999,552.6536144,37.25308641975308,2.805541200000107,space,525.0630606999999,525.0630606999999,3.9060517000000345,539.3085381,,,,,,,,,,,,,,,6,001,2024-07-23_09h02.49.305,robot_cogshifting_sign,2022.2.5,59.94186837604167,
,,,,,,,,,,,,,,0,0,0,0,,,,,,,,,,,,,,,,,,,,,,,,,,,,,,,,,,,,,,,,,,,,,,,,,,,,,,,552.6536144,552.6536144,552.6536144,c,3.2514466999998604,,,,,,,,,,6,001,2024-07-23_09h02.49.305,robot_cogshifting_sign,2022.2.5,59.94186837604167,
"['red_bottom_H_45', 'red_left_X_45', 'blue_left_T_45', 'red_left_J_0']","{'color': 'blue_left_T_45', 'position': 'red_bottom_H_45', 'orientation': 'red_left_J_0'}",orientation,"['color', 'orientation']",red_left_J_0,3,2,letter,1,True,False,"['robot_stimuli\\\\filler.mp4', 'robot_stimuli\\\\filler.mp4', 'robot_stimuli\\\\filler.mp4', 'robot_stimuli\\\\filler.mp4']",robot_stimuli\\filler.mp4,6,,,,,,,,,,,,,0,0,0,0,,,,,,,,,,,,,,,,,,,559.1797946999999,561.2391798,,,570.1323024,570.1323024,570.1323024,4,2.332423800000015,572.4966874,572.4966874,572.4966874,572.4966874,572.4966874,572.4966874,572.4966874,572.4966874,None,None,None,,,,,,,,,,555.9478737999999,555.9478737999999,space,3.2135708000000704,567.9170656,570.1323024,,,,6,001,2024-07-23_09h02.49.305,robot_cogshifting_sign,2022.2.5,59.94186837604167,
"['blue_left_J_0', 'blue_right_Z_0', 'blue_right_S_45', 'red_right_C_0']","{'color': 'red_right_C_0', 'position': 'blue_left_J_0', 'orientation': 'blue_right_S_45'}",orientation,"['color', 'orientation']",blue_right_S_45,2,2,letter,1,False,False,"['robot_stimuli\\\\filler.mp4', 'robot_stimuli\\\\filler.mp4', 'robot_stimuli\\\\filler.mp4', 'robot_stimuli\\\\filler.mp4']",robot_stimuli\\filler.mp4,6,,,,,,,,,,,,,0,1,1,1,,,,,,,,,,,,,,,,,,,572.4966874,574.5570422,,,582.8273628999999,582.8273628999999,582.8273628999999,3,3.036882500000047,585.8967174,585.8967174,585.8967174,585.8967174,585.8967174,585.8967174,585.8967174,585.8967174,None,None,None,,,,,,,,,,572.4966874,572.4966874,None,,580.8089948,582.8273628999999,572.4966874,572.4966874,,6,001,2024-07-23_09h02.49.305,robot_cogshifting_sign,2022.2.5,59.94186837604167,
"['blue_bottom_D_45', 'red_bottom_T_45', 'blue_bottom_V_0', 'blue_left_D_45']","{'color': 'red_bottom_T_45', 'position': 'blue_left_D_45', 'orientation': 'blue_bottom_V_0'}",position,"['orientation', 'position']",blue_left_D_45,3,2,letter,1,False,False,"['robot_stimuli\\\\filler.mp4', 'robot_stimuli\\\\filler.mp4', 'robot_stimuli\\\\filler.mp4', 'robot_stimuli\\\\filler.mp4']",robot_stimuli\\filler.mp4,6,,,,,,,,,,,,,0,2,2,2,,,,,,,,,,,,,,,,,,,585.8967174,587.9557725000001,,,596.4299096999999,596.4299096999999,596.4299096999999,4,2.834566900000027,599.2966221999999,599.2966221999999,599.2966221999999,599.2966221999999,599.2966221999999,599.2966221999999,599.2966221999999,599.2966221999999,None,None,None,,,,,,,,,,585.8967174,585.8967174,None,,594.4056247,596.4299096999999,585.8967174,585.8967174,,6,001,2024-07-23_09h02.49.305,robot_cogshifting_sign,2022.2.5,59.94186837604167,
"['red_bottom_B_0', 'red_right_T_0', 'red_right_J_45', 'blue_right_D_0']","{'color': 'blue_right_D_0', 'position': 'red_bottom_B_0', 'orientation': 'red_right_J_45'}",position,"['orientation', 'position']",red_bottom_B_0,0,2,letter,1,False,False,"['robot_stimuli\\\\filler.mp4', 'robot_stimuli\\\\filler.mp4', 'robot_stimuli\\\\filler.mp4', 'robot_stimuli\\\\filler.mp4']",robot_stimuli\\filler.mp4,6,,,,,,,,,,,,,0,3,3,3,,,,,,,,,,,,,,,,,,,599.2966221999999,601.3555186,,,609.8219069,609.8219069,609.8219069,1,2.8036944999998923,612.6466915,612.6466915,612.6466915,612.6466915,612.6466915,612.6466915,612.6466915,612.6466915,None,None,None,,,,,,,,,,599.2966221999999,599.2966221999999,None,,607.8066455,609.8219069,599.2966221999999,599.2966221999999,,6,001,2024-07-23_09h02.49.305,robot_cogshifting_sign,2022.2.5,59.94186837604167,
"['blue_right_C_0', 'red_left_F_0', 'blue_left_X_0', 'blue_left_M_45']","{'color': 'red_left_F_0', 'position': 'blue_right_C_0', 'orientation': 'blue_left_M_45'}",color,"['color', 'position']",red_left_F_0,1,2,letter,1,False,False,"['robot_stimuli\\\\filler.mp4', 'robot_stimuli\\\\filler.mp4', 'robot_stimuli\\\\filler.mp4', 'robot_stimuli\\\\filler.mp4']",robot_stimuli\\filler.mp4,6,,,,,,,,,,,,,0,4,4,4,,,,,,,,,,,,,,,,,,,612.6466915,614.7016413,,,623.1826809999999,623.1826809999999,623.1826809999999,2,3.0191388000000643,626.2299114000001,626.2299114000001,626.2299114000001,626.2299114000001,626.2299114000001,626.2299114000001,626.2299114000001,626.2299114000001,None,None,None,,,,,,,,,,612.6466915,612.6466915,None,,621.1588734999999,623.1826809999999,612.6466915,612.6466915,,6,001,2024-07-23_09h02.49.305,robot_cogshifting_sign,2022.2.5,59.94186837604167,
"['red_top_T_0', 'blue_top_L_45', 'red_top_W_45', 'red_left_K_45']","{'color': 'blue_top_L_45', 'position': 'red_left_K_45', 'orientation': 'red_top_T_0'}",color,"['color', 'position']",blue_top_L_45,1,2,letter,1,False,False,"['robot_stimuli\\\\filler.mp4', 'robot_stimuli\\\\filler.mp4', 'robot_stimuli\\\\filler.mp4', 'robot_stimuli\\\\filler.mp4']",robot_stimuli\\filler.mp4,6,,,,,,,,,,,,,0,5,5,5,,,,,,,,,,,,,,,,,,,626.2299114000001,628.2858542,,,637.3741494,637.3741494,637.3741494,2,1.890183800000159,639.3006592,639.3006592,639.3006592,639.3006592,639.3006592,639.3006592,639.3006592,639.3006592,None,None,None,,,,,,,,,,626.2299114000001,626.2299114000001,None,,635.1551542999999,637.3741494,626.2299114000001,626.2299114000001,,6,001,2024-07-23_09h02.49.305,robot_cogshifting_sign,2022.2.5,59.94186837604167,
"['red_left_D_0', 'blue_left_M_45', 'blue_right_D_0', 'blue_left_Q_0']","{'color': 'red_left_D_0', 'position': 'blue_right_D_0', 'orientation': 'blue_left_M_45'}",color,"['color', 'orientation']",red_left_D_0,0,2,letter,1,False,False,"['robot_stimuli\\\\filler.mp4', 'robot_stimuli\\\\filler.mp4', 'robot_stimuli\\\\filler.mp4', 'robot_stimuli\\\\filler.mp4']",robot_stimuli\\filler.mp4,6,,,,,,,,,,,,,0,6,6,6,,,,,,,,,,,,,,,,,,,639.3006592,,,,649.8439407,649.8439407,649.8439407,2,1.998004499999979,651.8635234,651.8635234,651.8635234,651.8635234,651.8635234,651.8635234,651.8635234,651.8635234,None,None,None,,,,,,,,,,639.3006592,639.3006592,None,,647.8260988999999,649.8439407,639.3006592,639.3006592,,6,001,2024-07-23_09h02.49.305,robot_cogshifting_sign,2022.2.5,59.94186837604167,
"['red_bottom_R_45', 'blue_left_M_45', 'blue_bottom_P_45', 'blue_bottom_G_0']","{'color': 'red_bottom_R_45', 'position': 'blue_left_M_45', 'orientation': 'blue_bottom_G_0'}",orientation,"['color', 'orientation']",blue_bottom_G_0,3,2,letter,1,False,False,"['robot_stimuli\\\\filler.mp4', 'robot_stimuli\\\\filler.mp4', 'robot_stimuli\\\\filler.mp4', 'robot_stimuli\\\\filler.mp4']",robot_stimuli\\filler.mp4,6,,,,,,,,,,,,,0,7,7,7,,,,,,,,,,,,,,,,,,,651.8635234,653.9204031,,,662.7890283999999,662.7890283999999,662.7890283999999,4,2.3078336999999465,665.1133518,665.1133518,665.1133518,665.1133518,665.1133518,665.1133518,665.1133518,665.1133518,None,None,None,,,,,,,,,,651.8635234,651.8635234,None,,660.5655684,662.7890283999999,651.8635234,651.8635234,,6,001,2024-07-23_09h02.49.305,robot_cogshifting_sign,2022.2.5,59.94186837604167,
"['red_top_F_45', 'red_top_S_0', 'blue_top_R_45', 'red_bottom_K_45']","{'color': 'blue_top_R_45', 'position': 'red_bottom_K_45', 'orientation': 'red_top_S_0'}",position,"['color', 'position']",red_bottom_K_45,3,2,letter,1,False,True,"['robot_stimuli\\\\filler.mp4', 'robot_stimuli\\\\filler.mp4', 'robot_stimuli\\\\filler.mp4', 'robot_stimuli\\\\filler.mp4']",robot_stimuli\\filler.mp4,6,,,,,,,,,,,,,0,8,8,8,,,,,,,,,,,,,,,,,,,665.1133518,667.1739292000001,,,675.8427820999999,675.8427820999999,675.8427820999999,4,2.270000699999855,678.1557626,683.3125985999999,678.1557626,683.3125985999999,678.1557626,683.3125985999999,678.1557626,683.3125985999999,25.370370370370367,4.133772099999987,space,,,5.100574399999914,,,,,,,665.1133518,665.1133518,None,,673.8219659,675.8427820999999,665.1133518,665.1133518,,6,001,2024-07-23_09h02.49.305,robot_cogshifting_sign,2022.2.5,59.94186837604167,
"['red_bottom_C_0', 'blue_left_B_0', 'red_left_L_0', 'red_left_M_45']","{'color': 'blue_left_B_0', 'position': 'red_bottom_C_0', 'orientation': 'red_left_M_45'}",position,"['color', 'orientation', 'position']",red_bottom_C_0,0,3,letter,1,True,False,"['robot_stimuli\\\\filler.mp4', 'robot_stimuli\\\\filler.mp4', 'robot_stimuli\\\\filler.mp4', 'robot_stimuli\\\\filler.mp4']",robot_stimuli\\filler.mp4,6,,,,,,,,,,,,,0,9,9,9,,,,,,,,,,,,,,,,,,,693.4967092999999,695.5509269999999,,,704.0226661,704.0226661,704.0226661,1,3.3467107999999826,707.3967240999999,707.3967240999999,707.3967240999999,707.3967240999999,707.3967240999999,707.3967240999999,707.3967240999999,707.3967240999999,None,None,None,,,,,,,,,,683.3125985999999,683.3125985999999,space,10.161215099999936,702.0088568,704.0226661,,,,6,001,2024-07-23_09h02.49.305,robot_cogshifting_sign,2022.2.5,59.94186837604167,
"['blue_right_M_0', 'blue_bottom_X_45', 'red_right_H_45', 'blue_right_F_45']","{'color': 'red_right_H_45', 'position': 'blue_bottom_X_45', 'orientation': 'blue_right_M_0'}",color,"['color', 'orientation', 'position']",red_right_H_45,2,3,letter,1,False,False,"['robot_stimuli\\\\filler.mp4', 'robot_stimuli\\\\filler.mp4', 'robot_stimuli\\\\filler.mp4', 'robot_stimuli\\\\filler.mp4']",robot_stimuli\\filler.mp4,6,,,,,,,,,,,,,0,10,10,10,,,,,,,,,,,,,,,,,,,707.3967240999999,709.4541238,,,717.7297979000001,717.7297979000001,717.7297979000001,2,4.431377099999963,722.1799606000001,722.1799606000001,722.1799606000001,722.1799606000001,722.1799606000001,722.1799606000001,722.1799606000001,722.1799606000001,None,None,None,,,,,,,,,,707.3967240999999,707.3967240999999,None,,715.7026318,717.7297979000001,707.3967240999999,707.3967240999999,,6,001,2024-07-23_09h02.49.305,robot_cogshifting_sign,2022.2.5,59.94186837604167,
"['red_left_H_45', 'blue_left_G_45', 'red_right_G_45', 'red_left_K_0']","{'color': 'blue_left_G_45', 'position': 'red_right_G_45', 'orientation': 'red_left_K_0'}",position,"['color', 'orientation', 'position']",red_right_G_45,2,3,letter,1,False,False,"['robot_stimuli\\\\filler.mp4', 'robot_stimuli\\\\filler.mp4', 'robot_stimuli\\\\filler.mp4', 'robot_stimuli\\\\filler.mp4']",robot_stimuli\\filler.mp4,6,,,,,,,,,,,,,0,11,11,11,,,,,,,,,,,,,,,,,,,722.1799606000001,724.2377872999999,,,732.7387161,732.7387161,732.7387161,3,3.559308000000101,736.3300184000001,736.3300184000001,736.3300184000001,736.3300184000001,736.3300184000001,736.3300184000001,736.3300184000001,736.3300184000001,None,None,None,,,,,,,,,,722.1799606000001,722.1799606000001,None,,730.7194290000001,732.7387161,722.1799606000001,722.1799606000001,,6,001,2024-07-23_09h02.49.305,robot_cogshifting_sign,2022.2.5,59.94186837604167,
"['blue_right_P_45', 'blue_left_K_45', 'red_right_C_45', 'blue_right_T_0']","{'color': 'red_right_C_45', 'position': 'blue_left_K_45', 'orientation': 'blue_right_T_0'}",orientation,"['color', 'orientation', 'position']",blue_right_T_0,3,3,letter,1,False,False,"['robot_stimuli\\\\filler.mp4', 'robot_stimuli\\\\filler.mp4', 'robot_stimuli\\\\filler.mp4', 'robot_stimuli\\\\filler.mp4']",robot_stimuli\\filler.mp4,6,,,,,,,,,,,,,0,12,12,12,,,,,,,,,,,,,,,,,,,736.3300184000001,738.3869438999999,,,747.0727234,747.0727234,747.0727234,4,2.37558910000007,749.4799340000001,749.4799340000001,749.4799340000001,749.4799340000001,749.4799340000001,749.4799340000001,749.4799340000001,749.4799340000001,None,None,None,,,,,,,,,,736.3300184000001,736.3300184000001,None,,744.8519792000001,747.0727234,736.3300184000001,736.3300184000001,,6,001,2024-07-23_09h02.49.305,robot_cogshifting_sign,2022.2.5,59.94186837604167,
"['blue_right_G_0', 'blue_right_M_45', 'blue_top_V_45', 'red_right_H_45']","{'color': 'red_right_H_45', 'position': 'blue_top_V_45', 'orientation': 'blue_right_G_0'}",orientation,"['color', 'orientation', 'position']",blue_right_G_0,0,3,letter,1,False,False,"['robot_stimuli\\\\filler.mp4', 'robot_stimuli\\\\filler.mp4', 'robot_stimuli\\\\filler.mp4', 'robot_stimuli\\\\filler.mp4']",robot_stimuli\\filler.mp4,6,,,,,,,,,,,,,0,13,13,13,,,,,,,,,,,,,,,,,,,749.4799340000001,751.5503187,,,760.2168430999999,760.2168430999999,760.2168430999999,2,2.8476862999998502,763.0969111,763.0969111,763.0969111,763.0969111,763.0969111,763.0969111,763.0969111,763.0969111,None,None,None,,,,,,,,,,749.4799340000001,749.4799340000001,None,,758.1935844999999,760.2168430999999,749.4799340000001,749.4799340000001,,6,001,2024-07-23_09h02.49.305,robot_cogshifting_sign,2022.2.5,59.94186837604167,
"['red_bottom_T_0', 'blue_bottom_S_45', 'blue_bottom_J_0', 'blue_left_H_0']","{'color': 'red_bottom_T_0', 'position': 'blue_left_H_0', 'orientation': 'blue_bottom_S_45'}",color,"['color', 'orientation', 'position']",red_bottom_T_0,0,3,letter,1,False,False,"['robot_stimuli\\\\filler.mp4', 'robot_stimuli\\\\filler.mp4', 'robot_stimuli\\\\filler.mp4', 'robot_stimuli\\\\filler.mp4']",robot_stimuli\\filler.mp4,6,,,,,,,,,,,,,0,14,14,14,,,,,,,,,,,,,,,,,,,763.0969111,765.154508,,,773.6295845999999,773.6295845999999,773.6295845999999,1,1.8433809000000565,775.4970184,775.4970184,775.4970184,775.4970184,775.4970184,775.4970184,775.4970184,775.4970184,None,None,None,,,,,,,,,,763.0969111,763.0969111,None,,771.6045171,773.6295845999999,763.0969111,763.0969111,,6,001,2024-07-23_09h02.49.305,robot_cogshifting_sign,2022.2.5,59.94186837604167,
"['red_bottom_W_45', 'blue_bottom_P_45', 'red_bottom_H_0', 'red_right_S_45']","{'color': 'blue_bottom_P_45', 'position': 'red_right_S_45', 'orientation': 'red_bottom_H_0'}",position,"['color', 'orientation', 'position']",red_right_S_45,3,3,letter,1,False,False,"['robot_stimuli\\\\filler.mp4', 'robot_stimuli\\\\filler.mp4', 'robot_stimuli\\\\filler.mp4', 'robot_stimuli\\\\filler.mp4']",robot_stimuli\\filler.mp4,6,,,,,,,,,,,,,0,15,15,15,,,,,,,,,,,,,,,,,,,775.4970184,777.5522589999999,,,786.2251786,786.2251786,786.2251786,4,2.112200199999961,788.3633659000001,788.3633659000001,788.3633659000001,788.3633659000001,788.3633659000001,788.3633659000001,788.3633659000001,788.3633659000001,None,None,None,,,,,,,,,,775.4970184,775.4970184,None,,784.2075326999999,786.2251786,775.4970184,775.4970184,,6,001,2024-07-23_09h02.49.305,robot_cogshifting_sign,2022.2.5,59.94186837604167,
"['blue_right_Q_0', 'blue_left_P_0', 'blue_left_G_45', 'red_left_N_0']","{'color': 'red_left_N_0', 'position': 'blue_right_Q_0', 'orientation': 'blue_left_G_45'}",color,"['color', 'orientation', 'position']",red_left_N_0,3,3,letter,1,False,False,"['robot_stimuli\\\\filler.mp4', 'robot_stimuli\\\\filler.mp4', 'robot_stimuli\\\\filler.mp4', 'robot_stimuli\\\\filler.mp4']",robot_stimuli\\filler.mp4,6,,,,,,,,,,,,,0,16,16,16,,,,,,,,,,,,,,,,,,,788.3633659000001,790.4239907,,,799.2885519,799.2885519,799.2885519,4,1.8079376999999113,801.1134183999999,801.1134183999999,801.1134183999999,801.1134183999999,801.1134183999999,801.1134183999999,801.1134183999999,801.1134183999999,None,None,None,,,,,,,,,,788.3633659000001,788.3633659000001,None,,797.0792789000001,799.2885519,788.3633659000001,788.3633659000001,,6,001,2024-07-23_09h02.49.305,robot_cogshifting_sign,2022.2.5,59.94186837604167,
"['red_top_X_45', 'red_top_P_0', 'blue_top_Q_0', 'red_left_K_0']","{'color': 'blue_top_Q_0', 'position': 'red_left_K_0', 'orientation': 'red_top_X_45'}",orientation,"['color', 'orientation', 'position']",red_top_X_45,0,3,letter,1,False,True,"['robot_stimuli\\\\filler.mp4', 'robot_stimuli\\\\filler.mp4', 'robot_stimuli\\\\filler.mp4', 'robot_stimuli\\\\filler.mp4']",robot_stimuli\\filler.mp4,6,,,,,,,,,,,,,0,17,17,17,,,,,,,,,,,,,,,,,,,801.1134183999999,803.1696742,,,811.6506671999999,811.6506671999999,811.6506671999999,1,2.9033227999998417,814.6067972,818.8365233000001,814.6067972,818.8365233000001,814.6067972,818.8365233000001,814.6067972,818.8365233000001,24.44444444444444,3.1983860999998797,space,,,4.170285599999943,,,,,,,801.1134183999999,801.1134183999999,None,,809.6249758,811.6506671999999,801.1134183999999,801.1134183999999,,6,001,2024-07-23_09h02.49.305,robot_cogshifting_sign,2022.2.5,59.94186837604167,
"['red_bottom_N_0', 'blue_bottom_T_0', 'blue_top_R_0', 'blue_bottom_B_45']","{'color': 'red_bottom_N_0', 'position': 'blue_top_R_0', 'orientation': 'blue_bottom_B_45'}",color,['color'],red_bottom_N_0,0,1,letter,1,True,False,"['robot_stimuli\\\\filler.mp4', 'robot_stimuli\\\\filler.mp4', 'robot_stimuli\\\\filler.mp4', 'robot_stimuli\\\\filler.mp4']",robot_stimuli\\filler.mp4,6,,,,,,,,,,,,,0,18,18,18,,,,,,,,,,,,,,,,,,,820.1801714,822.2377762,,,830.9077037999999,830.9077037999999,830.9077037999999,1,3.460563600000114,834.3969367999999,834.3969367999999,834.3969367999999,834.3969367999999,834.3969367999999,834.3969367999999,834.3969367999999,834.3969367999999,None,None,None,,,,,,,,,,818.8365233000001,818.8365233000001,space,1.3247191000000385,828.8934711999999,830.9077037999999,,,,6,001,2024-07-23_09h02.49.305,robot_cogshifting_sign,2022.2.5,59.94186837604167,
"['blue_right_G_45', 'red_left_L_45', 'blue_left_Z_45', 'blue_left_R_0']","{'color': 'red_left_L_45', 'position': 'blue_right_G_45', 'orientation': 'blue_left_R_0'}",orientation,['orientation'],blue_left_R_0,3,1,letter,1,False,False,"['robot_stimuli\\\\filler.mp4', 'robot_stimuli\\\\filler.mp4', 'robot_stimuli\\\\filler.mp4', 'robot_stimuli\\\\filler.mp4']",robot_stimuli\\filler.mp4,6,,,,,,,,,,,,,0,19,19,19,,,,,,,,,,,,,,,,,,,834.3969367999999,836.4580442,,,845.1385378000001,845.1385378000001,845.1385378000001,4,1.237786799999867,846.3963138,846.3963138,846.3963138,846.3963138,846.3963138,846.3963138,846.3963138,846.3963138,None,None,None,,,,,,,,,,834.3969367999999,834.3969367999999,None,,842.9176556000001,845.1385378000001,834.3969367999999,834.3969367999999,,6,001,2024-07-23_09h02.49.305,robot_cogshifting_sign,2022.2.5,59.94186837604167,
"['blue_right_L_45', 'red_right_L_45', 'red_right_H_0', 'red_top_W_45']","{'color': 'blue_right_L_45', 'position': 'red_top_W_45', 'orientation': 'red_right_H_0'}",position,['position'],red_top_W_45,3,1,letter,1,False,False,"['robot_stimuli\\\\filler.mp4', 'robot_stimuli\\\\filler.mp4', 'robot_stimuli\\\\filler.mp4', 'robot_stimuli\\\\filler.mp4']",robot_stimuli\\filler.mp4,6,,,,,,,,,,,,,0,20,20,20,,,,,,,,,,,,,,,,,,,846.3963138,848.4515597999999,,,856.9460372,856.9460372,856.9460372,4,1.0943774999998368,858.0635182,858.0635182,858.0635182,858.0635182,858.0635182,858.0635182,858.0635182,858.0635182,None,None,None,,,,,,,,,,846.3963138,846.3963138,None,,854.9233378,856.9460372,846.3963138,846.3963138,,6,001,2024-07-23_09h02.49.305,robot_cogshifting_sign,2022.2.5,59.94186837604167,
"['blue_right_B_45', 'red_right_T_45', 'blue_right_H_0', 'blue_left_K_45']","{'color': 'red_right_T_45', 'position': 'blue_left_K_45', 'orientation': 'blue_right_H_0'}",orientation,['orientation'],blue_right_H_0,2,1,letter,1,False,False,"['robot_stimuli\\\\filler.mp4', 'robot_stimuli\\\\filler.mp4', 'robot_stimuli\\\\filler.mp4', 'robot_stimuli\\\\filler.mp4']",robot_stimuli\\filler.mp4,6,,,,,,,,,,,,,0,21,21,21,,,,,,,,,,,,,,,,,,,858.0635182,860.1241739000001,,,868.5983596,868.5983596,868.5983596,3,0.5226620000000821,869.1469060999999,869.1469060999999,869.1469060999999,869.1469060999999,869.1469060999999,869.1469060999999,869.1469060999999,869.1469060999999,None,None,None,,,,,,,,,,858.0635182,858.0635182,None,,866.5739795999999,868.5983596,858.0635182,858.0635182,,6,001,2024-07-23_09h02.49.305,robot_cogshifting_sign,2022.2.5,59.94186837604167,
"['blue_left_C_45', 'red_left_Z_45', 'red_bottom_P_45', 'red_left_M_0']","{'color': 'blue_left_C_45', 'position': 'red_bottom_P_45', 'orientation': 'red_left_M_0'}",color,['color'],blue_left_C_45,0,1,letter,1,False,False,"['robot_stimuli\\\\filler.mp4', 'robot_stimuli\\\\filler.mp4', 'robot_stimuli\\\\filler.mp4', 'robot_stimuli\\\\filler.mp4']",robot_stimuli\\filler.mp4,6,,,,,,,,,,,,,0,22,22,22,,,,,,,,,,,,,,,,,,,869.1469060999999,871.2024628,,,879.6851849000001,879.6851849000001,879.6851849000001,1,1.0439110000002074,880.7468491000001,880.7468491000001,880.7468491000001,880.7468491000001,880.7468491000001,880.7468491000001,880.7468491000001,880.7468491000001,None,None,None,,,,,,,,,,869.1469060999999,869.1469060999999,None,,877.659194,879.6851849000001,869.1469060999999,869.1469060999999,,6,001,2024-07-23_09h02.49.305,robot_cogshifting_sign,2022.2.5,59.94186837604167,
"['blue_bottom_P_0', 'red_bottom_T_0', 'blue_right_X_0', 'blue_bottom_K_45']","{'color': 'red_bottom_T_0', 'position': 'blue_right_X_0', 'orientation': 'blue_bottom_K_45'}",position,['position'],blue_right_X_0,2,1,letter,1,False,False,"['robot_stimuli\\\\filler.mp4', 'robot_stimuli\\\\filler.mp4', 'robot_stimuli\\\\filler.mp4', 'robot_stimuli\\\\filler.mp4']",robot_stimuli\\filler.mp4,6,,,,,,,,,,,,,0,23,23,23,,,,,,,,,,,,,,,,,,,880.7468491000001,882.8003694,,,891.5089718,891.5089718,891.5089718,3,1.5960806999999022,893.1301658000001,893.1301658000001,893.1301658000001,893.1301658000001,893.1301658000001,893.1301658000001,893.1301658000001,893.1301658000001,None,None,None,,,,,,,,,,880.7468491000001,880.7468491000001,None,,889.2831014,891.5089718,880.7468491000001,880.7468491000001,,6,001,2024-07-23_09h02.49.305,robot_cogshifting_sign,2022.2.5,59.94186837604167,
"['blue_right_S_45', 'blue_bottom_S_45', 'blue_bottom_K_0', 'red_bottom_G_45']","{'color': 'red_bottom_G_45', 'position': 'blue_right_S_45', 'orientation': 'blue_bottom_K_0'}",color,['color'],red_bottom_G_45,3,1,letter,1,False,False,"['robot_stimuli\\\\filler.mp4', 'robot_stimuli\\\\filler.mp4', 'robot_stimuli\\\\filler.mp4', 'robot_stimuli\\\\filler.mp4']",robot_stimuli\\filler.mp4,6,,,,,,,,,,,,,0,24,24,24,,,,,,,,,,,,,,,,,,,893.1301658000001,895.1851270999999,,,903.6625393999999,903.6625393999999,903.6625393999999,4,2.0507804000001215,905.7300389000001,905.7300389000001,905.7300389000001,905.7300389000001,905.7300389000001,905.7300389000001,905.7300389000001,905.7300389000001,None,None,None,,,,,,,,,,893.1301658000001,893.1301658000001,None,,901.6381361,903.6625393999999,893.1301658000001,893.1301658000001,,6,001,2024-07-23_09h02.49.305,robot_cogshifting_sign,2022.2.5,59.94186837604167,
"['blue_bottom_Z_45', 'blue_left_M_45', 'red_left_R_45', 'blue_left_K_0']","{'color': 'red_left_R_45', 'position': 'blue_bottom_Z_45', 'orientation': 'blue_left_K_0'}",orientation,['orientation'],blue_left_K_0,3,1,letter,1,False,False,"['robot_stimuli\\\\filler.mp4', 'robot_stimuli\\\\filler.mp4', 'robot_stimuli\\\\filler.mp4', 'robot_stimuli\\\\filler.mp4']",robot_stimuli\\filler.mp4,6,,,,,,,,,,,,,0,25,25,25,,,,,,,,,,,,,,,,,,,905.7300389000001,907.7877405,,,916.4706086,916.4706086,916.4706086,4,0.5070911000000251,916.9968250999999,916.9968250999999,916.9968250999999,916.9968250999999,916.9968250999999,916.9968250999999,916.9968250999999,916.9968250999999,None,None,None,,,,,,,,,,905.7300389000001,905.7300389000001,None,,914.4439314,916.4706086,905.7300389000001,905.7300389000001,,6,001,2024-07-23_09h02.49.305,robot_cogshifting_sign,2022.2.5,59.94186837604167,
"['blue_top_F_45', 'red_top_V_45', 'blue_top_R_0', 'blue_right_G_45']","{'color': 'red_top_V_45', 'position': 'blue_right_G_45', 'orientation': 'blue_top_R_0'}",position,['position'],blue_right_G_45,3,1,letter,1,False,True,"['robot_stimuli\\\\filler.mp4', 'robot_stimuli\\\\filler.mp4', 'robot_stimuli\\\\filler.mp4', 'robot_stimuli\\\\filler.mp4']",robot_stimuli\\filler.mp4,6,,,,,,,,,,,,,0,26,26,26,,,,,,,,,,,,,,,,,,,916.9968250999999,919.0511207999999,,,927.7328556000001,927.7328556000001,927.7328556000001,4,0.48437669999998434,928.2717712,932.2628132000001,928.2717712,932.2628132000001,928.2717712,932.2628132000001,928.2717712,932.2628132000001,20.27777777777778,2.8966208000001643,space,,,3.944519899999932,,,,,,,916.9968250999999,916.9968250999999,None,,925.7089697,927.7328556000001,916.9968250999999,916.9968250999999,,6,001,2024-07-23_09h02.49.305,robot_cogshifting_sign,2022.2.5,59.94186837604167,
"['L_Head_Z_For', 'L_Torso_Z_For', 'L_Torso_X_Back', 'R_Torso_Z_For']","{'laterality': 'R_Torso_Z_For', 'localisation': 'L_Head_Z_For', 'movement': 'L_Torso_X_Back'}",localisation,['localisation'],L_Head_Z_For,0,1,robot,2,True,False,"['robot_stimuli\\L_Head_Z_For.mp4', 'robot_stimuli\\L_Torso_Z_For.mp4', 'robot_stimuli\\L_Torso_X_Back.mp4', 'robot_stimuli\\R_Torso_Z_For.mp4']",robot_stimuli\L_Head_Z_For.mp4,6,,,,,,,,,,,,,0,27,27,27,,,,,,,,,,,,,,,,,,,957.8134785000001,959.8945887000001,,,974.7390796000001,974.7390796000001,974.7390796000001,1,2.213140199999998,976.9801318000001,976.9801318000001,976.9801318000001,976.9801318000001,976.9801318000001,976.9801318000001,976.9801318000001,976.9801318000001,None,None,None,,,,,,,,,,932.2628132000001,932.2628132000001,space,25.52125729999989,,,,,971.0926828999999,6,001,2024-07-23_09h02.49.305,robot_cogshifting_sign,2022.2.5,59.94186837604167,
"['R_Base_Z_For', 'R_Arm_Z_Back', 'R_Base_Y_For', 'L_Base_Z_Back']","{'laterality': 'L_Base_Z_Back', 'localisation': 'R_Arm_Z_Back', 'movement': 'R_Base_Y_For'}",laterality,['laterality'],L_Base_Z_Back,3,1,robot,2,False,False,"['robot_stimuli\\R_Base_Z_For.mp4', 'robot_stimuli\\R_Arm_Z_Back.mp4', 'robot_stimuli\\R_Base_Y_For.mp4', 'robot_stimuli\\L_Base_Z_Back.mp4']",robot_stimuli\L_Base_Z_Back.mp4,6,,,,,,,,,,,,,0,28,28,28,,,,,,,,,,,,,,,,,,,976.9801318000001,979.0505723,,,993.8503912,993.8503912,993.8503912,2,2.511094800000137,996.3800567,996.3800567,996.3800567,996.3800567,996.3800567,996.3800567,996.3800567,996.3800567,None,None,None,,,,,,,,,,976.9801318000001,976.9801318000001,None,,,,976.9801318000001,976.9801318000001,990.2236761999999,6,001,2024-07-23_09h02.49.305,robot_cogshifting_sign,2022.2.5,59.94186837604167,
"['R_Arm_X_For', 'R_Head_X_Back', 'R_Arm_Z_For', 'L_Arm_X_Back']","{'laterality': 'L_Arm_X_Back', 'localisation': 'R_Head_X_Back', 'movement': 'R_Arm_Z_For'}",movement,['movement'],R_Arm_Z_For,2,1,robot,2,False,False,"['robot_stimuli\\R_Arm_X_For.mp4', 'robot_stimuli\\R_Head_X_Back.mp4', 'robot_stimuli\\R_Arm_Z_For.mp4', 'robot_stimuli\\L_Arm_X_Back.mp4']",robot_stimuli\R_Arm_Z_For.mp4,6,,,,,,,,,,,,,0,29,29,29,,,,,,,,,,,,,,,,,,,996.3800567,998.4508812,,,1013.2480158,1013.2480158,1013.2480158,3,1.9692357000001266,1015.2470116000001,1015.2470116000001,1015.2470116000001,1015.2470116000001,1015.2470116000001,1015.2470116000001,1015.2470116000001,1015.2470116000001,None,None,None,,,,,,,,,,996.3800567,996.3800567,None,,,,996.3800567,996.3800567,1009.6230899000001,6,001,2024-07-23_09h02.49.305,robot_cogshifting_sign,2022.2.5,59.94186837604167,
"['R_Base_Z_Back', 'R_Head_X_For', 'R_Head_Z_Back', 'L_Head_Z_For']","{'laterality': 'L_Head_Z_For', 'localisation': 'R_Base_Z_Back', 'movement': 'R_Head_X_For'}",localisation,['localisation'],R_Base_Z_Back,0,1,robot,2,False,False,"['robot_stimuli\\R_Base_Z_Back.mp4', 'robot_stimuli\\R_Head_X_For.mp4', 'robot_stimuli\\R_Head_Z_Back.mp4', 'robot_stimuli\\L_Head_Z_For.mp4']",robot_stimuli\R_Base_Z_Back.mp4,6,,,,,,,,,,,,,0,30,30,30,,,,,,,,,,,,,,,,,,,1015.2470116000001,1017.3228266,,,1032.0374468999998,1032.0374468999998,1032.0374468999998,2,3.723907200000099,1035.7802640999998,1035.7802640999998,1035.7802640999998,1035.7802640999998,1035.7802640999998,1035.7802640999998,1035.7802640999998,1035.7802640999998,None,None,None,,,,,,,,,,1015.2470116000001,1015.2470116000001,None,,,,1015.2470116000001,1015.2470116000001,1028.3911159999998,6,001,2024-07-23_09h02.49.305,robot_cogshifting_sign,2022.2.5,59.94186837604167,
"['L_Arm_Y_Back', 'R_Arm_X_Back', 'L_Arm_X_Back', 'L_Base_X_For']","{'laterality': 'R_Arm_X_Back', 'localisation': 'L_Base_X_For', 'movement': 'L_Arm_Y_Back'}",laterality,['laterality'],R_Arm_X_Back,1,1,robot,2,False,False,"['robot_stimuli\\L_Arm_Y_Back.mp4', 'robot_stimuli\\R_Arm_X_Back.mp4', 'robot_stimuli\\L_Arm_X_Back.mp4', 'robot_stimuli\\L_Base_X_For.mp4']",robot_stimuli\R_Arm_X_Back.mp4,6,,,,,,,,,,,,,0,31,31,31,,,,,,,,,,,,,,,,,,,1035.7802640999998,1037.854225,,,1052.5816409,1052.5816409,1052.5816409,2,1.4036116000000902,1054.0136564999998,1054.0136564999998,1054.0136564999998,1054.0136564999998,1054.0136564999998,1054.0136564999998,1054.0136564999998,1054.0136564999998,None,None,None,,,,,,,,,,1035.7802640999998,1035.7802640999998,None,,,,1035.7802640999998,1035.7802640999998,1049.0126833,6,001,2024-07-23_09h02.49.305,robot_cogshifting_sign,2022.2.5,59.94186837604167,
"['L_Torso_Y_Back', 'R_Torso_X_Back', 'R_Torso_Y_Back', 'R_Head_Y_Back']","{'laterality': 'L_Torso_Y_Back', 'localisation': 'R_Head_Y_Back', 'movement': 'R_Torso_X_Back'}",laterality,['laterality'],L_Torso_Y_Back,0,1,robot,2,False,False,"['robot_stimuli\\L_Torso_Y_Back.mp4', 'robot_stimuli\\R_Torso_X_Back.mp4', 'robot_stimuli\\R_Torso_Y_Back.mp4', 'robot_stimuli\\R_Head_Y_Back.mp4']",robot_stimuli\L_Torso_Y_Back.mp4,6,,,,,,,,,,,,,0,32,32,32,,,,,,,,,,,,,,,,,,,1054.0136564999998,1056.0880321999998,,,1070.7506916000002,1070.7506916000002,1070.7506916000002,1,1.5065046999999367,1072.2801872999999,1072.2801872999999,1072.2801872999999,1072.2801872999999,1072.2801872999999,1072.2801872999999,1072.2801872999999,1072.2801872999999,None,None,None,,,,,,,,,,1054.0136564999998,1054.0136564999998,None,,,,1054.0136564999998,1054.0136564999998,1067.1181685000001,6,001,2024-07-23_09h02.49.305,robot_cogshifting_sign,2022.2.5,59.94186837604167,
"['R_Head_Z_Back', 'R_Head_X_For', 'L_Head_X_Back', 'R_Arm_X_For']","{'laterality': 'L_Head_X_Back', 'localisation': 'R_Arm_X_For', 'movement': 'R_Head_Z_Back'}",localisation,['localisation'],R_Arm_X_For,3,1,robot,2,False,False,"['robot_stimuli\\R_Head_Z_Back.mp4', 'robot_stimuli\\R_Head_X_For.mp4', 'robot_stimuli\\L_Head_X_Back.mp4', 'robot_stimuli\\R_Arm_X_For.mp4']",robot_stimuli\R_Arm_X_For.mp4,6,,,,,,,,,,,,,0,33,33,33,,,,,,,,,,,,,,,,,,,1072.2801872999999,1074.3560932999999,,,1089.1580746,1089.1580746,1089.1580746,2,5.8194969000002175,1094.9971062,1094.9971062,1094.9971062,1094.9971062,1094.9971062,1094.9971062,1094.9971062,1094.9971062,None,None,None,,,,,,,,,,1072.2801872999999,1072.2801872999999,None,,,,1072.2801872999999,1072.2801872999999,1085.5237997999998,6,001,2024-07-23_09h02.49.305,robot_cogshifting_sign,2022.2.5,59.94186837604167,
"['L_Torso_Z_For', 'R_Torso_Y_For', 'L_Torso_Y_Back', 'L_Arm_Y_Back']","{'laterality': 'R_Torso_Y_For', 'localisation': 'L_Arm_Y_Back', 'movement': 'L_Torso_Z_For'}",movement,['movement'],L_Torso_Z_For,0,1,robot,2,False,False,"['robot_stimuli\\L_Torso_Z_For.mp4', 'robot_stimuli\\R_Torso_Y_For.mp4', 'robot_stimuli\\L_Torso_Y_Back.mp4', 'robot_stimuli\\L_Arm_Y_Back.mp4']",robot_stimuli\L_Torso_Z_For.mp4,6,,,,,,,,,,,,,0,34,34,34,,,,,,,,,,,,,,,,,,,1094.9971062,1097.0695719,,,1111.743055,1111.743055,1111.743055,1,5.627022799999963,1117.3973442000001,1117.3973442000001,1117.3973442000001,1117.3973442000001,1117.3973442000001,1117.3973442000001,1117.3973442000001,1117.3973442000001,None,None,None,,,,,,,,,,1094.9971062,1094.9971062,None,,,,1094.9971062,1094.9971062,1108.1029742,6,001,2024-07-23_09h02.49.305,robot_cogshifting_sign,2022.2.5,59.94186837604167,
"['R_Arm_Z_For', 'L_Arm_X_For', 'L_Arm_Z_Back', 'L_Head_Z_Back']","{'laterality': 'R_Arm_Z_For', 'localisation': 'L_Head_Z_Back', 'movement': 'L_Arm_X_For'}",movement,['movement'],L_Arm_X_For,1,1,robot,2,False,True,"['robot_stimuli\\R_Arm_Z_For.mp4', 'robot_stimuli\\L_Arm_X_For.mp4', 'robot_stimuli\\L_Arm_Z_Back.mp4', 'robot_stimuli\\L_Head_Z_Back.mp4']",robot_stimuli\L_Arm_X_For.mp4,6,,,,,,,,,,,,,0,35,35,35,,,,,,,,,,,,,,,,,,,1117.3973442000001,1119.4861135,,,1134.2873021999999,1134.2873021999999,1134.2873021999999,2,2.0425136000000066,1136.3716752999999,1140.5528027,1136.3716752999999,1140.5528027,1136.3716752999999,1140.5528027,1136.3716752999999,1140.5528027,31.08024691358024,3.059402599999885,space,,,4.124631199999726,,,,,,,1117.3973442000001,1117.3973442000001,None,,,,1117.3973442000001,1117.3973442000001,1130.6437491000002,6,001,2024-07-23_09h02.49.305,robot_cogshifting_sign,2022.2.5,59.94186837604167,
"['R_Head_Z_Back', 'L_Arm_Z_Back', 'L_Head_Z_Back', 'L_Head_X_For']","{'laterality': 'R_Head_Z_Back', 'localisation': 'L_Arm_Z_Back', 'movement': 'L_Head_X_For'}",localisation,"['laterality', 'localisation', 'movement']",L_Arm_Z_Back,1,3,robot,2,True,False,"['robot_stimuli\\R_Head_Z_Back.mp4', 'robot_stimuli\\L_Arm_Z_Back.mp4', 'robot_stimuli\\L_Head_Z_Back.mp4', 'robot_stimuli\\L_Head_X_For.mp4']",robot_stimuli\L_Arm_Z_Back.mp4,6,,,,,,,,,,,,,0,36,36,36,,,,,,,,,,,,,,,,,,,1145.9971050999998,1148.0751095,,,1162.7822264000001,1162.7822264000001,1162.7822264000001,3,7.274439200000074,1170.0970437,1170.0970437,1170.0970437,1170.0970437,1170.0970437,1170.0970437,1170.0970437,1170.0970437,None,None,None,,,,,,,,,,1140.5528027,1140.5528027,space,5.424694299999942,,,,,1159.2194885,6,001,2024-07-23_09h02.49.305,robot_cogshifting_sign,2022.2.5,59.94186837604167,
"['R_Base_Y_For', 'L_Base_Y_For', 'R_Base_Z_For', 'R_Torso_Y_For']","{'laterality': 'L_Base_Y_For', 'localisation': 'R_Torso_Y_For', 'movement': 'R_Base_Z_For'}",localisation,"['laterality', 'localisation', 'movement']",R_Torso_Y_For,3,3,robot,2,False,False,"['robot_stimuli\\R_Base_Y_For.mp4', 'robot_stimuli\\L_Base_Y_For.mp4', 'robot_stimuli\\R_Base_Z_For.mp4', 'robot_stimuli\\R_Torso_Y_For.mp4']",robot_stimuli\R_Torso_Y_For.mp4,6,,,,,,,,,,,,,0,37,37,37,,,,,,,,,,,,,,,,,,,1170.0970437,1172.1706964999998,,,1186.8870692,1186.8870692,1186.8870692,3,10.12966959999983,1197.0472372,1197.0472372,1197.0472372,1197.0472372,1197.0472372,1197.0472372,1197.0472372,1197.0472372,None,None,None,,,,,,,,,,1170.0970437,1170.0970437,None,,,,1170.0970437,1170.0970437,1183.2412088,6,001,2024-07-23_09h02.49.305,robot_cogshifting_sign,2022.2.5,59.94186837604167,
"['R_Head_X_For', 'R_Torso_X_Back', 'L_Head_X_For', 'R_Head_Y_Back']","{'laterality': 'L_Head_X_For', 'localisation': 'R_Torso_X_Back', 'movement': 'R_Head_Y_Back'}",localisation,"['laterality', 'localisation', 'movement']",R_Torso_X_Back,1,3,robot,2,False,False,"['robot_stimuli\\R_Head_X_For.mp4', 'robot_stimuli\\R_Torso_X_Back.mp4', 'robot_stimuli\\L_Head_X_For.mp4', 'robot_stimuli\\R_Head_Y_Back.mp4']",robot_stimuli\R_Torso_X_Back.mp4,6,,,,,,,,,,,,,0,38,38,38,,,,,,,,,,,,,,,,,,,1197.0472372,1199.136676,,,1213.8499336,1213.8499336,1213.8499336,3,8.646141400000147,1222.5138238999998,1222.5138238999998,1222.5138238999998,1222.5138238999998,1222.5138238999998,1222.5138238999998,1222.5138238999998,1222.5138238999998,None,None,None,,,,,,,,,,1197.0472372,1197.0472372,None,,,,1197.0472372,1197.0472372,1210.2175017999998,6,001,2024-07-23_09h02.49.305,robot_cogshifting_sign,2022.2.5,59.94186837604167,
"['L_Base_Y_For', 'R_Head_Y_Back', 'R_Base_Y_For', 'R_Base_Z_For']","{'laterality': 'L_Base_Y_For', 'localisation': 'R_Head_Y_Back', 'movement': 'R_Base_Z_For'}",laterality,"['laterality', 'localisation', 'movement']",L_Base_Y_For,0,3,robot,2,False,False,"['robot_stimuli\\L_Base_Y_For.mp4', 'robot_stimuli\\R_Head_Y_Back.mp4', 'robot_stimuli\\R_Base_Y_For.mp4', 'robot_stimuli\\R_Base_Z_For.mp4']",robot_stimuli\L_Base_Y_For.mp4,6,,,,,,,,,,,,,0,39,39,39,,,,,,,,,,,,,,,,,,,1222.5138238999998,1224.5873175000002,,,1239.2669385,1239.2669385,1239.2669385,2,2.7656602999999222,1242.0638491,1242.0638491,1242.0638491,1242.0638491,1242.0638491,1242.0638491,1242.0638491,1242.0638491,None,None,None,,,,,,,,,,1222.5138238999998,1222.5138238999998,None,,,,1222.5138238999998,1222.5138238999998,1235.6299296000002,6,001,2024-07-23_09h02.49.305,robot_cogshifting_sign,2022.2.5,59.94186837604167,
"['L_Arm_Y_For', 'L_Torso_Y_For', 'L_Arm_Z_For', 'R_Arm_Y_For']","{'laterality': 'R_Arm_Y_For', 'localisation': 'L_Torso_Y_For', 'movement': 'L_Arm_Z_For'}",movement,"['laterality', 'localisation', 'movement']",L_Arm_Z_For,2,3,robot,2,False,False,"['robot_stimuli\\L_Arm_Y_For.mp4', 'robot_stimuli\\L_Torso_Y_For.mp4', 'robot_stimuli\\L_Arm_Z_For.mp4', 'robot_stimuli\\R_Arm_Y_For.mp4']",robot_stimuli\L_Arm_Z_For.mp4,6,,,,,,,,,,,,,0,40,40,40,,,,,,,,,,,,,,,,,,,1242.0638491,1244.1344589,,,1258.8214428,1258.8214428,1258.8214428,2,4.667852299999936,1263.5136487999998,1263.5136487999998,1263.5136487999998,1263.5136487999998,1263.5136487999998,1263.5136487999998,1263.5136487999998,1263.5136487999998,None,None,None,,,,,,,,,,1242.0638491,1242.0638491,None,,,,1242.0638491,1242.0638491,1255.3090304000002,6,001,2024-07-23_09h02.49.305,robot_cogshifting_sign,2022.2.5,59.94186837604167,
"['R_Base_Z_For', 'R_Head_Z_Back', 'R_Head_X_For', 'L_Head_Z_For']","{'laterality': 'L_Head_Z_For', 'localisation': 'R_Base_Z_For', 'movement': 'R_Head_X_For'}",laterality,"['laterality', 'localisation', 'movement']",L_Head_Z_For,3,3,robot,2,False,False,"['robot_stimuli\\R_Base_Z_For.mp4', 'robot_stimuli\\R_Head_Z_Back.mp4', 'robot_stimuli\\R_Head_X_For.mp4', 'robot_stimuli\\L_Head_Z_For.mp4']",robot_stimuli\L_Head_Z_For.mp4,6,,,,,,,,,,,,,0,41,41,41,,,,,,,,,,,,,,,,,,,1263.5136487999998,1265.5885325999998,,,1280.4065436,1280.4065436,1280.4065436,4,3.250020500000005,1283.6804777000002,1283.6804777000002,1283.6804777000002,1283.6804777000002,1283.6804777000002,1283.6804777000002,1283.6804777000002,1283.6804777000002,None,None,None,,,,,,,,,,1263.5136487999998,1263.5136487999998,None,,,,1263.5136487999998,1263.5136487999998,1276.7701917,6,001,2024-07-23_09h02.49.305,robot_cogshifting_sign,2022.2.5,59.94186837604167,
"['R_Head_X_For', 'R_Arm_Z_Back', 'L_Arm_X_Back', 'R_Arm_X_Back']","{'laterality': 'L_Arm_X_Back', 'localisation': 'R_Head_X_For', 'movement': 'R_Arm_Z_Back'}",movement,"['laterality', 'localisation', 'movement']",R_Arm_Z_Back,1,3,robot,2,False,False,"['robot_stimuli\\R_Head_X_For.mp4', 'robot_stimuli\\R_Arm_Z_Back.mp4', 'robot_stimuli\\L_Arm_X_Back.mp4', 'robot_stimuli\\R_Arm_X_Back.mp4']",robot_stimuli\R_Arm_Z_Back.mp4,6,,,,,,,,,,,,,0,42,42,42,,,,,,,,,,,,,,,,,,,1283.6804777000002,1285.7546441,,,1300.5699647000001,1300.5699647000001,1300.5699647000001,1,5.463319500000239,1306.0637729999999,1306.0637729999999,1306.0637729999999,1306.0637729999999,1306.0637729999999,1306.0637729999999,1306.0637729999999,1306.0637729999999,None,None,None,,,,,,,,,,1283.6804777000002,1283.6804777000002,None,,,,1283.6804777000002,1283.6804777000002,1296.9250869000002,6,001,2024-07-23_09h02.49.305,robot_cogshifting_sign,2022.2.5,59.94186837604167,
"['R_Arm_Z_Back', 'L_Arm_Y_Back', 'L_Arm_Z_Back', 'L_Head_Z_Back']","{'laterality': 'R_Arm_Z_Back', 'localisation': 'L_Head_Z_Back', 'movement': 'L_Arm_Y_Back'}",movement,"['laterality', 'localisation', 'movement']",L_Arm_Y_Back,1,3,robot,2,False,False,"['robot_stimuli\\R_Arm_Z_Back.mp4', 'robot_stimuli\\L_Arm_Y_Back.mp4', 'robot_stimuli\\L_Arm_Z_Back.mp4', 'robot_stimuli\\L_Head_Z_Back.mp4']",robot_stimuli\L_Arm_Y_Back.mp4,6,,,,,,,,,,,,,0,43,43,43,,,,,,,,,,,,,,,,,,,1306.0637729999999,1308.1375939999998,,,1322.9190628000001,1322.9190628000001,1322.9190628000001,4,5.474116300000219,1328.4140468,1328.4140468,1328.4140468,1328.4140468,1328.4140468,1328.4140468,1328.4140468,1328.4140468,None,None,None,,,,,,,,,,1306.0637729999999,1306.0637729999999,None,,,,1306.0637729999999,1306.0637729999999,1319.2857571,6,001,2024-07-23_09h02.49.305,robot_cogshifting_sign,2022.2.5,59.94186837604167,
"['R_Base_Z_Back', 'R_Arm_X_Back', 'R_Arm_Z_For', 'L_Arm_Z_For']","{'laterality': 'L_Arm_Z_For', 'localisation': 'R_Base_Z_Back', 'movement': 'R_Arm_X_Back'}",laterality,"['laterality', 'localisation', 'movement']",L_Arm_Z_For,3,3,robot,2,False,True,"['robot_stimuli\\R_Base_Z_Back.mp4', 'robot_stimuli\\R_Arm_X_Back.mp4', 'robot_stimuli\\R_Arm_Z_For.mp4', 'robot_stimuli\\L_Arm_Z_For.mp4']",robot_stimuli\L_Arm_Z_For.mp4,6,,,,,,,,,,,,,0,44,44,44,,,,,,,,,,,,,,,,,,,1328.4140468,1330.4882240000002,,,1345.2053044,1345.2053044,1345.2053044,1,3.8034189000001106,1349.0552103,1354.2738964999999,1349.0552103,1354.2738964999999,1349.0552103,1354.2738964999999,1349.0552103,1354.2738964999999,50.06172839506173,4.1325621000000865,space,,,5.161263300000087,,,,,,,1328.4140468,1328.4140468,None,,,,1328.4140468,1328.4140468,1341.5578996,6,001,2024-07-23_09h02.49.305,robot_cogshifting_sign,2022.2.5,59.94186837604167,
"['R_Arm_Z_Back', 'R_Arm_Y_For', 'R_Base_Y_For', 'L_Arm_Y_For']","{'laterality': 'L_Arm_Y_For', 'localisation': 'R_Base_Y_For', 'movement': 'R_Arm_Z_Back'}",laterality,"['laterality', 'localisation']",L_Arm_Y_For,3,2,robot,2,True,False,"['robot_stimuli\\R_Arm_Z_Back.mp4', 'robot_stimuli\\R_Arm_Y_For.mp4', 'robot_stimuli\\R_Base_Y_For.mp4', 'robot_stimuli\\L_Arm_Y_For.mp4']",robot_stimuli\L_Arm_Y_For.mp4,6,,,,,,,,,,,,,0,45,45,45,,,,,,,,,,,,,,,,,,,1359.3972828,1361.4733870999999,,,1376.1171966000002,1376.1171966000002,1376.1171966000002,3,3.2125692000000754,1379.3473388000002,1379.3473388000002,1379.3473388000002,1379.3473388000002,1379.3473388000002,1379.3473388000002,1379.3473388000002,1379.3473388000002,None,None,None,,,,,,,,,,1354.2738964999999,1354.2738964999999,space,5.102696800000217,,,,,1372.4845095,6,001,2024-07-23_09h02.49.305,robot_cogshifting_sign,2022.2.5,59.94186837604167,
"['R_Head_X_Back', 'R_Base_Z_Back', 'R_Head_Z_Back', 'L_Head_Z_For']","{'laterality': 'L_Head_Z_For', 'localisation': 'R_Base_Z_Back', 'movement': 'R_Head_X_Back'}",movement,"['localisation', 'movement']",R_Head_X_Back,0,2,robot,2,False,False,"['robot_stimuli\\R_Head_X_Back.mp4', 'robot_stimuli\\R_Base_Z_Back.mp4', 'robot_stimuli\\R_Head_Z_Back.mp4', 'robot_stimuli\\L_Head_Z_For.mp4']",robot_stimuli\R_Head_X_Back.mp4,6,,,,,,,,,,,,,0,46,46,46,,,,,,,,,,,,,,,,,,,1379.3473388000002,1381.4206698000003,,,1396.1031445000003,1396.1031445000003,1396.1031445000003,1,2.2899141000003738,1398.4142539,1398.4142539,1398.4142539,1398.4142539,1398.4142539,1398.4142539,1398.4142539,1398.4142539,None,None,None,,,,,,,,,,1379.3473388000002,1379.3473388000002,None,,,,1379.3473388000002,1379.3473388000002,1392.4668637,6,001,2024-07-23_09h02.49.305,robot_cogshifting_sign,2022.2.5,59.94186837604167,
"['L_Base_Z_Back', 'R_Base_Z_Back', 'L_Base_X_For', 'L_Head_Z_For']","{'laterality': 'R_Base_Z_Back', 'localisation': 'L_Head_Z_For', 'movement': 'L_Base_X_For'}",localisation,"['localisation', 'movement']",L_Head_Z_For,3,2,robot,2,False,False,"['robot_stimuli\\L_Base_Z_Back.mp4', 'robot_stimuli\\R_Base_Z_Back.mp4', 'robot_stimuli\\L_Base_X_For.mp4', 'robot_stimuli\\L_Head_Z_For.mp4']",robot_stimuli\L_Head_Z_For.mp4,6,,,,,,,,,,,,,0,47,47,47,,,,,,,,,,,,,,,,,,,1398.4142539,1400.4902791,,,1415.1250644000002,1415.1250644000002,1415.1250644000002,2,10.22784120000017,1425.3805859,1425.3805859,1425.3805859,1425.3805859,1425.3805859,1425.3805859,1425.3805859,1425.3805859,None,None,None,,,,,,,,,,1398.4142539,1398.4142539,None,,,,1398.4142539,1398.4142539,1411.4894560000002,6,001,2024-07-23_09h02.49.305,robot_cogshifting_sign,2022.2.5,59.94186837604167,
"['L_Base_X_Back', 'L_Torso_Y_Back', 'L_Torso_X_Back', 'R_Torso_X_For']","{'laterality': 'R_Torso_X_For', 'localisation': 'L_Base_X_Back', 'movement': 'L_Torso_Y_Back'}",laterality,"['laterality', 'localisation']",R_Torso_X_For,3,2,robot,2,False,False,"['robot_stimuli\\L_Base_X_Back.mp4', 'robot_stimuli\\L_Torso_Y_Back.mp4', 'robot_stimuli\\L_Torso_X_Back.mp4', 'robot_stimuli\\R_Torso_X_For.mp4']",robot_stimuli\R_Torso_X_For.mp4,6,,,,,,,,,,,,,0,48,48,48,,,,,,,,,,,,,,,,,,,1425.3805859,1427.4770760000001,,,1442.1032531,1442.1032531,1442.1032531,4,3.306259999999952,1445.4305368,1445.4305368,1445.4305368,1445.4305368,1445.4305368,1445.4305368,1445.4305368,1445.4305368,None,None,None,,,,,,,,,,1425.3805859,1425.3805859,None,,,,1425.3805859,1425.3805859,1438.4733844000002,6,001,2024-07-23_09h02.49.305,robot_cogshifting_sign,2022.2.5,59.94186837604167,
"['R_Head_Y_For', 'L_Head_Y_Back', 'L_Torso_Y_For', 'L_Head_Z_Back']","{'laterality': 'R_Head_Y_For', 'localisation': 'L_Torso_Y_For', 'movement': 'L_Head_Z_Back'}",movement,"['laterality', 'movement']",L_Head_Z_Back,3,2,robot,2,False,False,"['robot_stimuli\\R_Head_Y_For.mp4', 'robot_stimuli\\L_Head_Y_Back.mp4', 'robot_stimuli\\L_Torso_Y_For.mp4', 'robot_stimuli\\L_Head_Z_Back.mp4']",robot_stimuli\L_Head_Z_Back.mp4,6,,,,,,,,,,,,,0,49,49,49,,,,,,,,,,,,,,,,,,,1445.4305368,1447.5209652000003,,,1462.3241131,1462.3241131,1462.3241131,3,4.741423199999758,1467.0973781000002,1467.0973781000002,1467.0973781000002,1467.0973781000002,1467.0973781000002,1467.0973781000002,1467.0973781000002,1467.0973781000002,None,None,None,,,,,,,,,,1445.4305368,1445.4305368,None,,,,1445.4305368,1445.4305368,1458.6878199000002,6,001,2024-07-23_09h02.49.305,robot_cogshifting_sign,2022.2.5,59.94186837604167,
"['L_Arm_Z_Back', 'R_Arm_X_Back', 'L_Arm_X_Back', 'L_Torso_X_For']","{'laterality': 'R_Arm_X_Back', 'localisation': 'L_Torso_X_For', 'movement': 'L_Arm_Z_Back'}",laterality,"['laterality', 'localisation']",R_Arm_X_Back,1,2,robot,2,False,False,"['robot_stimuli\\L_Arm_Z_Back.mp4', 'robot_stimuli\\R_Arm_X_Back.mp4', 'robot_stimuli\\L_Arm_X_Back.mp4', 'robot_stimuli\\L_Torso_X_For.mp4']",robot_stimuli\R_Arm_X_Back.mp4,6,,,,,,,,,,,,,0,50,50,50,,,,,,,,,,,,,,,,,,,1467.0973781000002,1469.1715609000003,,,1483.955583,1483.955583,1483.955583,2,2.7650890000001027,1486.7473704,1486.7473704,1486.7473704,1486.7473704,1486.7473704,1486.7473704,1486.7473704,1486.7473704,None,None,None,,,,,,,,,,1467.0973781000002,1467.0973781000002,None,,,,1467.0973781000002,1467.0973781000002,1480.3207565000002,6,001,2024-07-23_09h02.49.305,robot_cogshifting_sign,2022.2.5,59.94186837604167,
"['R_Head_Y_For', 'L_Head_Y_Back', 'R_Torso_Y_Back', 'R_Head_X_Back']","{'laterality': 'L_Head_Y_Back', 'localisation': 'R_Torso_Y_Back', 'movement': 'R_Head_X_Back'}",movement,"['laterality', 'movement']",R_Head_X_Back,3,2,robot,2,False,False,"['robot_stimuli\\R_Head_Y_For.mp4', 'robot_stimuli\\L_Head_Y_Back.mp4', 'robot_stimuli\\R_Torso_Y_Back.mp4', 'robot_stimuli\\R_Head_X_Back.mp4']",robot_stimuli\R_Head_X_Back.mp4,6,,,,,,,,,,,,,0,51,51,51,,,,,,,,,,,,,,,,,,,1486.7473704,1488.8227428,,,1503.5998108,1503.5998108,1503.5998108,4,4.738146600000277,1508.3641159,1508.3641159,1508.3641159,1508.3641159,1508.3641159,1508.3641159,1508.3641159,1508.3641159,None,None,None,,,,,,,,,,1486.7473704,1486.7473704,None,,,,1486.7473704,1486.7473704,1499.9735004,6,001,2024-07-23_09h02.49.305,robot_cogshifting_sign,2022.2.5,59.94186837604167,
"['R_Head_Y_For', 'L_Head_X_Back', 'R_Head_X_Back', 'R_Torso_X_Back']","{'laterality': 'L_Head_X_Back', 'localisation': 'R_Torso_X_Back', 'movement': 'R_Head_Y_For'}",localisation,"['localisation', 'movement']",R_Torso_X_Back,3,2,robot,2,False,False,"['robot_stimuli\\R_Head_Y_For.mp4', 'robot_stimuli\\L_Head_X_Back.mp4', 'robot_stimuli\\R_Head_X_Back.mp4', 'robot_stimuli\\R_Torso_X_Back.mp4']",robot_stimuli\R_Torso_X_Back.mp4,6,,,,,,,,,,,,,0,52,52,52,,,,,,,,,,,,,,,,,,,1508.3641159,1510.4387376,,,1525.2410242,1525.2410242,1525.2410242,3,3.217078200000401,1528.4809032000003,1528.4809032000003,1528.4809032000003,1528.4809032000003,1528.4809032000003,1528.4809032000003,1528.4809032000003,1528.4809032000003,None,None,None,,,,,,,,,,1508.3641159,1508.3641159,None,,,,1508.3641159,1508.3641159,1521.6013398,6,001,2024-07-23_09h02.49.305,robot_cogshifting_sign,2022.2.5,59.94186837604167,
"['R_Arm_Z_Back', 'R_Arm_X_Back', 'L_Arm_X_Back', 'R_Head_X_Back']","{'laterality': 'L_Arm_X_Back', 'localisation': 'R_Head_X_Back', 'movement': 'R_Arm_Z_Back'}",localisation,"['laterality', 'localisation']",R_Head_X_Back,3,2,robot,2,False,True,"['robot_stimuli\\R_Arm_Z_Back.mp4', 'robot_stimuli\\R_Arm_X_Back.mp4', 'robot_stimuli\\L_Arm_X_Back.mp4', 'robot_stimuli\\R_Head_X_Back.mp4']",robot_stimuli\R_Head_X_Back.mp4,6,,,,,,,,,,,,,0,53,53,53,,,,,,,,,,,,,,,,,,,1528.4809032000003,1530.5548337,,,1545.3317024000003,1545.3317024000003,1545.3317024000003,4,3.9499455000001262,1549.3377261,1555.5576879,1549.3377261,1555.5576879,1549.3377261,1555.5576879,1549.3377261,1555.5576879,37.25308641975308,5.155451900000116,space,,,6.150430600000277,,,,,,,1528.4809032000003,1528.4809032000003,None,,,,1528.4809032000003,1528.4809032000003,1541.6995979000003,6,001,2024-07-23_09h02.49.305,robot_cogshifting_sign,2022.2.5,59.94186837604167,
"['red_right_P_0', 'red_left_P_0', 'red_left_V_45', 'blue_left_T_0']","{'color': 'blue_left_T_0', 'position': 'red_right_P_0', 'orientation': 'red_left_V_45'}",orientation,"['color', 'orientation', 'position']",red_left_V_45,2,3,letter,3,True,False,"['robot_stimuli\\\\filler.mp4', 'robot_stimuli\\\\filler.mp4', 'robot_stimuli\\\\filler.mp4', 'robot_stimuli\\\\filler.mp4']",robot_stimuli\\filler.mp4,6,,,,,,,,,,,,,0,54,54,54,,,,,,,,,,,,,,,,,,,1574.3642435000002,1576.4180409,,,1584.8917827,1584.8917827,1584.8917827,3,2.5964086000004727,1587.5142377000002,1587.5142377000002,1587.5142377000002,1587.5142377000002,1587.5142377000002,1587.5142377000002,1587.5142377000002,1587.5142377000002,None,None,None,,,,,,,,,,1555.5576879,1555.5576879,space,18.786722400000258,1582.8758966,1584.8917827,,,,6,001,2024-07-23_09h02.49.305,robot_cogshifting_sign,2022.2.5,59.94186837604167,
"['blue_top_T_45', 'red_top_X_45', 'red_left_B_45', 'red_top_Z_0']","{'color': 'blue_top_T_45', 'position': 'red_left_B_45', 'orientation': 'red_top_Z_0'}",color,"['color', 'orientation', 'position']",blue_top_T_45,0,3,letter,3,False,False,"['robot_stimuli\\\\filler.mp4', 'robot_stimuli\\\\filler.mp4', 'robot_stimuli\\\\filler.mp4', 'robot_stimuli\\\\filler.mp4']",robot_stimuli\\filler.mp4,6,,,,,,,,,,,,,0,55,55,55,,,,,,,,,,,,,,,,,,,1587.5142377000002,1589.5750271000002,,,1597.8523711000003,1597.8523711000003,1597.8523711000003,1,3.269260000000145,1601.1474679000003,1601.1474679000003,1601.1474679000003,1601.1474679000003,1601.1474679000003,1601.1474679000003,1601.1474679000003,1601.1474679000003,None,None,None,,,,,,,,,,1587.5142377000002,1587.5142377000002,None,,1595.8277597000001,1597.8523711000003,1587.5142377000002,1587.5142377000002,,6,001,2024-07-23_09h02.49.305,robot_cogshifting_sign,2022.2.5,59.94186837604167,
"['red_bottom_H_45', 'red_bottom_T_0', 'red_right_S_0', 'blue_bottom_P_0']","{'color': 'blue_bottom_P_0', 'position': 'red_right_S_0', 'orientation': 'red_bottom_H_45'}",position,"['color', 'orientation', 'position']",red_right_S_0,2,3,letter,3,False,False,"['robot_stimuli\\\\filler.mp4', 'robot_stimuli\\\\filler.mp4', 'robot_stimuli\\\\filler.mp4', 'robot_stimuli\\\\filler.mp4']",robot_stimuli\\filler.mp4,6,,,,,,,,,,,,,0,56,56,56,,,,,,,,,,,,,,,,,,,1601.1474679000003,1603.2071428,,,1611.6755123000003,1611.6755123000003,1611.6755123000003,3,2.9645275999997693,1614.6642677,1614.6642677,1614.6642677,1614.6642677,1614.6642677,1614.6642677,1614.6642677,1614.6642677,None,None,None,,,,,,,,,,1601.1474679000003,1601.1474679000003,None,,1609.6559299,1611.6755123000003,1601.1474679000003,1601.1474679000003,,6,001,2024-07-23_09h02.49.305,robot_cogshifting_sign,2022.2.5,59.94186837604167,
"['blue_top_W_45', 'red_bottom_Q_45', 'red_top_N_0', 'red_top_F_45']","{'color': 'blue_top_W_45', 'position': 'red_bottom_Q_45', 'orientation': 'red_top_N_0'}",position,"['color', 'orientation', 'position']",red_bottom_Q_45,1,3,letter,3,False,False,"['robot_stimuli\\\\filler.mp4', 'robot_stimuli\\\\filler.mp4', 'robot_stimuli\\\\filler.mp4', 'robot_stimuli\\\\filler.mp4']",robot_stimuli\\filler.mp4,6,,,,,,,,,,,,,0,57,57,57,,,,,,,,,,,,,,,,,,,1614.6642677,1616.7214561,,,1625.3893655000002,1625.3893655000002,1625.3893655000002,2,2.6759403000002067,1628.0974528000002,1628.0974528000002,1628.0974528000002,1628.0974528000002,1628.0974528000002,1628.0974528000002,1628.0974528000002,1628.0974528000002,None,None,None,,,,,,,,,,1614.6642677,1614.6642677,None,,1623.3675837,1625.3893655000002,1614.6642677,1614.6642677,,6,001,2024-07-23_09h02.49.305,robot_cogshifting_sign,2022.2.5,59.94186837604167,
"['blue_bottom_G_0', 'blue_left_T_45', 'red_bottom_S_45', 'blue_bottom_C_45']","{'color': 'red_bottom_S_45', 'position': 'blue_left_T_45', 'orientation': 'blue_bottom_G_0'}",orientation,"['color', 'orientation', 'position']",blue_bottom_G_0,0,3,letter,3,False,False,"['robot_stimuli\\\\filler.mp4', 'robot_stimuli\\\\filler.mp4', 'robot_stimuli\\\\filler.mp4', 'robot_stimuli\\\\filler.mp4']",robot_stimuli\\filler.mp4,6,,,,,,,,,,,,,0,58,58,58,,,,,,,,,,,,,,,,,,,1628.0974528000002,1630.1540673,,,1638.8243080000002,1638.8243080000002,1638.8243080000002,2,2.6726972000002434,1641.5141582,1641.5141582,1641.5141582,1641.5141582,1641.5141582,1641.5141582,1641.5141582,1641.5141582,None,None,None,,,,,,,,,,1628.0974528000002,1628.0974528000002,None,,1636.6019907,1638.8243080000002,1628.0974528000002,1628.0974528000002,,6,001,2024-07-23_09h02.49.305,robot_cogshifting_sign,2022.2.5,59.94186837604167,
"['red_top_Z_0', 'red_left_K_0', 'red_top_C_45', 'blue_top_S_0']","{'color': 'blue_top_S_0', 'position': 'red_left_K_0', 'orientation': 'red_top_C_45'}",orientation,"['color', 'orientation', 'position']",red_top_C_45,2,3,letter,3,False,False,"['robot_stimuli\\\\filler.mp4', 'robot_stimuli\\\\filler.mp4', 'robot_stimuli\\\\filler.mp4', 'robot_stimuli\\\\filler.mp4']",robot_stimuli\\filler.mp4,6,,,,,,,,,,,,,0,59,59,59,,,,,,,,,,,,,,,,,,,1641.5141582,1643.5692294,,,1652.2442662000003,1652.2442662000003,1652.2442662000003,2,4.20452570000009,1656.4807465,1656.4807465,1656.4807465,1656.4807465,1656.4807465,1656.4807465,1656.4807465,1656.4807465,None,None,None,,,,,,,,,,1641.5141582,1641.5141582,None,,1650.2257306000001,1652.2442662000003,1641.5141582,1641.5141582,,6,001,2024-07-23_09h02.49.305,robot_cogshifting_sign,2022.2.5,59.94186837604167,
"['blue_right_P_0', 'red_right_Q_45', 'red_right_V_0', 'red_bottom_K_0']","{'color': 'blue_right_P_0', 'position': 'red_bottom_K_0', 'orientation': 'red_right_Q_45'}",color,"['color', 'orientation', 'position']",blue_right_P_0,0,3,letter,3,False,False,"['robot_stimuli\\\\filler.mp4', 'robot_stimuli\\\\filler.mp4', 'robot_stimuli\\\\filler.mp4', 'robot_stimuli\\\\filler.mp4']",robot_stimuli\\filler.mp4,6,,,,,,,,,,,,,0,60,60,60,,,,,,,,,,,,,,,,,,,1656.4807465,1658.5344041000003,,,1667.2472183,1667.2472183,1667.2472183,1,4.737537799999814,1672.0142249,1672.0142249,1672.0142249,1672.0142249,1672.0142249,1672.0142249,1672.0142249,1672.0142249,None,None,None,,,,,,,,,,1656.4807465,1656.4807465,None,,1665.2245737000003,1667.2472183,1656.4807465,1656.4807465,,6,001,2024-07-23_09h02.49.305,robot_cogshifting_sign,2022.2.5,59.94186837604167,
"['blue_top_D_0', 'red_top_Z_0', 'blue_bottom_X_0', 'blue_top_B_45']","{'color': 'red_top_Z_0', 'position': 'blue_bottom_X_0', 'orientation': 'blue_top_B_45'}",position,"['color', 'orientation', 'position']",blue_bottom_X_0,2,3,letter,3,False,False,"['robot_stimuli\\\\filler.mp4', 'robot_stimuli\\\\filler.mp4', 'robot_stimuli\\\\filler.mp4', 'robot_stimuli\\\\filler.mp4']",robot_stimuli\\filler.mp4,6,,,,,,,,,,,,,0,61,61,61,,,,,,,,,,,,,,,,,,,1672.0142249,1674.0731016,,,1682.7554476,1682.7554476,1682.7554476,3,6.965080800000237,1689.7475318000002,1689.7475318000002,1689.7475318000002,1689.7475318000002,1689.7475318000002,1689.7475318000002,1689.7475318000002,1689.7475318000002,None,None,None,,,,,,,,,,1672.0142249,1672.0142249,None,,1680.5346236,1682.7554476,1672.0142249,1672.0142249,,6,001,2024-07-23_09h02.49.305,robot_cogshifting_sign,2022.2.5,59.94186837604167,
"['blue_left_W_0', 'red_left_X_0', 'blue_left_T_45', 'blue_top_Z_0']","{'color': 'red_left_X_0', 'position': 'blue_top_Z_0', 'orientation': 'blue_left_T_45'}",color,"['color', 'orientation', 'position']",red_left_X_0,1,3,letter,3,False,True,"['robot_stimuli\\\\filler.mp4', 'robot_stimuli\\\\filler.mp4', 'robot_stimuli\\\\filler.mp4', 'robot_stimuli\\\\filler.mp4']",robot_stimuli\\filler.mp4,6,,,,,,,,,,,,,0,62,62,62,,,,,,,,,,,,,,,,,,,1689.7475318000002,1691.8049866000001,,,1700.2814612000002,1700.2814612000002,1700.2814612000002,2,2.007842800000276,1702.3406001000003,1706.8783747000002,1702.3406001000003,1706.8783747000002,1702.3406001000003,1706.8783747000002,1702.3406001000003,1706.8783747000002,36.327160493827165,3.2046063000002505,space,,,4.492273500000124,,,,,,,1689.7475318000002,1689.7475318000002,None,,1698.2616049000003,1700.2814612000002,1689.7475318000002,1689.7475318000002,,6,001,2024-07-23_09h02.49.305,robot_cogshifting_sign,2022.2.5,59.94186837604167,
"['blue_left_R_0', 'blue_left_B_45', 'blue_top_F_0', 'red_left_D_0']","{'color': 'red_left_D_0', 'position': 'blue_top_F_0', 'orientation': 'blue_left_B_45'}",color,"['color', 'orientation']",red_left_D_0,3,2,letter,3,True,False,"['robot_stimuli\\\\filler.mp4', 'robot_stimuli\\\\filler.mp4', 'robot_stimuli\\\\filler.mp4', 'robot_stimuli\\\\filler.mp4']",robot_stimuli\\filler.mp4,6,,,,,,,,,,,,,0,63,63,63,,,,,,,,,,,,,,,,,,,1710.2477272,1712.3028387,,,1720.9707780000003,1720.9707780000003,1720.9707780000003,4,4.317330500000139,1725.3141863,1725.3141863,1725.3141863,1725.3141863,1725.3141863,1725.3141863,1725.3141863,1725.3141863,None,None,None,,,,,,,,,,1706.8783747000002,1706.8783747000002,space,3.3379452000000356,1718.9517647000002,1720.9707780000003,,,,6,001,2024-07-23_09h02.49.305,robot_cogshifting_sign,2022.2.5,59.94186837604167,
"['blue_top_X_0', 'blue_top_T_45', 'blue_bottom_C_45', 'red_top_X_45']","{'color': 'red_top_X_45', 'position': 'blue_bottom_C_45', 'orientation': 'blue_top_X_0'}",orientation,"['color', 'orientation']",blue_top_X_0,0,2,letter,3,False,False,"['robot_stimuli\\\\filler.mp4', 'robot_stimuli\\\\filler.mp4', 'robot_stimuli\\\\filler.mp4', 'robot_stimuli\\\\filler.mp4']",robot_stimuli\\filler.mp4,6,,,,,,,,,,,,,0,64,64,64,,,,,,,,,,,,,,,,,,,1725.3141863,1727.3770480000003,,,1735.8411896000002,1735.8411896000002,1735.8411896000002,1,3.7034251999999697,1739.5642061000003,1739.5642061000003,1739.5642061000003,1739.5642061000003,1739.5642061000003,1739.5642061000003,1739.5642061000003,1739.5642061000003,None,None,None,,,,,,,,,,1725.3141863,1725.3141863,None,,1733.6226882,1735.8411896000002,1725.3141863,1725.3141863,,6,001,2024-07-23_09h02.49.305,robot_cogshifting_sign,2022.2.5,59.94186837604167,
"['red_left_B_45', 'blue_top_C_45', 'red_top_R_0', 'red_top_V_45']","{'color': 'blue_top_C_45', 'position': 'red_left_B_45', 'orientation': 'red_top_R_0'}",color,"['color', 'orientation']",blue_top_C_45,1,2,letter,3,False,False,"['robot_stimuli\\\\filler.mp4', 'robot_stimuli\\\\filler.mp4', 'robot_stimuli\\\\filler.mp4', 'robot_stimuli\\\\filler.mp4']",robot_stimuli\\filler.mp4,6,,,,,,,,,,,,,0,65,65,65,,,,,,,,,,,,,,,,,,,1739.5642061000003,1741.6202164000001,,,1750.3099163000002,1750.3099163000002,1750.3099163000002,2,1.7869525000002113,1752.1154726,1752.1154726,1752.1154726,1752.1154726,1752.1154726,1752.1154726,1752.1154726,1752.1154726,None,None,None,,,,,,,,,,1739.5642061000003,1739.5642061000003,None,,1748.2873284000002,1750.3099163000002,1739.5642061000003,1739.5642061000003,,6,001,2024-07-23_09h02.49.305,robot_cogshifting_sign,2022.2.5,59.94186837604167,
"['red_right_L_0', 'blue_right_G_45', 'blue_bottom_B_0', 'blue_right_V_0']","{'color': 'red_right_L_0', 'position': 'blue_bottom_B_0', 'orientation': 'blue_right_G_45'}",position,"['color', 'position']",blue_bottom_B_0,2,2,letter,3,False,False,"['robot_stimuli\\\\filler.mp4', 'robot_stimuli\\\\filler.mp4', 'robot_stimuli\\\\filler.mp4', 'robot_stimuli\\\\filler.mp4']",robot_stimuli\\filler.mp4,6,,,,,,,,,,,,,0,66,66,66,,,,,,,,,,,,,,,,,,,1752.1154726,,,,1763.0498449000002,1763.0498449000002,1763.0498449000002,3,3.5440140000001747,1766.6142249,1766.6142249,1766.6142249,1766.6142249,1766.6142249,1766.6142249,1766.6142249,1766.6142249,None,None,None,,,,,,,,,,1752.1154726,1752.1154726,None,,1760.8336911000001,1763.0498449000002,1752.1154726,1752.1154726,,6,001,2024-07-23_09h02.49.305,robot_cogshifting_sign,2022.2.5,59.94186837604167,
"['red_left_Q_0', 'red_top_R_0', 'blue_left_N_0', 'red_left_M_45']","{'color': 'blue_left_N_0', 'position': 'red_top_R_0', 'orientation': 'red_left_M_45'}",position,"['color', 'position']",red_top_R_0,1,2,letter,3,False,False,"['robot_stimuli\\\\filler.mp4', 'robot_stimuli\\\\filler.mp4', 'robot_stimuli\\\\filler.mp4', 'robot_stimuli\\\\filler.mp4']",robot_stimuli\\filler.mp4,6,,,,,,,,,,,,,0,67,67,67,,,,,,,,,,,,,,,,,,,1766.6142249,1768.6756394,,,1776.9447522,1776.9447522,1776.9447522,2,4.5769113000002335,1781.5475698,1781.5475698,1781.5475698,1781.5475698,1781.5475698,1781.5475698,1781.5475698,1781.5475698,None,None,None,,,,,,,,,,1766.6142249,1766.6142249,None,,1774.9228196,1776.9447522,1766.6142249,1766.6142249,,6,001,2024-07-23_09h02.49.305,robot_cogshifting_sign,2022.2.5,59.94186837604167,
"['blue_bottom_L_0', 'blue_right_R_45', 'blue_right_J_0', 'red_right_K_0']","{'color': 'red_right_K_0', 'position': 'blue_bottom_L_0', 'orientation': 'blue_right_R_45'}",position,"['orientation', 'position']",blue_bottom_L_0,0,2,letter,3,False,False,"['robot_stimuli\\\\filler.mp4', 'robot_stimuli\\\\filler.mp4', 'robot_stimuli\\\\filler.mp4', 'robot_stimuli\\\\filler.mp4']",robot_stimuli\\filler.mp4,6,,,,,,,,,,,,,0,68,68,68,,,,,,,,,,,,,,,,,,,1781.5475698,1783.6033347000002,,,1792.6696935,1792.6696935,1792.6696935,2,3.243195600000149,1795.9308915000001,1795.9308915000001,1795.9308915000001,1795.9308915000001,1795.9308915000001,1795.9308915000001,1795.9308915000001,1795.9308915000001,None,None,None,,,,,,,,,,1781.5475698,1781.5475698,None,,1790.457699,1792.6696935,1781.5475698,1781.5475698,,6,001,2024-07-23_09h02.49.305,robot_cogshifting_sign,2022.2.5,59.94186837604167,
"['blue_right_X_0', 'red_right_Z_0', 'blue_top_L_0', 'blue_right_C_45']","{'color': 'red_right_Z_0', 'position': 'blue_top_L_0', 'orientation': 'blue_right_C_45'}",orientation,"['orientation', 'position']",blue_right_C_45,3,2,letter,3,False,False,"['robot_stimuli\\\\filler.mp4', 'robot_stimuli\\\\filler.mp4', 'robot_stimuli\\\\filler.mp4', 'robot_stimuli\\\\filler.mp4']",robot_stimuli\\filler.mp4,6,,,,,,,,,,,,,0,69,69,69,,,,,,,,,,,,,,,,,,,1795.9308915000001,1797.9887509,,,1806.4733246,1806.4733246,1806.4733246,4,3.423134100000084,1809.9142476000002,1809.9142476000002,1809.9142476000002,1809.9142476000002,1809.9142476000002,1809.9142476000002,1809.9142476000002,1809.9142476000002,None,None,None,,,,,,,,,,1795.9308915000001,1795.9308915000001,None,,1804.2531015,1806.4733246,1795.9308915000001,1795.9308915000001,,6,001,2024-07-23_09h02.49.305,robot_cogshifting_sign,2022.2.5,59.94186837604167,
"['red_left_L_45', 'blue_left_F_0', 'red_left_L_0', 'red_bottom_X_0']","{'color': 'blue_left_F_0', 'position': 'red_bottom_X_0', 'orientation': 'red_left_L_45'}",orientation,"['color', 'orientation']",red_left_L_45,0,2,letter,3,False,False,"['robot_stimuli\\\\filler.mp4', 'robot_stimuli\\\\filler.mp4', 'robot_stimuli\\\\filler.mp4', 'robot_stimuli\\\\filler.mp4']",robot_stimuli\\filler.mp4,6,,,,,,,,,,,,,0,70,70,70,,,,,,,,,,,,,,,,,,,1809.9142476000002,1811.9808945,,,1820.6484001,1820.6484001,1820.6484001,1,2.016998300000182,1822.6975249000002,1822.6975249000002,1822.6975249000002,1822.6975249000002,1822.6975249000002,1822.6975249000002,1822.6975249000002,1822.6975249000002,None,None,None,,,,,,,,,,1809.9142476000002,1809.9142476000002,None,,1818.6282832000002,1820.6484001,1809.9142476000002,1809.9142476000002,,6,001,2024-07-23_09h02.49.305,robot_cogshifting_sign,2022.2.5,59.94186837604167,
"['red_right_T_0', 'red_right_J_45', 'blue_right_L_45', 'red_top_P_45']","{'color': 'blue_right_L_45', 'position': 'red_top_P_45', 'orientation': 'red_right_T_0'}",color,"['color', 'orientation']",blue_right_L_45,2,2,letter,3,False,True,"['robot_stimuli\\\\filler.mp4', 'robot_stimuli\\\\filler.mp4', 'robot_stimuli\\\\filler.mp4', 'robot_stimuli\\\\filler.mp4']",robot_stimuli\\filler.mp4,6,,,,,,,,,,,,,0,71,71,71,,,,,,,,,,,,,,,,,,,1822.6975249000002,1824.7518126,,,1833.4320141000003,1833.4320141000003,1833.4320141000003,3,1.7770783000001984,1835.255947,1840.1903890000003,1835.255947,1840.1903890000003,1835.255947,1840.1903890000003,1835.255947,1840.1903890000003,25.833333333333332,3.904009600000336,space,,,4.887859999999932,,,,,,,1822.6975249000002,1822.6975249000002,None,,1831.4140679000002,1833.4320141000003,1822.6975249000002,1822.6975249000002,,6,001,2024-07-23_09h02.49.305,robot_cogshifting_sign,2022.2.5,59.94186837604167,
"['red_left_S_45', 'red_bottom_V_0', 'red_bottom_V_45', 'blue_bottom_J_45']","{'color': 'blue_bottom_J_45', 'position': 'red_left_S_45', 'orientation': 'red_bottom_V_0'}",color,['color'],blue_bottom_J_45,3,1,letter,3,True,False,"['robot_stimuli\\\\filler.mp4', 'robot_stimuli\\\\filler.mp4', 'robot_stimuli\\\\filler.mp4', 'robot_stimuli\\\\filler.mp4']",robot_stimuli\\filler.mp4,6,,,,,,,,,,,,,0,72,72,72,,,,,,,,,,,,,,,,,,,1842.6143345,1844.6716601000003,,,1853.1643098,1853.1643098,1853.1643098,4,0.8053707000000259,1853.9976314,1853.9976314,1853.9976314,1853.9976314,1853.9976314,1853.9976314,1853.9976314,1853.9976314,None,None,None,,,,,,,,,,1840.1903890000003,1840.1903890000003,space,2.401491199999896,1850.9505755,1853.1643098,,,,6,001,2024-07-23_09h02.49.305,robot_cogshifting_sign,2022.2.5,59.94186837604167,
"['red_right_P_0', 'blue_top_L_0', 'red_top_M_45', 'red_top_Z_0']","{'color': 'blue_top_L_0', 'position': 'red_right_P_0', 'orientation': 'red_top_M_45'}",color,['color'],blue_top_L_0,1,1,letter,3,False,False,"['robot_stimuli\\\\filler.mp4', 'robot_stimuli\\\\filler.mp4', 'robot_stimuli\\\\filler.mp4', 'robot_stimuli\\\\filler.mp4']",robot_stimuli\\filler.mp4,6,,,,,,,,,,,,,0,73,73,73,,,,,,,,,,,,,,,,,,,1853.9976314,1856.0532771000003,,,1864.7233974,1864.7233974,1864.7233974,2,1.0460975000002009,1865.797798,1865.797798,1865.797798,1865.797798,1865.797798,1865.797798,1865.797798,1865.797798,None,None,None,,,,,,,,,,1853.9976314,1853.9976314,None,,1862.7062547,1864.7233974,1853.9976314,1853.9976314,,6,001,2024-07-23_09h02.49.305,robot_cogshifting_sign,2022.2.5,59.94186837604167,
"['blue_left_L_45', 'red_left_D_45', 'red_right_P_45', 'red_left_G_0']","{'color': 'blue_left_L_45', 'position': 'red_right_P_45', 'orientation': 'red_left_G_0'}",orientation,['orientation'],red_left_G_0,3,1,letter,3,False,False,"['robot_stimuli\\\\filler.mp4', 'robot_stimuli\\\\filler.mp4', 'robot_stimuli\\\\filler.mp4', 'robot_stimuli\\\\filler.mp4']",robot_stimuli\\filler.mp4,6,,,,,,,,,,,,,0,74,74,74,,,,,,,,,,,,,,,,,,,1865.797798,1867.854046,,,1876.3417948000001,1876.3417948000001,1876.3417948000001,4,0.6517965000003869,1877.0144119000001,1877.0144119000001,1877.0144119000001,1877.0144119000001,1877.0144119000001,1877.0144119000001,1877.0144119000001,1877.0144119000001,None,None,None,,,,,,,,,,1865.797798,1865.797798,None,,1874.3213762,1876.3417948000001,1865.797798,1865.797798,,6,001,2024-07-23_09h02.49.305,robot_cogshifting_sign,2022.2.5,59.94186837604167,
"['blue_bottom_N_0', 'blue_left_J_45', 'red_bottom_G_45', 'blue_bottom_M_45']","{'color': 'red_bottom_G_45', 'position': 'blue_left_J_45', 'orientation': 'blue_bottom_N_0'}",position,['position'],blue_left_J_45,1,1,letter,3,False,False,"['robot_stimuli\\\\filler.mp4', 'robot_stimuli\\\\filler.mp4', 'robot_stimuli\\\\filler.mp4', 'robot_stimuli\\\\filler.mp4']",robot_stimuli\\filler.mp4,6,,,,,,,,,,,,,0,75,75,75,,,,,,,,,,,,,,,,,,,1877.0144119000001,1879.0735758,,,1887.5486197,1887.5486197,1887.5486197,2,0.4445509000003085,1888.0143535000002,1888.0143535000002,1888.0143535000002,1888.0143535000002,1888.0143535000002,1888.0143535000002,1888.0143535000002,1888.0143535000002,None,None,None,,,,,,,,,,1877.0144119000001,1877.0144119000001,None,,1885.5226838000003,1887.5486197,1877.0144119000001,1877.0144119000001,,6,001,2024-07-23_09h02.49.305,robot_cogshifting_sign,2022.2.5,59.94186837604167,
"['blue_left_W_0', 'blue_top_K_0', 'blue_top_D_45', 'red_top_X_0']","{'color': 'red_top_X_0', 'position': 'blue_left_W_0', 'orientation': 'blue_top_D_45'}",orientation,['orientation'],blue_top_D_45,2,1,letter,3,False,False,"['robot_stimuli\\\\filler.mp4', 'robot_stimuli\\\\filler.mp4', 'robot_stimuli\\\\filler.mp4', 'robot_stimuli\\\\filler.mp4']",robot_stimuli\\filler.mp4,6,,,,,,,,,,,,,0,76,76,76,,,,,,,,,,,,,,,,,,,1888.0143535000002,1890.0682624,,,1898.7420357,1898.7420357,1898.7420357,3,1.0819304000002603,1899.8475041000002,1899.8475041000002,1899.8475041000002,1899.8475041000002,1899.8475041000002,1899.8475041000002,1899.8475041000002,1899.8475041000002,None,None,None,,,,,,,,,,1888.0143535000002,1888.0143535000002,None,,1896.7231335000001,1898.7420357,1888.0143535000002,1888.0143535000002,,6,001,2024-07-23_09h02.49.305,robot_cogshifting_sign,2022.2.5,59.94186837604167,
"['blue_bottom_T_0', 'blue_top_M_45', 'blue_top_T_0', 'red_top_M_0']","{'color': 'red_top_M_0', 'position': 'blue_bottom_T_0', 'orientation': 'blue_top_M_45'}",color,['color'],red_top_M_0,3,1,letter,3,False,False,"['robot_stimuli\\\\filler.mp4', 'robot_stimuli\\\\filler.mp4', 'robot_stimuli\\\\filler.mp4', 'robot_stimuli\\\\filler.mp4']",robot_stimuli\\filler.mp4,6,,,,,,,,,,,,,0,77,77,77,,,,,,,,,,,,,,,,,,,1899.8475041000002,1901.9036020000003,,,1910.3841348,1910.3841348,1910.3841348,4,2.009228200000166,1912.4143091,1912.4143091,1912.4143091,1912.4143091,1912.4143091,1912.4143091,1912.4143091,1912.4143091,None,None,None,,,,,,,,,,1899.8475041000002,1899.8475041000002,None,,1908.1661104,1910.3841348,1899.8475041000002,1899.8475041000002,,6,001,2024-07-23_09h02.49.305,robot_cogshifting_sign,2022.2.5,59.94186837604167,
"['red_bottom_K_0', 'blue_bottom_B_45', 'red_left_C_45', 'red_bottom_M_45']","{'color': 'blue_bottom_B_45', 'position': 'red_left_C_45', 'orientation': 'red_bottom_K_0'}",position,['position'],red_left_C_45,2,1,letter,3,False,False,"['robot_stimuli\\\\filler.mp4', 'robot_stimuli\\\\filler.mp4', 'robot_stimuli\\\\filler.mp4', 'robot_stimuli\\\\filler.mp4']",robot_stimuli\\filler.mp4,6,,,,,,,,,,,,,0,78,78,78,,,,,,,,,,,,,,,,,,,1912.4143091,1914.4688772,,,1922.9489640000002,1922.9489640000002,1922.9489640000002,2,2.051006600000278,1925.0309812,1925.0309812,1925.0309812,1925.0309812,1925.0309812,1925.0309812,1925.0309812,1925.0309812,None,None,None,,,,,,,,,,1912.4143091,1912.4143091,None,,1920.9259938,1922.9489640000002,1912.4143091,1912.4143091,,6,001,2024-07-23_09h02.49.305,robot_cogshifting_sign,2022.2.5,59.94186837604167,
"['blue_bottom_G_0', 'blue_top_N_45', 'red_bottom_K_45', 'blue_bottom_Q_45']","{'color': 'red_bottom_K_45', 'position': 'blue_top_N_45', 'orientation': 'blue_bottom_G_0'}",position,['position'],blue_top_N_45,1,1,letter,3,False,False,"['robot_stimuli\\\\filler.mp4', 'robot_stimuli\\\\filler.mp4', 'robot_stimuli\\\\filler.mp4', 'robot_stimuli\\\\filler.mp4']",robot_stimuli\\filler.mp4,6,,,,,,,,,,,,,0,79,79,79,,,,,,,,,,,,,,,,,,,1925.0309812,1927.0879903,,,1935.7561180000002,1935.7561180000002,1935.7561180000002,2,0.724383899999907,1936.4976242000002,1936.4976242000002,1936.4976242000002,1936.4976242000002,1936.4976242000002,1936.4976242000002,1936.4976242000002,1936.4976242000002,None,None,None,,,,,,,,,,1925.0309812,1925.0309812,None,,1933.7423392,1935.7561180000002,1925.0309812,1925.0309812,,6,001,2024-07-23_09h02.49.305,robot_cogshifting_sign,2022.2.5,59.94186837604167,
"['red_left_M_45', 'blue_left_X_45', 'red_top_S_45', 'red_left_H_0']","{'color': 'blue_left_X_45', 'position': 'red_top_S_45', 'orientation': 'red_left_H_0'}",orientation,['orientation'],red_left_H_0,3,1,letter,3,False,True,"['robot_stimuli\\\\filler.mp4', 'robot_stimuli\\\\filler.mp4', 'robot_stimuli\\\\filler.mp4', 'robot_stimuli\\\\filler.mp4']",robot_stimuli\\filler.mp4,6,,,,,,,,,,,,,0,80,80,80,,,,,,,,,,,,,,,,,,,1936.4976242000002,1938.5517089,,,1947.2201323,1947.2201323,1947.2201323,4,0.8454478000004428,1948.1236543,1952.883025,1948.1236543,1952.883025,1948.1236543,1952.883025,1948.1236543,1952.883025,12.87037037037037,3.8874445999999807,space,,,4.692571100000464,,,,,,,1936.4976242000002,1936.4976242000002,None,,1945.1972534000001,1947.2201323,1936.4976242000002,1936.4976242000002,,6,001,2024-07-23_09h02.49.305,robot_cogshifting_sign,2022.2.5,59.94186837604167,
"['L_Arm_X_For', 'L_Head_X_For', 'L_Head_Y_For', 'R_Head_X_Back']","{'laterality': 'R_Head_X_Back', 'localisation': 'L_Arm_X_For', 'movement': 'L_Head_Y_For'}",movement,"['laterality', 'localisation', 'movement']",L_Head_Y_For,2,3,robot,4,True,False,"['robot_stimuli\\L_Arm_X_For.mp4', 'robot_stimuli\\L_Head_X_For.mp4', 'robot_stimuli\\L_Head_Y_For.mp4', 'robot_stimuli\\R_Head_X_Back.mp4']",robot_stimuli\L_Head_Y_For.mp4,6,,,,,,,,,,,,,0,81,81,81,,,,,,,,,,,,,,,,,,,2030.0811590000003,2032.162428,,,2046.8912668000003,2046.8912668000003,2046.8912668000003,3,8.06249930000024,2054.9813674,2054.9813674,2054.9813674,2054.9813674,2054.9813674,2054.9813674,2054.9813674,2054.9813674,None,None,None,,,,,,,,,,1952.883025,1952.883025,space,77.17281809999997,,,,,2043.2520427,6,001,2024-07-23_09h02.49.305,robot_cogshifting_sign,2022.2.5,59.94186837604167,
"['L_Base_Z_For', 'R_Base_Y_For', 'L_Base_Y_Back', 'L_Torso_Y_For']","{'laterality': 'R_Base_Y_For', 'localisation': 'L_Torso_Y_For', 'movement': 'L_Base_Z_For'}",laterality,"['laterality', 'localisation', 'movement']",R_Base_Y_For,1,3,robot,4,False,False,"['robot_stimuli\\L_Base_Z_For.mp4', 'robot_stimuli\\R_Base_Y_For.mp4', 'robot_stimuli\\L_Base_Y_Back.mp4', 'robot_stimuli\\L_Torso_Y_For.mp4']",robot_stimuli\R_Base_Y_For.mp4,6,,,,,,,,,,,,,0,82,82,82,,,,,,,,,,,,,,,,,,,2054.9813674,2057.0548311000002,,,2071.7928855,2071.7928855,2071.7928855,2,4.271403299999861,2076.0811483,2076.0811483,2076.0811483,2076.0811483,2076.0811483,2076.0811483,2076.0811483,2076.0811483,None,None,None,,,,,,,,,,2054.9813674,2054.9813674,None,,,,2054.9813674,2054.9813674,2068.1566887,6,001,2024-07-23_09h02.49.305,robot_cogshifting_sign,2022.2.5,59.94186837604167,
"['L_Base_Y_Back', 'L_Torso_Z_Back', 'R_Base_Z_Back', 'L_Base_Z_For']","{'laterality': 'R_Base_Z_Back', 'localisation': 'L_Torso_Z_Back', 'movement': 'L_Base_Y_Back'}",localisation,"['laterality', 'localisation', 'movement']",L_Torso_Z_Back,1,3,robot,4,False,False,"['robot_stimuli\\L_Base_Y_Back.mp4', 'robot_stimuli\\L_Torso_Z_Back.mp4', 'robot_stimuli\\R_Base_Z_Back.mp4', 'robot_stimuli\\L_Base_Z_For.mp4']",robot_stimuli\L_Torso_Z_Back.mp4,6,,,,,,,,,,,,,0,83,83,83,,,,,,,,,,,,,,,,,,,2076.0811483,2078.155839,,,2092.6726829,2092.6726829,2092.6726829,2,7.7990283000004865,2100.4978961,2100.4978961,2100.4978961,2100.4978961,2100.4978961,2100.4978961,2100.4978961,2100.4978961,None,None,None,,,,,,,,,,2076.0811483,2076.0811483,None,,,,2076.0811483,2076.0811483,2089.0346944000003,6,001,2024-07-23_09h02.49.305,robot_cogshifting_sign,2022.2.5,59.94186837604167,
"['R_Head_Y_For', 'L_Base_Y_Back', 'L_Head_Y_For', 'L_Head_X_Back']","{'laterality': 'R_Head_Y_For', 'localisation': 'L_Base_Y_Back', 'movement': 'L_Head_X_Back'}",laterality,"['laterality', 'localisation', 'movement']",R_Head_Y_For,0,3,robot,4,False,False,"['robot_stimuli\\R_Head_Y_For.mp4', 'robot_stimuli\\L_Base_Y_Back.mp4', 'robot_stimuli\\L_Head_Y_For.mp4', 'robot_stimuli\\L_Head_X_Back.mp4']",robot_stimuli\R_Head_Y_For.mp4,6,,,,,,,,,,,,,0,84,84,84,,,,,,,,,,,,,,,,,,,2100.4978961,2102.5717923,,,2117.3228754,2117.3228754,2117.3228754,2,3.9819029999999884,2121.3312282,2121.3312282,2121.3312282,2121.3312282,2121.3312282,2121.3312282,2121.3312282,2121.3312282,None,None,None,,,,,,,,,,2100.4978961,2100.4978961,None,,,,2100.4978961,2100.4978961,2113.6876809,6,001,2024-07-23_09h02.49.305,robot_cogshifting_sign,2022.2.5,59.94186837604167,
"['R_Head_Z_Back', 'R_Head_Y_For', 'R_Base_Z_Back', 'L_Head_Z_Back']","{'laterality': 'L_Head_Z_Back', 'localisation': 'R_Base_Z_Back', 'movement': 'R_Head_Y_For'}",movement,"['laterality', 'localisation', 'movement']",R_Head_Y_For,1,3,robot,4,False,False,"['robot_stimuli\\R_Head_Z_Back.mp4', 'robot_stimuli\\R_Head_Y_For.mp4', 'robot_stimuli\\R_Base_Z_Back.mp4', 'robot_stimuli\\L_Head_Z_Back.mp4']",robot_stimuli\R_Head_Y_For.mp4,6,,,,,,,,,,,,,0,85,85,85,,,,,,,,,,,,,,,,,,,2121.3312282,2123.4042511000002,,,2138.1372598000003,2138.1372598000003,2138.1372598000003,1,4.799101600000199,2142.9647017,2142.9647017,2142.9647017,2142.9647017,2142.9647017,2142.9647017,2142.9647017,2142.9647017,None,None,None,,,,,,,,,,2121.3312282,2121.3312282,None,,,,2121.3312282,2121.3312282,2134.5018176000003,6,001,2024-07-23_09h02.49.305,robot_cogshifting_sign,2022.2.5,59.94186837604167,
"['R_Base_Z_For', 'L_Base_X_Back', 'R_Base_X_For', 'R_Head_X_For']","{'laterality': 'L_Base_X_Back', 'localisation': 'R_Head_X_For', 'movement': 'R_Base_Z_For'}",localisation,"['laterality', 'localisation', 'movement']",R_Head_X_For,3,3,robot,4,False,False,"['robot_stimuli\\R_Base_Z_For.mp4', 'robot_stimuli\\L_Base_X_Back.mp4', 'robot_stimuli\\R_Base_X_For.mp4', 'robot_stimuli\\R_Head_X_For.mp4']",robot_stimuli\R_Head_X_For.mp4,6,,,,,,,,,,,,,0,86,86,86,,,,,,,,,,,,,,,,,,,2142.9647017,2145.0391855000003,,,2159.703857,2159.703857,2159.703857,2,3.3529871000001776,2163.0814228,2163.0814228,2163.0814228,2163.0814228,2163.0814228,2163.0814228,2163.0814228,2163.0814228,None,None,None,,,,,,,,,,2142.9647017,2142.9647017,None,,,,2142.9647017,2142.9647017,2156.0675565,6,001,2024-07-23_09h02.49.305,robot_cogshifting_sign,2022.2.5,59.94186837604167,
"['L_Head_Y_Back', 'L_Head_Z_For', 'L_Torso_Z_Back', 'R_Head_Z_Back']","{'laterality': 'R_Head_Z_Back', 'localisation': 'L_Torso_Z_Back', 'movement': 'L_Head_Y_Back'}",laterality,"['laterality', 'localisation', 'movement']",R_Head_Z_Back,3,3,robot,4,False,False,"['robot_stimuli\\L_Head_Y_Back.mp4', 'robot_stimuli\\L_Head_Z_For.mp4', 'robot_stimuli\\L_Torso_Z_Back.mp4', 'robot_stimuli\\R_Head_Z_Back.mp4']",robot_stimuli\R_Head_Z_Back.mp4,6,,,,,,,,,,,,,0,87,87,87,,,,,,,,,,,,,,,,,,,2163.0814228,2165.1513429,,,2179.8064815000002,2179.8064815000002,2179.8064815000002,4,3.169848100000422,2182.9978960000003,2182.9978960000003,2182.9978960000003,2182.9978960000003,2182.9978960000003,2182.9978960000003,2182.9978960000003,2182.9978960000003,None,None,None,,,,,,,,,,2163.0814228,2163.0814228,None,,,,2163.0814228,2163.0814228,2176.1706874,6,001,2024-07-23_09h02.49.305,robot_cogshifting_sign,2022.2.5,59.94186837604167,
"['L_Base_Y_For', 'L_Arm_Y_Back', 'R_Base_Y_For', 'L_Base_Z_Back']","{'laterality': 'R_Base_Y_For', 'localisation': 'L_Arm_Y_Back', 'movement': 'L_Base_Z_Back'}",movement,"['laterality', 'localisation', 'movement']",L_Base_Z_Back,3,3,robot,4,False,False,"['robot_stimuli\\L_Base_Y_For.mp4', 'robot_stimuli\\L_Arm_Y_Back.mp4', 'robot_stimuli\\R_Base_Y_For.mp4', 'robot_stimuli\\L_Base_Z_Back.mp4']",robot_stimuli\L_Base_Z_Back.mp4,6,,,,,,,,,,,,,0,88,88,88,,,,,,,,,,,,,,,,,,,2182.9978960000003,2185.0731163,,,2199.8065026,2199.8065026,2199.8065026,3,9.857490600000006,2209.6813262,2209.6813262,2209.6813262,2209.6813262,2209.6813262,2209.6813262,2209.6813262,2209.6813262,None,None,None,,,,,,,,,,2182.9978960000003,2182.9978960000003,None,,,,2182.9978960000003,2182.9978960000003,2196.1591571,6,001,2024-07-23_09h02.49.305,robot_cogshifting_sign,2022.2.5,59.94186837604167,
"['R_Head_Y_For', 'L_Head_X_Back', 'L_Head_Y_Back', 'L_Torso_Y_Back']","{'laterality': 'R_Head_Y_For', 'localisation': 'L_Torso_Y_Back', 'movement': 'L_Head_X_Back'}",localisation,"['laterality', 'localisation', 'movement']",L_Torso_Y_Back,3,3,robot,4,False,True,"['robot_stimuli\\R_Head_Y_For.mp4', 'robot_stimuli\\L_Head_X_Back.mp4', 'robot_stimuli\\L_Head_Y_Back.mp4', 'robot_stimuli\\L_Torso_Y_Back.mp4']",robot_stimuli\L_Torso_Y_Back.mp4,6,,,,,,,,,,,,,0,89,89,89,,,,,,,,,,,,,,,,,,,2209.6813262,2211.7580763,,,2226.4385234,2226.4385234,2226.4385234,2,5.690627399999926,2232.1728441,2237.5971600000003,2232.1728441,2237.5971600000003,2232.1728441,2237.5971600000003,2232.1728441,2237.5971600000003,56.543209876543216,3.6563358000003063,space,,,5.371203600000285,,,,,,,2209.6813262,2209.6813262,None,,,,2209.6813262,2209.6813262,2222.9255519000003,6,001,2024-07-23_09h02.49.305,robot_cogshifting_sign,2022.2.5,59.94186837604167,
"['L_Torso_Y_Back', 'R_Torso_Y_For', 'R_Base_Y_Back', 'R_Torso_Z_For']","{'laterality': 'L_Torso_Y_Back', 'localisation': 'R_Base_Y_Back', 'movement': 'R_Torso_Z_For'}",movement,"['laterality', 'movement']",R_Torso_Z_For,3,2,robot,4,True,False,"['robot_stimuli\\L_Torso_Y_Back.mp4', 'robot_stimuli\\R_Torso_Y_For.mp4', 'robot_stimuli\\R_Base_Y_Back.mp4', 'robot_stimuli\\R_Torso_Z_For.mp4']",robot_stimuli\R_Torso_Z_For.mp4,6,,,,,,,,,,,,,0,90,90,90,,,,,,,,,,,,,,,,,,,2248.4983049,2250.5773179000003,,,2265.2161872,2265.2161872,2265.2161872,4,3.167577499999993,2268.4146653000003,2268.4146653000003,2268.4146653000003,2268.4146653000003,2268.4146653000003,2268.4146653000003,2268.4146653000003,2268.4146653000003,None,None,None,,,,,,,,,,2237.5971600000003,2237.5971600000003,space,10.88342010000008,,,,,2261.5905404,6,001,2024-07-23_09h02.49.305,robot_cogshifting_sign,2022.2.5,59.94186837604167,
"['L_Arm_Y_For', 'L_Head_Y_Back', 'L_Head_X_Back', 'R_Head_Y_Back']","{'laterality': 'R_Head_Y_Back', 'localisation': 'L_Arm_Y_For', 'movement': 'L_Head_X_Back'}",laterality,"['laterality', 'localisation']",R_Head_Y_Back,3,2,robot,4,False,False,"['robot_stimuli\\L_Arm_Y_For.mp4', 'robot_stimuli\\L_Head_Y_Back.mp4', 'robot_stimuli\\L_Head_X_Back.mp4', 'robot_stimuli\\R_Head_Y_Back.mp4']",robot_stimuli\R_Head_Y_Back.mp4,6,,,,,,,,,,,,,0,91,91,91,,,,,,,,,,,,,,,,,,,2268.4146653000003,2270.4888877000003,,,2285.2788333000003,2285.2788333000003,2285.2788333000003,4,8.418029700000375,2293.7148192,2293.7148192,2293.7148192,2293.7148192,2293.7148192,2293.7148192,2293.7148192,2293.7148192,None,None,None,,,,,,,,,,2268.4146653000003,2268.4146653000003,None,,,,2268.4146653000003,2268.4146653000003,2281.6415505,6,001,2024-07-23_09h02.49.305,robot_cogshifting_sign,2022.2.5,59.94186837604167,
