sequence,odd_ones,parameter,choices,target,target_idx,condition,stimuli,block,is_block_beginning,is_block_ending,sequence_fnames,target_fname,subject,retraining.thisRepN,retraining.thisTrialN,retraining.thisN,retraining.thisIndex,training.thisRepN,training.thisTrialN,training.thisN,training.thisIndex,training_sequence_loop.thisRepN,training_sequence_loop.thisTrialN,training_sequence_loop.thisN,training_sequence_loop.thisIndex,trials.thisRepN,trials.thisTrialN,trials.thisN,trials.thisIndex,sequence_loop.thisRepN,sequence_loop.thisTrialN,sequence_loop.thisN,sequence_loop.thisIndex,langage_text.started,langage_key.started,langage_key.keys,langage_key.rt,intro_text.started,intro_key.started,intro_key.keys,intro_key.rt,training_intro_text.started,training_intro_key.started,training_intro_key.keys,training_intro_key.rt,polygon.started,polygon.stopped,cue_before_text.started,cue_before_text.stopped,training_presentation_letter.started,training_presentation_letter.stopped,recall_key.started,recall_question.started,recall_answer.started,recall_key.keys,recall_key.rt,RSME_labels.started,RSME_labels.stopped,RSME_ticks.started,RSME_ticks.stopped,RSME_text.started,RSME_text.stopped,RSME_key.started,RSME_key.stopped,RSME_ticks.response,RSME_ticks.rt,RSME_key.keys,training_intro_text.stopped,training_intro_key.stopped,RSME_key.rt,training_presentation_movie.started,experiment_beginning_text.started,experiment_beginning_keys.started,experiment_beginning_key.started,experiment_beginning_key.keys,experiment_beginning_key.rt,block_intro_text.started,block_intro_key.started,block_intro_key.keys,block_intro_key.rt,presentation_letter.started,presentation_letter.stopped,block_intro_text.stopped,block_intro_key.stopped,presentation_movie.started,participant,session,date,expName,psychopyVersion,frameRate,
,,,,,,,,,,,,,,,,,,,,,,,,,,,,,,,,,,15.138854000000038,15.138854000000038,f,1.5422945000000254,,,,,,,,,,,,,,,,,,,,,,,,,,,,,,,,,,,,,,,,,,,,,,,,,0,001,2024-06-26_14h47.33.096,robot_cogshifting_sign,2022.2.5,60.0087372721466,
,,,,,,,,,,,,,,,,,,,,,,,,,,,,,,,,,,,,,,16.708393900000033,16.708393900000033,space,206.4527829000001,,,,,,,,,,,,,,,,,,,,,,,,,,,,,,,,,,,,,,,,,,,,,0,001,2024-06-26_14h47.33.096,robot_cogshifting_sign,2022.2.5,60.0087372721466,
"['blue_top_W_45', 'red_top_L_0', 'blue_bottom_P_0', 'blue_top_H_0']","{'color': 'red_top_L_0', 'position': 'blue_bottom_P_0', 'orientation': 'blue_top_W_45'}",orientation,['orientation'],blue_top_W_45,0,1,letter,1,True,False,"['robot_stimuli\\\\filler.mp4', 'robot_stimuli\\\\filler.mp4', 'robot_stimuli\\\\filler.mp4', 'robot_stimuli\\\\filler.mp4']",robot_stimuli\\filler.mp4,0,0,0,0,0,0,0,0,0,,,,,,,,,,,,,,,,,,,,,223.2029626000001,223.2029626000001,space,3.325796799999921,226.5489874,227.5486853,227.5486853,230.0235408000001,236.54304539999998,238.77851600000008,238.77851600000008,238.77851600000008,238.77851600000008,1,3.3746967000000723,242.26707800000008,242.26707800000008,242.26707800000008,242.26707800000008,242.26707800000008,242.26707800000008,242.26707800000008,242.26707800000008,None,None,None,,,,,,,,,,,,,,,,,,,0,001,2024-06-26_14h47.33.096,robot_cogshifting_sign,2022.2.5,60.0087372721466,
"['blue_right_G_0', 'red_right_C_45', 'blue_right_F_45', 'blue_top_M_45']","{'color': 'red_right_C_45', 'position': 'blue_top_M_45', 'orientation': 'blue_right_G_0'}",color,['color'],red_right_C_45,1,1,letter,1,False,False,"['robot_stimuli\\\\filler.mp4', 'robot_stimuli\\\\filler.mp4', 'robot_stimuli\\\\filler.mp4', 'robot_stimuli\\\\filler.mp4']",robot_stimuli\\filler.mp4,0,0,0,0,0,0,1,1,1,,,,,,,,,,,,,,,,,,,,,242.26707800000008,242.26707800000008,None,,242.26707800000008,,243.2823550999999,,252.05790419999994,254.08338419999995,254.08338419999995,254.08338419999995,254.08338419999995,2,11.65333249999992,265.76557520000006,265.76557520000006,265.76557520000006,265.76557520000006,265.76557520000006,265.76557520000006,265.76557520000006,265.76557520000006,None,None,None,242.26707800000008,242.26707800000008,,,,,,,,,,,,,,,,,0,001,2024-06-26_14h47.33.096,robot_cogshifting_sign,2022.2.5,60.0087372721466,
"['blue_left_Z_0', 'blue_right_D_45', 'blue_left_D_45', 'red_left_W_45']","{'color': 'red_left_W_45', 'position': 'blue_right_D_45', 'orientation': 'blue_left_Z_0'}",position,['position'],blue_right_D_45,1,1,letter,1,False,True,"['robot_stimuli\\\\filler.mp4', 'robot_stimuli\\\\filler.mp4', 'robot_stimuli\\\\filler.mp4', 'robot_stimuli\\\\filler.mp4']",robot_stimuli\\filler.mp4,0,0,0,0,0,0,2,2,2,,,,,,,,,,,,,,,,,,,,,265.76557520000006,265.76557520000006,None,,265.76557520000006,266.76571190000004,266.76571190000004,268.8412312999999,275.74080129999993,277.77264160000004,277.77264160000004,277.77264160000004,277.77264160000004,2,13.02752739999994,290.88759260000006,294.5073460000001,290.88759260000006,294.5073460000001,290.88759260000006,294.5073460000001,290.88759260000006,294.5073460000001,0.37037037037036535,2.9983750999999756,space,265.76557520000006,265.76557520000006,3.54486159999999,,,,,,,,,,,,,,,,0,001,2024-06-26_14h47.33.096,robot_cogshifting_sign,2022.2.5,60.0087372721466,
"['red_bottom_Q_45', 'blue_bottom_X_45', 'blue_bottom_Z_0', 'blue_top_P_45']","{'color': 'red_bottom_Q_45', 'position': 'blue_top_P_45', 'orientation': 'blue_bottom_Z_0'}",orientation,"['color', 'orientation']",blue_bottom_Z_0,2,2,letter,1,True,False,"['robot_stimuli\\\\filler.mp4', 'robot_stimuli\\\\filler.mp4', 'robot_stimuli\\\\filler.mp4', 'robot_stimuli\\\\filler.mp4']",robot_stimuli\\filler.mp4,0,0,0,0,0,0,3,3,3,,,,,,,,,,,,,,,,,,,,,294.5073460000001,294.5073460000001,space,3.98151160000009,298.51597059999995,299.51588330000004,299.51588330000004,301.59174340000004,308.31121740000003,310.3428286999999,310.3428286999999,310.3428286999999,310.3428286999999,3,1.8257606000000806,312.1990060999999,312.1990060999999,312.1990060999999,312.1990060999999,312.1990060999999,312.1990060999999,312.1990060999999,312.1990060999999,None,None,None,,,,,,,,,,,,,,,,,,,0,001,2024-06-26_14h47.33.096,robot_cogshifting_sign,2022.2.5,60.0087372721466,
"['red_bottom_P_45', 'blue_left_S_45', 'red_left_T_0', 'red_left_F_45']","{'color': 'blue_left_S_45', 'position': 'red_bottom_P_45', 'orientation': 'red_left_T_0'}",color,"['color', 'position']",blue_left_S_45,1,2,letter,1,False,False,"['robot_stimuli\\\\filler.mp4', 'robot_stimuli\\\\filler.mp4', 'robot_stimuli\\\\filler.mp4', 'robot_stimuli\\\\filler.mp4']",robot_stimuli\\filler.mp4,0,0,0,0,0,0,4,4,4,,,,,,,,,,,,,,,,,,,,,312.1990060999999,312.1990060999999,None,,312.1990060999999,313.1990490999999,313.1990490999999,315.2672339999999,322.17880220000006,324.198631,324.198631,324.198631,324.198631,2,1.4335816999999906,325.6490174999999,325.6490174999999,325.6490174999999,325.6490174999999,325.6490174999999,325.6490174999999,325.6490174999999,325.6490174999999,None,None,None,312.1990060999999,312.1990060999999,,,,,,,,,,,,,,,,,0,001,2024-06-26_14h47.33.096,robot_cogshifting_sign,2022.2.5,60.0087372721466,
"['red_top_Z_0', 'red_top_F_45', 'red_bottom_F_0', 'blue_top_S_0']","{'color': 'blue_top_S_0', 'position': 'red_bottom_F_0', 'orientation': 'red_top_F_45'}",position,"['orientation', 'position']",red_bottom_F_0,2,2,letter,1,False,True,"['robot_stimuli\\\\filler.mp4', 'robot_stimuli\\\\filler.mp4', 'robot_stimuli\\\\filler.mp4', 'robot_stimuli\\\\filler.mp4']",robot_stimuli\\filler.mp4,0,0,0,0,0,0,5,5,5,,,,,,,,,,,,,,,,,,,,,325.6490174999999,325.6490174999999,None,,325.6490174999999,326.6492138000001,326.6492138000001,328.7174732000001,335.2476514,337.2718135,337.2718135,337.2718135,337.2718135,3,2.528942900000061,339.8578063,342.7542122,339.8578063,342.7542122,339.8578063,342.7542122,339.8578063,342.7542122,0.8333333333333304,2.2147718999999597,space,325.6490174999999,325.6490174999999,2.8223701000000574,,,,,,,,,,,,,,,,0,001,2024-06-26_14h47.33.096,robot_cogshifting_sign,2022.2.5,60.0087372721466,
"['blue_top_T_45', 'red_top_N_45', 'red_top_H_0', 'red_bottom_Q_45']","{'color': 'blue_top_T_45', 'position': 'red_bottom_Q_45', 'orientation': 'red_top_H_0'}",orientation,"['color', 'orientation', 'position']",red_top_H_0,2,3,letter,1,True,False,"['robot_stimuli\\\\filler.mp4', 'robot_stimuli\\\\filler.mp4', 'robot_stimuli\\\\filler.mp4', 'robot_stimuli\\\\filler.mp4']",robot_stimuli\\filler.mp4,0,0,0,0,0,0,6,6,6,,,,,,,,,,,,,,,,,,,,,342.7542122,342.7542122,space,3.094387299999994,345.86591440000007,346.86596480000003,346.86596480000003,348.9354145,355.4434094999999,357.4658219999999,357.4658219999999,357.4658219999999,357.4658219999999,2,3.1024209999999357,360.59915909999995,360.59915909999995,360.59915909999995,360.59915909999995,360.59915909999995,360.59915909999995,360.59915909999995,360.59915909999995,None,None,None,,,,,,,,,,,,,,,,,,,0,001,2024-06-26_14h47.33.096,robot_cogshifting_sign,2022.2.5,60.0087372721466,
"['blue_bottom_R_0', 'blue_left_C_45', 'red_bottom_J_45', 'blue_bottom_F_45']","{'color': 'red_bottom_J_45', 'position': 'blue_left_C_45', 'orientation': 'blue_bottom_R_0'}",color,"['color', 'orientation', 'position']",red_bottom_J_45,2,3,letter,1,False,False,"['robot_stimuli\\\\filler.mp4', 'robot_stimuli\\\\filler.mp4', 'robot_stimuli\\\\filler.mp4', 'robot_stimuli\\\\filler.mp4']",robot_stimuli\\filler.mp4,0,0,0,0,0,0,7,7,7,,,,,,,,,,,,,,,,,,,,,360.59915909999995,360.59915909999995,None,,360.59915909999995,361.59941000000003,361.59941000000003,363.6741565,370.56440169999996,372.591263,372.591263,372.591263,372.591263,3,3.6663723999998865,376.28269580000006,376.28269580000006,376.28269580000006,376.28269580000006,376.28269580000006,376.28269580000006,376.28269580000006,376.28269580000006,None,None,None,360.59915909999995,360.59915909999995,,,,,,,,,,,,,,,,,0,001,2024-06-26_14h47.33.096,robot_cogshifting_sign,2022.2.5,60.0087372721466,
"['red_bottom_H_0', 'blue_bottom_X_45', 'blue_left_Q_0', 'blue_bottom_D_0']","{'color': 'red_bottom_H_0', 'position': 'blue_left_Q_0', 'orientation': 'blue_bottom_X_45'}",position,"['color', 'orientation', 'position']",blue_left_Q_0,2,3,letter,1,False,True,"['robot_stimuli\\\\filler.mp4', 'robot_stimuli\\\\filler.mp4', 'robot_stimuli\\\\filler.mp4', 'robot_stimuli\\\\filler.mp4']",robot_stimuli\\filler.mp4,0,0,0,0,0,0,8,8,8,,,,,,,,,,,,,,,,,,,,,376.28269580000006,376.28269580000006,None,,376.28269580000006,377.2828964999999,377.2828964999999,379.3568422000001,386.0521619000001,388.26970389999997,388.26970389999997,388.26970389999997,388.26970389999997,3,2.923939000000132,391.2419161,394.9225590000001,391.2419161,394.9225590000001,391.2419161,394.9225590000001,391.2419161,394.9225590000001,3.148148148148147,3.2008382999999867,space,376.28269580000006,376.28269580000006,3.6220658000000867,,,,,,,,,,,,,,,,0,001,2024-06-26_14h47.33.096,robot_cogshifting_sign,2022.2.5,60.0087372721466,
"['R_Torso_Z_Back', 'R_Arm_X_Back', 'R_Torso_X_Back', 'L_Torso_X_Back']","{'laterality': 'L_Torso_X_Back', 'localisation': 'R_Arm_X_Back', 'movement': 'R_Torso_Z_Back'}",movement,['movement'],R_Torso_Z_Back,0,1,robot,2,True,False,"['robot_stimuli\\R_Torso_Z_Back.mp4', 'robot_stimuli\\R_Arm_X_Back.mp4', 'robot_stimuli\\R_Torso_X_Back.mp4', 'robot_stimuli\\L_Torso_X_Back.mp4']",robot_stimuli\R_Torso_Z_Back.mp4,0,0,0,0,0,0,9,9,9,,,,,,,,,,,,,,,,,,,,,394.9225590000001,394.9225590000001,space,1.7097921000000724,396.6493413999999,397.64953360000004,397.64953360000004,399.746271,,,414.5948117999999,414.5948117999999,414.5948117999999,2,8.782741699999974,423.39945869999997,423.39945869999997,423.39945869999997,423.39945869999997,423.39945869999997,423.39945869999997,423.39945869999997,423.39945869999997,None,None,None,,,,410.9460663,,,,,,,,,,,,,,,0,001,2024-06-26_14h47.33.096,robot_cogshifting_sign,2022.2.5,60.0087372721466,
"['L_Arm_Y_For', 'L_Arm_Z_For', 'L_Base_Z_For', 'R_Arm_Z_For']","{'laterality': 'R_Arm_Z_For', 'localisation': 'L_Base_Z_For', 'movement': 'L_Arm_Y_For'}",laterality,['laterality'],R_Arm_Z_For,3,1,robot,2,False,False,"['robot_stimuli\\L_Arm_Y_For.mp4', 'robot_stimuli\\L_Arm_Z_For.mp4', 'robot_stimuli\\L_Base_Z_For.mp4', 'robot_stimuli\\R_Arm_Z_For.mp4']",robot_stimuli\R_Arm_Z_For.mp4,0,0,0,0,0,0,10,10,10,,,,,,,,,,,,,,,,,,,,,423.39945869999997,423.39945869999997,None,,423.39945869999997,424.3994381,424.3994381,426.49130579999996,,,441.32891199999995,441.32891199999995,441.32891199999995,4,0.5199374000000034,441.8661955,441.8661955,441.8661955,441.8661955,441.8661955,441.8661955,441.8661955,441.8661955,None,None,None,423.39945869999997,423.39945869999997,,437.68091589999995,,,,,,,,,,,,,,,0,001,2024-06-26_14h47.33.096,robot_cogshifting_sign,2022.2.5,60.0087372721466,
"['L_Arm_X_For', 'L_Torso_X_For', 'R_Arm_X_For', 'L_Arm_Z_Back']","{'laterality': 'R_Arm_X_For', 'localisation': 'L_Torso_X_For', 'movement': 'L_Arm_Z_Back'}",localisation,['localisation'],L_Torso_X_For,1,1,robot,2,False,True,"['robot_stimuli\\L_Arm_X_For.mp4', 'robot_stimuli\\L_Torso_X_For.mp4', 'robot_stimuli\\R_Arm_X_For.mp4', 'robot_stimuli\\L_Arm_Z_Back.mp4']",robot_stimuli\L_Torso_X_For.mp4,0,0,0,0,0,0,11,11,11,,,,,,,,,,,,,,,,,,,,,441.8661955,441.8661955,None,,441.8661955,442.86629360000006,442.86629360000006,444.94570799999997,,,459.7881084999999,459.7881084999999,459.7881084999999,2,9.05205760000024,468.8913539,471.0425014,468.8913539,471.0425014,468.8913539,471.0425014,468.8913539,471.0425014,3.3024691358024634,1.6046989999999823,space,441.8661955,441.8661955,2.0851992999999993,456.1608707999999,,,,,,,,,,,,,,,0,001,2024-06-26_14h47.33.096,robot_cogshifting_sign,2022.2.5,60.0087372721466,
"['L_Torso_X_Back', 'R_Torso_X_Back', 'L_Torso_Z_Back', 'L_Base_X_For']","{'laterality': 'R_Torso_X_Back', 'localisation': 'L_Base_X_For', 'movement': 'L_Torso_Z_Back'}",movement,"['laterality', 'movement']",L_Torso_Z_Back,2,2,robot,2,True,False,"['robot_stimuli\\L_Torso_X_Back.mp4', 'robot_stimuli\\R_Torso_X_Back.mp4', 'robot_stimuli\\L_Torso_Z_Back.mp4', 'robot_stimuli\\L_Base_X_For.mp4']",robot_stimuli\L_Torso_Z_Back.mp4,0,0,0,0,0,0,12,12,12,,,,,,,,,,,,,,,,,,,,,471.0425014,471.0425014,space,2.166601499999956,473.2328990000001,474.2329549000001,474.2329549000001,476.31617890000007,,,490.9783256999999,490.9783256999999,490.9783256999999,3,15.80650019999996,506.8166349999999,506.8166349999999,506.8166349999999,506.8166349999999,506.8166349999999,506.8166349999999,506.8166349999999,506.8166349999999,None,None,None,,,,487.4050743999999,,,,,,,,,,,,,,,0,001,2024-06-26_14h47.33.096,robot_cogshifting_sign,2022.2.5,60.0087372721466,
"['L_Head_X_Back', 'R_Head_X_For', 'L_Head_Y_For', 'L_Base_X_Back']","{'laterality': 'R_Head_X_For', 'localisation': 'L_Base_X_Back', 'movement': 'L_Head_Y_For'}",localisation,"['laterality', 'localisation']",L_Base_X_Back,3,2,robot,2,False,False,"['robot_stimuli\\L_Head_X_Back.mp4', 'robot_stimuli\\R_Head_X_For.mp4', 'robot_stimuli\\L_Head_Y_For.mp4', 'robot_stimuli\\L_Base_X_Back.mp4']",robot_stimuli\L_Base_X_Back.mp4,0,0,0,0,0,0,13,13,13,,,,,,,,,,,,,,,,,,,,,506.8166349999999,506.8166349999999,None,,506.8166349999999,507.8163463000001,507.8163463000001,509.89834640000004,,,524.7284525,524.7284525,524.7284525,4,14.177104900000245,538.9330611,538.9330611,538.9330611,538.9330611,538.9330611,538.9330611,538.9330611,538.9330611,None,None,None,506.8166349999999,506.8166349999999,,521.1137988999999,,,,,,,,,,,,,,,0,001,2024-06-26_14h47.33.096,robot_cogshifting_sign,2022.2.5,60.0087372721466,
"['L_Head_Y_For', 'L_Arm_Z_For', 'L_Head_Z_For', 'R_Head_Z_Back']","{'laterality': 'R_Head_Z_Back', 'localisation': 'L_Arm_Z_For', 'movement': 'L_Head_Y_For'}",laterality,"['laterality', 'localisation']",R_Head_Z_Back,3,2,robot,2,False,True,"['robot_stimuli\\L_Head_Y_For.mp4', 'robot_stimuli\\L_Arm_Z_For.mp4', 'robot_stimuli\\L_Head_Z_For.mp4', 'robot_stimuli\\R_Head_Z_Back.mp4']",robot_stimuli\R_Head_Z_Back.mp4,0,0,0,0,0,0,14,14,14,,,,,,,,,,,,,,,,,,,,,538.9330611,538.9330611,None,,538.9330611,539.9335586,539.9335586,542.0160042,,,556.8295092999999,556.8295092999999,556.8295092999999,4,5.706668899999954,562.5931025,565.4107978,562.5931025,565.4107978,562.5931025,565.4107978,562.5931025,565.4107978,3.6111111111111036,2.171373499999845,space,538.9330611,538.9330611,2.7670947999998816,553.1932511,,,,,,,,,,,,,,,0,001,2024-06-26_14h47.33.096,robot_cogshifting_sign,2022.2.5,60.0087372721466,
"['R_Head_Z_Back', 'L_Head_Z_For', 'L_Base_Z_Back', 'L_Head_Y_For']","{'laterality': 'R_Head_Z_Back', 'localisation': 'L_Base_Z_Back', 'movement': 'L_Head_Y_For'}",laterality,"['laterality', 'localisation', 'movement']",R_Head_Z_Back,0,3,robot,2,True,False,"['robot_stimuli\\R_Head_Z_Back.mp4', 'robot_stimuli\\L_Head_Z_For.mp4', 'robot_stimuli\\L_Base_Z_Back.mp4', 'robot_stimuli\\L_Head_Y_For.mp4']",robot_stimuli\R_Head_Z_Back.mp4,0,0,0,0,0,0,15,15,15,,,,,,,,,,,,,,,,,,,,,565.4107978,565.4107978,space,1.358119800000054,566.79989,567.8000947999999,567.8000947999999,569.8765897000001,,,584.6592307999999,584.6592307999999,584.6592307999999,2,2.98201389999997,587.6665502999999,587.6665502999999,587.6665502999999,587.6665502999999,587.6665502999999,587.6665502999999,587.6665502999999,587.6665502999999,None,None,None,,,,581.0266890999999,,,,,,,,,,,,,,,0,001,2024-06-26_14h47.33.096,robot_cogshifting_sign,2022.2.5,60.0087372721466,
"['R_Head_Z_Back', 'L_Head_Y_Back', 'R_Torso_Y_Back', 'R_Head_Y_Back']","{'laterality': 'L_Head_Y_Back', 'localisation': 'R_Torso_Y_Back', 'movement': 'R_Head_Z_Back'}",movement,"['laterality', 'localisation', 'movement']",R_Head_Z_Back,0,3,robot,2,False,False,"['robot_stimuli\\R_Head_Z_Back.mp4', 'robot_stimuli\\L_Head_Y_Back.mp4', 'robot_stimuli\\R_Torso_Y_Back.mp4', 'robot_stimuli\\R_Head_Y_Back.mp4']",robot_stimuli\R_Head_Z_Back.mp4,0,0,0,0,0,0,16,16,16,,,,,,,,,,,,,,,,,,,,,587.6665502999999,587.6665502999999,None,,587.6665502999999,588.6668353,588.6668353,590.7418857,,,605.5404447000001,605.5404447000001,605.5404447000001,1,14.987751200000162,620.5499751,620.5499751,620.5499751,620.5499751,620.5499751,620.5499751,620.5499751,620.5499751,None,None,None,587.6665502999999,587.6665502999999,,601.9046544,,,,,,,,,,,,,,,0,001,2024-06-26_14h47.33.096,robot_cogshifting_sign,2022.2.5,60.0087372721466,
"['R_Head_Y_For', 'L_Head_X_Back', 'L_Head_Y_For', 'L_Torso_Y_For']","{'laterality': 'R_Head_Y_For', 'localisation': 'L_Torso_Y_For', 'movement': 'L_Head_X_Back'}",localisation,"['laterality', 'localisation', 'movement']",L_Torso_Y_For,3,3,robot,2,False,True,"['robot_stimuli\\R_Head_Y_For.mp4', 'robot_stimuli\\L_Head_X_Back.mp4', 'robot_stimuli\\L_Head_Y_For.mp4', 'robot_stimuli\\L_Torso_Y_For.mp4']",robot_stimuli\L_Torso_Y_For.mp4,0,0,0,0,0,0,17,17,17,,,,,,,,,,,,,,,,,,,,,620.5499751,620.5499751,None,,620.5499751,621.5503071,621.5503071,623.627422,,,638.4430499,638.4430499,638.4430499,4,6.030176899999901,644.5254904999999,646.4590621,644.5254904999999,646.4590621,644.5254904999999,646.4590621,644.5254904999999,646.4590621,2.3765432098765418,1.5071332999998504,space,620.5499751,620.5499751,1.8670519000000922,634.7966122,,,,,,,,,,,,,,,0,001,2024-06-26_14h47.33.096,robot_cogshifting_sign,2022.2.5,60.0087372721466,
,,,,,,,,,,,,,,0,0,0,0,,,,,,,,,,,,,,,,,,,,,,,,,,,,,,,,,,,,,,,,,,,,,,,,,,,,,,,646.4590621,646.4590621,646.4590621,c,1.9500590999999758,,,,,,,,,,0,001,2024-06-26_14h47.33.096,robot_cogshifting_sign,2022.2.5,60.0087372721466,
"['blue_bottom_R_0', 'red_bottom_N_0', 'blue_left_Q_0', 'blue_bottom_F_45']","{'color': 'red_bottom_N_0', 'position': 'blue_left_Q_0', 'orientation': 'blue_bottom_F_45'}",position,['position'],blue_left_Q_0,2,1,letter,1,True,False,"['robot_stimuli\\\\filler.mp4', 'robot_stimuli\\\\filler.mp4', 'robot_stimuli\\\\filler.mp4', 'robot_stimuli\\\\filler.mp4']",robot_stimuli\\filler.mp4,0,,,,,,,,,,,,,0,0,0,0,,,,,,,,,,,,,,,,,,,652.5169188,654.5727328,,,663.0645606999999,663.0645606999999,663.0645606999999,3,1.0810572999999977,664.1669591,664.1669591,664.1669591,664.1669591,664.1669591,664.1669591,664.1669591,664.1669591,None,None,None,,,,,,,,,,648.4505721999999,648.4505721999999,space,4.038723200000163,661.0437849,663.0645606999999,,,,0,001,2024-06-26_14h47.33.096,robot_cogshifting_sign,2022.2.5,60.0087372721466,
"['blue_right_T_0', 'red_right_N_45', 'blue_bottom_L_45', 'blue_right_V_45']","{'color': 'red_right_N_45', 'position': 'blue_bottom_L_45', 'orientation': 'blue_right_T_0'}",position,['position'],blue_bottom_L_45,2,1,letter,1,False,False,"['robot_stimuli\\\\filler.mp4', 'robot_stimuli\\\\filler.mp4', 'robot_stimuli\\\\filler.mp4', 'robot_stimuli\\\\filler.mp4']",robot_stimuli\\filler.mp4,0,,,,,,,,,,,,,0,1,1,1,,,,,,,,,,,,,,,,,,,664.1669591,666.221947,,,675.1040095000001,675.1040095000001,675.1040095000001,3,5.593062799999984,680.7168655999999,680.7168655999999,680.7168655999999,680.7168655999999,680.7168655999999,680.7168655999999,680.7168655999999,680.7168655999999,None,None,None,,,,,,,,,,664.1669591,664.1669591,None,,672.8976647,675.1040095000001,664.1669591,664.1669591,,0,001,2024-06-26_14h47.33.096,robot_cogshifting_sign,2022.2.5,60.0087372721466,
"['red_top_V_0', 'blue_top_H_45', 'blue_right_M_0', 'blue_top_M_0']","{'color': 'red_top_V_0', 'position': 'blue_right_M_0', 'orientation': 'blue_top_H_45'}",orientation,['orientation'],blue_top_H_45,1,1,letter,1,False,False,"['robot_stimuli\\\\filler.mp4', 'robot_stimuli\\\\filler.mp4', 'robot_stimuli\\\\filler.mp4', 'robot_stimuli\\\\filler.mp4']",robot_stimuli\\filler.mp4,0,,,,,,,,,,,,,0,2,2,2,,,,,,,,,,,,,,,,,,,680.7168655999999,682.7709176999999,,,691.4669739000001,691.4669739000001,691.4669739000001,2,0.7426681999999118,692.2336146,692.2336146,692.2336146,692.2336146,692.2336146,692.2336146,692.2336146,692.2336146,None,None,None,,,,,,,,,,680.7168655999999,680.7168655999999,None,,689.2354014,691.4669739000001,680.7168655999999,680.7168655999999,,0,001,2024-06-26_14h47.33.096,robot_cogshifting_sign,2022.2.5,60.0087372721466,
"['blue_right_J_45', 'blue_bottom_S_0', 'blue_bottom_C_45', 'red_bottom_Z_45']","{'color': 'red_bottom_Z_45', 'position': 'blue_right_J_45', 'orientation': 'blue_bottom_S_0'}",color,['color'],red_bottom_Z_45,3,1,letter,1,False,False,"['robot_stimuli\\\\filler.mp4', 'robot_stimuli\\\\filler.mp4', 'robot_stimuli\\\\filler.mp4', 'robot_stimuli\\\\filler.mp4']",robot_stimuli\\filler.mp4,0,,,,,,,,,,,,,0,3,3,3,,,,,,,,,,,,,,,,,,,692.2336146,694.3063351999999,,,702.7849799,702.7849799,702.7849799,4,0.4560339000000795,703.2669507,703.2669507,703.2669507,703.2669507,703.2669507,703.2669507,703.2669507,703.2669507,None,None,None,,,,,,,,,,692.2336146,692.2336146,None,,700.7626820999999,702.7849799,692.2336146,692.2336146,,0,001,2024-06-26_14h47.33.096,robot_cogshifting_sign,2022.2.5,60.0087372721466,
"['red_left_H_0', 'red_bottom_X_45', 'red_bottom_G_0', 'blue_bottom_W_0']","{'color': 'blue_bottom_W_0', 'position': 'red_left_H_0', 'orientation': 'red_bottom_X_45'}",color,['color'],blue_bottom_W_0,3,1,letter,1,False,False,"['robot_stimuli\\\\filler.mp4', 'robot_stimuli\\\\filler.mp4', 'robot_stimuli\\\\filler.mp4', 'robot_stimuli\\\\filler.mp4']",robot_stimuli\\filler.mp4,0,,,,,,,,,,,,,0,4,4,4,,,,,,,,,,,,,,,,,,,703.2669507,705.3245179999999,,,713.7978386,713.7978386,713.7978386,4,0.7322810000001709,714.5503997999999,714.5503997999999,714.5503997999999,714.5503997999999,714.5503997999999,714.5503997999999,714.5503997999999,714.5503997999999,None,None,None,,,,,,,,,,703.2669507,703.2669507,None,,711.7797582999999,713.7978386,703.2669507,703.2669507,,0,001,2024-06-26_14h47.33.096,robot_cogshifting_sign,2022.2.5,60.0087372721466,
"['red_right_V_45', 'blue_right_W_45', 'red_bottom_N_45', 'red_right_Q_0']","{'color': 'blue_right_W_45', 'position': 'red_bottom_N_45', 'orientation': 'red_right_Q_0'}",color,['color'],blue_right_W_45,1,1,letter,1,False,False,"['robot_stimuli\\\\filler.mp4', 'robot_stimuli\\\\filler.mp4', 'robot_stimuli\\\\filler.mp4', 'robot_stimuli\\\\filler.mp4']",robot_stimuli\\filler.mp4,0,,,,,,,,,,,,,0,5,5,5,,,,,,,,,,,,,,,,,,,714.5503997999999,716.6061976000001,,,725.6848579,725.6848579,725.6848579,2,0.45168870000009065,726.1687548,726.1687548,726.1687548,726.1687548,726.1687548,726.1687548,726.1687548,726.1687548,None,None,None,,,,,,,,,,714.5503997999999,714.5503997999999,None,,723.4693990000001,725.6848579,714.5503997999999,714.5503997999999,,0,001,2024-06-26_14h47.33.096,robot_cogshifting_sign,2022.2.5,60.0087372721466,
"['blue_left_Q_45', 'red_left_W_45', 'red_top_J_45', 'red_left_R_0']","{'color': 'blue_left_Q_45', 'position': 'red_top_J_45', 'orientation': 'red_left_R_0'}",orientation,['orientation'],red_left_R_0,3,1,letter,1,False,False,"['robot_stimuli\\\\filler.mp4', 'robot_stimuli\\\\filler.mp4', 'robot_stimuli\\\\filler.mp4', 'robot_stimuli\\\\filler.mp4']",robot_stimuli\\filler.mp4,0,,,,,,,,,,,,,0,6,6,6,,,,,,,,,,,,,,,,,,,726.1687548,,,,736.9112754,736.9112754,736.9112754,4,2.154699800000003,739.0837254999999,739.0837254999999,739.0837254999999,739.0837254999999,739.0837254999999,739.0837254999999,739.0837254999999,739.0837254999999,None,None,None,,,,,,,,,,726.1687548,726.1687548,None,,734.8948362000001,736.9112754,726.1687548,726.1687548,,0,001,2024-06-26_14h47.33.096,robot_cogshifting_sign,2022.2.5,60.0087372721466,
"['red_top_X_45', 'red_top_N_0', 'red_left_H_45', 'blue_top_R_45']","{'color': 'blue_top_R_45', 'position': 'red_left_H_45', 'orientation': 'red_top_N_0'}",orientation,['orientation'],red_top_N_0,1,1,letter,1,False,False,"['robot_stimuli\\\\filler.mp4', 'robot_stimuli\\\\filler.mp4', 'robot_stimuli\\\\filler.mp4', 'robot_stimuli\\\\filler.mp4']",robot_stimuli\\filler.mp4,0,,,,,,,,,,,,,0,7,7,7,,,,,,,,,,,,,,,,,,,739.0837254999999,741.1425634,,,750.0234141000001,750.0234141000001,750.0234141000001,2,0.6901048000000856,750.7338422999999,750.7338422999999,750.7338422999999,750.7338422999999,750.7338422999999,750.7338422999999,750.7338422999999,750.7338422999999,None,None,None,,,,,,,,,,739.0837254999999,739.0837254999999,None,,747.8019479,750.0234141000001,739.0837254999999,739.0837254999999,,0,001,2024-06-26_14h47.33.096,robot_cogshifting_sign,2022.2.5,60.0087372721466,
"['red_top_F_45', 'blue_top_B_45', 'blue_top_W_0', 'blue_bottom_C_45']","{'color': 'red_top_F_45', 'position': 'blue_bottom_C_45', 'orientation': 'blue_top_W_0'}",position,['position'],blue_bottom_C_45,3,1,letter,1,False,True,"['robot_stimuli\\\\filler.mp4', 'robot_stimuli\\\\filler.mp4', 'robot_stimuli\\\\filler.mp4', 'robot_stimuli\\\\filler.mp4']",robot_stimuli\\filler.mp4,0,,,,,,,,,,,,,0,8,8,8,,,,,,,,,,,,,,,,,,,750.7338422999999,752.789722,,,761.2675565,761.2675565,761.2675565,4,0.4295116000001826,761.7429159999999,764.6502040999999,761.7429159999999,764.6502040999999,761.7429159999999,764.6502040999999,761.7429159999999,764.6502040999999,2.3765432098765418,2.169708200000059,space,,,2.8493071999999984,,,,,,,750.7338422999999,750.7338422999999,None,,759.2456044999999,761.2675565,750.7338422999999,750.7338422999999,,0,001,2024-06-26_14h47.33.096,robot_cogshifting_sign,2022.2.5,60.0087372721466,
"['blue_bottom_P_45', 'red_bottom_V_0', 'blue_bottom_C_0', 'blue_left_Q_0']","{'color': 'red_bottom_V_0', 'position': 'blue_left_Q_0', 'orientation': 'blue_bottom_P_45'}",orientation,"['color', 'orientation', 'position']",blue_bottom_P_45,0,3,letter,1,True,False,"['robot_stimuli\\\\filler.mp4', 'robot_stimuli\\\\filler.mp4', 'robot_stimuli\\\\filler.mp4', 'robot_stimuli\\\\filler.mp4']",robot_stimuli\\filler.mp4,0,,,,,,,,,,,,,0,9,9,9,,,,,,,,,,,,,,,,,,,767.0839593999999,769.1438836,,,777.8013082,777.8013082,777.8013082,2,3.7280457999999044,781.5505983999999,781.5505983999999,781.5505983999999,781.5505983999999,781.5505983999999,781.5505983999999,781.5505983999999,781.5505983999999,None,None,None,,,,,,,,,,764.6502040999999,764.6502040999999,space,2.415126299999997,775.7838402,777.8013082,,,,0,001,2024-06-26_14h47.33.096,robot_cogshifting_sign,2022.2.5,60.0087372721466,
"['red_right_D_45', 'red_bottom_X_0', 'blue_bottom_R_45', 'red_bottom_R_45']","{'color': 'blue_bottom_R_45', 'position': 'red_right_D_45', 'orientation': 'red_bottom_X_0'}",position,"['color', 'orientation', 'position']",red_right_D_45,0,3,letter,1,False,False,"['robot_stimuli\\\\filler.mp4', 'robot_stimuli\\\\filler.mp4', 'robot_stimuli\\\\filler.mp4', 'robot_stimuli\\\\filler.mp4']",robot_stimuli\\filler.mp4,0,,,,,,,,,,,,,0,10,10,10,,,,,,,,,,,,,,,,,,,781.5505983999999,783.6130499999999,,,792.0758894,792.0758894,792.0758894,1,3.3012253000000555,795.4006626999999,795.4006626999999,795.4006626999999,795.4006626999999,795.4006626999999,795.4006626999999,795.4006626999999,795.4006626999999,None,None,None,,,,,,,,,,781.5505983999999,781.5505983999999,None,,790.0565727000001,792.0758894,781.5505983999999,781.5505983999999,,0,001,2024-06-26_14h47.33.096,robot_cogshifting_sign,2022.2.5,60.0087372721466,
"['blue_left_V_0', 'blue_left_Z_45', 'red_left_T_45', 'blue_bottom_X_45']","{'color': 'red_left_T_45', 'position': 'blue_bottom_X_45', 'orientation': 'blue_left_V_0'}",orientation,"['color', 'orientation', 'position']",blue_left_V_0,0,3,letter,1,False,False,"['robot_stimuli\\\\filler.mp4', 'robot_stimuli\\\\filler.mp4', 'robot_stimuli\\\\filler.mp4', 'robot_stimuli\\\\filler.mp4']",robot_stimuli\\filler.mp4,0,,,,,,,,,,,,,0,11,11,11,,,,,,,,,,,,,,,,,,,795.4006626999999,797.4568641999999,,,806.3369639,806.3369639,806.3369639,1,4.081384800000137,810.4505434,810.4505434,810.4505434,810.4505434,810.4505434,810.4505434,810.4505434,810.4505434,None,None,None,,,,,,,,,,795.4006626999999,795.4006626999999,None,,804.3081967999999,806.3369639,795.4006626999999,795.4006626999999,,0,001,2024-06-26_14h47.33.096,robot_cogshifting_sign,2022.2.5,60.0087372721466,
"['blue_bottom_X_45', 'red_bottom_M_45', 'blue_right_R_45', 'blue_bottom_S_0']","{'color': 'red_bottom_M_45', 'position': 'blue_right_R_45', 'orientation': 'blue_bottom_S_0'}",color,"['color', 'orientation', 'position']",red_bottom_M_45,1,3,letter,1,False,False,"['robot_stimuli\\\\filler.mp4', 'robot_stimuli\\\\filler.mp4', 'robot_stimuli\\\\filler.mp4', 'robot_stimuli\\\\filler.mp4']",robot_stimuli\\filler.mp4,0,,,,,,,,,,,,,0,12,12,12,,,,,,,,,,,,,,,,,,,810.4505434,812.5204343,,,821.2034495,821.2034495,821.2034495,2,2.854439599999864,824.0842276000001,824.0842276000001,824.0842276000001,824.0842276000001,824.0842276000001,824.0842276000001,824.0842276000001,824.0842276000001,None,None,None,,,,,,,,,,810.4505434,810.4505434,None,,818.9886921,821.2034495,810.4505434,810.4505434,,0,001,2024-06-26_14h47.33.096,robot_cogshifting_sign,2022.2.5,60.0087372721466,
"['blue_right_K_0', 'blue_bottom_V_45', 'red_right_X_45', 'blue_right_S_45']","{'color': 'red_right_X_45', 'position': 'blue_bottom_V_45', 'orientation': 'blue_right_K_0'}",orientation,"['color', 'orientation', 'position']",blue_right_K_0,0,3,letter,1,False,False,"['robot_stimuli\\\\filler.mp4', 'robot_stimuli\\\\filler.mp4', 'robot_stimuli\\\\filler.mp4', 'robot_stimuli\\\\filler.mp4']",robot_stimuli\\filler.mp4,0,,,,,,,,,,,,,0,13,13,13,,,,,,,,,,,,,,,,,,,824.0842276000001,826.1432788,,,834.6222149,834.6222149,834.6222149,1,1.5308397999998533,836.1840143,836.1840143,836.1840143,836.1840143,836.1840143,836.1840143,836.1840143,836.1840143,None,None,None,,,,,,,,,,824.0842276000001,824.0842276000001,None,,832.5998709,834.6222149,824.0842276000001,824.0842276000001,,0,001,2024-06-26_14h47.33.096,robot_cogshifting_sign,2022.2.5,60.0087372721466,
"['red_left_J_45', 'red_bottom_H_45', 'red_bottom_Z_0', 'blue_bottom_P_45']","{'color': 'blue_bottom_P_45', 'position': 'red_left_J_45', 'orientation': 'red_bottom_Z_0'}",position,"['color', 'orientation', 'position']",red_left_J_45,0,3,letter,1,False,False,"['robot_stimuli\\\\filler.mp4', 'robot_stimuli\\\\filler.mp4', 'robot_stimuli\\\\filler.mp4', 'robot_stimuli\\\\filler.mp4']",robot_stimuli\\filler.mp4,0,,,,,,,,,,,,,0,14,14,14,,,,,,,,,,,,,,,,,,,836.1840143,838.2401964999999,,,847.1189939999999,847.1189939999999,847.1189939999999,1,1.7697692999998935,848.9176276000001,848.9176276000001,848.9176276000001,848.9176276000001,848.9176276000001,848.9176276000001,848.9176276000001,848.9176276000001,None,None,None,,,,,,,,,,836.1840143,836.1840143,None,,845.0949659999999,847.1189939999999,836.1840143,836.1840143,,0,001,2024-06-26_14h47.33.096,robot_cogshifting_sign,2022.2.5,60.0087372721466,
"['red_bottom_D_45', 'red_left_Q_0', 'blue_left_T_45', 'red_left_B_45']","{'color': 'blue_left_T_45', 'position': 'red_bottom_D_45', 'orientation': 'red_left_Q_0'}",position,"['color', 'orientation', 'position']",red_bottom_D_45,0,3,letter,1,False,False,"['robot_stimuli\\\\filler.mp4', 'robot_stimuli\\\\filler.mp4', 'robot_stimuli\\\\filler.mp4', 'robot_stimuli\\\\filler.mp4']",robot_stimuli\\filler.mp4,0,,,,,,,,,,,,,0,15,15,15,,,,,,,,,,,,,,,,,,,848.9176276000001,850.972882,,,859.4552632,859.4552632,859.4552632,1,1.755080600000042,861.2340575000001,861.2340575000001,861.2340575000001,861.2340575000001,861.2340575000001,861.2340575000001,861.2340575000001,861.2340575000001,None,None,None,,,,,,,,,,848.9176276000001,848.9176276000001,None,,857.4351921,859.4552632,848.9176276000001,848.9176276000001,,0,001,2024-06-26_14h47.33.096,robot_cogshifting_sign,2022.2.5,60.0087372721466,
"['blue_bottom_V_0', 'red_left_Q_0', 'red_bottom_L_0', 'red_bottom_V_45']","{'color': 'blue_bottom_V_0', 'position': 'red_left_Q_0', 'orientation': 'red_bottom_V_45'}",color,"['color', 'orientation', 'position']",blue_bottom_V_0,0,3,letter,1,False,False,"['robot_stimuli\\\\filler.mp4', 'robot_stimuli\\\\filler.mp4', 'robot_stimuli\\\\filler.mp4', 'robot_stimuli\\\\filler.mp4']",robot_stimuli\\filler.mp4,0,,,,,,,,,,,,,0,16,16,16,,,,,,,,,,,,,,,,,,,861.2340575000001,863.2895524,,,871.7854279999999,871.7854279999999,871.7854279999999,1,1.0643080999999484,872.8674704,872.8674704,872.8674704,872.8674704,872.8674704,872.8674704,872.8674704,872.8674704,None,None,None,,,,,,,,,,861.2340575000001,861.2340575000001,None,,869.7658306999999,871.7854279999999,861.2340575000001,861.2340575000001,,0,001,2024-06-26_14h47.33.096,robot_cogshifting_sign,2022.2.5,60.0087372721466,
"['blue_top_L_45', 'blue_top_L_0', 'red_top_R_45', 'blue_left_V_45']","{'color': 'red_top_R_45', 'position': 'blue_left_V_45', 'orientation': 'blue_top_L_0'}",color,"['color', 'orientation', 'position']",red_top_R_45,2,3,letter,1,False,True,"['robot_stimuli\\\\filler.mp4', 'robot_stimuli\\\\filler.mp4', 'robot_stimuli\\\\filler.mp4', 'robot_stimuli\\\\filler.mp4']",robot_stimuli\\filler.mp4,0,,,,,,,,,,,,,0,17,17,17,,,,,,,,,,,,,,,,,,,872.8674704,874.9221055,,,883.6061460999999,883.6061460999999,883.6061460999999,3,1.826902700000005,885.4767695999999,887.3234908,885.4767695999999,887.3234908,885.4767695999999,887.3234908,885.4767695999999,887.3234908,2.3765432098765418,1.4558097999999973,space,,,1.8048318000002155,,,,,,,872.8674704,872.8674704,None,,881.3897568,883.6061460999999,872.8674704,872.8674704,,0,001,2024-06-26_14h47.33.096,robot_cogshifting_sign,2022.2.5,60.0087372721466,
"['red_right_G_45', 'red_top_X_0', 'blue_top_M_45', 'red_top_W_45']","{'color': 'blue_top_M_45', 'position': 'red_right_G_45', 'orientation': 'red_top_X_0'}",color,"['color', 'position']",blue_top_M_45,2,2,letter,1,True,False,"['robot_stimuli\\\\filler.mp4', 'robot_stimuli\\\\filler.mp4', 'robot_stimuli\\\\filler.mp4', 'robot_stimuli\\\\filler.mp4']",robot_stimuli\\filler.mp4,0,,,,,,,,,,,,,0,18,18,18,,,,,,,,,,,,,,,,,,,890.4341468,892.4902869,,,901.1701297,901.1701297,901.1701297,3,2.5991046000000324,903.8009695000001,903.8009695000001,903.8009695000001,903.8009695000001,903.8009695000001,903.8009695000001,903.8009695000001,903.8009695000001,None,None,None,,,,,,,,,,887.3234908,887.3234908,space,3.0863425999999663,899.1503860999999,901.1701297,,,,0,001,2024-06-26_14h47.33.096,robot_cogshifting_sign,2022.2.5,60.0087372721466,
"['blue_left_P_0', 'blue_left_J_45', 'red_left_G_0', 'blue_top_H_0']","{'color': 'red_left_G_0', 'position': 'blue_top_H_0', 'orientation': 'blue_left_J_45'}",orientation,"['orientation', 'position']",blue_left_J_45,1,2,letter,1,False,False,"['robot_stimuli\\\\filler.mp4', 'robot_stimuli\\\\filler.mp4', 'robot_stimuli\\\\filler.mp4', 'robot_stimuli\\\\filler.mp4']",robot_stimuli\\filler.mp4,0,,,,,,,,,,,,,0,19,19,19,,,,,,,,,,,,,,,,,,,903.8009695000001,905.8673681,,,914.7404274,914.7404274,914.7404274,2,1.9570277999999917,916.7175986,916.7175986,916.7175986,916.7175986,916.7175986,916.7175986,916.7175986,916.7175986,None,None,None,,,,,,,,,,903.8009695000001,903.8009695000001,None,,912.7141887,914.7404274,903.8009695000001,903.8009695000001,,0,001,2024-06-26_14h47.33.096,robot_cogshifting_sign,2022.2.5,60.0087372721466,
"['blue_right_J_45', 'blue_left_L_45', 'blue_right_Q_0', 'red_right_Z_45']","{'color': 'red_right_Z_45', 'position': 'blue_left_L_45', 'orientation': 'blue_right_Q_0'}",position,"['color', 'position']",blue_left_L_45,1,2,letter,1,False,False,"['robot_stimuli\\\\filler.mp4', 'robot_stimuli\\\\filler.mp4', 'robot_stimuli\\\\filler.mp4', 'robot_stimuli\\\\filler.mp4']",robot_stimuli\\filler.mp4,0,,,,,,,,,,,,,0,20,20,20,,,,,,,,,,,,,,,,,,,916.7175986,918.7728161,,,927.8484524,927.8484524,927.8484524,2,2.7939947000000984,930.6675981000001,930.6675981000001,930.6675981000001,930.6675981000001,930.6675981000001,930.6675981000001,930.6675981000001,930.6675981000001,None,None,None,,,,,,,,,,916.7175986,916.7175986,None,,925.6224428999999,927.8484524,916.7175986,916.7175986,,0,001,2024-06-26_14h47.33.096,robot_cogshifting_sign,2022.2.5,60.0087372721466,
"['red_right_W_0', 'blue_right_N_0', 'red_right_R_45', 'red_top_C_0']","{'color': 'blue_right_N_0', 'position': 'red_top_C_0', 'orientation': 'red_right_R_45'}",color,"['color', 'position']",blue_right_N_0,1,2,letter,1,False,False,"['robot_stimuli\\\\filler.mp4', 'robot_stimuli\\\\filler.mp4', 'robot_stimuli\\\\filler.mp4', 'robot_stimuli\\\\filler.mp4']",robot_stimuli\\filler.mp4,0,,,,,,,,,,,,,0,21,21,21,,,,,,,,,,,,,,,,,,,930.6675981000001,932.7294387,,,941.788041,941.788041,941.788041,2,4.718508899999847,946.5343058999999,946.5343058999999,946.5343058999999,946.5343058999999,946.5343058999999,946.5343058999999,946.5343058999999,946.5343058999999,None,None,None,,,,,,,,,,930.6675981000001,930.6675981000001,None,,939.5738744,941.788041,930.6675981000001,930.6675981000001,,0,001,2024-06-26_14h47.33.096,robot_cogshifting_sign,2022.2.5,60.0087372721466,
"['red_right_G_45', 'blue_right_Q_45', 'blue_right_W_0', 'blue_bottom_G_45']","{'color': 'red_right_G_45', 'position': 'blue_bottom_G_45', 'orientation': 'blue_right_W_0'}",position,"['orientation', 'position']",blue_bottom_G_45,3,2,letter,1,False,False,"['robot_stimuli\\\\filler.mp4', 'robot_stimuli\\\\filler.mp4', 'robot_stimuli\\\\filler.mp4', 'robot_stimuli\\\\filler.mp4']",robot_stimuli\\filler.mp4,0,,,,,,,,,,,,,0,22,22,22,,,,,,,,,,,,,,,,,,,946.5343058999999,948.5918592999999,,,957.0626855999999,957.0626855999999,957.0626855999999,4,3.74782289999996,960.8345145000001,960.8345145000001,960.8345145000001,960.8345145000001,960.8345145000001,960.8345145000001,960.8345145000001,960.8345145000001,None,None,None,,,,,,,,,,946.5343058999999,946.5343058999999,None,,955.0479149,957.0626855999999,946.5343058999999,946.5343058999999,,0,001,2024-06-26_14h47.33.096,robot_cogshifting_sign,2022.2.5,60.0087372721466,
"['red_top_F_45', 'red_bottom_W_45', 'red_top_L_0', 'blue_top_R_45']","{'color': 'blue_top_R_45', 'position': 'red_bottom_W_45', 'orientation': 'red_top_L_0'}",orientation,"['orientation', 'position']",red_top_L_0,2,2,letter,1,False,False,"['robot_stimuli\\\\filler.mp4', 'robot_stimuli\\\\filler.mp4', 'robot_stimuli\\\\filler.mp4', 'robot_stimuli\\\\filler.mp4']",robot_stimuli\\filler.mp4,0,,,,,,,,,,,,,0,23,23,23,,,,,,,,,,,,,,,,,,,960.8345145000001,962.8911737000001,,,971.5867088,971.5867088,971.5867088,3,3.344000800000117,974.951182,974.951182,974.951182,974.951182,974.951182,974.951182,974.951182,974.951182,None,None,None,,,,,,,,,,960.8345145000001,960.8345145000001,None,,969.5642577000001,971.5867088,960.8345145000001,960.8345145000001,,0,001,2024-06-26_14h47.33.096,robot_cogshifting_sign,2022.2.5,60.0087372721466,
"['red_top_X_45', 'blue_top_X_0', 'blue_left_P_45', 'blue_top_D_45']","{'color': 'red_top_X_45', 'position': 'blue_left_P_45', 'orientation': 'blue_top_X_0'}",orientation,"['color', 'orientation']",blue_top_X_0,1,2,letter,1,False,False,"['robot_stimuli\\\\filler.mp4', 'robot_stimuli\\\\filler.mp4', 'robot_stimuli\\\\filler.mp4', 'robot_stimuli\\\\filler.mp4']",robot_stimuli\\filler.mp4,0,,,,,,,,,,,,,0,24,24,24,,,,,,,,,,,,,,,,,,,974.951182,977.0186613000001,,,985.9055635,985.9055635,985.9055635,2,1.1932584999998426,987.1176575,987.1176575,987.1176575,987.1176575,987.1176575,987.1176575,987.1176575,987.1176575,None,None,None,,,,,,,,,,974.951182,974.951182,None,,983.6880447000001,985.9055635,974.951182,974.951182,,0,001,2024-06-26_14h47.33.096,robot_cogshifting_sign,2022.2.5,60.0087372721466,
"['red_left_J_0', 'red_left_V_45', 'red_right_Z_45', 'blue_left_F_45']","{'color': 'blue_left_F_45', 'position': 'red_right_Z_45', 'orientation': 'red_left_J_0'}",position,"['orientation', 'position']",red_right_Z_45,2,2,letter,1,False,False,"['robot_stimuli\\\\filler.mp4', 'robot_stimuli\\\\filler.mp4', 'robot_stimuli\\\\filler.mp4', 'robot_stimuli\\\\filler.mp4']",robot_stimuli\\filler.mp4,0,,,,,,,,,,,,,0,25,25,25,,,,,,,,,,,,,,,,,,,987.1176575,989.1747918000001,,,997.4520926,997.4520926,997.4520926,3,3.1256985000001123,1000.6012079,1000.6012079,1000.6012079,1000.6012079,1000.6012079,1000.6012079,1000.6012079,1000.6012079,None,None,None,,,,,,,,,,987.1176575,987.1176575,None,,995.4346780000001,997.4520926,987.1176575,987.1176575,,0,001,2024-06-26_14h47.33.096,robot_cogshifting_sign,2022.2.5,60.0087372721466,
"['blue_left_N_0', 'red_left_Z_45', 'red_left_W_0', 'red_bottom_B_0']","{'color': 'blue_left_N_0', 'position': 'red_bottom_B_0', 'orientation': 'red_left_Z_45'}",color,"['color', 'position']",blue_left_N_0,0,2,letter,1,False,True,"['robot_stimuli\\\\filler.mp4', 'robot_stimuli\\\\filler.mp4', 'robot_stimuli\\\\filler.mp4', 'robot_stimuli\\\\filler.mp4']",robot_stimuli\\filler.mp4,0,,,,,,,,,,,,,0,26,26,26,,,,,,,,,,,,,,,,,,,1000.6012079,1002.6650064,,,1011.1353134000001,1011.1353134000001,1011.1353134000001,1,2.850393199999985,1014.0460373999999,1016.0046720999999,1014.0460373999999,1016.0046720999999,1014.0460373999999,1016.0046720999999,1014.0460373999999,1016.0046720999999,2.3765432098765418,1.6408560999998372,space,,,1.9068682999999282,,,,,,,1000.6012079,1000.6012079,None,,1009.1145376,1011.1353134000001,1000.6012079,1000.6012079,,0,001,2024-06-26_14h47.33.096,robot_cogshifting_sign,2022.2.5,60.0087372721466,
"['L_Arm_Z_Back', 'R_Arm_Z_Back', 'R_Torso_Z_For', 'R_Arm_X_For']","{'laterality': 'L_Arm_Z_Back', 'localisation': 'R_Torso_Z_For', 'movement': 'R_Arm_X_For'}",localisation,"['laterality', 'localisation', 'movement']",R_Torso_Z_For,2,3,robot,2,True,False,"['robot_stimuli\\L_Arm_Z_Back.mp4', 'robot_stimuli\\R_Arm_Z_Back.mp4', 'robot_stimuli\\R_Torso_Z_For.mp4', 'robot_stimuli\\R_Arm_X_For.mp4']",robot_stimuli\R_Torso_Z_For.mp4,0,,,,,,,,,,,,,0,27,27,27,,,,,,,,,,,,,,,,,,,1018.0679269,1020.1518255999999,,,1034.9933534,1034.9933534,1034.9933534,3,24.728244999999788,1059.7512797,1059.7512797,1059.7512797,1059.7512797,1059.7512797,1059.7512797,1059.7512797,1059.7512797,None,None,None,,,,,,,,,,1016.0046720999999,1016.0046720999999,space,2.037320200000181,,,,,1031.3467206999999,0,001,2024-06-26_14h47.33.096,robot_cogshifting_sign,2022.2.5,60.0087372721466,
"['L_Arm_X_For', 'R_Arm_X_Back', 'L_Arm_Y_For', 'L_Head_X_For']","{'laterality': 'R_Arm_X_Back', 'localisation': 'L_Head_X_For', 'movement': 'L_Arm_Y_For'}",movement,"['laterality', 'localisation', 'movement']",L_Arm_Y_For,2,3,robot,2,False,False,"['robot_stimuli\\L_Arm_X_For.mp4', 'robot_stimuli\\R_Arm_X_Back.mp4', 'robot_stimuli\\L_Arm_Y_For.mp4', 'robot_stimuli\\L_Head_X_For.mp4']",robot_stimuli\L_Arm_Y_For.mp4,0,,,,,,,,,,,,,0,28,28,28,,,,,,,,,,,,,,,,,,,1059.7512797,1061.828689,,,1076.5463198,1076.5463198,1076.5463198,4,23.54442420000032,1100.1181688,1100.1181688,1100.1181688,1100.1181688,1100.1181688,1100.1181688,1100.1181688,1100.1181688,None,None,None,,,,,,,,,,1059.7512797,1059.7512797,None,,,,1059.7512797,1059.7512797,1072.9773625,0,001,2024-06-26_14h47.33.096,robot_cogshifting_sign,2022.2.5,60.0087372721466,
"['L_Arm_Y_Back', 'R_Head_Y_For', 'R_Arm_Z_Back', 'R_Arm_Y_For']","{'laterality': 'L_Arm_Y_Back', 'localisation': 'R_Head_Y_For', 'movement': 'R_Arm_Z_Back'}",laterality,"['laterality', 'localisation', 'movement']",L_Arm_Y_Back,0,3,robot,2,False,False,"['robot_stimuli\\L_Arm_Y_Back.mp4', 'robot_stimuli\\R_Head_Y_For.mp4', 'robot_stimuli\\R_Arm_Z_Back.mp4', 'robot_stimuli\\R_Arm_Y_For.mp4']",robot_stimuli\L_Arm_Y_Back.mp4,0,,,,,,,,,,,,,0,29,29,29,,,,,,,,,,,,,,,,,,,1100.1181688,1102.1957981,,,1116.8614969,1116.8614969,1116.8614969,3,29.411413899999843,1146.3014124,1146.3014124,1146.3014124,1146.3014124,1146.3014124,1146.3014124,1146.3014124,1146.3014124,None,None,None,,,,,,,,,,1100.1181688,1100.1181688,None,,,,1100.1181688,1100.1181688,1113.3464061,0,001,2024-06-26_14h47.33.096,robot_cogshifting_sign,2022.2.5,60.0087372721466,
"['L_Base_X_Back', 'L_Head_X_Back', 'L_Head_Y_For', 'R_Head_X_For']","{'laterality': 'R_Head_X_For', 'localisation': 'L_Base_X_Back', 'movement': 'L_Head_Y_For'}",laterality,"['laterality', 'localisation', 'movement']",R_Head_X_For,3,3,robot,2,False,False,"['robot_stimuli\\L_Base_X_Back.mp4', 'robot_stimuli\\L_Head_X_Back.mp4', 'robot_stimuli\\L_Head_Y_For.mp4', 'robot_stimuli\\R_Head_X_For.mp4']",robot_stimuli\R_Head_X_For.mp4,0,,,,,,,,,,,,,0,30,30,30,,,,,,,,,,,,,,,,,,,1146.3014124,1148.381687,,,1163.1395039,1163.1395039,1163.1395039,4,4.630080800000087,1167.8016741,1167.8016741,1167.8016741,1167.8016741,1167.8016741,1167.8016741,1167.8016741,1167.8016741,None,None,None,,,,,,,,,,1146.3014124,1146.3014124,None,,,,1146.3014124,1146.3014124,1159.4969506,0,001,2024-06-26_14h47.33.096,robot_cogshifting_sign,2022.2.5,60.0087372721466,
"['L_Base_Y_Back', 'R_Arm_Y_For', 'R_Base_Z_Back', 'R_Base_Y_For']","{'laterality': 'L_Base_Y_Back', 'localisation': 'R_Arm_Y_For', 'movement': 'R_Base_Z_Back'}",movement,"['laterality', 'localisation', 'movement']",R_Base_Z_Back,2,3,robot,2,False,False,"['robot_stimuli\\L_Base_Y_Back.mp4', 'robot_stimuli\\R_Arm_Y_For.mp4', 'robot_stimuli\\R_Base_Z_Back.mp4', 'robot_stimuli\\R_Base_Y_For.mp4']",robot_stimuli\R_Base_Z_Back.mp4,0,,,,,,,,,,,,,0,31,31,31,,,,,,,,,,,,,,,,,,,1167.8016741,1169.8773773,,,1184.3971627,1184.3971627,1184.3971627,3,6.165413499999886,1190.5852131,1190.5852131,1190.5852131,1190.5852131,1190.5852131,1190.5852131,1190.5852131,1190.5852131,None,None,None,,,,,,,,,,1167.8016741,1167.8016741,None,,,,1167.8016741,1167.8016741,1180.7606371,0,001,2024-06-26_14h47.33.096,robot_cogshifting_sign,2022.2.5,60.0087372721466,
"['L_Head_X_For', 'L_Base_Z_For', 'R_Base_X_For', 'L_Base_X_Back']","{'laterality': 'R_Base_X_For', 'localisation': 'L_Head_X_For', 'movement': 'L_Base_Z_For'}",movement,"['laterality', 'localisation', 'movement']",L_Base_Z_For,1,3,robot,2,False,False,"['robot_stimuli\\L_Head_X_For.mp4', 'robot_stimuli\\L_Base_Z_For.mp4', 'robot_stimuli\\R_Base_X_For.mp4', 'robot_stimuli\\L_Base_X_Back.mp4']",robot_stimuli\L_Base_Z_For.mp4,0,,,,,,,,,,,,,0,32,32,32,,,,,,,,,,,,,,,,,,,1190.5852131,1192.6624699,,,1207.2736499,1207.2736499,1207.2736499,2,13.463369499999999,1220.7685105,1220.7685105,1220.7685105,1220.7685105,1220.7685105,1220.7685105,1220.7685105,1220.7685105,None,None,None,,,,,,,,,,1190.5852131,1190.5852131,None,,,,1190.5852131,1190.5852131,1203.6756523,0,001,2024-06-26_14h47.33.096,robot_cogshifting_sign,2022.2.5,60.0087372721466,
"['L_Base_X_For', 'L_Head_X_For', 'R_Base_X_For', 'L_Base_Z_Back']","{'laterality': 'R_Base_X_For', 'localisation': 'L_Head_X_For', 'movement': 'L_Base_Z_Back'}",laterality,"['laterality', 'localisation', 'movement']",R_Base_X_For,2,3,robot,2,False,False,"['robot_stimuli\\L_Base_X_For.mp4', 'robot_stimuli\\L_Head_X_For.mp4', 'robot_stimuli\\R_Base_X_For.mp4', 'robot_stimuli\\L_Base_Z_Back.mp4']",robot_stimuli\R_Base_X_For.mp4,0,,,,,,,,,,,,,0,33,33,33,,,,,,,,,,,,,,,,,,,1220.7685105,1222.8469738,,,1237.4289917,1237.4289917,1237.4289917,3,5.445597199999838,1242.9019266999999,1242.9019266999999,1242.9019266999999,1242.9019266999999,1242.9019266999999,1242.9019266999999,1242.9019266999999,1242.9019266999999,None,None,None,,,,,,,,,,1220.7685105,1220.7685105,None,,,,1220.7685105,1220.7685105,1233.7851602,0,001,2024-06-26_14h47.33.096,robot_cogshifting_sign,2022.2.5,60.0087372721466,
"['R_Torso_Y_Back', 'L_Torso_X_For', 'R_Base_X_Back', 'R_Torso_X_For']","{'laterality': 'L_Torso_X_For', 'localisation': 'R_Base_X_Back', 'movement': 'R_Torso_Y_Back'}",localisation,"['laterality', 'localisation', 'movement']",R_Base_X_Back,2,3,robot,2,False,False,"['robot_stimuli\\R_Torso_Y_Back.mp4', 'robot_stimuli\\L_Torso_X_For.mp4', 'robot_stimuli\\R_Base_X_Back.mp4', 'robot_stimuli\\R_Torso_X_For.mp4']",robot_stimuli\R_Base_X_Back.mp4,0,,,,,,,,,,,,,0,34,34,34,,,,,,,,,,,,,,,,,,,1242.9019266999999,1244.9768197,,,1259.7643968999998,1259.7643968999998,1259.7643968999998,1,40.45342719999985,1300.2354158,1300.2354158,1300.2354158,1300.2354158,1300.2354158,1300.2354158,1300.2354158,1300.2354158,None,None,None,,,,,,,,,,1242.9019266999999,1242.9019266999999,None,,,,1242.9019266999999,1242.9019266999999,1256.1282474000002,0,001,2024-06-26_14h47.33.096,robot_cogshifting_sign,2022.2.5,60.0087372721466,
"['R_Head_Z_For', 'R_Base_Z_Back', 'L_Head_Z_For', 'R_Head_Y_Back']","{'laterality': 'L_Head_Z_For', 'localisation': 'R_Base_Z_Back', 'movement': 'R_Head_Y_Back'}",localisation,"['laterality', 'localisation', 'movement']",R_Base_Z_Back,1,3,robot,2,False,True,"['robot_stimuli\\R_Head_Z_For.mp4', 'robot_stimuli\\R_Base_Z_Back.mp4', 'robot_stimuli\\L_Head_Z_For.mp4', 'robot_stimuli\\R_Head_Y_Back.mp4']",robot_stimuli\R_Base_Z_Back.mp4,0,,,,,,,,,,,,,0,35,35,35,,,,,,,,,,,,,,,,,,,1300.2354158,1302.3121749999998,,,1317.0618711,1317.0618711,1317.0618711,2,4.204363900000089,1321.3104894,1326.8887471,1321.3104894,1326.8887471,1321.3104894,1326.8887471,1321.3104894,1326.8887471,16.41975308641975,5.18578239999988,space,,,5.514800300000161,,,,,,,1300.2354158,1300.2354158,None,,,,1300.2354158,1300.2354158,1313.4142218999998,0,001,2024-06-26_14h47.33.096,robot_cogshifting_sign,2022.2.5,60.0087372721466,
"['R_Arm_X_For', 'R_Torso_Z_For', 'L_Torso_X_Back', 'R_Torso_X_Back']","{'laterality': 'L_Torso_X_Back', 'localisation': 'R_Arm_X_For', 'movement': 'R_Torso_Z_For'}",localisation,['localisation'],R_Arm_X_For,0,1,robot,2,True,False,"['robot_stimuli\\R_Arm_X_For.mp4', 'robot_stimuli\\R_Torso_Z_For.mp4', 'robot_stimuli\\L_Torso_X_Back.mp4', 'robot_stimuli\\R_Torso_X_Back.mp4']",robot_stimuli\R_Arm_X_For.mp4,0,,,,,,,,,,,,,0,36,36,36,,,,,,,,,,,,,,,,,,,1329.7019604,1331.7927923999998,,,1346.5901049000001,1346.5901049000001,1346.5901049000001,3,0.5873513999997613,1347.2021203000002,1347.2021203000002,1347.2021203000002,1347.2021203000002,1347.2021203000002,1347.2021203000002,1347.2021203000002,1347.2021203000002,None,None,None,,,,,,,,,,1326.8887471,1326.8887471,space,2.7932358000000477,,,,,1342.9585135999998,0,001,2024-06-26_14h47.33.096,robot_cogshifting_sign,2022.2.5,60.0087372721466,
"['L_Head_X_Back', 'R_Torso_X_Back', 'R_Head_Y_For', 'R_Head_X_Back']","{'laterality': 'L_Head_X_Back', 'localisation': 'R_Torso_X_Back', 'movement': 'R_Head_Y_For'}",movement,['movement'],R_Head_Y_For,2,1,robot,2,False,False,"['robot_stimuli\\L_Head_X_Back.mp4', 'robot_stimuli\\R_Torso_X_Back.mp4', 'robot_stimuli\\R_Head_Y_For.mp4', 'robot_stimuli\\R_Head_X_Back.mp4']",robot_stimuli\R_Head_Y_For.mp4,0,,,,,,,,,,,,,0,37,37,37,,,,,,,,,,,,,,,,,,,1347.2021203000002,1349.2785167,,,1364.0642237999998,1364.0642237999998,1364.0642237999998,3,1.2023642000001473,1365.2854464,1365.2854464,1365.2854464,1365.2854464,1365.2854464,1365.2854464,1365.2854464,1365.2854464,None,None,None,,,,,,,,,,1347.2021203000002,1347.2021203000002,None,,,,1347.2021203000002,1347.2021203000002,1360.4287668,0,001,2024-06-26_14h47.33.096,robot_cogshifting_sign,2022.2.5,60.0087372721466,
"['R_Torso_Y_For', 'L_Head_Y_Back', 'L_Torso_Z_Back', 'L_Torso_Y_For']","{'laterality': 'R_Torso_Y_For', 'localisation': 'L_Head_Y_Back', 'movement': 'L_Torso_Z_Back'}",movement,['movement'],L_Torso_Z_Back,2,1,robot,2,False,False,"['robot_stimuli\\R_Torso_Y_For.mp4', 'robot_stimuli\\L_Head_Y_Back.mp4', 'robot_stimuli\\L_Torso_Z_Back.mp4', 'robot_stimuli\\L_Torso_Y_For.mp4']",robot_stimuli\L_Torso_Z_Back.mp4,0,,,,,,,,,,,,,0,38,38,38,,,,,,,,,,,,,,,,,,,1365.2854464,1367.3600104999998,,,1382.0413025,1382.0413025,1382.0413025,2,6.993353299999626,1389.0523930000002,1389.0523930000002,1389.0523930000002,1389.0523930000002,1389.0523930000002,1389.0523930000002,1389.0523930000002,1389.0523930000002,None,None,None,,,,,,,,,,1365.2854464,1365.2854464,None,,,,1365.2854464,1365.2854464,1378.4101116,0,001,2024-06-26_14h47.33.096,robot_cogshifting_sign,2022.2.5,60.0087372721466,
"['R_Torso_X_For', 'R_Head_X_For', 'L_Head_X_For', 'R_Head_Y_Back']","{'laterality': 'L_Head_X_For', 'localisation': 'R_Torso_X_For', 'movement': 'R_Head_Y_Back'}",localisation,['localisation'],R_Torso_X_For,0,1,robot,2,False,False,"['robot_stimuli\\R_Torso_X_For.mp4', 'robot_stimuli\\R_Head_X_For.mp4', 'robot_stimuli\\L_Head_X_For.mp4', 'robot_stimuli\\R_Head_Y_Back.mp4']",robot_stimuli\R_Torso_X_For.mp4,0,,,,,,,,,,,,,0,39,39,39,,,,,,,,,,,,,,,,,,,1389.0523930000002,1391.1282984000002,,,1405.8622398999998,1405.8622398999998,1405.8622398999998,1,1.1081792000002224,1407.0022099999999,1407.0022099999999,1407.0022099999999,1407.0022099999999,1407.0022099999999,1407.0022099999999,1407.0022099999999,1407.0022099999999,None,None,None,,,,,,,,,,1389.0523930000002,1389.0523930000002,None,,,,1389.0523930000002,1389.0523930000002,1402.2265696000002,0,001,2024-06-26_14h47.33.096,robot_cogshifting_sign,2022.2.5,60.0087372721466,
"['R_Torso_X_Back', 'L_Base_X_For', 'L_Torso_X_Back', 'L_Torso_Y_For']","{'laterality': 'R_Torso_X_Back', 'localisation': 'L_Base_X_For', 'movement': 'L_Torso_Y_For'}",laterality,['laterality'],R_Torso_X_Back,0,1,robot,2,False,False,"['robot_stimuli\\R_Torso_X_Back.mp4', 'robot_stimuli\\L_Base_X_For.mp4', 'robot_stimuli\\L_Torso_X_Back.mp4', 'robot_stimuli\\L_Torso_Y_For.mp4']",robot_stimuli\R_Torso_X_Back.mp4,0,,,,,,,,,,,,,0,40,40,40,,,,,,,,,,,,,,,,,,,1407.0022099999999,1409.0781295999998,,,1423.7941090000002,1423.7941090000002,1423.7941090000002,1,0.39296919999992497,1424.2188546999998,1424.2188546999998,1424.2188546999998,1424.2188546999998,1424.2188546999998,1424.2188546999998,1424.2188546999998,1424.2188546999998,None,None,None,,,,,,,,,,1407.0022099999999,1407.0022099999999,None,,,,1407.0022099999999,1407.0022099999999,1420.1563322,0,001,2024-06-26_14h47.33.096,robot_cogshifting_sign,2022.2.5,60.0087372721466,
"['L_Base_Z_For', 'L_Torso_Z_Back', 'L_Torso_X_For', 'R_Torso_Z_Back']","{'laterality': 'R_Torso_Z_Back', 'localisation': 'L_Base_Z_For', 'movement': 'L_Torso_X_For'}",localisation,['localisation'],L_Base_Z_For,0,1,robot,2,False,False,"['robot_stimuli\\L_Base_Z_For.mp4', 'robot_stimuli\\L_Torso_Z_Back.mp4', 'robot_stimuli\\L_Torso_X_For.mp4', 'robot_stimuli\\R_Torso_Z_Back.mp4']",robot_stimuli\L_Base_Z_For.mp4,0,,,,,,,,,,,,,0,41,41,41,,,,,,,,,,,,,,,,,,,1424.2188546999998,1426.2954894000002,,,1440.9729922,1440.9729922,1440.9729922,1,0.5579488999999285,1441.5525961,1441.5525961,1441.5525961,1441.5525961,1441.5525961,1441.5525961,1441.5525961,1441.5525961,None,None,None,,,,,,,,,,1424.2188546999998,1424.2188546999998,None,,,,1424.2188546999998,1424.2188546999998,1437.3383462999998,0,001,2024-06-26_14h47.33.096,robot_cogshifting_sign,2022.2.5,60.0087372721466,
"['L_Arm_X_Back', 'L_Arm_Y_For', 'L_Torso_X_Back', 'R_Arm_X_Back']","{'laterality': 'R_Arm_X_Back', 'localisation': 'L_Torso_X_Back', 'movement': 'L_Arm_Y_For'}",laterality,['laterality'],R_Arm_X_Back,3,1,robot,2,False,False,"['robot_stimuli\\L_Arm_X_Back.mp4', 'robot_stimuli\\L_Arm_Y_For.mp4', 'robot_stimuli\\L_Torso_X_Back.mp4', 'robot_stimuli\\R_Arm_X_Back.mp4']",robot_stimuli\R_Arm_X_Back.mp4,0,,,,,,,,,,,,,0,42,42,42,,,,,,,,,,,,,,,,,,,1441.5525961,1443.6291170000002,,,1458.4302925999998,1458.4302925999998,1458.4302925999998,3,0.44525199999975484,1458.9026778999998,1458.9026778999998,1458.9026778999998,1458.9026778999998,1458.9026778999998,1458.9026778999998,1458.9026778999998,1458.9026778999998,None,None,None,,,,,,,,,,1441.5525961,1441.5525961,None,,,,1441.5525961,1441.5525961,1454.8011282999998,0,001,2024-06-26_14h47.33.096,robot_cogshifting_sign,2022.2.5,60.0087372721466,
"['L_Head_Z_For', 'R_Head_Y_For', 'R_Head_Z_Back', 'R_Base_Z_For']","{'laterality': 'L_Head_Z_For', 'localisation': 'R_Base_Z_For', 'movement': 'R_Head_Y_For'}",laterality,['laterality'],L_Head_Z_For,0,1,robot,2,False,False,"['robot_stimuli\\L_Head_Z_For.mp4', 'robot_stimuli\\R_Head_Y_For.mp4', 'robot_stimuli\\R_Head_Z_Back.mp4', 'robot_stimuli\\R_Base_Z_For.mp4']",robot_stimuli\L_Head_Z_For.mp4,0,,,,,,,,,,,,,0,43,43,43,,,,,,,,,,,,,,,,,,,1458.9026778999998,1460.9760543999998,,,1475.7939026000001,1475.7939026000001,1475.7939026000001,1,0.4413508999998612,1476.2523054,1476.2523054,1476.2523054,1476.2523054,1476.2523054,1476.2523054,1476.2523054,1476.2523054,None,None,None,,,,,,,,,,1458.9026778999998,1458.9026778999998,None,,,,1458.9026778999998,1458.9026778999998,1472.1475451,0,001,2024-06-26_14h47.33.096,robot_cogshifting_sign,2022.2.5,60.0087372721466,
"['R_Head_X_For', 'R_Torso_X_Back', 'L_Head_X_For', 'R_Head_Y_For']","{'laterality': 'L_Head_X_For', 'localisation': 'R_Torso_X_Back', 'movement': 'R_Head_Y_For'}",movement,['movement'],R_Head_Y_For,3,1,robot,2,False,True,"['robot_stimuli\\R_Head_X_For.mp4', 'robot_stimuli\\R_Torso_X_Back.mp4', 'robot_stimuli\\L_Head_X_For.mp4', 'robot_stimuli\\R_Head_Y_For.mp4']",robot_stimuli\R_Head_Y_For.mp4,0,,,,,,,,,,,,,0,44,44,44,,,,,,,,,,,,,,,,,,,1476.2523054,1478.3282648000002,,,1493.0770565999999,1493.0770565999999,1493.0770565999999,4,0.5576061999997819,1493.6783678,1497.3042813,1493.6783678,1497.3042813,1493.6783678,1497.3042813,1493.6783678,1497.3042813,7.160493827160491,3.2260270999995555,space,,,3.563597200000231,,,,,,,1476.2523054,1476.2523054,None,,,,1476.2523054,1476.2523054,1489.4312013,0,001,2024-06-26_14h47.33.096,robot_cogshifting_sign,2022.2.5,60.0087372721466,
"['L_Base_Y_Back', 'R_Arm_Y_For', 'L_Arm_Y_For', 'L_Arm_Z_For']","{'laterality': 'R_Arm_Y_For', 'localisation': 'L_Base_Y_Back', 'movement': 'L_Arm_Z_For'}",localisation,"['localisation', 'movement']",L_Base_Y_Back,0,2,robot,2,True,False,"['robot_stimuli\\L_Base_Y_Back.mp4', 'robot_stimuli\\R_Arm_Y_For.mp4', 'robot_stimuli\\L_Arm_Y_For.mp4', 'robot_stimuli\\L_Arm_Z_For.mp4']",robot_stimuli\L_Base_Y_Back.mp4,0,,,,,,,,,,,,,0,45,45,45,,,,,,,,,,,,,,,,,,,1500.419274,1502.4931731999998,,,1517.0946115,1517.0946115,1517.0946115,4,7.668494199999941,1524.7857878000002,1524.7857878000002,1524.7857878000002,1524.7857878000002,1524.7857878000002,1524.7857878000002,1524.7857878000002,1524.7857878000002,None,None,None,,,,,,,,,,1497.3042813,1497.3042813,space,3.0907580000000507,,,,,1513.4485828,0,001,2024-06-26_14h47.33.096,robot_cogshifting_sign,2022.2.5,60.0087372721466,
"['L_Torso_X_For', 'R_Torso_Z_For', 'R_Torso_X_Back', 'R_Base_X_For']","{'laterality': 'L_Torso_X_For', 'localisation': 'R_Base_X_For', 'movement': 'R_Torso_Z_For'}",laterality,"['laterality', 'movement']",L_Torso_X_For,0,2,robot,2,False,False,"['robot_stimuli\\L_Torso_X_For.mp4', 'robot_stimuli\\R_Torso_Z_For.mp4', 'robot_stimuli\\R_Torso_X_Back.mp4', 'robot_stimuli\\R_Base_X_For.mp4']",robot_stimuli\L_Torso_X_For.mp4,0,,,,,,,,,,,,,0,46,46,46,,,,,,,,,,,,,,,,,,,1524.7857878000002,1526.8602724,,,1541.5609960999998,1541.5609960999998,1541.5609960999998,1,3.4740880000001653,1545.0526717,1545.0526717,1545.0526717,1545.0526717,1545.0526717,1545.0526717,1545.0526717,1545.0526717,None,None,None,,,,,,,,,,1524.7857878000002,1524.7857878000002,None,,,,1524.7857878000002,1524.7857878000002,1538.0272176,0,001,2024-06-26_14h47.33.096,robot_cogshifting_sign,2022.2.5,60.0087372721466,
"['R_Torso_Z_For', 'L_Torso_Z_For', 'R_Arm_Z_For', 'R_Torso_X_For']","{'laterality': 'L_Torso_Z_For', 'localisation': 'R_Arm_Z_For', 'movement': 'R_Torso_X_For'}",movement,"['localisation', 'movement']",R_Torso_X_For,3,2,robot,2,False,False,"['robot_stimuli\\R_Torso_Z_For.mp4', 'robot_stimuli\\L_Torso_Z_For.mp4', 'robot_stimuli\\R_Arm_Z_For.mp4', 'robot_stimuli\\R_Torso_X_For.mp4']",robot_stimuli\R_Torso_X_For.mp4,0,,,,,,,,,,,,,0,47,47,47,,,,,,,,,,,,,,,,,,,1545.0526717,1547.1274365000002,,,1561.9135316,1561.9135316,1561.9135316,4,6.5538765999997395,1568.4865296,1568.4865296,1568.4865296,1568.4865296,1568.4865296,1568.4865296,1568.4865296,1568.4865296,None,None,None,,,,,,,,,,1545.0526717,1545.0526717,None,,,,1545.0526717,1545.0526717,1558.2798925,0,001,2024-06-26_14h47.33.096,robot_cogshifting_sign,2022.2.5,60.0087372721466,
"['R_Torso_Y_Back', 'R_Head_Z_Back', 'L_Torso_Z_For', 'R_Torso_Z_Back']","{'laterality': 'L_Torso_Z_For', 'localisation': 'R_Head_Z_Back', 'movement': 'R_Torso_Y_Back'}",movement,"['localisation', 'movement']",R_Torso_Y_Back,0,2,robot,2,False,False,"['robot_stimuli\\R_Torso_Y_Back.mp4', 'robot_stimuli\\R_Head_Z_Back.mp4', 'robot_stimuli\\L_Torso_Z_For.mp4', 'robot_stimuli\\R_Torso_Z_Back.mp4']",robot_stimuli\R_Torso_Y_Back.mp4,0,,,,,,,,,,,,,0,48,48,48,,,,,,,,,,,,,,,,,,,1568.4865296,1570.5614658000002,,,1585.3895426000001,1585.3895426000001,1585.3895426000001,1,7.093562299999803,1592.5027754,1592.5027754,1592.5027754,1592.5027754,1592.5027754,1592.5027754,1592.5027754,1592.5027754,None,None,None,,,,,,,,,,1568.4865296,1568.4865296,None,,,,1568.4865296,1568.4865296,1581.7476703999998,0,001,2024-06-26_14h47.33.096,robot_cogshifting_sign,2022.2.5,60.0087372721466,
"['L_Arm_Y_For', 'L_Head_Z_For', 'R_Head_Y_For', 'L_Head_Y_For']","{'laterality': 'R_Head_Y_For', 'localisation': 'L_Arm_Y_For', 'movement': 'L_Head_Z_For'}",localisation,"['localisation', 'movement']",L_Arm_Y_For,0,2,robot,2,False,False,"['robot_stimuli\\L_Arm_Y_For.mp4', 'robot_stimuli\\L_Head_Z_For.mp4', 'robot_stimuli\\R_Head_Y_For.mp4', 'robot_stimuli\\L_Head_Y_For.mp4']",robot_stimuli\L_Arm_Y_For.mp4,0,,,,,,,,,,,,,0,49,49,49,,,,,,,,,,,,,,,,,,,1592.5027754,1594.5789195999998,,,1609.3979920999998,1609.3979920999998,1609.3979920999998,1,4.845229999999674,1614.2696106,1614.2696106,1614.2696106,1614.2696106,1614.2696106,1614.2696106,1614.2696106,1614.2696106,None,None,None,,,,,,,,,,1592.5027754,1592.5027754,None,,,,1592.5027754,1592.5027754,1605.7477809999998,0,001,2024-06-26_14h47.33.096,robot_cogshifting_sign,2022.2.5,60.0087372721466,
"['L_Arm_Y_For', 'R_Arm_Y_Back', 'R_Torso_Y_Back', 'R_Arm_X_For']","{'laterality': 'L_Arm_Y_For', 'localisation': 'R_Torso_Y_Back', 'movement': 'R_Arm_X_For'}",movement,"['localisation', 'movement']",R_Arm_X_For,3,2,robot,2,False,False,"['robot_stimuli\\L_Arm_Y_For.mp4', 'robot_stimuli\\R_Arm_Y_Back.mp4', 'robot_stimuli\\R_Torso_Y_Back.mp4', 'robot_stimuli\\R_Arm_X_For.mp4']",robot_stimuli\R_Arm_X_For.mp4,0,,,,,,,,,,,,,0,50,50,50,,,,,,,,,,,,,,,,,,,1614.2696106,1616.3591183,,,1631.161418,1631.161418,1631.161418,2,6.457492299999785,1637.6362295000001,1637.6362295000001,1637.6362295000001,1637.6362295000001,1637.6362295000001,1637.6362295000001,1637.6362295000001,1637.6362295000001,None,None,None,,,,,,,,,,1614.2696106,1614.2696106,None,,,,1614.2696106,1614.2696106,1627.5163833,0,001,2024-06-26_14h47.33.096,robot_cogshifting_sign,2022.2.5,60.0087372721466,
"['L_Head_Y_For', 'R_Head_Z_For', 'L_Torso_Z_Back', 'L_Head_Z_For']","{'laterality': 'R_Head_Z_For', 'localisation': 'L_Torso_Z_Back', 'movement': 'L_Head_Y_For'}",laterality,"['laterality', 'localisation']",R_Head_Z_For,1,2,robot,2,False,False,"['robot_stimuli\\L_Head_Y_For.mp4', 'robot_stimuli\\R_Head_Z_For.mp4', 'robot_stimuli\\L_Torso_Z_Back.mp4', 'robot_stimuli\\L_Head_Z_For.mp4']",robot_stimuli\R_Head_Z_For.mp4,0,,,,,,,,,,,,,0,51,51,51,,,,,,,,,,,,,,,,,,,1637.6362295000001,1639.7138508,,,1654.3983541,1654.3983541,1654.3983541,2,2.493301399999609,1656.9197038999998,1656.9197038999998,1656.9197038999998,1656.9197038999998,1656.9197038999998,1656.9197038999998,1656.9197038999998,1656.9197038999998,None,None,None,,,,,,,,,,1637.6362295000001,1637.6362295000001,None,,,,1637.6362295000001,1637.6362295000001,1650.7612415,0,001,2024-06-26_14h47.33.096,robot_cogshifting_sign,2022.2.5,60.0087372721466,
"['L_Head_Y_Back', 'L_Arm_Y_For', 'L_Head_Z_For', 'R_Head_Y_Back']","{'laterality': 'R_Head_Y_Back', 'localisation': 'L_Arm_Y_For', 'movement': 'L_Head_Z_For'}",localisation,"['laterality', 'localisation']",L_Arm_Y_For,1,2,robot,2,False,False,"['robot_stimuli\\L_Head_Y_Back.mp4', 'robot_stimuli\\L_Arm_Y_For.mp4', 'robot_stimuli\\L_Head_Z_For.mp4', 'robot_stimuli\\R_Head_Y_Back.mp4']",robot_stimuli\L_Arm_Y_For.mp4,0,,,,,,,,,,,,,0,52,52,52,,,,,,,,,,,,,,,,,,,1656.9197038999998,1658.997513,,,1673.7984605,1673.7984605,1673.7984605,2,7.5725630999997975,1681.4029512,1681.4029512,1681.4029512,1681.4029512,1681.4029512,1681.4029512,1681.4029512,1681.4029512,None,None,None,,,,,,,,,,1656.9197038999998,1656.9197038999998,None,,,,1656.9197038999998,1656.9197038999998,1670.1639054999998,0,001,2024-06-26_14h47.33.096,robot_cogshifting_sign,2022.2.5,60.0087372721466,
"['L_Head_Z_Back', 'R_Head_X_Back', 'L_Arm_X_For', 'L_Head_X_Back']","{'laterality': 'R_Head_X_Back', 'localisation': 'L_Arm_X_For', 'movement': 'L_Head_Z_Back'}",laterality,"['laterality', 'localisation']",R_Head_X_Back,1,2,robot,2,False,True,"['robot_stimuli\\L_Head_Z_Back.mp4', 'robot_stimuli\\R_Head_X_Back.mp4', 'robot_stimuli\\L_Arm_X_For.mp4', 'robot_stimuli\\L_Head_X_Back.mp4']",robot_stimuli\R_Head_X_Back.mp4,0,,,,,,,,,,,,,0,53,53,53,,,,,,,,,,,,,,,,,,,1681.4029512,1683.4793968000001,,,1698.2809436999999,1698.2809436999999,1698.2809436999999,2,9.442330300000094,1707.7786491999998,1710.0446519999998,1707.7786491999998,1710.0446519999998,1707.7786491999998,1710.0446519999998,1707.7786491999998,1710.0446519999998,7.160493827160491,1.6009424999997464,space,,,2.1998431999998047,,,,,,,1681.4029512,1681.4029512,None,,,,1681.4029512,1681.4029512,1694.6476962,0,001,2024-06-26_14h47.33.096,robot_cogshifting_sign,2022.2.5,60.0087372721466,
"['blue_right_Q_0', 'red_right_F_0', 'blue_right_H_45', 'blue_left_B_0']","{'color': 'red_right_F_0', 'position': 'blue_left_B_0', 'orientation': 'blue_right_H_45'}",color,"['color', 'orientation']",red_right_F_0,1,2,letter,3,True,False,"['robot_stimuli\\\\filler.mp4', 'robot_stimuli\\\\filler.mp4', 'robot_stimuli\\\\filler.mp4', 'robot_stimuli\\\\filler.mp4']",robot_stimuli\\filler.mp4,0,,,,,,,,,,,,,0,54,54,54,,,,,,,,,,,,,,,,,,,1713.1532549,1715.209431,,,1723.6797261999998,1723.6797261999998,1723.6797261999998,2,3.708038600000009,1727.4197711999998,1727.4197711999998,1727.4197711999998,1727.4197711999998,1727.4197711999998,1727.4197711999998,1727.4197711999998,1727.4197711999998,None,None,None,,,,,,,,,,1710.0446519999998,1710.0446519999998,space,3.0866333000001305,1721.6663292,1723.6797261999998,,,,0,001,2024-06-26_14h47.33.096,robot_cogshifting_sign,2022.2.5,60.0087372721466,
"['red_left_R_45', 'blue_left_C_45', 'red_left_Q_0', 'red_right_M_45']","{'color': 'blue_left_C_45', 'position': 'red_right_M_45', 'orientation': 'red_left_Q_0'}",orientation,"['orientation', 'position']",red_left_Q_0,2,2,letter,3,False,False,"['robot_stimuli\\\\filler.mp4', 'robot_stimuli\\\\filler.mp4', 'robot_stimuli\\\\filler.mp4', 'robot_stimuli\\\\filler.mp4']",robot_stimuli\\filler.mp4,0,,,,,,,,,,,,,0,55,55,55,,,,,,,,,,,,,,,,,,,1727.4197711999998,1729.4907362000001,,,1738.1502527999999,1738.1502527999999,1738.1502527999999,3,8.381245799999988,1746.5532213,1746.5532213,1746.5532213,1746.5532213,1746.5532213,1746.5532213,1746.5532213,1746.5532213,None,None,None,,,,,,,,,,1727.4197711999998,1727.4197711999998,None,,1736.1315235999998,1738.1502527999999,1727.4197711999998,1727.4197711999998,,0,001,2024-06-26_14h47.33.096,robot_cogshifting_sign,2022.2.5,60.0087372721466,
"['red_top_H_45', 'red_bottom_K_0', 'blue_top_P_0', 'red_top_R_0']","{'color': 'blue_top_P_0', 'position': 'red_bottom_K_0', 'orientation': 'red_top_H_45'}",position,"['orientation', 'position']",red_bottom_K_0,1,2,letter,3,False,False,"['robot_stimuli\\\\filler.mp4', 'robot_stimuli\\\\filler.mp4', 'robot_stimuli\\\\filler.mp4', 'robot_stimuli\\\\filler.mp4']",robot_stimuli\\filler.mp4,0,,,,,,,,,,,,,0,56,56,56,,,,,,,,,,,,,,,,,,,1746.5532213,1748.6130095,,,1756.8895922,1756.8895922,1756.8895922,2,3.7377822999999353,1760.6534227,1760.6534227,1760.6534227,1760.6534227,1760.6534227,1760.6534227,1760.6534227,1760.6534227,None,None,None,,,,,,,,,,1746.5532213,1746.5532213,None,,1754.8632504999998,1756.8895922,1746.5532213,1746.5532213,,0,001,2024-06-26_14h47.33.096,robot_cogshifting_sign,2022.2.5,60.0087372721466,
"['red_left_M_45', 'blue_left_D_45', 'blue_top_H_45', 'blue_left_W_0']","{'color': 'red_left_M_45', 'position': 'blue_top_H_45', 'orientation': 'blue_left_W_0'}",color,"['color', 'position']",red_left_M_45,0,2,letter,3,False,False,"['robot_stimuli\\\\filler.mp4', 'robot_stimuli\\\\filler.mp4', 'robot_stimuli\\\\filler.mp4', 'robot_stimuli\\\\filler.mp4']",robot_stimuli\\filler.mp4,0,,,,,,,,,,,,,0,57,57,57,,,,,,,,,,,,,,,,,,,1760.6534227,1762.715234,,,1771.5986009,1771.5986009,1771.5986009,1,1.4051638999997067,1773.0198936999998,1773.0198936999998,1773.0198936999998,1773.0198936999998,1773.0198936999998,1773.0198936999998,1773.0198936999998,1773.0198936999998,None,None,None,,,,,,,,,,1760.6534227,1760.6534227,None,,1769.5833879999998,1771.5986009,1760.6534227,1760.6534227,,0,001,2024-06-26_14h47.33.096,robot_cogshifting_sign,2022.2.5,60.0087372721466,
"['blue_bottom_B_0', 'blue_top_X_0', 'blue_bottom_V_45', 'red_bottom_G_0']","{'color': 'red_bottom_G_0', 'position': 'blue_top_X_0', 'orientation': 'blue_bottom_V_45'}",position,"['orientation', 'position']",blue_top_X_0,1,2,letter,3,False,False,"['robot_stimuli\\\\filler.mp4', 'robot_stimuli\\\\filler.mp4', 'robot_stimuli\\\\filler.mp4', 'robot_stimuli\\\\filler.mp4']",robot_stimuli\\filler.mp4,0,,,,,,,,,,,,,0,58,58,58,,,,,,,,,,,,,,,,,,,1773.0198936999998,1775.0757468,,,1783.9569484,1783.9569484,1783.9569484,2,1.9421984999996766,1785.9200869,1785.9200869,1785.9200869,1785.9200869,1785.9200869,1785.9200869,1785.9200869,1785.9200869,None,None,None,,,,,,,,,,1773.0198936999998,1773.0198936999998,None,,1781.7415721999998,1783.9569484,1773.0198936999998,1773.0198936999998,,0,001,2024-06-26_14h47.33.096,robot_cogshifting_sign,2022.2.5,60.0087372721466,
"['red_right_B_0', 'red_top_T_0', 'blue_top_H_0', 'red_top_N_45']","{'color': 'blue_top_H_0', 'position': 'red_right_B_0', 'orientation': 'red_top_N_45'}",orientation,"['color', 'orientation']",red_top_N_45,3,2,letter,3,False,False,"['robot_stimuli\\\\filler.mp4', 'robot_stimuli\\\\filler.mp4', 'robot_stimuli\\\\filler.mp4', 'robot_stimuli\\\\filler.mp4']",robot_stimuli\\filler.mp4,0,,,,,,,,,,,,,0,59,59,59,,,,,,,,,,,,,,,,,,,1785.9200869,1787.9760359,,,1796.4618416,1796.4618416,1796.4618416,3,3.84468529999981,1800.336638,1800.336638,1800.336638,1800.336638,1800.336638,1800.336638,1800.336638,1800.336638,None,None,None,,,,,,,,,,1785.9200869,1785.9200869,None,,1794.2468689999998,1796.4618416,1785.9200869,1785.9200869,,0,001,2024-06-26_14h47.33.096,robot_cogshifting_sign,2022.2.5,60.0087372721466,
"['blue_left_R_0', 'blue_top_D_45', 'red_top_B_0', 'blue_top_M_0']","{'color': 'red_top_B_0', 'position': 'blue_left_R_0', 'orientation': 'blue_top_D_45'}",position,"['color', 'position']",blue_left_R_0,0,2,letter,3,False,False,"['robot_stimuli\\\\filler.mp4', 'robot_stimuli\\\\filler.mp4', 'robot_stimuli\\\\filler.mp4', 'robot_stimuli\\\\filler.mp4']",robot_stimuli\\filler.mp4,0,,,,,,,,,,,,,0,60,60,60,,,,,,,,,,,,,,,,,,,1800.336638,1802.3995815,,,1811.4876130999999,1811.4876130999999,1811.4876130999999,1,1.4760827999996309,1812.988814,1812.988814,1812.988814,1812.988814,1812.988814,1812.988814,1812.988814,1812.988814,None,None,None,,,,,,,,,,1800.336638,1800.336638,None,,1809.2735478000002,1811.4876130999999,1800.336638,1800.336638,,0,001,2024-06-26_14h47.33.096,robot_cogshifting_sign,2022.2.5,60.0087372721466,
"['blue_right_S_45', 'blue_bottom_K_0', 'blue_bottom_K_45', 'red_bottom_H_45']","{'color': 'red_bottom_H_45', 'position': 'blue_right_S_45', 'orientation': 'blue_bottom_K_0'}",orientation,"['color', 'orientation']",blue_bottom_K_0,1,2,letter,3,False,False,"['robot_stimuli\\\\filler.mp4', 'robot_stimuli\\\\filler.mp4', 'robot_stimuli\\\\filler.mp4', 'robot_stimuli\\\\filler.mp4']",robot_stimuli\\filler.mp4,0,,,,,,,,,,,,,0,61,61,61,,,,,,,,,,,,,,,,,,,1812.988814,,,,1823.9592872,1823.9592872,1823.9592872,2,3.4273512999996,1827.4033643,1827.4033643,1827.4033643,1827.4033643,1827.4033643,1827.4033643,1827.4033643,1827.4033643,None,None,None,,,,,,,,,,1812.988814,1812.988814,None,,1821.7420232000002,1823.9592872,1812.988814,1812.988814,,0,001,2024-06-26_14h47.33.096,robot_cogshifting_sign,2022.2.5,60.0087372721466,
"['red_bottom_X_45', 'red_left_B_0', 'red_bottom_P_0', 'blue_bottom_T_0']","{'color': 'blue_bottom_T_0', 'position': 'red_left_B_0', 'orientation': 'red_bottom_X_45'}",color,"['color', 'orientation']",blue_bottom_T_0,3,2,letter,3,False,True,"['robot_stimuli\\\\filler.mp4', 'robot_stimuli\\\\filler.mp4', 'robot_stimuli\\\\filler.mp4', 'robot_stimuli\\\\filler.mp4']",robot_stimuli\\filler.mp4,0,,,,,,,,,,,,,0,62,62,62,,,,,,,,,,,,,,,,,,,1827.4033643,1829.4680661999998,,,1838.1332338999998,1838.1332338999998,1838.1332338999998,4,2.4307251999996424,1840.6147316999998,1843.9903963999998,1840.6147316999998,1843.9903963999998,1840.6147316999998,1843.9903963999998,1840.6147316999998,1843.9903963999998,4.691358024691358,2.676345500000025,space,,,3.3080211999997573,,,,,,,1827.4033643,1827.4033643,None,,1836.120714,1838.1332338999998,1827.4033643,1827.4033643,,0,001,2024-06-26_14h47.33.096,robot_cogshifting_sign,2022.2.5,60.0087372721466,
"['red_left_Z_45', 'blue_left_C_45', 'blue_right_Z_45', 'blue_left_F_0']","{'color': 'red_left_Z_45', 'position': 'blue_right_Z_45', 'orientation': 'blue_left_F_0'}",position,"['color', 'orientation', 'position']",blue_right_Z_45,2,3,letter,3,True,False,"['robot_stimuli\\\\filler.mp4', 'robot_stimuli\\\\filler.mp4', 'robot_stimuli\\\\filler.mp4', 'robot_stimuli\\\\filler.mp4']",robot_stimuli\\filler.mp4,0,,,,,,,,,,,,,0,63,63,63,,,,,,,,,,,,,,,,,,,1847.8201645000001,1849.8757193,,,1858.7461750999998,1858.7461750999998,1858.7461750999998,3,2.0399250000002667,1860.8036212999998,1860.8036212999998,1860.8036212999998,1860.8036212999998,1860.8036212999998,1860.8036212999998,1860.8036212999998,1860.8036212999998,None,None,None,,,,,,,,,,1843.9903963999998,1843.9903963999998,space,3.7974080999995294,1856.7340582999998,1858.7461750999998,,,,0,001,2024-06-26_14h47.33.096,robot_cogshifting_sign,2022.2.5,60.0087372721466,
"['red_right_M_0', 'blue_right_X_0', 'red_bottom_R_0', 'red_right_V_45']","{'color': 'blue_right_X_0', 'position': 'red_bottom_R_0', 'orientation': 'red_right_V_45'}",orientation,"['color', 'orientation', 'position']",red_right_V_45,3,3,letter,3,False,False,"['robot_stimuli\\\\filler.mp4', 'robot_stimuli\\\\filler.mp4', 'robot_stimuli\\\\filler.mp4', 'robot_stimuli\\\\filler.mp4']",robot_stimuli\\filler.mp4,0,,,,,,,,,,,,,0,64,64,64,,,,,,,,,,,,,,,,,,,1860.8036212999998,1862.8625375,,,1871.5380963,1871.5380963,1871.5380963,4,1.9203749000000698,1873.4868777,1873.4868777,1873.4868777,1873.4868777,1873.4868777,1873.4868777,1873.4868777,1873.4868777,None,None,None,,,,,,,,,,1860.8036212999998,1860.8036212999998,None,,1869.5185760000002,1871.5380963,1860.8036212999998,1860.8036212999998,,0,001,2024-06-26_14h47.33.096,robot_cogshifting_sign,2022.2.5,60.0087372721466,
"['red_top_B_0', 'red_top_D_45', 'blue_top_T_0', 'red_bottom_B_0']","{'color': 'blue_top_T_0', 'position': 'red_bottom_B_0', 'orientation': 'red_top_D_45'}",position,"['color', 'orientation', 'position']",red_bottom_B_0,3,3,letter,3,False,False,"['robot_stimuli\\\\filler.mp4', 'robot_stimuli\\\\filler.mp4', 'robot_stimuli\\\\filler.mp4', 'robot_stimuli\\\\filler.mp4']",robot_stimuli\\filler.mp4,0,,,,,,,,,,,,,0,65,65,65,,,,,,,,,,,,,,,,,,,1873.4868777,1875.5421549999999,,,1884.4401483999998,1884.4401483999998,1884.4401483999998,4,2.1310548999997536,1886.6037620999998,1886.6037620999998,1886.6037620999998,1886.6037620999998,1886.6037620999998,1886.6037620999998,1886.6037620999998,1886.6037620999998,None,None,None,,,,,,,,,,1873.4868777,1873.4868777,None,,1882.4169822000001,1884.4401483999998,1873.4868777,1873.4868777,,0,001,2024-06-26_14h47.33.096,robot_cogshifting_sign,2022.2.5,60.0087372721466,
"['blue_left_G_0', 'blue_left_K_45', 'red_left_L_0', 'blue_bottom_K_0']","{'color': 'red_left_L_0', 'position': 'blue_bottom_K_0', 'orientation': 'blue_left_K_45'}",orientation,"['color', 'orientation', 'position']",blue_left_K_45,1,3,letter,3,False,False,"['robot_stimuli\\\\filler.mp4', 'robot_stimuli\\\\filler.mp4', 'robot_stimuli\\\\filler.mp4', 'robot_stimuli\\\\filler.mp4']",robot_stimuli\\filler.mp4,0,,,,,,,,,,,,,0,66,66,66,,,,,,,,,,,,,,,,,,,1886.6037620999998,1888.6650410999998,,,1897.543327,1897.543327,1897.543327,2,2.6447398999996494,1900.220192,1900.220192,1900.220192,1900.220192,1900.220192,1900.220192,1900.220192,1900.220192,None,None,None,,,,,,,,,,1886.6037620999998,1886.6037620999998,None,,1895.3215999000001,1897.543327,1886.6037620999998,1886.6037620999998,,0,001,2024-06-26_14h47.33.096,robot_cogshifting_sign,2022.2.5,60.0087372721466,
"['red_top_D_45', 'blue_top_S_0', 'red_right_Z_0', 'red_top_H_0']","{'color': 'blue_top_S_0', 'position': 'red_right_Z_0', 'orientation': 'red_top_D_45'}",orientation,"['color', 'orientation', 'position']",red_top_D_45,0,3,letter,3,False,False,"['robot_stimuli\\\\filler.mp4', 'robot_stimuli\\\\filler.mp4', 'robot_stimuli\\\\filler.mp4', 'robot_stimuli\\\\filler.mp4']",robot_stimuli\\filler.mp4,0,,,,,,,,,,,,,0,67,67,67,,,,,,,,,,,,,,,,,,,1900.220192,1902.2760142,,,1911.1502174,1911.1502174,1911.1502174,1,3.8047704999996768,1914.9869695,1914.9869695,1914.9869695,1914.9869695,1914.9869695,1914.9869695,1914.9869695,1914.9869695,None,None,None,,,,,,,,,,1900.220192,1900.220192,None,,1908.9388342,1911.1502174,1900.220192,1900.220192,,0,001,2024-06-26_14h47.33.096,robot_cogshifting_sign,2022.2.5,60.0087372721466,
"['red_top_Q_45', 'red_right_N_45', 'blue_right_M_45', 'red_right_V_0']","{'color': 'blue_right_M_45', 'position': 'red_top_Q_45', 'orientation': 'red_right_V_0'}",color,"['color', 'orientation', 'position']",blue_right_M_45,2,3,letter,3,False,False,"['robot_stimuli\\\\filler.mp4', 'robot_stimuli\\\\filler.mp4', 'robot_stimuli\\\\filler.mp4', 'robot_stimuli\\\\filler.mp4']",robot_stimuli\\filler.mp4,0,,,,,,,,,,,,,0,68,68,68,,,,,,,,,,,,,,,,,,,1914.9869695,1917.0470191000002,,,1925.7175269000002,1925.7175269000002,1925.7175269000002,3,5.1019121999995605,1930.8371943999998,1930.8371943999998,1930.8371943999998,1930.8371943999998,1930.8371943999998,1930.8371943999998,1930.8371943999998,1930.8371943999998,None,None,None,,,,,,,,,,1914.9869695,1914.9869695,None,,1923.5068899,1925.7175269000002,1914.9869695,1914.9869695,,0,001,2024-06-26_14h47.33.096,robot_cogshifting_sign,2022.2.5,60.0087372721466,
"['blue_top_R_45', 'blue_left_Q_0', 'red_top_W_0', 'blue_top_M_0']","{'color': 'red_top_W_0', 'position': 'blue_left_Q_0', 'orientation': 'blue_top_R_45'}",color,"['color', 'orientation', 'position']",red_top_W_0,2,3,letter,3,False,False,"['robot_stimuli\\\\filler.mp4', 'robot_stimuli\\\\filler.mp4', 'robot_stimuli\\\\filler.mp4', 'robot_stimuli\\\\filler.mp4']",robot_stimuli\\filler.mp4,0,,,,,,,,,,,,,0,69,69,69,,,,,,,,,,,,,,,,,,,1930.8371943999998,1932.8963136999998,,,1941.7684275999998,1941.7684275999998,1941.7684275999998,3,2.7546319999999014,1944.5537495,1944.5537495,1944.5537495,1944.5537495,1944.5537495,1944.5537495,1944.5537495,1944.5537495,None,None,None,,,,,,,,,,1930.8371943999998,1930.8371943999998,None,,1939.5585988999999,1941.7684275999998,1930.8371943999998,1930.8371943999998,,0,001,2024-06-26_14h47.33.096,robot_cogshifting_sign,2022.2.5,60.0087372721466,
"['blue_right_N_45', 'blue_left_Z_45', 'blue_left_J_0', 'red_left_C_45']","{'color': 'red_left_C_45', 'position': 'blue_right_N_45', 'orientation': 'blue_left_J_0'}",position,"['color', 'orientation', 'position']",blue_right_N_45,0,3,letter,3,False,False,"['robot_stimuli\\\\filler.mp4', 'robot_stimuli\\\\filler.mp4', 'robot_stimuli\\\\filler.mp4', 'robot_stimuli\\\\filler.mp4']",robot_stimuli\\filler.mp4,0,,,,,,,,,,,,,0,70,70,70,,,,,,,,,,,,,,,,,,,1944.5537495,1946.6242444000002,,,1955.5030598,1955.5030598,1955.5030598,1,1.4676295000001573,1957.0035664999998,1957.0035664999998,1957.0035664999998,1957.0035664999998,1957.0035664999998,1957.0035664999998,1957.0035664999998,1957.0035664999998,None,None,None,,,,,,,,,,1944.5537495,1944.5537495,None,,1953.4852826,1955.5030598,1944.5537495,1944.5537495,,0,001,2024-06-26_14h47.33.096,robot_cogshifting_sign,2022.2.5,60.0087372721466,
"['red_top_L_45', 'red_top_Q_0', 'red_bottom_N_0', 'blue_top_C_0']","{'color': 'blue_top_C_0', 'position': 'red_bottom_N_0', 'orientation': 'red_top_L_45'}",color,"['color', 'orientation', 'position']",blue_top_C_0,3,3,letter,3,False,True,"['robot_stimuli\\\\filler.mp4', 'robot_stimuli\\\\filler.mp4', 'robot_stimuli\\\\filler.mp4', 'robot_stimuli\\\\filler.mp4']",robot_stimuli\\filler.mp4,0,,,,,,,,,,,,,0,71,71,71,,,,,,,,,,,,,,,,,,,1957.0035664999998,1959.0593732999998,,,1967.9522934,1967.9522934,1967.9522934,4,1.67417539999974,1969.6831233999999,1972.4926389999998,1969.6831233999999,1972.4926389999998,1969.6831233999999,1972.4926389999998,1969.6831233999999,1972.4926389999998,6.5432098765432105,2.1247173000001567,space,,,2.752912299999707,,,,,,,1957.0035664999998,1957.0035664999998,None,,1965.7390855,1967.9522934,1957.0035664999998,1957.0035664999998,,0,001,2024-06-26_14h47.33.096,robot_cogshifting_sign,2022.2.5,60.0087372721466,
"['red_bottom_P_0', 'red_right_F_45', 'red_bottom_N_45', 'blue_bottom_H_45']","{'color': 'blue_bottom_H_45', 'position': 'red_right_F_45', 'orientation': 'red_bottom_P_0'}",position,['position'],red_right_F_45,1,1,letter,3,True,False,"['robot_stimuli\\\\filler.mp4', 'robot_stimuli\\\\filler.mp4', 'robot_stimuli\\\\filler.mp4', 'robot_stimuli\\\\filler.mp4']",robot_stimuli\\filler.mp4,0,,,,,,,,,,,,,0,72,72,72,,,,,,,,,,,,,,,,,,,1976.9702940999998,1979.0338303,,,1987.7352294,1987.7352294,1987.7352294,3,0.5717145999999502,1988.3368352999998,1988.3368352999998,1988.3368352999998,1988.3368352999998,1988.3368352999998,1988.3368352999998,1988.3368352999998,1988.3368352999998,None,None,None,,,,,,,,,,1972.4926389999998,1972.4926389999998,space,4.454462500000091,1985.5134987,1987.7352294,,,,0,001,2024-06-26_14h47.33.096,robot_cogshifting_sign,2022.2.5,60.0087372721466,
"['blue_top_Z_45', 'blue_bottom_P_45', 'blue_top_J_0', 'red_top_R_45']","{'color': 'red_top_R_45', 'position': 'blue_bottom_P_45', 'orientation': 'blue_top_J_0'}",position,['position'],blue_bottom_P_45,1,1,letter,3,False,False,"['robot_stimuli\\\\filler.mp4', 'robot_stimuli\\\\filler.mp4', 'robot_stimuli\\\\filler.mp4', 'robot_stimuli\\\\filler.mp4']",robot_stimuli\\filler.mp4,0,,,,,,,,,,,,,0,73,73,73,,,,,,,,,,,,,,,,,,,1988.3368352999998,1990.3920623000001,,,1999.2854527000002,1999.2854527000002,1999.2854527000002,2,0.5505005999996229,1999.8545989000002,1999.8545989000002,1999.8545989000002,1999.8545989000002,1999.8545989000002,1999.8545989000002,1999.8545989000002,1999.8545989000002,None,None,None,,,,,,,,,,1988.3368352999998,1988.3368352999998,None,,1997.074069,1999.2854527000002,1988.3368352999998,1988.3368352999998,,0,001,2024-06-26_14h47.33.096,robot_cogshifting_sign,2022.2.5,60.0087372721466,
"['red_bottom_F_45', 'blue_top_N_45', 'blue_bottom_X_45', 'blue_bottom_X_0']","{'color': 'red_bottom_F_45', 'position': 'blue_top_N_45', 'orientation': 'blue_bottom_X_0'}",color,['color'],red_bottom_F_45,0,1,letter,3,False,False,"['robot_stimuli\\\\filler.mp4', 'robot_stimuli\\\\filler.mp4', 'robot_stimuli\\\\filler.mp4', 'robot_stimuli\\\\filler.mp4']",robot_stimuli\\filler.mp4,0,,,,,,,,,,,,,0,74,74,74,,,,,,,,,,,,,,,,,,,1999.8545989000002,2001.9165752000001,,,2010.6112746000001,2010.6112746000001,2010.6112746000001,1,0.8883736000000226,2011.5204970000002,2011.5204970000002,2011.5204970000002,2011.5204970000002,2011.5204970000002,2011.5204970000002,2011.5204970000002,2011.5204970000002,None,None,None,,,,,,,,,,1999.8545989000002,1999.8545989000002,None,,2008.5804942000002,2010.6112746000001,1999.8545989000002,1999.8545989000002,,0,001,2024-06-26_14h47.33.096,robot_cogshifting_sign,2022.2.5,60.0087372721466,
"['blue_bottom_V_0', 'red_bottom_S_0', 'red_bottom_Z_45', 'red_left_S_0']","{'color': 'blue_bottom_V_0', 'position': 'red_left_S_0', 'orientation': 'red_bottom_Z_45'}",color,['color'],blue_bottom_V_0,0,1,letter,3,False,False,"['robot_stimuli\\\\filler.mp4', 'robot_stimuli\\\\filler.mp4', 'robot_stimuli\\\\filler.mp4', 'robot_stimuli\\\\filler.mp4']",robot_stimuli\\filler.mp4,0,,,,,,,,,,,,,0,75,75,75,,,,,,,,,,,,,,,,,,,2011.5204970000002,2013.5812739,,,2022.2548447000001,2022.2548447000001,2022.2548447000001,1,1.020252600000049,2023.3040405,2023.3040405,2023.3040405,2023.3040405,2023.3040405,2023.3040405,2023.3040405,2023.3040405,None,None,None,,,,,,,,,,2011.5204970000002,2011.5204970000002,None,,2020.2372020999999,2022.2548447000001,2011.5204970000002,2011.5204970000002,,0,001,2024-06-26_14h47.33.096,robot_cogshifting_sign,2022.2.5,60.0087372721466,
"['blue_top_X_0', 'red_top_S_0', 'blue_right_K_0', 'blue_top_D_45']","{'color': 'red_top_S_0', 'position': 'blue_right_K_0', 'orientation': 'blue_top_D_45'}",color,['color'],red_top_S_0,1,1,letter,3,False,False,"['robot_stimuli\\\\filler.mp4', 'robot_stimuli\\\\filler.mp4', 'robot_stimuli\\\\filler.mp4', 'robot_stimuli\\\\filler.mp4']",robot_stimuli\\filler.mp4,0,,,,,,,,,,,,,0,76,76,76,,,,,,,,,,,,,,,,,,,2023.3040405,2025.3634112000002,,,2034.2463360999998,2034.2463360999998,2034.2463360999998,2,0.7891072999998414,2035.0558067,2035.0558067,2035.0558067,2035.0558067,2035.0558067,2035.0558067,2035.0558067,2035.0558067,None,None,None,,,,,,,,,,2023.3040405,2023.3040405,None,,2032.2320462,2034.2463360999998,2023.3040405,2023.3040405,,0,001,2024-06-26_14h47.33.096,robot_cogshifting_sign,2022.2.5,60.0087372721466,
"['red_left_L_0', 'blue_bottom_C_0', 'blue_left_H_45', 'blue_left_Q_0']","{'color': 'red_left_L_0', 'position': 'blue_bottom_C_0', 'orientation': 'blue_left_H_45'}",position,['position'],blue_bottom_C_0,1,1,letter,3,False,False,"['robot_stimuli\\\\filler.mp4', 'robot_stimuli\\\\filler.mp4', 'robot_stimuli\\\\filler.mp4', 'robot_stimuli\\\\filler.mp4']",robot_stimuli\\filler.mp4,0,,,,,,,,,,,,,0,77,77,77,,,,,,,,,,,,,,,,,,,2035.0558067,,,,2045.81157,2045.81157,2045.81157,2,0.4564129999996567,2046.2874955999998,2046.2874955999998,2046.2874955999998,2046.2874955999998,2046.2874955999998,2046.2874955999998,2046.2874955999998,2046.2874955999998,None,None,None,,,,,,,,,,2035.0558067,2035.0558067,None,,2043.7988665999999,2045.81157,2035.0558067,2035.0558067,,0,001,2024-06-26_14h47.33.096,robot_cogshifting_sign,2022.2.5,60.0087372721466,
"['red_bottom_F_45', 'red_top_X_0', 'red_bottom_W_0', 'blue_bottom_N_0']","{'color': 'blue_bottom_N_0', 'position': 'red_top_X_0', 'orientation': 'red_bottom_F_45'}",orientation,['orientation'],red_bottom_F_45,0,1,letter,3,False,False,"['robot_stimuli\\\\filler.mp4', 'robot_stimuli\\\\filler.mp4', 'robot_stimuli\\\\filler.mp4', 'robot_stimuli\\\\filler.mp4']",robot_stimuli\\filler.mp4,0,,,,,,,,,,,,,0,78,78,78,,,,,,,,,,,,,,,,,,,2046.2874955999998,2048.3472014999998,,,2057.4296206,2057.4296206,2057.4296206,1,0.6615652999996655,2058.1205767,2058.1205767,2058.1205767,2058.1205767,2058.1205767,2058.1205767,2058.1205767,2058.1205767,None,None,None,,,,,,,,,,2046.2874955999998,2046.2874955999998,None,,2055.2142843,2057.4296206,2046.2874955999998,2046.2874955999998,,0,001,2024-06-26_14h47.33.096,robot_cogshifting_sign,2022.2.5,60.0087372721466,
"['blue_top_L_45', 'blue_top_X_0', 'blue_left_N_0', 'red_top_D_0']","{'color': 'red_top_D_0', 'position': 'blue_left_N_0', 'orientation': 'blue_top_L_45'}",orientation,['orientation'],blue_top_L_45,0,1,letter,3,False,False,"['robot_stimuli\\\\filler.mp4', 'robot_stimuli\\\\filler.mp4', 'robot_stimuli\\\\filler.mp4', 'robot_stimuli\\\\filler.mp4']",robot_stimuli\\filler.mp4,0,,,,,,,,,,,,,0,79,79,79,,,,,,,,,,,,,,,,,,,2058.1205767,2060.1753161999995,,,2068.663278,2068.663278,2068.663278,1,0.7560323000000153,2069.4374460999998,2069.4374460999998,2069.4374460999998,2069.4374460999998,2069.4374460999998,2069.4374460999998,2069.4374460999998,2069.4374460999998,None,None,None,,,,,,,,,,2058.1205767,2058.1205767,None,,2066.6532287,2068.663278,2058.1205767,2058.1205767,,0,001,2024-06-26_14h47.33.096,robot_cogshifting_sign,2022.2.5,60.0087372721466,
"['red_bottom_W_0', 'red_bottom_K_45', 'red_right_N_0', 'blue_bottom_J_0']","{'color': 'blue_bottom_J_0', 'position': 'red_right_N_0', 'orientation': 'red_bottom_K_45'}",orientation,['orientation'],red_bottom_K_45,1,1,letter,3,False,True,"['robot_stimuli\\\\filler.mp4', 'robot_stimuli\\\\filler.mp4', 'robot_stimuli\\\\filler.mp4', 'robot_stimuli\\\\filler.mp4']",robot_stimuli\\filler.mp4,0,,,,,,,,,,,,,0,80,80,80,,,,,,,,,,,,,,,,,,,2069.4374460999998,2071.4925615,,,2080.3850478000004,2080.3850478000004,2080.3850478000004,2,0.7947354999998879,2081.2344966,2084.5801936,2081.2344966,2084.5801936,2081.2344966,2084.5801936,2081.2344966,2084.5801936,6.697530864197526,2.498675999999705,space,,,3.2967129000001023,,,,,,,2069.4374460999998,2069.4374460999998,None,,2078.3688378999996,2080.3850478000004,2069.4374460999998,2069.4374460999998,,0,001,2024-06-26_14h47.33.096,robot_cogshifting_sign,2022.2.5,60.0087372721466,
"['R_Base_Y_Back', 'R_Base_Z_For', 'R_Torso_Z_Back', 'L_Base_Z_For']","{'laterality': 'L_Base_Z_For', 'localisation': 'R_Torso_Z_Back', 'movement': 'R_Base_Y_Back'}",movement,['movement'],R_Base_Y_Back,0,1,robot,4,True,False,"['robot_stimuli\\R_Base_Y_Back.mp4', 'robot_stimuli\\R_Base_Z_For.mp4', 'robot_stimuli\\R_Torso_Z_Back.mp4', 'robot_stimuli\\L_Base_Z_For.mp4']",robot_stimuli\R_Base_Y_Back.mp4,0,,,,,,,,,,,,,0,81,81,81,,,,,,,,,,,,,,,,,,,2086.4709064999997,2088.5556408,,,2103.4135853,2103.4135853,2103.4135853,1,0.5180607999998301,2103.9541442,2103.9541442,2103.9541442,2103.9541442,2103.9541442,2103.9541442,2103.9541442,2103.9541442,None,None,None,,,,,,,,,,2084.5801936,2084.5801936,space,1.8721467000002576,,,,,2099.7677562,0,001,2024-06-26_14h47.33.096,robot_cogshifting_sign,2022.2.5,60.0087372721466,
"['L_Base_X_Back', 'L_Head_X_Back', 'R_Head_X_For', 'L_Head_Y_Back']","{'laterality': 'R_Head_X_For', 'localisation': 'L_Base_X_Back', 'movement': 'L_Head_Y_Back'}",laterality,['laterality'],R_Head_X_For,2,1,robot,4,False,False,"['robot_stimuli\\L_Base_X_Back.mp4', 'robot_stimuli\\L_Head_X_Back.mp4', 'robot_stimuli\\R_Head_X_For.mp4', 'robot_stimuli\\L_Head_Y_Back.mp4']",robot_stimuli\R_Head_X_For.mp4,0,,,,,,,,,,,,,0,82,82,82,,,,,,,,,,,,,,,,,,,2103.9541442,2106.0310356,,,2120.8170841,2120.8170841,2120.8170841,3,1.1297428999998829,2121.9708405,2121.9708405,2121.9708405,2121.9708405,2121.9708405,2121.9708405,2121.9708405,2121.9708405,None,None,None,,,,,,,,,,2103.9541442,2103.9541442,None,,,,2103.9541442,2103.9541442,2117.1803575000004,0,001,2024-06-26_14h47.33.096,robot_cogshifting_sign,2022.2.5,60.0087372721466,
"['L_Head_Y_For', 'L_Torso_Y_Back', 'L_Head_X_For', 'R_Head_Y_For']","{'laterality': 'R_Head_Y_For', 'localisation': 'L_Torso_Y_Back', 'movement': 'L_Head_X_For'}",laterality,['laterality'],R_Head_Y_For,3,1,robot,4,False,False,"['robot_stimuli\\L_Head_Y_For.mp4', 'robot_stimuli\\L_Torso_Y_Back.mp4', 'robot_stimuli\\L_Head_X_For.mp4', 'robot_stimuli\\R_Head_Y_For.mp4']",robot_stimuli\R_Head_Y_For.mp4,0,,,,,,,,,,,,,0,83,83,83,,,,,,,,,,,,,,,,,,,2121.9708405,2124.0606267000003,,,2138.6625780000004,2138.6625780000004,2138.6625780000004,4,1.0842556000000059,2139.7709359,2139.7709359,2139.7709359,2139.7709359,2139.7709359,2139.7709359,2139.7709359,2139.7709359,None,None,None,,,,,,,,,,2121.9708405,2121.9708405,None,,,,2121.9708405,2121.9708405,2135.0310135,0,001,2024-06-26_14h47.33.096,robot_cogshifting_sign,2022.2.5,60.0087372721466,
"['L_Torso_X_For', 'L_Head_Y_Back', 'L_Torso_Y_For', 'R_Torso_Y_Back']","{'laterality': 'R_Torso_Y_Back', 'localisation': 'L_Head_Y_Back', 'movement': 'L_Torso_X_For'}",laterality,['laterality'],R_Torso_Y_Back,3,1,robot,4,False,False,"['robot_stimuli\\L_Torso_X_For.mp4', 'robot_stimuli\\L_Head_Y_Back.mp4', 'robot_stimuli\\L_Torso_Y_For.mp4', 'robot_stimuli\\R_Torso_Y_Back.mp4']",robot_stimuli\R_Torso_Y_Back.mp4,0,,,,,,,,,,,,,0,84,84,84,,,,,,,,,,,,,,,,,,,2139.7709359,2141.8458027999995,,,2156.6424121,2156.6424121,2156.6424121,4,0.5130367999997816,2157.1876623999997,2157.1876623999997,2157.1876623999997,2157.1876623999997,2157.1876623999997,2157.1876623999997,2157.1876623999997,2157.1876623999997,None,None,None,,,,,,,,,,2139.7709359,2139.7709359,None,,,,2139.7709359,2139.7709359,2153.0116335000002,0,001,2024-06-26_14h47.33.096,robot_cogshifting_sign,2022.2.5,60.0087372721466,
"['L_Arm_X_For', 'R_Arm_X_Back', 'L_Arm_Z_For', 'L_Base_X_Back']","{'laterality': 'R_Arm_X_Back', 'localisation': 'L_Base_X_Back', 'movement': 'L_Arm_Z_For'}",localisation,['localisation'],L_Base_X_Back,3,1,robot,4,False,False,"['robot_stimuli\\L_Arm_X_For.mp4', 'robot_stimuli\\R_Arm_X_Back.mp4', 'robot_stimuli\\L_Arm_Z_For.mp4', 'robot_stimuli\\L_Base_X_Back.mp4']",robot_stimuli\L_Base_X_Back.mp4,0,,,,,,,,,,,,,0,85,85,85,,,,,,,,,,,,,,,,,,,2157.1876623999997,2159.2624577999995,,,2174.0479041,2174.0479041,2174.0479041,3,9.420320500000116,2183.4879374,2183.4879374,2183.4879374,2183.4879374,2183.4879374,2183.4879374,2183.4879374,2183.4879374,None,None,None,,,,,,,,,,2157.1876623999997,2157.1876623999997,None,,,,2157.1876623999997,2157.1876623999997,2170.4352361,0,001,2024-06-26_14h47.33.096,robot_cogshifting_sign,2022.2.5,60.0087372721466,
"['L_Base_Z_For', 'L_Torso_Y_Back', 'R_Base_Y_For', 'L_Base_Y_For']","{'laterality': 'R_Base_Y_For', 'localisation': 'L_Torso_Y_Back', 'movement': 'L_Base_Z_For'}",movement,['movement'],L_Base_Z_For,0,1,robot,4,False,False,"['robot_stimuli\\L_Base_Z_For.mp4', 'robot_stimuli\\L_Torso_Y_Back.mp4', 'robot_stimuli\\R_Base_Y_For.mp4', 'robot_stimuli\\L_Base_Y_For.mp4']",robot_stimuli\L_Base_Z_For.mp4,0,,,,,,,,,,,,,0,86,86,86,,,,,,,,,,,,,,,,,,,2183.4879374,2185.5658432,,,2200.1659126000004,2200.1659126000004,2200.1659126000004,1,0.8058744000002207,2201.0044399,2201.0044399,2201.0044399,2201.0044399,2201.0044399,2201.0044399,2201.0044399,2201.0044399,None,None,None,,,,,,,,,,2183.4879374,2183.4879374,None,,,,2183.4879374,2183.4879374,2196.6210891,0,001,2024-06-26_14h47.33.096,robot_cogshifting_sign,2022.2.5,60.0087372721466,
"['L_Base_Z_Back', 'L_Torso_Y_Back', 'R_Base_Y_For', 'L_Base_Y_Back']","{'laterality': 'R_Base_Y_For', 'localisation': 'L_Torso_Y_Back', 'movement': 'L_Base_Z_Back'}",localisation,['localisation'],L_Torso_Y_Back,1,1,robot,4,False,False,"['robot_stimuli\\L_Base_Z_Back.mp4', 'robot_stimuli\\L_Torso_Y_Back.mp4', 'robot_stimuli\\R_Base_Y_For.mp4', 'robot_stimuli\\L_Base_Y_Back.mp4']",robot_stimuli\L_Torso_Y_Back.mp4,0,,,,,,,,,,,,,0,87,87,87,,,,,,,,,,,,,,,,,,,2201.0044399,2203.0775946000003,,,2217.6638332,2217.6638332,2217.6638332,2,0.37262500000019827,2218.0544772000003,2218.0544772000003,2218.0544772000003,2218.0544772000003,2218.0544772000003,2218.0544772000003,2218.0544772000003,2218.0544772000003,None,None,None,,,,,,,,,,2201.0044399,2201.0044399,None,,,,2201.0044399,2201.0044399,2214.0958567,0,001,2024-06-26_14h47.33.096,robot_cogshifting_sign,2022.2.5,60.0087372721466,
"['R_Base_Z_Back', 'L_Base_Y_Back', 'L_Base_Z_For', 'L_Torso_Z_Back']","{'laterality': 'R_Base_Z_Back', 'localisation': 'L_Torso_Z_Back', 'movement': 'L_Base_Y_Back'}",localisation,['localisation'],L_Torso_Z_Back,3,1,robot,4,False,False,"['robot_stimuli\\R_Base_Z_Back.mp4', 'robot_stimuli\\L_Base_Y_Back.mp4', 'robot_stimuli\\L_Base_Z_For.mp4', 'robot_stimuli\\L_Torso_Z_Back.mp4']",robot_stimuli\L_Torso_Z_Back.mp4,0,,,,,,,,,,,,,0,88,88,88,,,,,,,,,,,,,,,,,,,2218.0544772000003,2220.1289331,,,2234.6435893,2234.6435893,2234.6435893,4,0.36842630000023746,2235.0379605,2235.0379605,2235.0379605,2235.0379605,2235.0379605,2235.0379605,2235.0379605,2235.0379605,None,None,None,,,,,,,,,,2218.0544772000003,2218.0544772000003,None,,,,2218.0544772000003,2218.0544772000003,2231.1454999,0,001,2024-06-26_14h47.33.096,robot_cogshifting_sign,2022.2.5,60.0087372721466,
"['R_Base_Y_Back', 'R_Base_X_Back', 'R_Head_Y_Back', 'L_Base_Y_For']","{'laterality': 'L_Base_Y_For', 'localisation': 'R_Head_Y_Back', 'movement': 'R_Base_X_Back'}",movement,['movement'],R_Base_X_Back,1,1,robot,4,False,True,"['robot_stimuli\\R_Base_Y_Back.mp4', 'robot_stimuli\\R_Base_X_Back.mp4', 'robot_stimuli\\R_Head_Y_Back.mp4', 'robot_stimuli\\L_Base_Y_For.mp4']",robot_stimuli\R_Base_X_Back.mp4,0,,,,,,,,,,,,,0,89,89,89,,,,,,,,,,,,,,,,,,,2235.0379605,2237.1123681,,,2251.7970975999997,2251.7970975999997,2251.7970975999997,2,1.0856626999996024,2252.9303972999996,2257.9695104,2252.9303972999996,2257.9695104,2252.9303972999996,2257.9695104,2252.9303972999996,2257.9695104,4.537037037037034,2.796900700000151,space,,,4.984790600000224,,,,,,,2235.0379605,2235.0379605,None,,,,2235.0379605,2235.0379605,2248.2625190999997,0,001,2024-06-26_14h47.33.096,robot_cogshifting_sign,2022.2.5,60.0087372721466,
"['R_Base_Y_Back', 'L_Base_Y_For', 'L_Head_Y_For', 'L_Base_Z_For']","{'laterality': 'R_Base_Y_Back', 'localisation': 'L_Head_Y_For', 'movement': 'L_Base_Z_For'}",movement,"['laterality', 'localisation', 'movement']",L_Base_Z_For,3,3,robot,4,True,False,"['robot_stimuli\\R_Base_Y_Back.mp4', 'robot_stimuli\\L_Base_Y_For.mp4', 'robot_stimuli\\L_Head_Y_For.mp4', 'robot_stimuli\\L_Base_Z_For.mp4']",robot_stimuli\L_Base_Z_For.mp4,0,,,,,,,,,,,,,0,90,90,90,,,,,,,,,,,,,,,,,,,2260.7379767,2262.8176863,,,2277.5111366,2277.5111366,2277.5111366,4,5.221143199999688,2282.7547155,2282.7547155,2282.7547155,2282.7547155,2282.7547155,2282.7547155,2282.7547155,2282.7547155,None,None,None,,,,,,,,,,2257.9695104,2257.9695104,space,2.747215499999811,,,,,2273.8686498999996,0,001,2024-06-26_14h47.33.096,robot_cogshifting_sign,2022.2.5,60.0087372721466,
"['L_Torso_X_Back', 'R_Torso_Z_For', 'R_Head_X_Back', 'R_Torso_X_Back']","{'laterality': 'L_Torso_X_Back', 'localisation': 'R_Head_X_Back', 'movement': 'R_Torso_Z_For'}",localisation,"['laterality', 'localisation', 'movement']",R_Head_X_Back,2,3,robot,4,False,False,"['robot_stimuli\\L_Torso_X_Back.mp4', 'robot_stimuli\\R_Torso_Z_For.mp4', 'robot_stimuli\\R_Head_X_Back.mp4', 'robot_stimuli\\R_Torso_X_Back.mp4']",robot_stimuli\R_Head_X_Back.mp4,0,,,,,,,,,,,,,0,91,91,91,,,,,,,,,,,,,,,,,,,2282.7547155,2284.8289156,,,2299.6284944,2299.6284944,2299.6284944,3,3.711070300000074,2303.3713086,2303.3713086,2303.3713086,2303.3713086,2303.3713086,2303.3713086,2303.3713086,2303.3713086,None,None,None,,,,,,,,,,2282.7547155,2282.7547155,None,,,,2282.7547155,2282.7547155,2295.983623,0,001,2024-06-26_14h47.33.096,robot_cogshifting_sign,2022.2.5,60.0087372721466,
"['R_Arm_Y_Back', 'L_Arm_Y_For', 'L_Arm_X_For', 'L_Torso_Y_For']","{'laterality': 'R_Arm_Y_Back', 'localisation': 'L_Torso_Y_For', 'movement': 'L_Arm_X_For'}",laterality,"['laterality', 'localisation', 'movement']",R_Arm_Y_Back,0,3,robot,4,False,False,"['robot_stimuli\\R_Arm_Y_Back.mp4', 'robot_stimuli\\L_Arm_Y_For.mp4', 'robot_stimuli\\L_Arm_X_For.mp4', 'robot_stimuli\\L_Torso_Y_For.mp4']",robot_stimuli\R_Arm_Y_Back.mp4,0,,,,,,,,,,,,,0,92,92,92,,,,,,,,,,,,,,,,,,,2303.3713086,2305.4464506000004,,,2320.2480896999996,2320.2480896999996,2320.2480896999996,2,9.83468169999992,2330.1047473,2330.1047473,2330.1047473,2330.1047473,2330.1047473,2330.1047473,2330.1047473,2330.1047473,None,None,None,,,,,,,,,,2303.3713086,2303.3713086,None,,,,2303.3713086,2303.3713086,2316.6145241000004,0,001,2024-06-26_14h47.33.096,robot_cogshifting_sign,2022.2.5,60.0087372721466,
