sequence,is_true,target,condition,stimuli,block,is_block_beginning,is_block_ending,sequence_fnames,target_fname,subject,retraining.thisRepN,retraining.thisTrialN,retraining.thisN,retraining.thisIndex,training.thisRepN,training.thisTrialN,training.thisN,training.thisIndex,training_sequence_loop.thisRepN,training_sequence_loop.thisTrialN,training_sequence_loop.thisN,training_sequence_loop.thisIndex,trials.thisRepN,trials.thisTrialN,trials.thisN,trials.thisIndex,sequence_loop.thisRepN,sequence_loop.thisTrialN,sequence_loop.thisN,sequence_loop.thisIndex,langage_text.started,langage_key.started,langage_key.keys,langage_key.rt,intro_text.started,intro_key.started,intro_key.keys,intro_key.rt,training_intro_text.started,training_intro_key.started,training_intro_key.keys,training_intro_key.rt,polygon.started,polygon.stopped,training_presentation_letter.started,training_presentation_letter.stopped,training_recall_letter.started,training_recall_key.started,training_recall_question.started,training_recall_answer.started,training_recall_key.keys,training_recall_key.rt,RSME_labels.started,RSME_labels.stopped,RSME_ticks.started,RSME_ticks.stopped,RSME_text.started,RSME_text.stopped,RSME_key.started,RSME_key.stopped,RSME_ticks.response,RSME_ticks.rt,RSME_key.keys,training_intro_text.stopped,training_intro_key.stopped,RSME_key.rt,training_presentation_movie.started,training_recall_movie.started,experiment_beginning_text.started,experiment_beginning_keys.started,experiment_beginning_key.started,experiment_beginning_key.keys,experiment_beginning_key.rt,block_intro_text.started,block_intro_key.started,block_intro_key.keys,block_intro_key.rt,presentation_letter.started,presentation_letter.stopped,recall_letter.started,recall_key.started,recall_question.started,recall_answer.started,recall_key.keys,recall_key.rt,block_intro_text.stopped,block_intro_key.stopped,presentation_movie.started,recall_movie.started,participant,session,date,expName,psychopyVersion,frameRate,
,,,,,,,,,,,,,,,,,,,,,,,,,,,,,,,15.905136300000038,15.905136300000038,e,4.077435200000025,,,,,,,,,,,,,,,,,,,,,,,,,,,,,,,,,,,,,,,,,,,,,,,,,,,,,,,,12,001,2024-07-04_14h06.56.828,robot_sternberg_sign,2022.2.5,60.06301811860389,
,,,,,,,,,,,,,,,,,,,,,,,,,,,,,,,,,,,20.041967199999988,20.041967199999988,space,172.97892429999996,,,,,,,,,,,,,,,,,,,,,,,,,,,,,,,,,,,,,,,,,,,,,,,,,,,,12,001,2024-07-04_14h06.56.828,robot_sternberg_sign,2022.2.5,60.06301811860389,
"['W', 'P']",True,P,2,letter,1,True,False,"['robot_stimuli\\\\filler.mp4', 'robot_stimuli\\\\filler.mp4']",robot_stimuli\\filler.mp4,12,0,0,0,0,0,0,0,0,,,,,,,,,,,,,,,,,,,,,193.0565825,193.0565825,space,35.94920859999996,235.0297367,230.5161041,232.8229877,235.0297367,236.13363430000004,236.13363430000004,236.13363430000004,236.13363430000004,c,6.007775000000038,242.35842250000002,242.35842250000002,242.35842250000002,242.35842250000002,242.35842250000002,242.35842250000002,242.35842250000002,242.35842250000002,None,None,None,,,,,,,,,,,,,,,,,,,,,,,,,,,12,001,2024-07-04_14h06.56.828,robot_sternberg_sign,2022.2.5,60.06301811860389,
"['T', 'X']",False,R,2,letter,1,False,False,"['robot_stimuli\\\\filler.mp4', 'robot_stimuli\\\\filler.mp4']",robot_stimuli\\filler.mp4,12,0,0,0,0,0,1,1,1,,,,,,,,,,,,,,,,,,,,,242.35842250000002,242.35842250000002,None,,247.5570965,248.6274413,245.5387424,247.5570965,248.6274413,248.6274413,248.6274413,248.6274413,n,2.065405499999997,250.86647020000004,250.86647020000004,250.86647020000004,250.86647020000004,250.86647020000004,250.86647020000004,250.86647020000004,250.86647020000004,None,None,None,242.35842250000002,242.35842250000002,,,,,,,,,,,,,,,,,,,,,,,,,12,001,2024-07-04_14h06.56.828,robot_sternberg_sign,2022.2.5,60.06301811860389,
"['C', 'L']",True,L,2,letter,1,False,True,"['robot_stimuli\\\\filler.mp4', 'robot_stimuli\\\\filler.mp4']",robot_stimuli\\filler.mp4,12,0,0,0,0,0,2,2,2,,,,,,,,,,,,,,,,,,,,,250.86647020000004,250.86647020000004,None,,256.26516019999997,257.34120889999997,254.25931020000002,256.26516019999997,257.34120889999997,257.34120889999997,257.34120889999997,257.34120889999997,c,1.5123676000000614,259.0229782,284.7170022,259.0229782,284.7170022,259.0229782,284.7170022,259.0229782,284.7170022,19.814814814814813,24.269887500000095,space,250.86647020000004,250.86647020000004,25.621767800000043,,,,,,,,,,,,,,,,,,,,,,,,12,001,2024-07-04_14h06.56.828,robot_sternberg_sign,2022.2.5,60.06301811860389,
"['S', 'P', 'R', 'T']",True,P,4,letter,1,True,False,"['robot_stimuli\\\\filler.mp4', 'robot_stimuli\\\\filler.mp4', 'robot_stimuli\\\\filler.mp4', 'robot_stimuli\\\\filler.mp4']",robot_stimuli\\filler.mp4,12,0,0,0,0,0,3,3,3,,,,,,,,,,,,,,,,,,,,,284.7170022,284.7170022,space,10.559297799999968,305.084978,306.159006,303.06904299999997,305.084978,306.159006,306.159006,306.159006,306.159006,c,6.732877600000052,313.0049917,313.0049917,313.0049917,313.0049917,313.0049917,313.0049917,313.0049917,313.0049917,None,None,None,,,,,,,,,,,,,,,,,,,,,,,,,,,12,001,2024-07-04_14h06.56.828,robot_sternberg_sign,2022.2.5,60.06301811860389,
"['Z', 'C', 'V', 'S']",True,Z,4,letter,1,False,False,"['robot_stimuli\\\\filler.mp4', 'robot_stimuli\\\\filler.mp4', 'robot_stimuli\\\\filler.mp4', 'robot_stimuli\\\\filler.mp4']",robot_stimuli\\filler.mp4,12,0,0,0,0,0,4,4,4,,,,,,,,,,,,,,,,,,,,,313.0049917,313.0049917,None,,322.60423220000007,323.68353720000005,320.58717590000003,322.60423220000007,323.68353720000005,323.68353720000005,323.68353720000005,323.68353720000005,c,1.2896216000000322,325.1080786,325.1080786,325.1080786,325.1080786,325.1080786,325.1080786,325.1080786,325.1080786,None,None,None,313.0049917,313.0049917,,,,,,,,,,,,,,,,,,,,,,,,,12,001,2024-07-04_14h06.56.828,robot_sternberg_sign,2022.2.5,60.06301811860389,
"['L', 'J', 'B', 'P']",False,X,4,letter,1,False,True,"['robot_stimuli\\\\filler.mp4', 'robot_stimuli\\\\filler.mp4', 'robot_stimuli\\\\filler.mp4', 'robot_stimuli\\\\filler.mp4']",robot_stimuli\\filler.mp4,12,0,0,0,0,0,5,5,5,,,,,,,,,,,,,,,,,,,,,325.1080786,325.1080786,None,,334.51508839999997,335.59063119999996,332.4908197,334.51508839999997,335.59063119999996,335.59063119999996,335.59063119999996,335.59063119999996,n,1.5261414000000286,337.25512460000004,345.53849880000007,337.25512460000004,345.53849880000007,337.25512460000004,345.53849880000007,337.25512460000004,345.53849880000007,60.55555555555555,6.649391499999979,space,325.1080786,325.1080786,8.221159100000023,,,,,,,,,,,,,,,,,,,,,,,,12,001,2024-07-04_14h06.56.828,robot_sternberg_sign,2022.2.5,60.06301811860389,
"['S', 'X', 'B', 'F', 'H', 'Q']",True,S,6,letter,1,True,False,"['robot_stimuli\\\\filler.mp4', 'robot_stimuli\\\\filler.mp4', 'robot_stimuli\\\\filler.mp4', 'robot_stimuli\\\\filler.mp4', 'robot_stimuli\\\\filler.mp4', 'robot_stimuli\\\\filler.mp4']",robot_stimuli\\filler.mp4,12,0,0,0,0,0,6,6,6,,,,,,,,,,,,,,,,,,,,,345.53849880000007,345.53849880000007,space,2.24273119999998,361.7948927,348.8756091,359.77117910000004,361.7948927,362.87378,362.87378,362.87378,362.87378,c,1.5631137000000308,364.4972063,364.4972063,364.4972063,364.4972063,364.4972063,364.4972063,364.4972063,364.4972063,None,None,None,,,,,,,,,,,,,,,,,,,,,,,,,,,12,001,2024-07-04_14h06.56.828,robot_sternberg_sign,2022.2.5,60.06301811860389,
"['P', 'B', 'Q', 'N', 'V', 'J']",True,J,6,letter,1,False,False,"['robot_stimuli\\\\filler.mp4', 'robot_stimuli\\\\filler.mp4', 'robot_stimuli\\\\filler.mp4', 'robot_stimuli\\\\filler.mp4', 'robot_stimuli\\\\filler.mp4', 'robot_stimuli\\\\filler.mp4']",robot_stimuli\\filler.mp4,12,0,0,0,0,0,7,7,7,,,,,,,,,,,,,,,,,,,,,364.4972063,364.4972063,None,,378.46312720000003,365.5649594,376.24870469999996,378.46312720000003,379.53386580000006,379.53386580000006,379.53386580000006,379.53386580000006,c,1.511606699999902,381.1607467,381.1607467,381.1607467,381.1607467,381.1607467,381.1607467,381.1607467,381.1607467,None,None,None,364.4972063,364.4972063,,,,,,,,,,,,,,,,,,,,,,,,,12,001,2024-07-04_14h06.56.828,robot_sternberg_sign,2022.2.5,60.06301811860389,
"['W', 'X', 'Z', 'D', 'F', 'C']",False,N,6,letter,1,False,True,"['robot_stimuli\\\\filler.mp4', 'robot_stimuli\\\\filler.mp4', 'robot_stimuli\\\\filler.mp4', 'robot_stimuli\\\\filler.mp4', 'robot_stimuli\\\\filler.mp4', 'robot_stimuli\\\\filler.mp4']",robot_stimuli\\filler.mp4,12,0,0,0,0,0,8,8,8,,,,,,,,,,,,,,,,,,,,,381.1607467,381.1607467,None,,395.1193832,396.1850164,393.0969837,395.1193832,396.1850164,396.1850164,396.1850164,396.1850164,n,26.276005599999962,422.69871320000004,426.9435667,422.69871320000004,426.9435667,422.69871320000004,426.9435667,422.69871320000004,426.9435667,84.93827160493827,3.1301718000000847,space,381.1607467,381.1607467,4.177072800000019,,,,,,,,,,,,,,,,,,,,,,,,12,001,2024-07-04_14h06.56.828,robot_sternberg_sign,2022.2.5,60.06301811860389,
"['R_Base_Y_Back', 'L_Base_X_For']",False,L_Base_Z_Back,2,robot,2,True,False,"['robot_stimuli\\R_Base_Y_Back.mp4', 'robot_stimuli\\L_Base_X_For.mp4']",robot_stimuli\L_Base_Z_Back.mp4,12,0,0,0,0,0,9,9,9,,,,,,,,,,,,,,,,,,,,,426.9435667,426.9435667,space,3.7181461999999783,439.08373489999997,440.1756428,,,,440.1756428,440.1756428,440.1756428,n,3.68562780000002,443.8911527,443.8911527,443.8911527,443.8911527,443.8911527,443.8911527,443.8911527,443.8911527,None,None,None,,,,435.51030990000004,440.1756428,,,,,,,,,,,,,,,,,,,,,,12,001,2024-07-04_14h06.56.828,robot_sternberg_sign,2022.2.5,60.06301811860389,
"['L_Arm_X_Back', 'L_Arm_Z_Back']",True,L_Arm_Z_Back,2,robot,2,False,False,"['robot_stimuli\\L_Arm_X_Back.mp4', 'robot_stimuli\\L_Arm_Z_Back.mp4']",robot_stimuli\L_Arm_Z_Back.mp4,12,0,0,0,0,0,10,10,10,,,,,,,,,,,,,,,,,,,,,443.8911527,443.8911527,None,,452.3463451,444.98418160000006,,,,453.4418621,453.4418621,453.4418621,c,4.921906100000001,458.4066448,458.4066448,458.4066448,458.4066448,458.4066448,458.4066448,458.4066448,458.4066448,None,None,None,443.8911527,443.8911527,,448.71667390000005,453.4418621,,,,,,,,,,,,,,,,,,,,,,12,001,2024-07-04_14h06.56.828,robot_sternberg_sign,2022.2.5,60.06301811860389,
"['L_Head_Z_Back', 'L_Torso_X_For']",True,L_Torso_X_For,2,robot,2,False,True,"['robot_stimuli\\L_Head_Z_Back.mp4', 'robot_stimuli\\L_Torso_X_For.mp4']",robot_stimuli\L_Torso_X_For.mp4,12,0,0,0,0,0,11,11,11,,,,,,,,,,,,,,,,,,,,,458.4066448,458.4066448,None,,466.8796869,459.48936449999997,,,,467.97203350000007,467.97203350000007,467.97203350000007,c,5.201221299999929,473.2366138,478.75829780000004,473.2366138,478.75829780000004,473.2366138,478.75829780000004,473.2366138,478.75829780000004,25.370370370370367,3.6433177000000114,space,458.4066448,458.4066448,5.455946600000061,463.2414523,467.97203350000007,,,,,,,,,,,,,,,,,,,,,,12,001,2024-07-04_14h06.56.828,robot_sternberg_sign,2022.2.5,60.06301811860389,
"['L_Base_X_Back', 'R_Torso_Z_For', 'R_Arm_Y_For', 'R_Torso_Y_For']",True,R_Torso_Y_For,4,robot,2,True,False,"['robot_stimuli\\L_Base_X_Back.mp4', 'robot_stimuli\\R_Torso_Z_For.mp4', 'robot_stimuli\\R_Arm_Y_For.mp4', 'robot_stimuli\\R_Torso_Y_For.mp4']",robot_stimuli\R_Torso_Y_For.mp4,12,0,0,0,0,0,12,12,12,,,,,,,,,,,,,,,,,,,,,478.75829780000004,478.75829780000004,space,2.118182499999989,496.65446729999996,497.7494351,,,,497.7494351,497.7494351,497.7494351,c,4.16723120000006,501.959153,501.959153,501.959153,501.959153,501.959153,501.959153,501.959153,501.959153,None,None,None,,,,493.01967090000005,497.7494351,,,,,,,,,,,,,,,,,,,,,,12,001,2024-07-04_14h06.56.828,robot_sternberg_sign,2022.2.5,60.06301811860389,
"['L_Base_Z_Back', 'R_Torso_Y_Back', 'L_Head_Y_For', 'R_Torso_Y_For']",False,R_Base_Z_For,4,robot,2,False,False,"['robot_stimuli\\L_Base_Z_Back.mp4', 'robot_stimuli\\R_Torso_Y_Back.mp4', 'robot_stimuli\\L_Head_Y_For.mp4', 'robot_stimuli\\R_Torso_Y_For.mp4']",robot_stimuli\R_Base_Z_For.mp4,12,0,0,0,0,0,13,13,13,,,,,,,,,,,,,,,,,,,,,501.959153,501.959153,None,,517.8601113,518.9442139,,,,518.9442139,518.9442139,518.9442139,n,3.3714363999999932,522.5836123,522.5836123,522.5836123,522.5836123,522.5836123,522.5836123,522.5836123,522.5836123,None,None,None,501.959153,501.959153,,514.2329754,518.9442139,,,,,,,,,,,,,,,,,,,,,,12,001,2024-07-04_14h06.56.828,robot_sternberg_sign,2022.2.5,60.06301811860389,
"['R_Base_Y_Back', 'R_Base_Z_Back', 'L_Arm_Z_Back', 'L_Base_Z_Back']",True,L_Base_Z_Back,4,robot,2,False,True,"['robot_stimuli\\R_Base_Y_Back.mp4', 'robot_stimuli\\R_Base_Z_Back.mp4', 'robot_stimuli\\L_Arm_Z_Back.mp4', 'robot_stimuli\\L_Base_Z_Back.mp4']",robot_stimuli\L_Base_Z_Back.mp4,12,0,0,0,0,0,14,14,14,,,,,,,,,,,,,,,,,,,,,522.5836123,522.5836123,None,,538.4001605,539.4841367,,,,539.4841367,539.4841367,539.4841367,c,4.513307599999962,544.0673771,548.3900686000001,544.0673771,548.3900686000001,544.0673771,548.3900686000001,544.0673771,548.3900686000001,36.94444444444444,3.3022336000000223,space,522.5836123,522.5836123,4.281093199999987,534.7689179,539.4841367,,,,,,,,,,,,,,,,,,,,,,12,001,2024-07-04_14h06.56.828,robot_sternberg_sign,2022.2.5,60.06301811860389,
"['L_Torso_Y_For', 'R_Head_Z_For', 'L_Head_Y_For', 'R_Torso_Z_For', 'L_Torso_Z_For', 'L_Arm_Z_Back']",False,R_Arm_Y_For,6,robot,2,True,False,"['robot_stimuli\\L_Torso_Y_For.mp4', 'robot_stimuli\\R_Head_Z_For.mp4', 'robot_stimuli\\L_Head_Y_For.mp4', 'robot_stimuli\\R_Torso_Z_For.mp4', 'robot_stimuli\\L_Torso_Z_For.mp4', 'robot_stimuli\\L_Arm_Z_Back.mp4']",robot_stimuli\R_Arm_Y_For.mp4,12,0,0,0,0,0,15,15,15,,,,,,,,,,,,,,,,,,,,,548.3900686000001,548.3900686000001,space,1.935222099999919,573.6849217,574.7745449,,,,574.7745449,574.7745449,574.7745449,n,3.7417542999999114,578.5574007,578.5574007,578.5574007,578.5574007,578.5574007,578.5574007,578.5574007,578.5574007,None,None,None,,,,570.0424395,574.7745449,,,,,,,,,,,,,,,,,,,,,,12,001,2024-07-04_14h06.56.828,robot_sternberg_sign,2022.2.5,60.06301811860389,
"['L_Head_Y_Back', 'R_Head_Y_Back', 'L_Arm_X_Back', 'R_Torso_Y_For', 'R_Arm_Y_For', 'R_Base_Z_Back']",True,L_Arm_X_Back,6,robot,2,False,False,"['robot_stimuli\\L_Head_Y_Back.mp4', 'robot_stimuli\\R_Head_Y_Back.mp4', 'robot_stimuli\\L_Arm_X_Back.mp4', 'robot_stimuli\\R_Torso_Y_For.mp4', 'robot_stimuli\\R_Arm_Y_For.mp4', 'robot_stimuli\\R_Base_Z_Back.mp4']",robot_stimuli\L_Arm_X_Back.mp4,12,0,0,0,0,0,16,16,16,,,,,,,,,,,,,,,,,,,,,578.5574007,578.5574007,None,,601.6800468,579.6341029,,,,602.7711035,602.7711035,602.7711035,c,5.4256302000000005,608.235798,608.235798,608.235798,608.235798,608.235798,608.235798,608.235798,608.235798,None,None,None,578.5574007,578.5574007,,598.1380989,602.7711035,,,,,,,,,,,,,,,,,,,,,,12,001,2024-07-04_14h06.56.828,robot_sternberg_sign,2022.2.5,60.06301811860389,
"['L_Arm_X_For', 'L_Torso_Z_For', 'R_Base_X_For', 'L_Base_Y_Back', 'R_Head_X_For', 'R_Base_Y_For']",True,L_Torso_Z_For,6,robot,2,False,True,"['robot_stimuli\\L_Arm_X_For.mp4', 'robot_stimuli\\L_Torso_Z_For.mp4', 'robot_stimuli\\R_Base_X_For.mp4', 'robot_stimuli\\L_Base_Y_Back.mp4', 'robot_stimuli\\R_Head_X_For.mp4', 'robot_stimuli\\R_Base_Y_For.mp4']",robot_stimuli\L_Torso_Z_For.mp4,12,0,0,0,0,0,17,17,17,,,,,,,,,,,,,,,,,,,,,608.235798,608.235798,None,,631.417895,632.5041896,,,,632.5041896,632.5041896,632.5041896,c,9.107346600000028,641.6693476,646.4146691,641.6693476,646.4146691,641.6693476,646.4146691,641.6693476,646.4146691,69.96913580246914,3.74813180000001,space,608.235798,608.235798,4.694614900000033,627.7764261,632.5041896,,,,,,,,,,,,,,,,,,,,,,12,001,2024-07-04_14h06.56.828,robot_sternberg_sign,2022.2.5,60.06301811860389,
,,,,,,,,,,,0,0,0,0,,,,,,,,,,,,,,,,,,,,,,,,,,,,,,,,,,,,,,,,,,,,,,,,,,,,,,,646.4146691,646.4146691,646.4146691,c,7.357128800000055,,,,,,,,,,,,,,,,,12,001,2024-07-04_14h06.56.828,robot_sternberg_sign,2022.2.5,60.06301811860389,
"['P', 'M', 'G', 'L']",False,S,4,letter,1,True,False,"['robot_stimuli\\\\filler.mp4', 'robot_stimuli\\\\filler.mp4', 'robot_stimuli\\\\filler.mp4', 'robot_stimuli\\\\filler.mp4']",robot_stimuli\\filler.mp4,12,,,,,,,,,,,,,0,0,0,0,,,,,,,,,,,,,,,,,666.7386139,667.8252875000001,,,,,,,,,669.0311039000001,669.0311039000001,669.0311039000001,669.0311039000001,669.0311039000001,669.0311039000001,669.0311039000001,669.0311039000001,None,None,None,,,,,,,,,,,653.8084146,653.8084146,space,3.1645756000000347,664.7278612,666.7386139,667.8252875000001,667.8252875000001,667.8252875000001,667.8252875000001,n,1.034167000000025,,,,,12,001,2024-07-04_14h06.56.828,robot_sternberg_sign,2022.2.5,60.06301811860389,
"['W', 'Z', 'D', 'L']",True,Z,4,letter,1,False,False,"['robot_stimuli\\\\filler.mp4', 'robot_stimuli\\\\filler.mp4', 'robot_stimuli\\\\filler.mp4', 'robot_stimuli\\\\filler.mp4']",robot_stimuli\\filler.mp4,12,,,,,,,,,,,,,0,1,1,1,,,,,,,,,,,,,,,,,678.5867865,679.6549973,,,,,,,,,681.0694591,681.0694591,681.0694591,681.0694591,681.0694591,681.0694591,681.0694591,681.0694591,None,None,None,,,,,,,,,,,669.0311039000001,669.0311039000001,None,,676.5728465,678.5867865,679.6549973,679.6549973,679.6549973,679.6549973,c,1.2771304999999984,669.0311039000001,669.0311039000001,,,12,001,2024-07-04_14h06.56.828,robot_sternberg_sign,2022.2.5,60.06301811860389,
"['C', 'W', 'S', 'D']",True,D,4,letter,1,False,False,"['robot_stimuli\\\\filler.mp4', 'robot_stimuli\\\\filler.mp4', 'robot_stimuli\\\\filler.mp4', 'robot_stimuli\\\\filler.mp4']",robot_stimuli\\filler.mp4,12,,,,,,,,,,,,,0,2,2,2,,,,,,,,,,,,,,,,,690.6350464,691.6972587,,,,,,,,,693.1271867,693.1271867,693.1271867,693.1271867,693.1271867,693.1271867,693.1271867,693.1271867,None,None,None,,,,,,,,,,,681.0694591,681.0694591,None,,688.6237156,690.6350464,691.6972587,691.6972587,691.6972587,691.6972587,c,1.251593600000092,681.0694591,681.0694591,,,12,001,2024-07-04_14h06.56.828,robot_sternberg_sign,2022.2.5,60.06301811860389,
"['M', 'J', 'F', 'B']",False,Q,4,letter,1,False,False,"['robot_stimuli\\\\filler.mp4', 'robot_stimuli\\\\filler.mp4', 'robot_stimuli\\\\filler.mp4', 'robot_stimuli\\\\filler.mp4']",robot_stimuli\\filler.mp4,12,,,,,,,,,,,,,0,3,3,3,,,,,,,,,,,,,,,,,703.2659438000001,704.3294897000001,,,,,,,,,705.3602321,705.3602321,705.3602321,705.3602321,705.3602321,705.3602321,705.3602321,705.3602321,None,None,None,,,,,,,,,,,693.1271867,693.1271867,None,,701.0482599000001,703.2659438000001,704.3294897000001,704.3294897000001,704.3294897000001,704.3294897000001,n,0.9155835000000252,693.1271867,693.1271867,,,12,001,2024-07-04_14h06.56.828,robot_sternberg_sign,2022.2.5,60.06301811860389,
"['W', 'B', 'Q', 'V']",False,R,4,letter,1,False,False,"['robot_stimuli\\\\filler.mp4', 'robot_stimuli\\\\filler.mp4', 'robot_stimuli\\\\filler.mp4', 'robot_stimuli\\\\filler.mp4']",robot_stimuli\\filler.mp4,12,,,,,,,,,,,,,0,4,4,4,,,,,,,,,,,,,,,,,715.1013782,716.166451,,,,,,,,,717.9932047,717.9932047,717.9932047,717.9932047,717.9932047,717.9932047,717.9932047,717.9932047,None,None,None,,,,,,,,,,,705.3602321,705.3602321,None,,713.0841676,715.1013782,716.166451,716.166451,716.166451,716.166451,n,1.7810513999999102,705.3602321,705.3602321,,,12,001,2024-07-04_14h06.56.828,robot_sternberg_sign,2022.2.5,60.06301811860389,
"['Q', 'V', 'J', 'M']",True,J,4,letter,1,False,False,"['robot_stimuli\\\\filler.mp4', 'robot_stimuli\\\\filler.mp4', 'robot_stimuli\\\\filler.mp4', 'robot_stimuli\\\\filler.mp4']",robot_stimuli\\filler.mp4,12,,,,,,,,,,,,,0,5,5,5,,,,,,,,,,,,,,,,,727.9307786,728.9977392000001,,,,,,,,,731.8293204,731.8293204,731.8293204,731.8293204,731.8293204,731.8293204,731.8293204,731.8293204,None,None,None,,,,,,,,,,,717.9932047,717.9932047,None,,725.7120175,727.9307786,728.9977392000001,728.9977392000001,728.9977392000001,728.9977392000001,c,2.597726800000032,717.9932047,717.9932047,,,12,001,2024-07-04_14h06.56.828,robot_sternberg_sign,2022.2.5,60.06301811860389,
"['G', 'J', 'D', 'Z']",True,D,4,letter,1,False,False,"['robot_stimuli\\\\filler.mp4', 'robot_stimuli\\\\filler.mp4', 'robot_stimuli\\\\filler.mp4', 'robot_stimuli\\\\filler.mp4']",robot_stimuli\\filler.mp4,12,,,,,,,,,,,,,0,6,6,6,,,,,,,,,,,,,,,,,741.7831367,742.8474868000001,,,,,,,,,743.8698784000001,743.8698784000001,743.8698784000001,743.8698784000001,743.8698784000001,743.8698784000001,743.8698784000001,743.8698784000001,None,None,None,,,,,,,,,,,731.8293204,731.8293204,None,,739.568235,741.7831367,742.8474868000001,742.8474868000001,742.8474868000001,742.8474868000001,c,0.8372299999999768,731.8293204,731.8293204,,,12,001,2024-07-04_14h06.56.828,robot_sternberg_sign,2022.2.5,60.06301811860389,
"['K', 'M', 'S', 'G']",False,D,4,letter,1,False,False,"['robot_stimuli\\\\filler.mp4', 'robot_stimuli\\\\filler.mp4', 'robot_stimuli\\\\filler.mp4', 'robot_stimuli\\\\filler.mp4']",robot_stimuli\\filler.mp4,12,,,,,,,,,,,,,0,7,7,7,,,,,,,,,,,,,,,,,753.8133375,754.8829948,,,,,,,,,756.7092404,756.7092404,756.7092404,756.7092404,756.7092404,756.7092404,756.7092404,756.7092404,None,None,None,,,,,,,,,,,743.8698784000001,743.8698784000001,None,,751.6028084,753.8133375,754.8829948,754.8829948,754.8829948,754.8829948,n,1.6338177000000087,743.8698784000001,743.8698784000001,,,12,001,2024-07-04_14h06.56.828,robot_sternberg_sign,2022.2.5,60.06301811860389,
"['M', 'C', 'S', 'L']",True,C,4,letter,1,False,False,"['robot_stimuli\\\\filler.mp4', 'robot_stimuli\\\\filler.mp4', 'robot_stimuli\\\\filler.mp4', 'robot_stimuli\\\\filler.mp4']",robot_stimuli\\filler.mp4,12,,,,,,,,,,,,,0,8,8,8,,,,,,,,,,,,,,,,,766.6514942,767.7132777,,,,,,,,,770.5490003000001,770.5490003000001,770.5490003000001,770.5490003000001,770.5490003000001,770.5490003000001,770.5490003000001,770.5490003000001,None,None,None,,,,,,,,,,,756.7092404,756.7092404,None,,764.6432028,766.6514942,767.7132777,767.7132777,767.7132777,767.7132777,c,2.6274187999999867,756.7092404,756.7092404,,,12,001,2024-07-04_14h06.56.828,robot_sternberg_sign,2022.2.5,60.06301811860389,
"['L', 'M', 'X', 'Z']",False,K,4,letter,1,False,True,"['robot_stimuli\\\\filler.mp4', 'robot_stimuli\\\\filler.mp4', 'robot_stimuli\\\\filler.mp4', 'robot_stimuli\\\\filler.mp4']",robot_stimuli\\filler.mp4,12,,,,,,,,,,,,,0,9,9,9,,,,,,,,,,,,,,,,,780.1120999000001,771.6113609,,,,,,,,,784.0447329,788.9331713,784.0447329,788.9331713,784.0447329,788.9331713,784.0447329,788.9331713,37.87037037037037,3.653927000000067,space,,,4.839085100000148,,,,,,,,770.5490003000001,770.5490003000001,None,,778.0905165,780.1120999000001,781.1791867999999,781.1791867999999,781.1791867999999,781.1791867999999,n,2.6892680999999357,770.5490003000001,770.5490003000001,,,12,001,2024-07-04_14h06.56.828,robot_sternberg_sign,2022.2.5,60.06301811860389,
"['Z', 'X']",True,X,2,letter,1,True,False,"['robot_stimuli\\\\filler.mp4', 'robot_stimuli\\\\filler.mp4']",robot_stimuli\\filler.mp4,12,,,,,,,,,,,,,0,10,10,10,,,,,,,,,,,,,,,,,798.2901747,799.3471008,,,,,,,,,800.1706928,800.1706928,800.1706928,800.1706928,800.1706928,800.1706928,800.1706928,800.1706928,None,None,None,,,,,,,,,,,788.9331713,788.9331713,space,3.9676907999999003,796.2717987,798.2901747,799.3471008,799.3471008,799.3471008,799.3471008,c,0.7697316000001138,,,,,12,001,2024-07-04_14h06.56.828,robot_sternberg_sign,2022.2.5,60.06301811860389,
"['H', 'V']",False,P,2,letter,1,False,False,"['robot_stimuli\\\\filler.mp4', 'robot_stimuli\\\\filler.mp4']",robot_stimuli\\filler.mp4,12,,,,,,,,,,,,,0,11,11,11,,,,,,,,,,,,,,,,,805.5353197999999,806.5998801,,,,,,,,,807.6182335,807.6182335,807.6182335,807.6182335,807.6182335,807.6182335,807.6182335,807.6182335,None,None,None,,,,,,,,,,,800.1706928,800.1706928,None,,803.5225971000001,805.5353197999999,806.5998801,806.5998801,806.5998801,806.5998801,n,0.8679167000000234,800.1706928,800.1706928,,,12,001,2024-07-04_14h06.56.828,robot_sternberg_sign,2022.2.5,60.06301811860389,
"['S', 'N']",True,S,2,letter,1,False,False,"['robot_stimuli\\\\filler.mp4', 'robot_stimuli\\\\filler.mp4']",robot_stimuli\\filler.mp4,12,,,,,,,,,,,,,0,12,12,12,,,,,,,,,,,,,,,,,812.9853320000001,814.0472409,,,,,,,,,814.8687127,814.8687127,814.8687127,814.8687127,814.8687127,814.8687127,814.8687127,814.8687127,None,None,None,,,,,,,,,,,807.6182335,807.6182335,None,,810.9696935000001,812.9853320000001,814.0472409,814.0472409,814.0472409,814.0472409,c,0.7087113000000045,807.6182335,807.6182335,,,12,001,2024-07-04_14h06.56.828,robot_sternberg_sign,2022.2.5,60.06301811860389,
"['L', 'B']",False,Q,2,letter,1,False,False,"['robot_stimuli\\\\filler.mp4', 'robot_stimuli\\\\filler.mp4']",robot_stimuli\\filler.mp4,12,,,,,,,,,,,,,0,13,13,13,,,,,,,,,,,,,,,,,820.2618220999999,815.9309308,,,,,,,,,821.9539100000001,821.9539100000001,821.9539100000001,821.9539100000001,821.9539100000001,821.9539100000001,821.9539100000001,821.9539100000001,None,None,None,,,,,,,,,,,814.8687127,814.8687127,None,,818.2432683000001,820.2618220999999,821.3295422,821.3295422,821.3295422,821.3295422,n,0.5237108000001172,814.8687127,814.8687127,,,12,001,2024-07-04_14h06.56.828,robot_sternberg_sign,2022.2.5,60.06301811860389,
"['D', 'Q']",False,R,2,letter,1,False,False,"['robot_stimuli\\\\filler.mp4', 'robot_stimuli\\\\filler.mp4']",robot_stimuli\\filler.mp4,12,,,,,,,,,,,,,0,14,14,14,,,,,,,,,,,,,,,,,827.5156588000001,828.5793199999999,,,,,,,,,829.8043581000001,829.8043581000001,829.8043581000001,829.8043581000001,829.8043581000001,829.8043581000001,829.8043581000001,829.8043581000001,None,None,None,,,,,,,,,,,821.9539100000001,821.9539100000001,None,,825.3012944000001,827.5156588000001,828.5793199999999,828.5793199999999,828.5793199999999,828.5793199999999,n,1.1209797999999864,821.9539100000001,821.9539100000001,,,12,001,2024-07-04_14h06.56.828,robot_sternberg_sign,2022.2.5,60.06301811860389,
"['G', 'K']",True,G,2,letter,1,False,False,"['robot_stimuli\\\\filler.mp4', 'robot_stimuli\\\\filler.mp4']",robot_stimuli\\filler.mp4,12,,,,,,,,,,,,,0,15,15,15,,,,,,,,,,,,,,,,,835.1840366,836.2469497000001,,,,,,,,,837.0678283000001,837.0678283000001,837.0678283000001,837.0678283000001,837.0678283000001,837.0678283000001,837.0678283000001,837.0678283000001,None,None,None,,,,,,,,,,,829.8043581000001,829.8043581000001,None,,832.9684498,835.1840366,836.2469497000001,836.2469497000001,836.2469497000001,836.2469497000001,c,0.6043419000000085,829.8043581000001,829.8043581000001,,,12,001,2024-07-04_14h06.56.828,robot_sternberg_sign,2022.2.5,60.06301811860389,
"['V', 'B']",True,V,2,letter,1,False,False,"['robot_stimuli\\\\filler.mp4', 'robot_stimuli\\\\filler.mp4']",robot_stimuli\\filler.mp4,12,,,,,,,,,,,,,0,16,16,16,,,,,,,,,,,,,,,,,842.4400855,843.4998976999999,,,,,,,,,844.5166433,844.5166433,844.5166433,844.5166433,844.5166433,844.5166433,844.5166433,844.5166433,None,None,None,,,,,,,,,,,837.0678283000001,837.0678283000001,None,,840.4238160000001,842.4400855,843.4998976999999,843.4998976999999,843.4998976999999,843.4998976999999,c,0.8883763999999701,837.0678283000001,837.0678283000001,,,12,001,2024-07-04_14h06.56.828,robot_sternberg_sign,2022.2.5,60.06301811860389,
"['T', 'C']",False,L,2,letter,1,False,False,"['robot_stimuli\\\\filler.mp4', 'robot_stimuli\\\\filler.mp4']",robot_stimuli\\filler.mp4,12,,,,,,,,,,,,,0,17,17,17,,,,,,,,,,,,,,,,,849.8984406999999,850.9638659999999,,,,,,,,,852.1882861,852.1882861,852.1882861,852.1882861,852.1882861,852.1882861,852.1882861,852.1882861,None,None,None,,,,,,,,,,,844.5166433,844.5166433,None,,847.6782245999999,849.8984406999999,850.9638659999999,850.9638659999999,850.9638659999999,850.9638659999999,n,1.1685953000001064,844.5166433,844.5166433,,,12,001,2024-07-04_14h06.56.828,robot_sternberg_sign,2022.2.5,60.06301811860389,
"['S', 'M']",True,M,2,letter,1,False,False,"['robot_stimuli\\\\filler.mp4', 'robot_stimuli\\\\filler.mp4']",robot_stimuli\\filler.mp4,12,,,,,,,,,,,,,0,18,18,18,,,,,,,,,,,,,,,,,857.7571406999999,858.8143103000001,,,,,,,,,860.0357974,860.0357974,860.0357974,860.0357974,860.0357974,860.0357974,860.0357974,860.0357974,None,None,None,,,,,,,,,,,852.1882861,852.1882861,None,,855.5476166,857.7571406999999,858.8143103000001,858.8143103000001,858.8143103000001,858.8143103000001,c,1.0529430000001412,852.1882861,852.1882861,,,12,001,2024-07-04_14h06.56.828,robot_sternberg_sign,2022.2.5,60.06301811860389,
"['N', 'R']",False,Q,2,letter,1,False,True,"['robot_stimuli\\\\filler.mp4', 'robot_stimuli\\\\filler.mp4']",robot_stimuli\\filler.mp4,12,,,,,,,,,,,,,0,19,19,19,,,,,,,,,,,,,,,,,865.612984,861.0975603,,,,,,,,,867.7300219,871.4877969,867.7300219,871.4877969,867.7300219,871.4877969,867.7300219,871.4877969,36.94444444444444,2.896937099999832,space,,,3.6975521000001663,,,,,,,,860.0357974,860.0357974,None,,863.3979979,865.612984,866.6801715,866.6801715,866.6801715,866.6801715,n,0.9237630000000081,860.0357974,860.0357974,,,12,001,2024-07-04_14h06.56.828,robot_sternberg_sign,2022.2.5,60.06301811860389,
"['M', 'Z', 'L', 'W', 'V', 'D']",True,M,6,letter,1,True,False,"['robot_stimuli\\\\filler.mp4', 'robot_stimuli\\\\filler.mp4', 'robot_stimuli\\\\filler.mp4', 'robot_stimuli\\\\filler.mp4', 'robot_stimuli\\\\filler.mp4', 'robot_stimuli\\\\filler.mp4']",robot_stimuli\\filler.mp4,12,,,,,,,,,,,,,0,20,20,20,,,,,,,,,,,,,,,,,887.9626735,874.7221814000001,,,,,,,,,895.6741813,895.6741813,895.6741813,895.6741813,895.6741813,895.6741813,895.6741813,895.6741813,None,None,None,,,,,,,,,,,871.4877969,871.4877969,space,2.141244400000005,885.9525156999999,887.9626735,889.0321988,889.0321988,889.0321988,889.0321988,n,6.507523300000003,,,,,12,001,2024-07-04_14h06.56.828,robot_sternberg_sign,2022.2.5,60.06301811860389,
"['D', 'T', 'Q', 'V', 'W', 'H']",False,F,6,letter,1,False,False,"['robot_stimuli\\\\filler.mp4', 'robot_stimuli\\\\filler.mp4', 'robot_stimuli\\\\filler.mp4', 'robot_stimuli\\\\filler.mp4', 'robot_stimuli\\\\filler.mp4', 'robot_stimuli\\\\filler.mp4']",robot_stimuli\\filler.mp4,12,,,,,,,,,,,,,0,21,21,21,,,,,,,,,,,,,,,,,909.7957485999999,896.7409417,,,,,,,,,912.0902333,912.0902333,912.0902333,912.0902333,912.0902333,912.0902333,912.0902333,912.0902333,None,None,None,,,,,,,,,,,895.6741813,895.6741813,None,,907.7777368999999,909.7957485999999,910.864054,910.864054,910.864054,910.864054,n,1.1474474999999984,895.6741813,895.6741813,,,12,001,2024-07-04_14h06.56.828,robot_sternberg_sign,2022.2.5,60.06301811860389,
"['F', 'K', 'M', 'D', 'J', 'T']",True,T,6,letter,1,False,False,"['robot_stimuli\\\\filler.mp4', 'robot_stimuli\\\\filler.mp4', 'robot_stimuli\\\\filler.mp4', 'robot_stimuli\\\\filler.mp4', 'robot_stimuli\\\\filler.mp4', 'robot_stimuli\\\\filler.mp4']",robot_stimuli\\filler.mp4,12,,,,,,,,,,,,,0,22,22,22,,,,,,,,,,,,,,,,,926.416315,927.4854558999999,,,,,,,,,928.9119685,928.9119685,928.9119685,928.9119685,928.9119685,928.9119685,928.9119685,928.9119685,None,None,None,,,,,,,,,,,912.0902333,912.0902333,None,,924.1988751,926.416315,927.4854558999999,927.4854558999999,927.4854558999999,927.4854558999999,c,1.3194402999999966,912.0902333,912.0902333,,,12,001,2024-07-04_14h06.56.828,robot_sternberg_sign,2022.2.5,60.06301811860389,
"['Q', 'F', 'X', 'V', 'S', 'P']",False,W,6,letter,1,False,False,"['robot_stimuli\\\\filler.mp4', 'robot_stimuli\\\\filler.mp4', 'robot_stimuli\\\\filler.mp4', 'robot_stimuli\\\\filler.mp4', 'robot_stimuli\\\\filler.mp4', 'robot_stimuli\\\\filler.mp4']",robot_stimuli\\filler.mp4,12,,,,,,,,,,,,,0,23,23,23,,,,,,,,,,,,,,,,,942.8495079999999,943.9173171000001,,,,,,,,,946.5440848,946.5440848,946.5440848,946.5440848,946.5440848,946.5440848,946.5440848,946.5440848,None,None,None,,,,,,,,,,,928.9119685,928.9119685,None,,940.6308261,942.8495079999999,943.9173171000001,943.9173171000001,943.9173171000001,943.9173171000001,n,2.4378457999998773,928.9119685,928.9119685,,,12,001,2024-07-04_14h06.56.828,robot_sternberg_sign,2022.2.5,60.06301811860389,
"['T', 'K', 'R', 'M', 'P', 'F']",True,P,6,letter,1,False,False,"['robot_stimuli\\\\filler.mp4', 'robot_stimuli\\\\filler.mp4', 'robot_stimuli\\\\filler.mp4', 'robot_stimuli\\\\filler.mp4', 'robot_stimuli\\\\filler.mp4', 'robot_stimuli\\\\filler.mp4']",robot_stimuli\\filler.mp4,12,,,,,,,,,,,,,0,24,24,24,,,,,,,,,,,,,,,,,960.8839726,961.9459213000001,,,,,,,,,963.5716269999999,963.5716269999999,963.5716269999999,963.5716269999999,963.5716269999999,963.5716269999999,963.5716269999999,963.5716269999999,None,None,None,,,,,,,,,,,946.5440848,946.5440848,None,,958.6677265,960.8839726,961.9459213000001,961.9459213000001,961.9459213000001,961.9459213000001,c,1.4573367000000417,946.5440848,946.5440848,,,12,001,2024-07-04_14h06.56.828,robot_sternberg_sign,2022.2.5,60.06301811860389,
"['R', 'V', 'K', 'W', 'L', 'H']",True,V,6,letter,1,False,False,"['robot_stimuli\\\\filler.mp4', 'robot_stimuli\\\\filler.mp4', 'robot_stimuli\\\\filler.mp4', 'robot_stimuli\\\\filler.mp4', 'robot_stimuli\\\\filler.mp4', 'robot_stimuli\\\\filler.mp4']",robot_stimuli\\filler.mp4,12,,,,,,,,,,,,,0,25,25,25,,,,,,,,,,,,,,,,,977.6978376000001,978.7638356000001,,,,,,,,,980.1951326,980.1951326,980.1951326,980.1951326,980.1951326,980.1951326,980.1951326,980.1951326,None,None,None,,,,,,,,,,,963.5716269999999,963.5716269999999,None,,975.4821026999999,977.6978376000001,978.7638356000001,978.7638356000001,978.7638356000001,978.7638356000001,c,1.191235000000006,963.5716269999999,963.5716269999999,,,12,001,2024-07-04_14h06.56.828,robot_sternberg_sign,2022.2.5,60.06301811860389,
"['D', 'J', 'L', 'Q', 'K', 'H']",False,N,6,letter,1,False,False,"['robot_stimuli\\\\filler.mp4', 'robot_stimuli\\\\filler.mp4', 'robot_stimuli\\\\filler.mp4', 'robot_stimuli\\\\filler.mp4', 'robot_stimuli\\\\filler.mp4', 'robot_stimuli\\\\filler.mp4']",robot_stimuli\\filler.mp4,12,,,,,,,,,,,,,0,26,26,26,,,,,,,,,,,,,,,,,994.145537,,,,,,,,,,997.2412251,997.2412251,997.2412251,997.2412251,997.2412251,997.2412251,997.2412251,997.2412251,None,None,None,,,,,,,,,,,980.1951326,980.1951326,None,,991.9309509999999,994.145537,995.2165652,995.2165652,995.2165652,995.2165652,n,1.8034026999998787,980.1951326,980.1951326,,,12,001,2024-07-04_14h06.56.828,robot_sternberg_sign,2022.2.5,60.06301811860389,
"['F', 'L', 'Q', 'H', 'Z', 'X']",True,Z,6,letter,1,False,False,"['robot_stimuli\\\\filler.mp4', 'robot_stimuli\\\\filler.mp4', 'robot_stimuli\\\\filler.mp4', 'robot_stimuli\\\\filler.mp4', 'robot_stimuli\\\\filler.mp4', 'robot_stimuli\\\\filler.mp4']",robot_stimuli\\filler.mp4,12,,,,,,,,,,,,,0,27,27,27,,,,,,,,,,,,,,,,,1011.3472541,1012.4160290000001,,,,,,,,,1013.6470640000001,1013.6470640000001,1013.6470640000001,1013.6470640000001,1013.6470640000001,1013.6470640000001,1013.6470640000001,1013.6470640000001,None,None,None,,,,,,,,,,,997.2412251,997.2412251,None,,1009.3282601,1011.3472541,1012.4160290000001,1012.4160290000001,1012.4160290000001,1012.4160290000001,c,1.106982700000117,997.2412251,997.2412251,,,12,001,2024-07-04_14h06.56.828,robot_sternberg_sign,2022.2.5,60.06301811860389,
"['S', 'C', 'J', 'Z', 'D', 'X']",False,R,6,letter,1,False,False,"['robot_stimuli\\\\filler.mp4', 'robot_stimuli\\\\filler.mp4', 'robot_stimuli\\\\filler.mp4', 'robot_stimuli\\\\filler.mp4', 'robot_stimuli\\\\filler.mp4', 'robot_stimuli\\\\filler.mp4']",robot_stimuli\\filler.mp4,12,,,,,,,,,,,,,0,28,28,28,,,,,,,,,,,,,,,,,1027.7647594,1028.8303336,,,,,,,,,1030.2577863000001,1030.2577863000001,1030.2577863000001,1030.2577863000001,1030.2577863000001,1030.2577863000001,1030.2577863000001,1030.2577863000001,None,None,None,,,,,,,,,,,1013.6470640000001,1013.6470640000001,None,,1025.5472688999998,1027.7647594,1028.8303336,1028.8303336,1028.8303336,1028.8303336,n,1.3164610000002313,1013.6470640000001,1013.6470640000001,,,12,001,2024-07-04_14h06.56.828,robot_sternberg_sign,2022.2.5,60.06301811860389,
"['G', 'T', 'C', 'W', 'S', 'H']",False,D,6,letter,1,False,True,"['robot_stimuli\\\\filler.mp4', 'robot_stimuli\\\\filler.mp4', 'robot_stimuli\\\\filler.mp4', 'robot_stimuli\\\\filler.mp4', 'robot_stimuli\\\\filler.mp4', 'robot_stimuli\\\\filler.mp4']",robot_stimuli\\filler.mp4,12,,,,,,,,,,,,,0,29,29,29,,,,,,,,,,,,,,,,,1044.3719513,1045.4308713,,,,,,,,,1046.892245,1052.6832936,1046.892245,1052.6832936,1046.892245,1052.6832936,1046.892245,1052.6832936,80.30864197530865,3.2871708000000126,space,,,5.750607699999932,,,,,,,,1030.2577863000001,1030.2577863000001,None,,1042.1527744,1044.3719513,1045.4308713,1045.4308713,1045.4308713,1045.4308713,c,1.333909399999925,1030.2577863000001,1030.2577863000001,,,12,001,2024-07-04_14h06.56.828,robot_sternberg_sign,2022.2.5,60.06301811860389,
"['R_Base_Y_Back', 'R_Arm_Z_For', 'L_Arm_Y_For', 'L_Head_X_For']",True,R_Base_Y_Back,4,robot,2,True,False,"['robot_stimuli\\R_Base_Y_Back.mp4', 'robot_stimuli\\R_Arm_Z_For.mp4', 'robot_stimuli\\L_Arm_Y_For.mp4', 'robot_stimuli\\L_Head_X_For.mp4']",robot_stimuli\R_Base_Y_Back.mp4,12,,,,,,,,,,,,,0,30,30,30,,,,,,,,,,,,,,,,,1072.5171566,1073.6043687000001,,,,,,,,,1078.1232912,1078.1232912,1078.1232912,1078.1232912,1078.1232912,1078.1232912,1078.1232912,1078.1232912,None,None,None,,,,,,,,,,,1052.6832936,1052.6832936,space,3.9764116999998578,,,,1073.6043687000001,1073.6043687000001,1073.6043687000001,c,4.488038199999778,,,1068.9473420999998,1073.6043687000001,12,001,2024-07-04_14h06.56.828,robot_sternberg_sign,2022.2.5,60.06301811860389,
"['L_Base_Z_For', 'L_Base_Y_Back', 'R_Torso_Y_For', 'L_Base_Z_Back']",False,L_Arm_Y_For,4,robot,2,False,False,"['robot_stimuli\\L_Base_Z_For.mp4', 'robot_stimuli\\L_Base_Y_Back.mp4', 'robot_stimuli\\R_Torso_Y_For.mp4', 'robot_stimuli\\L_Base_Z_Back.mp4']",robot_stimuli\L_Arm_Y_For.mp4,12,,,,,,,,,,,,,0,31,31,31,,,,,,,,,,,,,,,,,1093.9458718,1079.1979304000001,,,,,,,,,1107.0903816999999,1107.0903816999999,1107.0903816999999,1107.0903816999999,1107.0903816999999,1107.0903816999999,1107.0903816999999,1107.0903816999999,None,None,None,,,,,,,,,,,1078.1232912,1078.1232912,None,,,,,1095.0539056000002,1095.0539056000002,1095.0539056000002,n,11.997705999999766,1078.1232912,1078.1232912,1090.3069286999998,1095.0539056000002,12,001,2024-07-04_14h06.56.828,robot_sternberg_sign,2022.2.5,60.06301811860389,
"['L_Head_Z_Back', 'R_Head_X_Back', 'L_Arm_Z_Back', 'R_Torso_Y_For']",True,R_Torso_Y_For,4,robot,2,False,False,"['robot_stimuli\\L_Head_Z_Back.mp4', 'robot_stimuli\\R_Head_X_Back.mp4', 'robot_stimuli\\L_Arm_Z_Back.mp4', 'robot_stimuli\\R_Torso_Y_For.mp4']",robot_stimuli\R_Torso_Y_For.mp4,12,,,,,,,,,,,,,0,32,32,32,,,,,,,,,,,,,,,,,1122.9828668,1124.072044,,,,,,,,,1127.7018632,1127.7018632,1127.7018632,1127.7018632,1127.7018632,1127.7018632,1127.7018632,1127.7018632,None,None,None,,,,,,,,,,,1107.0903816999999,1107.0903816999999,None,,,,,1124.072044,1124.072044,1124.072044,c,3.507442599999763,1107.0903816999999,1107.0903816999999,1119.3525046,1124.072044,12,001,2024-07-04_14h06.56.828,robot_sternberg_sign,2022.2.5,60.06301811860389,
"['L_Torso_X_For', 'L_Base_X_For', 'R_Arm_Z_For', 'R_Base_Z_For']",False,R_Arm_Y_Back,4,robot,2,False,False,"['robot_stimuli\\L_Torso_X_For.mp4', 'robot_stimuli\\L_Base_X_For.mp4', 'robot_stimuli\\R_Arm_Z_For.mp4', 'robot_stimuli\\R_Base_Z_For.mp4']",robot_stimuli\R_Arm_Y_Back.mp4,12,,,,,,,,,,,,,0,33,33,33,,,,,,,,,,,,,,,,,1143.5636009,1144.6556500000002,,,,,,,,,1157.9252038999998,1157.9252038999998,1157.9252038999998,1157.9252038999998,1157.9252038999998,1157.9252038999998,1157.9252038999998,1157.9252038999998,None,None,None,,,,,,,,,,,1127.7018632,1127.7018632,None,,,,,1144.6556500000002,1144.6556500000002,1144.6556500000002,n,13.235069300000191,1127.7018632,1127.7018632,1139.9307014,1144.6556500000002,12,001,2024-07-04_14h06.56.828,robot_sternberg_sign,2022.2.5,60.06301811860389,
"['L_Base_X_Back', 'R_Arm_X_For', 'L_Base_Y_For', 'L_Base_Y_Back']",False,R_Head_Y_For,4,robot,2,False,False,"['robot_stimuli\\L_Base_X_Back.mp4', 'robot_stimuli\\R_Arm_X_For.mp4', 'robot_stimuli\\L_Base_Y_For.mp4', 'robot_stimuli\\L_Base_Y_Back.mp4']",robot_stimuli\R_Head_Y_For.mp4,12,,,,,,,,,,,,,0,34,34,34,,,,,,,,,,,,,,,,,1173.5851612000001,1174.6735165999999,,,,,,,,,1179.0098305000001,1179.0098305000001,1179.0098305000001,1179.0098305000001,1179.0098305000001,1179.0098305000001,1179.0098305000001,1179.0098305000001,None,None,None,,,,,,,,,,,1157.9252038999998,1157.9252038999998,None,,,,,1174.6735165999999,1174.6735165999999,1174.6735165999999,n,4.298298700000146,1157.9252038999998,1157.9252038999998,1170.0142295,1174.6735165999999,12,001,2024-07-04_14h06.56.828,robot_sternberg_sign,2022.2.5,60.06301811860389,
"['R_Head_Y_For', 'R_Base_Y_For', 'L_Torso_X_Back', 'R_Torso_Y_Back']",True,R_Torso_Y_Back,4,robot,2,False,False,"['robot_stimuli\\R_Head_Y_For.mp4', 'robot_stimuli\\R_Base_Y_For.mp4', 'robot_stimuli\\L_Torso_X_Back.mp4', 'robot_stimuli\\R_Torso_Y_Back.mp4']",robot_stimuli\R_Torso_Y_Back.mp4,12,,,,,,,,,,,,,0,35,35,35,,,,,,,,,,,,,,,,,1194.9007399000002,1195.9900173,,,,,,,,,1199.6395481999998,1199.6395481999998,1199.6395481999998,1199.6395481999998,1199.6395481999998,1199.6395481999998,1199.6395481999998,1199.6395481999998,None,None,None,,,,,,,,,,,1179.0098305000001,1179.0098305000001,None,,,,,1195.9900173,1195.9900173,1195.9900173,c,2.3086558999999625,1179.0098305000001,1179.0098305000001,1191.26836,1195.9900173,12,001,2024-07-04_14h06.56.828,robot_sternberg_sign,2022.2.5,60.06301811860389,
"['L_Head_Z_Back', 'L_Head_X_For', 'L_Head_Y_Back', 'L_Arm_Y_Back']",False,R_Base_X_Back,4,robot,2,False,False,"['robot_stimuli\\L_Head_Z_Back.mp4', 'robot_stimuli\\L_Head_X_For.mp4', 'robot_stimuli\\L_Head_Y_Back.mp4', 'robot_stimuli\\L_Arm_Y_Back.mp4']",robot_stimuli\R_Base_X_Back.mp4,12,,,,,,,,,,,,,0,36,36,36,,,,,,,,,,,,,,,,,1215.4493701000001,1216.5443865000002,,,,,,,,,1220.1851078,1220.1851078,1220.1851078,1220.1851078,1220.1851078,1220.1851078,1220.1851078,1220.1851078,None,None,None,,,,,,,,,,,1199.6395481999998,1199.6395481999998,None,,,,,1216.5443865000002,1216.5443865000002,1216.5443865000002,n,3.044104700000048,1199.6395481999998,1199.6395481999998,1211.8166572,1216.5443865000002,12,001,2024-07-04_14h06.56.828,robot_sternberg_sign,2022.2.5,60.06301811860389,
"['L_Base_X_For', 'L_Head_Y_For', 'R_Base_X_For', 'L_Torso_Y_Back']",True,L_Base_X_For,4,robot,2,False,False,"['robot_stimuli\\L_Base_X_For.mp4', 'robot_stimuli\\L_Head_Y_For.mp4', 'robot_stimuli\\R_Base_X_For.mp4', 'robot_stimuli\\L_Torso_Y_Back.mp4']",robot_stimuli\L_Base_X_For.mp4,12,,,,,,,,,,,,,0,37,37,37,,,,,,,,,,,,,,,,,1235.7476797,1236.8421889,,,,,,,,,1244.7877085999999,1244.7877085999999,1244.7877085999999,1244.7877085999999,1244.7877085999999,1244.7877085999999,1244.7877085999999,1244.7877085999999,None,None,None,,,,,,,,,,,1220.1851078,1220.1851078,None,,,,,1236.8421889,1236.8421889,1236.8421889,c,7.913734099999942,1220.1851078,1220.1851078,1232.2492997999998,1236.8421889,12,001,2024-07-04_14h06.56.828,robot_sternberg_sign,2022.2.5,60.06301811860389,
"['L_Arm_X_For', 'R_Torso_Y_Back', 'R_Torso_Z_Back', 'R_Arm_Z_Back']",False,R_Head_Y_Back,4,robot,2,False,False,"['robot_stimuli\\L_Arm_X_For.mp4', 'robot_stimuli\\R_Torso_Y_Back.mp4', 'robot_stimuli\\R_Torso_Z_Back.mp4', 'robot_stimuli\\R_Arm_Z_Back.mp4']",robot_stimuli\R_Head_Y_Back.mp4,12,,,,,,,,,,,,,0,38,38,38,,,,,,,,,,,,,,,,,1260.6797471999998,1245.8675793000002,,,,,,,,,1265.4009728,1265.4009728,1265.4009728,1265.4009728,1265.4009728,1265.4009728,1265.4009728,1265.4009728,None,None,None,,,,,,,,,,,1244.7877085999999,1244.7877085999999,None,,,,,1261.7720029000002,1261.7720029000002,1261.7720029000002,n,2.558693900000094,1244.7877085999999,1244.7877085999999,1257.0373789999999,1261.7720029000002,12,001,2024-07-04_14h06.56.828,robot_sternberg_sign,2022.2.5,60.06301811860389,
"['R_Torso_Y_For', 'R_Base_Y_Back', 'L_Torso_Y_Back', 'R_Torso_Z_For']",True,R_Torso_Z_For,4,robot,2,False,True,"['robot_stimuli\\R_Torso_Y_For.mp4', 'robot_stimuli\\R_Base_Y_Back.mp4', 'robot_stimuli\\L_Torso_Y_Back.mp4', 'robot_stimuli\\R_Torso_Z_For.mp4']",robot_stimuli\R_Torso_Z_For.mp4,12,,,,,,,,,,,,,0,39,39,39,,,,,,,,,,,,,,,,,1281.1435719,1282.2207778000002,,,,,,,,,1285.8953990999998,1291.1360401000002,1285.8953990999998,1291.1360401000002,1285.8953990999998,1291.1360401000002,1285.8953990999998,1291.1360401000002,84.4753086419753,3.534089300000005,space,,,5.172705699999938,,,,,,,,1265.4009728,1265.4009728,None,,,,,1282.2207778000002,1282.2207778000002,1282.2207778000002,c,3.08710120000012,1265.4009728,1265.4009728,1277.5208280000002,1282.2207778000002,12,001,2024-07-04_14h06.56.828,robot_sternberg_sign,2022.2.5,60.06301811860389,
"['L_Head_X_For', 'L_Base_X_For', 'L_Base_Z_Back', 'R_Head_X_For', 'L_Torso_Y_For', 'L_Arm_Y_Back']",True,L_Torso_Y_For,6,robot,2,True,False,"['robot_stimuli\\L_Head_X_For.mp4', 'robot_stimuli\\L_Base_X_For.mp4', 'robot_stimuli\\L_Base_Z_Back.mp4', 'robot_stimuli\\R_Head_X_For.mp4', 'robot_stimuli\\L_Torso_Y_For.mp4', 'robot_stimuli\\L_Arm_Y_Back.mp4']",robot_stimuli\L_Torso_Y_For.mp4,12,,,,,,,,,,,,,0,40,40,40,,,,,,,,,,,,,,,,,1361.8306463,1362.9226300999999,,,,,,,,,1366.5709241,1366.5709241,1366.5709241,1366.5709241,1366.5709241,1366.5709241,1366.5709241,1366.5709241,None,None,None,,,,,,,,,,,1291.1360401000002,1291.1360401000002,space,47.4587022999998,,,,1362.9226300999999,1362.9226300999999,1362.9226300999999,c,3.032072299999868,,,1358.1874379,1362.9226300999999,12,001,2024-07-04_14h06.56.828,robot_sternberg_sign,2022.2.5,60.06301811860389,
"['L_Head_Z_Back', 'R_Arm_X_Back', 'L_Torso_Y_Back', 'L_Base_Y_For', 'L_Torso_Y_For', 'R_Torso_Z_For']",True,L_Base_Y_For,6,robot,2,False,False,"['robot_stimuli\\L_Head_Z_Back.mp4', 'robot_stimuli\\R_Arm_X_Back.mp4', 'robot_stimuli\\L_Torso_Y_Back.mp4', 'robot_stimuli\\L_Base_Y_For.mp4', 'robot_stimuli\\L_Torso_Y_For.mp4', 'robot_stimuli\\R_Torso_Z_For.mp4']",robot_stimuli\L_Base_Y_For.mp4,12,,,,,,,,,,,,,0,41,41,41,,,,,,,,,,,,,,,,,1389.6643365,1390.7548367,,,,,,,,,1394.675909,1394.675909,1394.675909,1394.675909,1394.675909,1394.675909,1394.675909,1394.675909,None,None,None,,,,,,,,,,,1366.5709241,1366.5709241,None,,,,,1390.7548367,1390.7548367,1390.7548367,c,3.8805666000001793,1366.5709241,1366.5709241,1386.0324696000002,1390.7548367,12,001,2024-07-04_14h06.56.828,robot_sternberg_sign,2022.2.5,60.06301811860389,
"['R_Torso_Y_For', 'R_Torso_X_For', 'R_Arm_Z_For', 'L_Head_Y_Back', 'L_Base_Y_For', 'L_Head_Y_For']",True,L_Base_Y_For,6,robot,2,False,False,"['robot_stimuli\\R_Torso_Y_For.mp4', 'robot_stimuli\\R_Torso_X_For.mp4', 'robot_stimuli\\R_Arm_Z_For.mp4', 'robot_stimuli\\L_Head_Y_Back.mp4', 'robot_stimuli\\L_Base_Y_For.mp4', 'robot_stimuli\\L_Head_Y_For.mp4']",robot_stimuli\L_Base_Y_For.mp4,12,,,,,,,,,,,,,0,42,42,42,,,,,,,,,,,,,,,,,1417.8828563000002,1418.9700981,,,,,,,,,1423.4878958,1423.4878958,1423.4878958,1423.4878958,1423.4878958,1423.4878958,1423.4878958,1423.4878958,None,None,None,,,,,,,,,,,1394.675909,1394.675909,None,,,,,1418.9700981,1418.9700981,1418.9700981,c,4.4808971999999585,1394.675909,1394.675909,1414.2502292,1418.9700981,12,001,2024-07-04_14h06.56.828,robot_sternberg_sign,2022.2.5,60.06301811860389,
"['R_Torso_Y_For', 'L_Torso_X_Back', 'L_Arm_Y_Back', 'R_Arm_Z_For', 'R_Base_Y_Back', 'R_Head_Z_For']",False,L_Base_X_Back,6,robot,2,False,False,"['robot_stimuli\\R_Torso_Y_For.mp4', 'robot_stimuli\\L_Torso_X_Back.mp4', 'robot_stimuli\\L_Arm_Y_Back.mp4', 'robot_stimuli\\R_Arm_Z_For.mp4', 'robot_stimuli\\R_Base_Y_Back.mp4', 'robot_stimuli\\R_Head_Z_For.mp4']",robot_stimuli\L_Base_X_Back.mp4,12,,,,,,,,,,,,,0,43,43,43,,,,,,,,,,,,,,,,,1446.8134264999999,1447.9052430000002,,,,,,,,,1453.1747650000002,1453.1747650000002,1453.1747650000002,1453.1747650000002,1453.1747650000002,1453.1747650000002,1453.1747650000002,1453.1747650000002,None,None,None,,,,,,,,,,,1423.4878958,1423.4878958,None,,,,,1447.9052430000002,1447.9052430000002,1447.9052430000002,n,5.234022499999924,1423.4878958,1423.4878958,1443.1670586,1447.9052430000002,12,001,2024-07-04_14h06.56.828,robot_sternberg_sign,2022.2.5,60.06301811860389,
"['R_Arm_Z_Back', 'R_Head_Y_For', 'R_Base_Y_Back', 'R_Torso_Z_Back', 'L_Base_Y_For', 'R_Head_Z_For']",False,L_Arm_Y_For,6,robot,2,False,False,"['robot_stimuli\\R_Arm_Z_Back.mp4', 'robot_stimuli\\R_Head_Y_For.mp4', 'robot_stimuli\\R_Base_Y_Back.mp4', 'robot_stimuli\\R_Torso_Z_Back.mp4', 'robot_stimuli\\L_Base_Y_For.mp4', 'robot_stimuli\\R_Head_Z_For.mp4']",robot_stimuli\L_Arm_Y_For.mp4,12,,,,,,,,,,,,,0,44,44,44,,,,,,,,,,,,,,,,,1476.3938357000002,1477.475461,,,,,,,,,1481.923859,1481.923859,1481.923859,1481.923859,1481.923859,1481.923859,1481.923859,1481.923859,None,None,None,,,,,,,,,,,1453.1747650000002,1453.1747650000002,None,,,,,1477.475461,1477.475461,1477.475461,n,4.415251199999943,1453.1747650000002,1453.1747650000002,1472.7693032000002,1477.475461,12,001,2024-07-04_14h06.56.828,robot_sternberg_sign,2022.2.5,60.06301811860389,
"['L_Base_Y_Back', 'L_Torso_Z_Back', 'L_Head_Y_For', 'R_Torso_Y_Back', 'L_Arm_Y_For', 'L_Base_X_For']",False,L_Head_X_Back,6,robot,2,False,False,"['robot_stimuli\\L_Base_Y_Back.mp4', 'robot_stimuli\\L_Torso_Z_Back.mp4', 'robot_stimuli\\L_Head_Y_For.mp4', 'robot_stimuli\\R_Torso_Y_Back.mp4', 'robot_stimuli\\L_Arm_Y_For.mp4', 'robot_stimuli\\L_Base_X_For.mp4']",robot_stimuli\L_Head_X_Back.mp4,12,,,,,,,,,,,,,0,45,45,45,,,,,,,,,,,,,,,,,1504.9651319,1506.0601222,,,,,,,,,1511.7396377,1511.7396377,1511.7396377,1511.7396377,1511.7396377,1511.7396377,1511.7396377,1511.7396377,None,None,None,,,,,,,,,,,1481.923859,1481.923859,None,,,,,1506.0601222,1506.0601222,1506.0601222,n,5.638643599999909,1481.923859,1481.923859,1501.4002802999998,1506.0601222,12,001,2024-07-04_14h06.56.828,robot_sternberg_sign,2022.2.5,60.06301811860389,
"['R_Base_Z_For', 'R_Torso_Y_For', 'L_Head_Z_Back', 'R_Torso_Z_For', 'L_Arm_Y_Back', 'L_Torso_Y_For']",False,L_Head_Y_Back,6,robot,2,False,False,"['robot_stimuli\\R_Base_Z_For.mp4', 'robot_stimuli\\R_Torso_Y_For.mp4', 'robot_stimuli\\L_Head_Z_Back.mp4', 'robot_stimuli\\R_Torso_Z_For.mp4', 'robot_stimuli\\L_Arm_Y_Back.mp4', 'robot_stimuli\\L_Torso_Y_For.mp4']",robot_stimuli\L_Head_Y_Back.mp4,12,,,,,,,,,,,,,0,46,46,46,,,,,,,,,,,,,,,,,1535.0641455,1536.1541231,,,,,,,,,1543.4273029,1543.4273029,1543.4273029,1543.4273029,1543.4273029,1543.4273029,1543.4273029,1543.4273029,None,None,None,,,,,,,,,,,1511.7396377,1511.7396377,None,,,,,1536.1541231,1536.1541231,1536.1541231,c,7.240745899999979,1511.7396377,1511.7396377,1531.4336564,1536.1541231,12,001,2024-07-04_14h06.56.828,robot_sternberg_sign,2022.2.5,60.06301811860389,
"['L_Arm_Y_Back', 'R_Base_Z_For', 'L_Head_X_Back', 'L_Base_X_For', 'R_Torso_Y_For', 'R_Head_X_For']",True,L_Base_X_For,6,robot,2,False,False,"['robot_stimuli\\L_Arm_Y_Back.mp4', 'robot_stimuli\\R_Base_Z_For.mp4', 'robot_stimuli\\L_Head_X_Back.mp4', 'robot_stimuli\\L_Base_X_For.mp4', 'robot_stimuli\\R_Torso_Y_For.mp4', 'robot_stimuli\\R_Head_X_For.mp4']",robot_stimuli\L_Base_X_For.mp4,12,,,,,,,,,,,,,0,47,47,47,,,,,,,,,,,,,,,,,1566.6937871,1567.7723655999998,,,,,,,,,1576.4207534000002,1576.4207534000002,1576.4207534000002,1576.4207534000002,1576.4207534000002,1576.4207534000002,1576.4207534000002,1576.4207534000002,None,None,None,,,,,,,,,,,1543.4273029,1543.4273029,None,,,,,1567.7723655999998,1567.7723655999998,1567.7723655999998,n,8.615112000000067,1543.4273029,1543.4273029,1563.0604635,1567.7723655999998,12,001,2024-07-04_14h06.56.828,robot_sternberg_sign,2022.2.5,60.06301811860389,
"['L_Torso_Y_Back', 'R_Head_Y_For', 'R_Arm_Z_Back', 'L_Base_X_Back', 'R_Arm_Z_For', 'R_Arm_Y_Back']",True,L_Base_X_Back,6,robot,2,False,False,"['robot_stimuli\\L_Torso_Y_Back.mp4', 'robot_stimuli\\R_Head_Y_For.mp4', 'robot_stimuli\\R_Arm_Z_Back.mp4', 'robot_stimuli\\L_Base_X_Back.mp4', 'robot_stimuli\\R_Arm_Z_For.mp4', 'robot_stimuli\\R_Arm_Y_Back.mp4']",robot_stimuli\L_Base_X_Back.mp4,12,,,,,,,,,,,,,0,48,48,48,,,,,,,,,,,,,,,,,1599.5823206999999,1600.6718670999999,,,,,,,,,1605.5123902,1605.5123902,1605.5123902,1605.5123902,1605.5123902,1605.5123902,1605.5123902,1605.5123902,None,None,None,,,,,,,,,,,1576.4207534000002,1576.4207534000002,None,,,,,1600.6718670999999,1600.6718670999999,1600.6718670999999,c,4.794840299999919,1576.4207534000002,1576.4207534000002,1595.9382475000002,1600.6718670999999,12,001,2024-07-04_14h06.56.828,robot_sternberg_sign,2022.2.5,60.06301811860389,
"['R_Arm_X_Back', 'L_Torso_X_For', 'L_Torso_Y_Back', 'L_Torso_Z_Back', 'R_Arm_Z_For', 'R_Head_Z_For']",False,R_Arm_Y_For,6,robot,2,False,True,"['robot_stimuli\\R_Arm_X_Back.mp4', 'robot_stimuli\\L_Torso_X_For.mp4', 'robot_stimuli\\L_Torso_Y_Back.mp4', 'robot_stimuli\\L_Torso_Z_Back.mp4', 'robot_stimuli\\R_Arm_Z_For.mp4', 'robot_stimuli\\R_Head_Z_For.mp4']",robot_stimuli\R_Arm_Y_For.mp4,12,,,,,,,,,,,,,0,49,49,49,,,,,,,,,,,,,,,,,1628.6135949999998,1629.7055641000002,,,,,,,,,1633.2594702000001,1639.316162,1633.2594702000001,1639.316162,1633.2594702000001,1639.316162,1633.2594702000001,1639.316162,95.89506172839506,4.943922699999803,space,,,5.990858799999728,,,,,,,,1605.5123902,1605.5123902,None,,,,,1629.7055641000002,1629.7055641000002,1629.7055641000002,n,2.928319900000247,1605.5123902,1605.5123902,1624.9806514000002,1629.7055641000002,12,001,2024-07-04_14h06.56.828,robot_sternberg_sign,2022.2.5,60.06301811860389,
"['R_Torso_X_Back', 'L_Torso_X_Back']",True,R_Torso_X_Back,2,robot,2,True,False,"['robot_stimuli\\R_Torso_X_Back.mp4', 'robot_stimuli\\L_Torso_X_Back.mp4']",robot_stimuli\R_Torso_X_Back.mp4,12,,,,,,,,,,,,,0,50,50,50,,,,,,,,,,,,,,,,,1659.9597951,1661.0382862000001,,,,,,,,,1666.5528602,1666.5528602,1666.5528602,1666.5528602,1666.5528602,1666.5528602,1666.5528602,1666.5528602,None,None,None,,,,,,,,,,,1639.316162,1639.316162,space,12.198498600000107,,,,1661.0382862000001,1661.0382862000001,1661.0382862000001,n,5.484912100000088,,,1656.3398564,1661.0382862000001,12,001,2024-07-04_14h06.56.828,robot_sternberg_sign,2022.2.5,60.06301811860389,
"['L_Torso_Z_For', 'L_Head_Z_For']",True,L_Head_Z_For,2,robot,2,False,False,"['robot_stimuli\\L_Torso_Z_For.mp4', 'robot_stimuli\\L_Head_Z_For.mp4']",robot_stimuli\L_Head_Z_For.mp4,12,,,,,,,,,,,,,0,51,51,51,,,,,,,,,,,,,,,,,1674.9985707,1676.0865226,,,,,,,,,1679.7263552,1679.7263552,1679.7263552,1679.7263552,1679.7263552,1679.7263552,1679.7263552,1679.7263552,None,None,None,,,,,,,,,,,1666.5528602,1666.5528602,None,,,,,1676.0865226,1676.0865226,1676.0865226,c,3.0531399000000192,1666.5528602,1666.5528602,1671.3605828,1676.0865226,12,001,2024-07-04_14h06.56.828,robot_sternberg_sign,2022.2.5,60.06301811860389,
"['R_Head_Z_Back', 'R_Arm_Z_For']",False,L_Torso_X_Back,2,robot,2,False,False,"['robot_stimuli\\R_Head_Z_Back.mp4', 'robot_stimuli\\R_Arm_Z_For.mp4']",robot_stimuli\L_Torso_X_Back.mp4,12,,,,,,,,,,,,,0,52,52,52,,,,,,,,,,,,,,,,,1688.1763959,1689.2546192999998,,,,,,,,,1699.3516728999998,1699.3516728999998,1699.3516728999998,1699.3516728999998,1699.3516728999998,1699.3516728999998,1699.3516728999998,1699.3516728999998,None,None,None,,,,,,,,,,,1679.7263552,1679.7263552,None,,,,,1689.2546192999998,1689.2546192999998,1689.2546192999998,c,10.060215800000265,1679.7263552,1679.7263552,1684.5458683000002,1689.2546192999998,12,001,2024-07-04_14h06.56.828,robot_sternberg_sign,2022.2.5,60.06301811860389,
"['R_Base_X_Back', 'R_Arm_Z_Back']",True,R_Base_X_Back,2,robot,2,False,False,"['robot_stimuli\\R_Base_X_Back.mp4', 'robot_stimuli\\R_Arm_Z_Back.mp4']",robot_stimuli\R_Base_X_Back.mp4,12,,,,,,,,,,,,,0,53,53,53,,,,,,,,,,,,,,,,,1707.7851104000001,1708.8724441,,,,,,,,,1713.9208838,1713.9208838,1713.9208838,1713.9208838,1713.9208838,1713.9208838,1713.9208838,1713.9208838,None,None,None,,,,,,,,,,,1699.3516728999998,1699.3516728999998,None,,,,,1708.8724441,1708.8724441,1708.8724441,c,5.018568299999856,1699.3516728999998,1699.3516728999998,1704.1572491000002,1708.8724441,12,001,2024-07-04_14h06.56.828,robot_sternberg_sign,2022.2.5,60.06301811860389,
"['L_Arm_Z_For', 'L_Arm_X_Back']",False,L_Torso_X_For,2,robot,2,False,False,"['robot_stimuli\\L_Arm_Z_For.mp4', 'robot_stimuli\\L_Arm_X_Back.mp4']",robot_stimuli\L_Torso_X_For.mp4,12,,,,,,,,,,,,,0,54,54,54,,,,,,,,,,,,,,,,,1722.3658992,1723.4546524000002,,,,,,,,,1734.2190295999999,1734.2190295999999,1734.2190295999999,1734.2190295999999,1734.2190295999999,1734.2190295999999,1734.2190295999999,1734.2190295999999,None,None,None,,,,,,,,,,,1713.9208838,1713.9208838,None,,,,,1723.4546524000002,1723.4546524000002,1723.4546524000002,c,10.72395710000012,1713.9208838,1713.9208838,1718.7382827000001,1723.4546524000002,12,001,2024-07-04_14h06.56.828,robot_sternberg_sign,2022.2.5,60.06301811860389,
"['R_Base_Z_For', 'R_Head_X_Back']",True,R_Head_X_Back,2,robot,2,False,False,"['robot_stimuli\\R_Base_Z_For.mp4', 'robot_stimuli\\R_Head_X_Back.mp4']",robot_stimuli\R_Head_X_Back.mp4,12,,,,,,,,,,,,,0,55,55,55,,,,,,,,,,,,,,,,,1742.6661988,1743.7557249000001,,,,,,,,,1750.9687523000002,1750.9687523000002,1750.9687523000002,1750.9687523000002,1750.9687523000002,1750.9687523000002,1750.9687523000002,1750.9687523000002,None,None,None,,,,,,,,,,,1734.2190295999999,1734.2190295999999,None,,,,,1743.7557249000001,1743.7557249000001,1743.7557249000001,c,7.18231279999975,1734.2190295999999,1734.2190295999999,1739.0259836999999,1743.7557249000001,12,001,2024-07-04_14h06.56.828,robot_sternberg_sign,2022.2.5,60.06301811860389,
"['R_Head_Z_For', 'R_Arm_X_Back']",False,R_Torso_Z_For,2,robot,2,False,False,"['robot_stimuli\\R_Head_Z_For.mp4', 'robot_stimuli\\R_Arm_X_Back.mp4']",robot_stimuli\R_Torso_Z_For.mp4,12,,,,,,,,,,,,,0,56,56,56,,,,,,,,,,,,,,,,,1759.3934227,1760.4730952999998,,,,,,,,,1764.1210059,1764.1210059,1764.1210059,1764.1210059,1764.1210059,1764.1210059,1764.1210059,1764.1210059,None,None,None,,,,,,,,,,,1750.9687523000002,1750.9687523000002,None,,,,,1760.4730952999998,1760.4730952999998,1760.4730952999998,c,3.041213500000026,1750.9687523000002,1750.9687523000002,1755.7732237999999,1760.4730952999998,12,001,2024-07-04_14h06.56.828,robot_sternberg_sign,2022.2.5,60.06301811860389,
"['R_Base_X_For', 'L_Torso_Y_Back']",True,L_Torso_Y_Back,2,robot,2,False,False,"['robot_stimuli\\R_Base_X_For.mp4', 'robot_stimuli\\L_Torso_Y_Back.mp4']",robot_stimuli\L_Torso_Y_Back.mp4,12,,,,,,,,,,,,,0,57,57,57,,,,,,,,,,,,,,,,,1772.3126100999998,1765.2019274,,,,,,,,,1776.9010383,1776.9010383,1776.9010383,1776.9010383,1776.9010383,1776.9010383,1776.9010383,1776.9010383,None,None,None,,,,,,,,,,,1764.1210059,1764.1210059,None,,,,,1773.4052526,1773.4052526,1773.4052526,c,2.981684199999904,1764.1210059,1764.1210059,1768.8148726,1773.4052526,12,001,2024-07-04_14h06.56.828,robot_sternberg_sign,2022.2.5,60.06301811860389,
"['R_Torso_Z_For', 'L_Base_Y_Back']",False,L_Arm_X_Back,2,robot,2,False,False,"['robot_stimuli\\R_Torso_Z_For.mp4', 'robot_stimuli\\L_Base_Y_Back.mp4']",robot_stimuli\L_Arm_X_Back.mp4,12,,,,,,,,,,,,,0,58,58,58,,,,,,,,,,,,,,,,,1785.2816739,1786.372754,,,,,,,,,1802.1720556,1802.1720556,1802.1720556,1802.1720556,1802.1720556,1802.1720556,1802.1720556,1802.1720556,None,None,None,,,,,,,,,,,1776.9010383,1776.9010383,None,,,,,1786.372754,1786.372754,1786.372754,n,15.766411699999821,1776.9010383,1776.9010383,1781.7078597,1786.372754,12,001,2024-07-04_14h06.56.828,robot_sternberg_sign,2022.2.5,60.06301811860389,
"['R_Head_Z_Back', 'R_Arm_X_Back']",False,L_Torso_Y_For,2,robot,2,False,True,"['robot_stimuli\\R_Head_Z_Back.mp4', 'robot_stimuli\\R_Arm_X_Back.mp4']",robot_stimuli\L_Torso_Y_For.mp4,12,,,,,,,,,,,,,0,59,59,59,,,,,,,,,,,,,,,,,1810.6156975999997,1811.7066808,,,,,,,,,1817.5335771999999,1821.4139288000001,1817.5335771999999,1821.4139288000001,1817.5335771999999,1821.4139288000001,1817.5335771999999,1821.4139288000001,98.98148148148148,3.0676864999995814,space,,,3.8206977999997207,,,,,,,,1802.1720556,1802.1720556,None,,,,,1811.7066808,1811.7066808,1811.7066808,n,5.760439699999893,1802.1720556,1802.1720556,1806.9745315999999,1811.7066808,12,001,2024-07-04_14h06.56.828,robot_sternberg_sign,2022.2.5,60.06301811860389,
"['W', 'J', 'N', 'H', 'D', 'X']",False,S,6,letter,3,True,False,"['robot_stimuli\\\\filler.mp4', 'robot_stimuli\\\\filler.mp4', 'robot_stimuli\\\\filler.mp4', 'robot_stimuli\\\\filler.mp4', 'robot_stimuli\\\\filler.mp4', 'robot_stimuli\\\\filler.mp4']",robot_stimuli\\filler.mp4,12,,,,,,,,,,,,,0,60,60,60,,,,,,,,,,,,,,,,,1915.9639540999997,1917.0366807,,,,,,,,,1918.0522914999997,1918.0522914999997,1918.0522914999997,1918.0522914999997,1918.0522914999997,1918.0522914999997,1918.0522914999997,1918.0522914999997,None,None,None,,,,,,,,,,,1821.4139288000001,1821.4139288000001,space,80.61185469999998,1913.7481724999998,1915.9639540999997,1917.0366807,1917.0366807,1917.0366807,1917.0366807,n,0.8375948999999991,,,,,12,001,2024-07-04_14h06.56.828,robot_sternberg_sign,2022.2.5,60.06301811860389,
"['C', 'D', 'V', 'W', 'R', 'L']",True,L,6,letter,3,False,False,"['robot_stimuli\\\\filler.mp4', 'robot_stimuli\\\\filler.mp4', 'robot_stimuli\\\\filler.mp4', 'robot_stimuli\\\\filler.mp4', 'robot_stimuli\\\\filler.mp4', 'robot_stimuli\\\\filler.mp4']",robot_stimuli\\filler.mp4,12,,,,,,,,,,,,,0,61,61,61,,,,,,,,,,,,,,,,,1932.3752971,1933.4283354,,,,,,,,,1934.6586539,1934.6586539,1934.6586539,1934.6586539,1934.6586539,1934.6586539,1934.6586539,1934.6586539,None,None,None,,,,,,,,,,,1918.0522914999997,1918.0522914999997,None,,1930.1642625999998,1932.3752971,1933.4283354,1933.4283354,1933.4283354,1933.4283354,c,1.0057851000000255,1918.0522914999997,1918.0522914999997,,,12,001,2024-07-04_14h06.56.828,robot_sternberg_sign,2022.2.5,60.06301811860389,
"['D', 'L', 'H', 'S', 'B', 'G']",True,D,6,letter,3,False,False,"['robot_stimuli\\\\filler.mp4', 'robot_stimuli\\\\filler.mp4', 'robot_stimuli\\\\filler.mp4', 'robot_stimuli\\\\filler.mp4', 'robot_stimuli\\\\filler.mp4', 'robot_stimuli\\\\filler.mp4']",robot_stimuli\\filler.mp4,12,,,,,,,,,,,,,0,62,62,62,,,,,,,,,,,,,,,,,1948.5844613,1949.6521103999999,,,,,,,,,1951.4791892999997,1951.4791892999997,1951.4791892999997,1951.4791892999997,1951.4791892999997,1951.4791892999997,1951.4791892999997,1951.4791892999997,None,None,None,,,,,,,,,,,1934.6586539,1934.6586539,None,,1946.573942,1948.5844613,1949.6521103999999,1949.6521103999999,1949.6521103999999,1949.6521103999999,c,1.718497100000036,1934.6586539,1934.6586539,,,12,001,2024-07-04_14h06.56.828,robot_sternberg_sign,2022.2.5,60.06301811860389,
"['K', 'F', 'V', 'D', 'P', 'X']",False,C,6,letter,3,False,False,"['robot_stimuli\\\\filler.mp4', 'robot_stimuli\\\\filler.mp4', 'robot_stimuli\\\\filler.mp4', 'robot_stimuli\\\\filler.mp4', 'robot_stimuli\\\\filler.mp4', 'robot_stimuli\\\\filler.mp4']",robot_stimuli\\filler.mp4,12,,,,,,,,,,,,,0,63,63,63,,,,,,,,,,,,,,,,,1965.8096009,1966.8652539,,,,,,,,,1969.0855336999998,1969.0855336999998,1969.0855336999998,1969.0855336999998,1969.0855336999998,1969.0855336999998,1969.0855336999998,1969.0855336999998,None,None,None,,,,,,,,,,,1951.4791892999997,1951.4791892999997,None,,1963.5946298,1965.8096009,1966.8652539,1966.8652539,1966.8652539,1966.8652539,n,2.033235199999922,1951.4791892999997,1951.4791892999997,,,12,001,2024-07-04_14h06.56.828,robot_sternberg_sign,2022.2.5,60.06301811860389,
"['R', 'H', 'T', 'G', 'J', 'W']",True,G,6,letter,3,False,False,"['robot_stimuli\\\\filler.mp4', 'robot_stimuli\\\\filler.mp4', 'robot_stimuli\\\\filler.mp4', 'robot_stimuli\\\\filler.mp4', 'robot_stimuli\\\\filler.mp4', 'robot_stimuli\\\\filler.mp4']",robot_stimuli\\filler.mp4,12,,,,,,,,,,,,,0,64,64,64,,,,,,,,,,,,,,,,,1982.8030964999998,1983.8631284999997,,,,,,,,,1987.0909831,1987.0909831,1987.0909831,1987.0909831,1987.0909831,1987.0909831,1987.0909831,1987.0909831,None,None,None,,,,,,,,,,,1969.0855336999998,1969.0855336999998,None,,1980.595644,1982.8030964999998,1983.8631284999997,1983.8631284999997,1983.8631284999997,1983.8631284999997,c,3.0913448000000017,1969.0855336999998,1969.0855336999998,,,12,001,2024-07-04_14h06.56.828,robot_sternberg_sign,2022.2.5,60.06301811860389,
"['W', 'M', 'R', 'Z', 'Q', 'H']",False,S,6,letter,3,False,False,"['robot_stimuli\\\\filler.mp4', 'robot_stimuli\\\\filler.mp4', 'robot_stimuli\\\\filler.mp4', 'robot_stimuli\\\\filler.mp4', 'robot_stimuli\\\\filler.mp4', 'robot_stimuli\\\\filler.mp4']",robot_stimuli\\filler.mp4,12,,,,,,,,,,,,,0,65,65,65,,,,,,,,,,,,,,,,,2001.0090697,2002.0699762999998,,,,,,,,,2003.6883085999998,2003.6883085999998,2003.6883085999998,2003.6883085999998,2003.6883085999998,2003.6883085999998,2003.6883085999998,2003.6883085999998,None,None,None,,,,,,,,,,,1987.0909831,1987.0909831,None,,1998.7995597,2001.0090697,2002.0699762999998,2002.0699762999998,2002.0699762999998,2002.0699762999998,n,1.515346300000033,1987.0909831,1987.0909831,,,12,001,2024-07-04_14h06.56.828,robot_sternberg_sign,2022.2.5,60.06301811860389,
"['H', 'J', 'V', 'G', 'Q', 'W']",True,W,6,letter,3,False,False,"['robot_stimuli\\\\filler.mp4', 'robot_stimuli\\\\filler.mp4', 'robot_stimuli\\\\filler.mp4', 'robot_stimuli\\\\filler.mp4', 'robot_stimuli\\\\filler.mp4', 'robot_stimuli\\\\filler.mp4']",robot_stimuli\\filler.mp4,12,,,,,,,,,,,,,0,66,66,66,,,,,,,,,,,,,,,,,2017.5959318999999,2004.7482246,,,,,,,,,2019.8854059999999,2019.8854059999999,2019.8854059999999,2019.8854059999999,2019.8854059999999,2019.8854059999999,2019.8854059999999,2019.8854059999999,None,None,None,,,,,,,,,,,2003.6883085999998,2003.6883085999998,None,,2015.5764335,2017.5959318999999,2018.6631217999998,2018.6631217999998,2018.6631217999998,2018.6631217999998,c,1.082725600000117,2003.6883085999998,2003.6883085999998,,,12,001,2024-07-04_14h06.56.828,robot_sternberg_sign,2022.2.5,60.06301811860389,
"['H', 'Z', 'D', 'X', 'S', 'R']",True,H,6,letter,3,False,False,"['robot_stimuli\\\\filler.mp4', 'robot_stimuli\\\\filler.mp4', 'robot_stimuli\\\\filler.mp4', 'robot_stimuli\\\\filler.mp4', 'robot_stimuli\\\\filler.mp4', 'robot_stimuli\\\\filler.mp4']",robot_stimuli\\filler.mp4,12,,,,,,,,,,,,,0,67,67,67,,,,,,,,,,,,,,,,,2033.8146462999998,2034.8854615999999,,,,,,,,,2035.9093835999997,2035.9093835999997,2035.9093835999997,2035.9093835999997,2035.9093835999997,2035.9093835999997,2035.9093835999997,2035.9093835999997,None,None,None,,,,,,,,,,,2019.8854059999999,2019.8854059999999,None,,2031.6017861999999,2033.8146462999998,2034.8854615999999,2034.8854615999999,2034.8854615999999,2034.8854615999999,c,0.8055319999997437,2019.8854059999999,2019.8854059999999,,,12,001,2024-07-04_14h06.56.828,robot_sternberg_sign,2022.2.5,60.06301811860389,
"['V', 'H', 'B', 'K', 'P', 'Z']",False,T,6,letter,3,False,False,"['robot_stimuli\\\\filler.mp4', 'robot_stimuli\\\\filler.mp4', 'robot_stimuli\\\\filler.mp4', 'robot_stimuli\\\\filler.mp4', 'robot_stimuli\\\\filler.mp4', 'robot_stimuli\\\\filler.mp4']",robot_stimuli\\filler.mp4,12,,,,,,,,,,,,,0,68,68,68,,,,,,,,,,,,,,,,,2050.2340443999997,2051.2953586,,,,,,,,,2052.3165859,2052.3165859,2052.3165859,2052.3165859,2052.3165859,2052.3165859,2052.3165859,2052.3165859,None,None,None,,,,,,,,,,,2035.9093835999997,2035.9093835999997,None,,2048.0142908,2050.2340443999997,2051.2953586,2051.2953586,2051.2953586,2051.2953586,n,0.8026354999996101,2035.9093835999997,2035.9093835999997,,,12,001,2024-07-04_14h06.56.828,robot_sternberg_sign,2022.2.5,60.06301811860389,
"['X', 'G', 'H', 'L', 'M', 'S']",False,R,6,letter,3,False,True,"['robot_stimuli\\\\filler.mp4', 'robot_stimuli\\\\filler.mp4', 'robot_stimuli\\\\filler.mp4', 'robot_stimuli\\\\filler.mp4', 'robot_stimuli\\\\filler.mp4', 'robot_stimuli\\\\filler.mp4']",robot_stimuli\\filler.mp4,12,,,,,,,,,,,,,0,69,69,69,,,,,,,,,,,,,,,,,2066.2624321,2053.3810774,,,,,,,,,2076.4084639,2080.5574604999997,2076.4084639,2080.5574604999997,2076.4084639,2080.5574604999997,2076.4084639,2080.5574604999997,79.38271604938272,3.3314187999999376,space,,,4.089173199999891,,,,,,,,2052.3165859,2052.3165859,None,,2064.0464403,2066.2624321,2067.3325360999997,2067.3325360999997,2067.3325360999997,2067.3325360999997,n,8.949812499999894,2052.3165859,2052.3165859,,,12,001,2024-07-04_14h06.56.828,robot_sternberg_sign,2022.2.5,60.06301811860389,
"['N', 'M', 'T', 'C']",True,N,4,letter,3,True,False,"['robot_stimuli\\\\filler.mp4', 'robot_stimuli\\\\filler.mp4', 'robot_stimuli\\\\filler.mp4', 'robot_stimuli\\\\filler.mp4']",robot_stimuli\\filler.mp4,12,,,,,,,,,,,,,0,70,70,70,,,,,,,,,,,,,,,,,2093.2868129,2094.3467407999997,,,,,,,,,2097.1779938,2097.1779938,2097.1779938,2097.1779938,2097.1779938,2097.1779938,2097.1779938,2097.1779938,None,None,None,,,,,,,,,,,2080.5574604999997,2080.5574604999997,space,2.9811997000000474,2091.2674824,2093.2868129,2094.3467407999997,2094.3467407999997,2094.3467407999997,2094.3467407999997,c,2.7104281999999102,,,,,12,001,2024-07-04_14h06.56.828,robot_sternberg_sign,2022.2.5,60.06301811860389,
"['L', 'G', 'K', 'D']",True,G,4,letter,3,False,False,"['robot_stimuli\\\\filler.mp4', 'robot_stimuli\\\\filler.mp4', 'robot_stimuli\\\\filler.mp4', 'robot_stimuli\\\\filler.mp4']",robot_stimuli\\filler.mp4,12,,,,,,,,,,,,,0,71,71,71,,,,,,,,,,,,,,,,,2106.9202508,2107.9794904,,,,,,,,,2112.0115223,2112.0115223,2112.0115223,2112.0115223,2112.0115223,2112.0115223,2112.0115223,2112.0115223,None,None,None,,,,,,,,,,,2097.1779938,2097.1779938,None,,2104.899543,2106.9202508,2107.9794904,2107.9794904,2107.9794904,2107.9794904,c,3.8064275999998927,2097.1779938,2097.1779938,,,12,001,2024-07-04_14h06.56.828,robot_sternberg_sign,2022.2.5,60.06301811860389,
"['F', 'S', 'Z', 'K']",True,F,4,letter,3,False,False,"['robot_stimuli\\\\filler.mp4', 'robot_stimuli\\\\filler.mp4', 'robot_stimuli\\\\filler.mp4', 'robot_stimuli\\\\filler.mp4']",robot_stimuli\\filler.mp4,12,,,,,,,,,,,,,0,72,72,72,,,,,,,,,,,,,,,,,2122.1494521,2123.2129977,,,,,,,,,2129.6504947999997,2129.6504947999997,2129.6504947999997,2129.6504947999997,2129.6504947999997,2129.6504947999997,2129.6504947999997,2129.6504947999997,None,None,None,,,,,,,,,,,2112.0115223,2112.0115223,None,,2119.9340919,2122.1494521,2123.2129977,2123.2129977,2123.2129977,2123.2129977,c,6.324433600000134,2112.0115223,2112.0115223,,,12,001,2024-07-04_14h06.56.828,robot_sternberg_sign,2022.2.5,60.06301811860389,
"['R', 'Q', 'V', 'Z']",False,P,4,letter,3,False,False,"['robot_stimuli\\\\filler.mp4', 'robot_stimuli\\\\filler.mp4', 'robot_stimuli\\\\filler.mp4', 'robot_stimuli\\\\filler.mp4']",robot_stimuli\\filler.mp4,12,,,,,,,,,,,,,0,73,73,73,,,,,,,,,,,,,,,,,2139.4047184,2140.465311,,,,,,,,,2142.2915137,2142.2915137,2142.2915137,2142.2915137,2142.2915137,2142.2915137,2142.2915137,2142.2915137,None,None,None,,,,,,,,,,,2129.6504947999997,2129.6504947999997,None,,2137.3865725,2139.4047184,2140.465311,2140.465311,2140.465311,2140.465311,n,1.7767332999995915,2129.6504947999997,2129.6504947999997,,,12,001,2024-07-04_14h06.56.828,robot_sternberg_sign,2022.2.5,60.06301811860389,
"['P', 'L', 'V', 'F']",False,S,4,letter,3,False,False,"['robot_stimuli\\\\filler.mp4', 'robot_stimuli\\\\filler.mp4', 'robot_stimuli\\\\filler.mp4', 'robot_stimuli\\\\filler.mp4']",robot_stimuli\\filler.mp4,12,,,,,,,,,,,,,0,74,74,74,,,,,,,,,,,,,,,,,2152.0567118,2153.1131817,,,,,,,,,2156.3455033,2156.3455033,2156.3455033,2156.3455033,2156.3455033,2156.3455033,2156.3455033,2156.3455033,None,None,None,,,,,,,,,,,2142.2915137,2142.2915137,None,,2150.0430097,2152.0567118,2153.1131817,2153.1131817,2153.1131817,2153.1131817,n,3.000979799999982,2142.2915137,2142.2915137,,,12,001,2024-07-04_14h06.56.828,robot_sternberg_sign,2022.2.5,60.06301811860389,
"['X', 'F', 'J', 'R']",True,X,4,letter,3,False,False,"['robot_stimuli\\\\filler.mp4', 'robot_stimuli\\\\filler.mp4', 'robot_stimuli\\\\filler.mp4', 'robot_stimuli\\\\filler.mp4']",robot_stimuli\\filler.mp4,12,,,,,,,,,,,,,0,75,75,75,,,,,,,,,,,,,,,,,2166.2839572,2167.346892,,,,,,,,,2173.9814936,2173.9814936,2173.9814936,2173.9814936,2173.9814936,2173.9814936,2173.9814936,2173.9814936,None,None,None,,,,,,,,,,,2156.3455033,2156.3455033,None,,2164.2693403999997,2166.2839572,2167.346892,2167.346892,2167.346892,2167.346892,n,6.463390499999946,2156.3455033,2156.3455033,,,12,001,2024-07-04_14h06.56.828,robot_sternberg_sign,2022.2.5,60.06301811860389,
"['M', 'J', 'P', 'T']",False,V,4,letter,3,False,False,"['robot_stimuli\\\\filler.mp4', 'robot_stimuli\\\\filler.mp4', 'robot_stimuli\\\\filler.mp4', 'robot_stimuli\\\\filler.mp4']",robot_stimuli\\filler.mp4,12,,,,,,,,,,,,,0,76,76,76,,,,,,,,,,,,,,,,,2183.7215234,2184.783752,,,,,,,,,2186.4090963,2186.4090963,2186.4090963,2186.4090963,2186.4090963,2186.4090963,2186.4090963,2186.4090963,None,None,None,,,,,,,,,,,2173.9814936,2173.9814936,None,,2181.7039927,2183.7215234,2184.783752,2184.783752,2184.783752,2184.783752,n,1.4340897000000723,2173.9814936,2173.9814936,,,12,001,2024-07-04_14h06.56.828,robot_sternberg_sign,2022.2.5,60.06301811860389,
"['B', 'P', 'S', 'G']",False,C,4,letter,3,False,False,"['robot_stimuli\\\\filler.mp4', 'robot_stimuli\\\\filler.mp4', 'robot_stimuli\\\\filler.mp4', 'robot_stimuli\\\\filler.mp4']",robot_stimuli\\filler.mp4,12,,,,,,,,,,,,,0,77,77,77,,,,,,,,,,,,,,,,,2196.1311066,2197.1960467999997,,,,,,,,,2199.4236723,2199.4236723,2199.4236723,2199.4236723,2199.4236723,2199.4236723,2199.4236723,2199.4236723,None,None,None,,,,,,,,,,,2186.4090963,2186.4090963,None,,2193.921021,2196.1311066,2197.1960467999997,2197.1960467999997,2197.1960467999997,2197.1960467999997,n,2.1102196999999023,2186.4090963,2186.4090963,,,12,001,2024-07-04_14h06.56.828,robot_sternberg_sign,2022.2.5,60.06301811860389,
"['V', 'N', 'F', 'B']",True,V,4,letter,3,False,False,"['robot_stimuli\\\\filler.mp4', 'robot_stimuli\\\\filler.mp4', 'robot_stimuli\\\\filler.mp4', 'robot_stimuli\\\\filler.mp4']",robot_stimuli\\filler.mp4,12,,,,,,,,,,,,,0,78,78,78,,,,,,,,,,,,,,,,,2209.1782885,2200.4815896,,,,,,,,,2216.2850373,2216.2850373,2216.2850373,2216.2850373,2216.2850373,2216.2850373,2216.2850373,2216.2850373,None,None,None,,,,,,,,,,,2199.4236723,2199.4236723,None,,2207.1587673,2209.1782885,2210.2461247,2210.2461247,2210.2461247,2210.2461247,n,5.876488400000085,2199.4236723,2199.4236723,,,12,001,2024-07-04_14h06.56.828,robot_sternberg_sign,2022.2.5,60.06301811860389,
"['Z', 'J', 'L', 'S']",False,N,4,letter,3,False,True,"['robot_stimuli\\\\filler.mp4', 'robot_stimuli\\\\filler.mp4', 'robot_stimuli\\\\filler.mp4', 'robot_stimuli\\\\filler.mp4']",robot_stimuli\\filler.mp4,12,,,,,,,,,,,,,0,79,79,79,,,,,,,,,,,,,,,,,2226.042871,2227.0990775,,,,,,,,,2229.7533381999997,2234.2236448,2229.7533381999997,2234.2236448,2229.7533381999997,2234.2236448,2229.7533381999997,2234.2236448,56.23456790123457,2.9709751000000324,space,,,4.408727399999748,,,,,,,,2216.2850373,2216.2850373,None,,2223.8323437,2226.042871,2227.0990775,2227.0990775,2227.0990775,2227.0990775,n,2.406981299999984,2216.2850373,2216.2850373,,,12,001,2024-07-04_14h06.56.828,robot_sternberg_sign,2022.2.5,60.06301811860389,
"['V', 'D']",True,D,2,letter,3,True,False,"['robot_stimuli\\\\filler.mp4', 'robot_stimuli\\\\filler.mp4']",robot_stimuli\\filler.mp4,12,,,,,,,,,,,,,0,80,80,80,,,,,,,,,,,,,,,,,2243.5678429,2244.6310387999997,,,,,,,,,2247.2568413,2247.2568413,2247.2568413,2247.2568413,2247.2568413,2247.2568413,2247.2568413,2247.2568413,None,None,None,,,,,,,,,,,2234.2236448,2234.2236448,space,3.9539116999998214,2241.5554066,2243.5678429,2244.6310387999997,2244.6310387999997,2244.6310387999997,2244.6310387999997,c,2.5471818999998277,,,,,12,001,2024-07-04_14h06.56.828,robot_sternberg_sign,2022.2.5,60.06301811860389,
"['P', 'S']",True,P,2,letter,3,False,False,"['robot_stimuli\\\\filler.mp4', 'robot_stimuli\\\\filler.mp4']",robot_stimuli\\filler.mp4,12,,,,,,,,,,,,,0,81,81,81,,,,,,,,,,,,,,,,,2252.8204714999997,2253.8798862,,,,,,,,,2254.6993769,2254.6993769,2254.6993769,2254.6993769,2254.6993769,2254.6993769,2254.6993769,2254.6993769,None,None,None,,,,,,,,,,,2247.2568413,2247.2568413,None,,2250.6121069,2252.8204714999997,2253.8798862,2253.8798862,2253.8798862,2253.8798862,c,0.6430123999997477,2247.2568413,2247.2568413,,,12,001,2024-07-04_14h06.56.828,robot_sternberg_sign,2022.2.5,60.06301811860389,
"['R', 'H']",False,P,2,letter,3,False,False,"['robot_stimuli\\\\filler.mp4', 'robot_stimuli\\\\filler.mp4']",robot_stimuli\\filler.mp4,12,,,,,,,,,,,,,0,82,82,82,,,,,,,,,,,,,,,,,2260.0716340999998,2261.1287362,,,,,,,,,2262.1578658,2262.1578658,2262.1578658,2262.1578658,2262.1578658,2262.1578658,2262.1578658,2262.1578658,None,None,None,,,,,,,,,,,2254.6993769,2254.6993769,None,,2258.0569711999997,2260.0716340999998,2261.1287362,2261.1287362,2261.1287362,2261.1287362,n,0.8810340999997379,2254.6993769,2254.6993769,,,12,001,2024-07-04_14h06.56.828,robot_sternberg_sign,2022.2.5,60.06301811860389,
"['T', 'D']",False,R,2,letter,3,False,False,"['robot_stimuli\\\\filler.mp4', 'robot_stimuli\\\\filler.mp4']",robot_stimuli\\filler.mp4,12,,,,,,,,,,,,,0,83,83,83,,,,,,,,,,,,,,,,,2267.5191162,2268.5825391999997,,,,,,,,,2280.4275666,2280.4275666,2280.4275666,2280.4275666,2280.4275666,2280.4275666,2280.4275666,2280.4275666,None,None,None,,,,,,,,,,,2262.1578658,2262.1578658,None,,2265.5065978,2267.5191162,2268.5825391999997,2268.5825391999997,2268.5825391999997,2268.5825391999997,c,11.72355640000012,2262.1578658,2262.1578658,,,12,001,2024-07-04_14h06.56.828,robot_sternberg_sign,2022.2.5,60.06301811860389,
"['V', 'H']",True,H,2,letter,3,False,False,"['robot_stimuli\\\\filler.mp4', 'robot_stimuli\\\\filler.mp4']",robot_stimuli\\filler.mp4,12,,,,,,,,,,,,,0,84,84,84,,,,,,,,,,,,,,,,,2285.8104476,2286.86357,,,,,,,,,2288.492807,2288.492807,2288.492807,2288.492807,2288.492807,2288.492807,2288.492807,2288.492807,None,None,None,,,,,,,,,,,2280.4275666,2280.4275666,None,,2283.596661,2285.8104476,2286.86357,2286.86357,2286.86357,2286.86357,c,1.4665730999998914,2280.4275666,2280.4275666,,,12,001,2024-07-04_14h06.56.828,robot_sternberg_sign,2022.2.5,60.06301811860389,
"['K', 'N']",False,S,2,letter,3,False,False,"['robot_stimuli\\\\filler.mp4', 'robot_stimuli\\\\filler.mp4']",robot_stimuli\\filler.mp4,12,,,,,,,,,,,,,0,85,85,85,,,,,,,,,,,,,,,,,2293.6668391,2294.7303488,,,,,,,,,2296.7532461,2296.7532461,2296.7532461,2296.7532461,2296.7532461,2296.7532461,2296.7532461,2296.7532461,None,None,None,,,,,,,,,,,2288.492807,2288.492807,None,,2291.6537832999998,2293.6668391,2294.7303488,2294.7303488,2294.7303488,2294.7303488,n,1.9677816999995912,2288.492807,2288.492807,,,12,001,2024-07-04_14h06.56.828,robot_sternberg_sign,2022.2.5,60.06301811860389,
"['W', 'H']",False,X,2,letter,3,False,False,"['robot_stimuli\\\\filler.mp4', 'robot_stimuli\\\\filler.mp4']",robot_stimuli\\filler.mp4,12,,,,,,,,,,,,,0,86,86,86,,,,,,,,,,,,,,,,,2302.3282601,2297.8123818,,,,,,,,,2305.4345746,2305.4345746,2305.4345746,2305.4345746,2305.4345746,2305.4345746,2305.4345746,2305.4345746,None,None,None,,,,,,,,,,,2296.7532461,2296.7532461,None,,2300.1114457,2302.3282601,2303.4034874999998,2303.4034874999998,2303.4034874999998,2303.4034874999998,n,1.8932889000001296,2296.7532461,2296.7532461,,,12,001,2024-07-04_14h06.56.828,robot_sternberg_sign,2022.2.5,60.06301811860389,
"['H', 'G']",False,Q,2,letter,3,False,False,"['robot_stimuli\\\\filler.mp4', 'robot_stimuli\\\\filler.mp4']",robot_stimuli\\filler.mp4,12,,,,,,,,,,,,,0,87,87,87,,,,,,,,,,,,,,,,,2310.6055394,2311.6640503,,,,,,,,,2318.9075946,2318.9075946,2318.9075946,2318.9075946,2318.9075946,2318.9075946,2318.9075946,2318.9075946,None,None,None,,,,,,,,,,,2305.4345746,2305.4345746,None,,2308.5897886,2310.6055394,2311.6640503,2311.6640503,2311.6640503,2311.6640503,n,7.153559199999904,2305.4345746,2305.4345746,,,12,001,2024-07-04_14h06.56.828,robot_sternberg_sign,2022.2.5,60.06301811860389,
"['L', 'T']",True,T,2,letter,3,False,False,"['robot_stimuli\\\\filler.mp4', 'robot_stimuli\\\\filler.mp4']",robot_stimuli\\filler.mp4,12,,,,,,,,,,,,,0,88,88,88,,,,,,,,,,,,,,,,,2324.2669683,2325.3306832,,,,,,,,,2326.5528274999997,2326.5528274999997,2326.5528274999997,2326.5528274999997,2326.5528274999997,2326.5528274999997,2326.5528274999997,2326.5528274999997,None,None,None,,,,,,,,,,,2318.9075946,2318.9075946,None,,2322.2597492,2324.2669683,2325.3306832,2325.3306832,2325.3306832,2325.3306832,c,1.0943307000001141,2318.9075946,2318.9075946,,,12,001,2024-07-04_14h06.56.828,robot_sternberg_sign,2022.2.5,60.06301811860389,
"['N', 'Q']",True,Q,2,letter,3,False,True,"['robot_stimuli\\\\filler.mp4', 'robot_stimuli\\\\filler.mp4']",robot_stimuli\\filler.mp4,12,,,,,,,,,,,,,0,89,89,89,,,,,,,,,,,,,,,,,2331.9263121,2332.9815257,,,,,,,,,2344.8657936,2353.1783513,2344.8657936,2353.1783513,2344.8657936,2353.1783513,2344.8657936,2353.1783513,59.4753086419753,6.363182000000052,space,,,8.256076300000018,,,,,,,,2326.5528274999997,2326.5528274999997,None,,2329.9088127,2331.9263121,2332.9815257,2332.9815257,2332.9815257,2332.9815257,n,11.75675149999995,2326.5528274999997,2326.5528274999997,,,12,001,2024-07-04_14h06.56.828,robot_sternberg_sign,2022.2.5,60.06301811860389,
"['R_Head_X_For', 'R_Torso_X_Back', 'L_Base_Z_Back', 'R_Base_Y_Back', 'L_Arm_X_Back', 'R_Torso_Z_For']",False,L_Torso_Z_For,6,robot,4,True,False,"['robot_stimuli\\R_Head_X_For.mp4', 'robot_stimuli\\R_Torso_X_Back.mp4', 'robot_stimuli\\L_Base_Z_Back.mp4', 'robot_stimuli\\R_Base_Y_Back.mp4', 'robot_stimuli\\L_Arm_X_Back.mp4', 'robot_stimuli\\R_Torso_Z_For.mp4']",robot_stimuli\L_Torso_Z_For.mp4,12,,,,,,,,,,,,,0,90,90,90,,,,,,,,,,,,,,,,,2404.8761876999997,2405.9558324,,,,,,,,,2413.8398434,2413.8398434,2413.8398434,2413.8398434,2413.8398434,2413.8398434,2413.8398434,2413.8398434,None,None,None,,,,,,,,,,,2353.1783513,2353.1783513,space,28.375151200000232,,,,2405.9558324,2405.9558324,2405.9558324,c,7.85295769999982,,,2401.2513937,2405.9558324,12,001,2024-07-04_14h06.56.828,robot_sternberg_sign,2022.2.5,60.06301811860389,
"['L_Torso_X_Back', 'R_Base_Y_Back', 'R_Head_X_For', 'L_Base_Y_Back', 'R_Torso_X_Back', 'L_Arm_X_Back']",True,L_Base_Y_Back,6,robot,4,False,False,"['robot_stimuli\\L_Torso_X_Back.mp4', 'robot_stimuli\\R_Base_Y_Back.mp4', 'robot_stimuli\\R_Head_X_For.mp4', 'robot_stimuli\\L_Base_Y_Back.mp4', 'robot_stimuli\\R_Torso_X_Back.mp4', 'robot_stimuli\\L_Arm_X_Back.mp4']",robot_stimuli\L_Base_Y_Back.mp4,12,,,,,,,,,,,,,0,91,91,91,,,,,,,,,,,,,,,,,2437.1008637,2438.1883315,,,,,,,,,2441.8531057,2441.8531057,2441.8531057,2441.8531057,2441.8531057,2441.8531057,2441.8531057,2441.8531057,None,None,None,,,,,,,,,,,2413.8398434,2413.8398434,None,,,,,2438.1883315,2438.1883315,2438.1883315,c,3.637541599999963,2413.8398434,2413.8398434,2433.464207,2438.1883315,12,001,2024-07-04_14h06.56.828,robot_sternberg_sign,2022.2.5,60.06301811860389,
"['R_Base_Y_Back', 'R_Arm_X_For', 'L_Torso_Y_Back', 'R_Head_Z_For', 'R_Base_X_For', 'R_Head_X_For']",False,L_Head_X_Back,6,robot,4,False,False,"['robot_stimuli\\R_Base_Y_Back.mp4', 'robot_stimuli\\R_Arm_X_For.mp4', 'robot_stimuli\\L_Torso_Y_Back.mp4', 'robot_stimuli\\R_Head_Z_For.mp4', 'robot_stimuli\\R_Base_X_For.mp4', 'robot_stimuli\\R_Head_X_For.mp4']",robot_stimuli\L_Head_X_Back.mp4,12,,,,,,,,,,,,,0,92,92,92,,,,,,,,,,,,,,,,,2464.9819906,2466.0727429999997,,,,,,,,,2477.3749892,2477.3749892,2477.3749892,2477.3749892,2477.3749892,2477.3749892,2477.3749892,2477.3749892,None,None,None,,,,,,,,,,,2441.8531057,2441.8531057,None,,,,,2466.0727429999997,2466.0727429999997,2466.0727429999997,n,11.25704069999972,2441.8531057,2441.8531057,2461.3471279,2466.0727429999997,12,001,2024-07-04_14h06.56.828,robot_sternberg_sign,2022.2.5,60.06301811860389,
"['R_Head_Z_For', 'L_Torso_X_Back', 'R_Arm_Y_For', 'L_Head_X_For', 'R_Base_Z_Back', 'L_Base_X_Back']",False,L_Arm_Y_For,6,robot,4,False,False,"['robot_stimuli\\R_Head_Z_For.mp4', 'robot_stimuli\\L_Torso_X_Back.mp4', 'robot_stimuli\\R_Arm_Y_For.mp4', 'robot_stimuli\\L_Head_X_For.mp4', 'robot_stimuli\\R_Base_Z_Back.mp4', 'robot_stimuli\\L_Base_X_Back.mp4']",robot_stimuli\L_Arm_Y_For.mp4,12,,,,,,,,,,,,,0,93,93,93,,,,,,,,,,,,,,,,,2500.3956008,2478.4514547999997,,,,,,,,,2507.4600878,2507.4600878,2507.4600878,2507.4600878,2507.4600878,2507.4600878,2507.4600878,2507.4600878,None,None,None,,,,,,,,,,,2477.3749892,2477.3749892,None,,,,,2501.4891384,2501.4891384,2501.4891384,n,5.92811990000007,2477.3749892,2477.3749892,2496.7875263,2501.4891384,12,001,2024-07-04_14h06.56.828,robot_sternberg_sign,2022.2.5,60.06301811860389,
"['R_Arm_X_For', 'L_Base_X_Back', 'R_Head_X_Back', 'R_Base_Z_Back', 'R_Base_Z_For', 'R_Torso_X_For']",True,R_Base_Z_For,6,robot,4,False,False,"['robot_stimuli\\R_Arm_X_For.mp4', 'robot_stimuli\\L_Base_X_Back.mp4', 'robot_stimuli\\R_Head_X_Back.mp4', 'robot_stimuli\\R_Base_Z_Back.mp4', 'robot_stimuli\\R_Base_Z_For.mp4', 'robot_stimuli\\R_Torso_X_For.mp4']",robot_stimuli\R_Base_Z_For.mp4,12,,,,,,,,,,,,,0,94,94,94,,,,,,,,,,,,,,,,,2530.6347846,2531.7381947,,,,,,,,,2543.106131,2543.106131,2543.106131,2543.106131,2543.106131,2543.106131,2543.106131,2543.106131,None,None,None,,,,,,,,,,,2507.4600878,2507.4600878,None,,,,,2531.7381947,2531.7381947,2531.7381947,c,11.335164800000143,2507.4600878,2507.4600878,2526.9992911,2531.7381947,12,001,2024-07-04_14h06.56.828,robot_sternberg_sign,2022.2.5,60.06301811860389,
"['L_Base_X_For', 'R_Head_Y_Back', 'R_Base_X_Back', 'L_Arm_X_Back', 'L_Torso_X_For', 'L_Arm_Z_Back']",False,R_Head_Y_For,6,robot,4,False,False,"['robot_stimuli\\L_Base_X_For.mp4', 'robot_stimuli\\R_Head_Y_Back.mp4', 'robot_stimuli\\R_Base_X_Back.mp4', 'robot_stimuli\\L_Arm_X_Back.mp4', 'robot_stimuli\\L_Torso_X_For.mp4', 'robot_stimuli\\L_Arm_Z_Back.mp4']",robot_stimuli\R_Head_Y_For.mp4,12,,,,,,,,,,,,,0,95,95,95,,,,,,,,,,,,,,,,,2566.3675269,2567.4549794,,,,,,,,,2574.504728,2574.504728,2574.504728,2574.504728,2574.504728,2574.504728,2574.504728,2574.504728,None,None,None,,,,,,,,,,,2543.106131,2543.106131,None,,,,,2567.4549794,2567.4549794,2567.4549794,n,7.017591199999856,2543.106131,2543.106131,2562.7373574,2567.4549794,12,001,2024-07-04_14h06.56.828,robot_sternberg_sign,2022.2.5,60.06301811860389,
"['R_Torso_Z_Back', 'L_Torso_Y_Back', 'R_Head_Y_For', 'R_Arm_X_For', 'R_Torso_Y_For', 'R_Head_X_Back']",True,R_Torso_Y_For,6,robot,4,False,False,"['robot_stimuli\\R_Torso_Z_Back.mp4', 'robot_stimuli\\L_Torso_Y_Back.mp4', 'robot_stimuli\\R_Head_Y_For.mp4', 'robot_stimuli\\R_Arm_X_For.mp4', 'robot_stimuli\\R_Torso_Y_For.mp4', 'robot_stimuli\\R_Head_X_Back.mp4']",robot_stimuli\R_Torso_Y_For.mp4,12,,,,,,,,,,,,,0,96,96,96,,,,,,,,,,,,,,,,,2597.6770871,2598.7527701999998,,,,,,,,,2602.3916901,2602.3916901,2602.3916901,2602.3916901,2602.3916901,2602.3916901,2602.3916901,2602.3916901,None,None,None,,,,,,,,,,,2574.504728,2574.504728,None,,,,,2598.7527701999998,2598.7527701999998,2598.7527701999998,c,0.3849941999995963,2574.504728,2574.504728,2594.0463769,2598.7527701999998,12,001,2024-07-04_14h06.56.828,robot_sternberg_sign,2022.2.5,60.06301811860389,
"['L_Head_Z_Back', 'R_Torso_Z_Back', 'L_Base_Y_For', 'L_Torso_X_For', 'L_Torso_Y_For', 'R_Arm_Y_For']",True,R_Arm_Y_For,6,robot,4,False,False,"['robot_stimuli\\L_Head_Z_Back.mp4', 'robot_stimuli\\R_Torso_Z_Back.mp4', 'robot_stimuli\\L_Base_Y_For.mp4', 'robot_stimuli\\L_Torso_X_For.mp4', 'robot_stimuli\\L_Torso_Y_For.mp4', 'robot_stimuli\\R_Arm_Y_For.mp4']",robot_stimuli\R_Arm_Y_For.mp4,12,,,,,,,,,,,,,0,97,97,97,,,,,,,,,,,,,,,,,2625.4824378,2626.5718236,,,,,,,,,2636.1538829,2636.1538829,2636.1538829,2636.1538829,2636.1538829,2636.1538829,2636.1538829,2636.1538829,None,None,None,,,,,,,,,,,2602.3916901,2602.3916901,None,,,,,2626.5718236,2626.5718236,2626.5718236,c,9.54135389999999,2602.3916901,2602.3916901,2621.9735901,2626.5718236,12,001,2024-07-04_14h06.56.828,robot_sternberg_sign,2022.2.5,60.06301811860389,
"['L_Arm_X_Back', 'L_Torso_Y_For', 'R_Torso_Y_For', 'L_Torso_X_For', 'L_Base_Z_For', 'L_Base_Z_Back']",True,L_Base_Z_For,6,robot,4,False,False,"['robot_stimuli\\L_Arm_X_Back.mp4', 'robot_stimuli\\L_Torso_Y_For.mp4', 'robot_stimuli\\R_Torso_Y_For.mp4', 'robot_stimuli\\L_Torso_X_For.mp4', 'robot_stimuli\\L_Base_Z_For.mp4', 'robot_stimuli\\L_Base_Z_Back.mp4']",robot_stimuli\L_Base_Z_For.mp4,12,,,,,,,,,,,,,0,98,98,98,,,,,,,,,,,,,,,,,2659.461991,2637.2354456,,,,,,,,,2664.204041,2664.204041,2664.204041,2664.204041,2664.204041,2664.204041,2664.204041,2664.204041,None,None,None,,,,,,,,,,,2636.1538829,2636.1538829,None,,,,,2660.5549775,2660.5549775,2660.5549775,c,2.6782871999997724,2636.1538829,2636.1538829,2655.8320036,2660.5549775,12,001,2024-07-04_14h06.56.828,robot_sternberg_sign,2022.2.5,60.06301811860389,
"['R_Arm_Y_Back', 'L_Head_Y_Back', 'R_Arm_X_Back', 'R_Torso_Y_Back', 'R_Base_Z_Back', 'L_Base_Y_Back']",False,L_Arm_Z_Back,6,robot,4,False,True,"['robot_stimuli\\R_Arm_Y_Back.mp4', 'robot_stimuli\\L_Head_Y_Back.mp4', 'robot_stimuli\\R_Arm_X_Back.mp4', 'robot_stimuli\\R_Torso_Y_Back.mp4', 'robot_stimuli\\R_Base_Z_Back.mp4', 'robot_stimuli\\L_Base_Y_Back.mp4']",robot_stimuli\L_Arm_Z_Back.mp4,12,,,,,,,,,,,,,0,99,99,99,,,,,,,,,,,,,,,,,2687.3660796,2688.4525722,,,,,,,,,2694.5861439,2701.5864895,2694.5861439,2701.5864895,2694.5861439,2701.5864895,2694.5861439,2701.5864895,90.18518518518518,5.670915100000002,space,,,6.958270399999833,,,,,,,,2664.204041,2664.204041,None,,,,,2688.4525722,2688.4525722,2688.4525722,n,6.069103199999859,2664.204041,2664.204041,2683.8013837999997,2688.4525722,12,001,2024-07-04_14h06.56.828,robot_sternberg_sign,2022.2.5,60.06301811860389,
"['L_Arm_X_Back', 'L_Torso_X_For', 'L_Base_X_Back', 'L_Head_Y_For']",True,L_Base_X_Back,4,robot,4,True,False,"['robot_stimuli\\L_Arm_X_Back.mp4', 'robot_stimuli\\L_Torso_X_For.mp4', 'robot_stimuli\\L_Base_X_Back.mp4', 'robot_stimuli\\L_Head_Y_For.mp4']",robot_stimuli\L_Base_X_Back.mp4,12,,,,,,,,,,,,,0,100,100,100,,,,,,,,,,,,,,,,,2761.465014,2762.5554803,,,,,,,,,2766.1717753,2766.1717753,2766.1717753,2766.1717753,2766.1717753,2766.1717753,2766.1717753,2766.1717753,None,None,None,,,,,,,,,,,2701.5864895,2701.5864895,space,43.96709159999989,,,,2762.5554803,2762.5554803,2762.5554803,c,3.500689999999736,,,2757.8221715,2762.5554803,12,001,2024-07-04_14h06.56.828,robot_sternberg_sign,2022.2.5,60.06301811860389,
"['L_Arm_Y_For', 'R_Torso_Y_For', 'R_Base_Y_For', 'R_Arm_Z_For']",True,L_Arm_Y_For,4,robot,4,False,False,"['robot_stimuli\\L_Arm_Y_For.mp4', 'robot_stimuli\\R_Torso_Y_For.mp4', 'robot_stimuli\\R_Base_Y_For.mp4', 'robot_stimuli\\R_Arm_Z_For.mp4']",robot_stimuli\L_Arm_Y_For.mp4,12,,,,,,,,,,,,,0,101,101,101,,,,,,,,,,,,,,,,,2782.1010151,2783.1920276,,,,,,,,,2787.8565618,2787.8565618,2787.8565618,2787.8565618,2787.8565618,2787.8565618,2787.8565618,2787.8565618,None,None,None,,,,,,,,,,,2766.1717753,2766.1717753,None,,,,,2783.1920276,2783.1920276,2783.1920276,c,4.625698100000022,2766.1717753,2766.1717753,2778.4674861,2783.1920276,12,001,2024-07-04_14h06.56.828,robot_sternberg_sign,2022.2.5,60.06301811860389,
"['L_Arm_Y_Back', 'L_Head_Y_For', 'L_Head_X_Back', 'R_Head_Y_Back']",True,L_Arm_Y_Back,4,robot,4,False,False,"['robot_stimuli\\L_Arm_Y_Back.mp4', 'robot_stimuli\\L_Head_Y_For.mp4', 'robot_stimuli\\L_Head_X_Back.mp4', 'robot_stimuli\\R_Head_Y_Back.mp4']",robot_stimuli\L_Arm_Y_Back.mp4,12,,,,,,,,,,,,,0,102,102,102,,,,,,,,,,,,,,,,,2803.7488696,2804.8346057,,,,,,,,,2808.4657194,2808.4657194,2808.4657194,2808.4657194,2808.4657194,2808.4657194,2808.4657194,2808.4657194,None,None,None,,,,,,,,,,,2787.8565618,2787.8565618,None,,,,,2804.8346057,2804.8346057,2804.8346057,c,3.0141250999998874,2787.8565618,2787.8565618,2800.1180842999997,2804.8346057,12,001,2024-07-04_14h06.56.828,robot_sternberg_sign,2022.2.5,60.06301811860389,
"['R_Torso_X_Back', 'R_Head_X_Back', 'L_Arm_X_For', 'L_Head_X_For']",False,R_Head_X_For,4,robot,4,False,False,"['robot_stimuli\\R_Torso_X_Back.mp4', 'robot_stimuli\\R_Head_X_Back.mp4', 'robot_stimuli\\L_Arm_X_For.mp4', 'robot_stimuli\\L_Head_X_For.mp4']",robot_stimuli\R_Head_X_For.mp4,12,,,,,,,,,,,,,0,103,103,103,,,,,,,,,,,,,,,,,2824.2927907999997,2825.3717165,,,,,,,,,2829.0210048999998,2829.0210048999998,2829.0210048999998,2829.0210048999998,2829.0210048999998,2829.0210048999998,2829.0210048999998,2829.0210048999998,None,None,None,,,,,,,,,,,2808.4657194,2808.4657194,None,,,,,2825.3717165,2825.3717165,2825.3717165,n,2.813411699999847,2808.4657194,2808.4657194,2820.7237136999997,2825.3717165,12,001,2024-07-04_14h06.56.828,robot_sternberg_sign,2022.2.5,60.06301811860389,
"['R_Head_Y_Back', 'R_Head_Z_Back', 'R_Base_Y_Back', 'L_Base_Z_For']",False,R_Arm_X_For,4,robot,4,False,False,"['robot_stimuli\\R_Head_Y_Back.mp4', 'robot_stimuli\\R_Head_Z_Back.mp4', 'robot_stimuli\\R_Base_Y_Back.mp4', 'robot_stimuli\\L_Base_Z_For.mp4']",robot_stimuli\R_Arm_X_For.mp4,12,,,,,,,,,,,,,0,104,104,104,,,,,,,,,,,,,,,,,2844.8986268999997,2845.9867371,,,,,,,,,2852.8515362999997,2852.8515362999997,2852.8515362999997,2852.8515362999997,2852.8515362999997,2852.8515362999997,2852.8515362999997,2852.8515362999997,None,None,None,,,,,,,,,,,2829.0210048999998,2829.0210048999998,None,,,,,2845.9867371,2845.9867371,2845.9867371,n,6.8376259999998865,2829.0210048999998,2829.0210048999998,2841.268092,2845.9867371,12,001,2024-07-04_14h06.56.828,robot_sternberg_sign,2022.2.5,60.06301811860389,
"['R_Torso_Y_Back', 'R_Arm_X_Back', 'R_Base_Y_Back', 'L_Arm_X_For']",False,L_Arm_Z_Back,4,robot,4,False,False,"['robot_stimuli\\R_Torso_Y_Back.mp4', 'robot_stimuli\\R_Arm_X_Back.mp4', 'robot_stimuli\\R_Base_Y_Back.mp4', 'robot_stimuli\\L_Arm_X_For.mp4']",robot_stimuli\L_Arm_Z_Back.mp4,12,,,,,,,,,,,,,0,105,105,105,,,,,,,,,,,,,,,,,2868.7428887,2869.8162632999997,,,,,,,,,2876.4717757,2876.4717757,2876.4717757,2876.4717757,2876.4717757,2876.4717757,2876.4717757,2876.4717757,None,None,None,,,,,,,,,,,2852.8515362999997,2852.8515362999997,None,,,,,2869.8162632999997,2869.8162632999997,2869.8162632999997,c,6.616418399999816,2852.8515362999997,2852.8515362999997,2865.108433,2869.8162632999997,12,001,2024-07-04_14h06.56.828,robot_sternberg_sign,2022.2.5,60.06301811860389,
"['L_Head_Y_Back', 'L_Arm_Z_Back', 'L_Base_Z_Back', 'R_Head_X_Back']",True,L_Head_Y_Back,4,robot,4,False,False,"['robot_stimuli\\L_Head_Y_Back.mp4', 'robot_stimuli\\L_Arm_Z_Back.mp4', 'robot_stimuli\\L_Base_Z_Back.mp4', 'robot_stimuli\\R_Head_X_Back.mp4']",robot_stimuli\L_Head_Y_Back.mp4,12,,,,,,,,,,,,,0,106,106,106,,,,,,,,,,,,,,,,,2892.3426465,2893.4224298999998,,,,,,,,,2903.9065517,2903.9065517,2903.9065517,2903.9065517,2903.9065517,2903.9065517,2903.9065517,2903.9065517,None,None,None,,,,,,,,,,,2876.4717757,2876.4717757,None,,,,,2893.4224298999998,2893.4224298999998,2893.4224298999998,n,10.442286400000171,2876.4717757,2876.4717757,2888.7156333,2893.4224298999998,12,001,2024-07-04_14h06.56.828,robot_sternberg_sign,2022.2.5,60.06301811860389,
"['R_Base_Z_For', 'L_Base_Y_For', 'R_Arm_X_Back', 'R_Arm_Y_For']",True,R_Arm_X_Back,4,robot,4,False,False,"['robot_stimuli\\R_Base_Z_For.mp4', 'robot_stimuli\\L_Base_Y_For.mp4', 'robot_stimuli\\R_Arm_X_Back.mp4', 'robot_stimuli\\R_Arm_Y_For.mp4']",robot_stimuli\R_Arm_X_Back.mp4,12,,,,,,,,,,,,,0,107,107,107,,,,,,,,,,,,,,,,,2919.5826147,2920.6719718,,,,,,,,,2924.7241933,2924.7241933,2924.7241933,2924.7241933,2924.7241933,2924.7241933,2924.7241933,2924.7241933,None,None,None,,,,,,,,,,,2903.9065517,2903.9065517,None,,,,,2920.6719718,2920.6719718,2920.6719718,c,4.009406399999875,2903.9065517,2903.9065517,2916.0740186,2920.6719718,12,001,2024-07-04_14h06.56.828,robot_sternberg_sign,2022.2.5,60.06301811860389,
"['L_Base_Y_Back', 'L_Arm_Y_Back', 'R_Arm_Z_For', 'R_Base_Z_Back']",False,L_Arm_Y_For,4,robot,4,False,False,"['robot_stimuli\\L_Base_Y_Back.mp4', 'robot_stimuli\\L_Arm_Y_Back.mp4', 'robot_stimuli\\R_Arm_Z_For.mp4', 'robot_stimuli\\R_Base_Z_Back.mp4']",robot_stimuli\L_Arm_Y_For.mp4,12,,,,,,,,,,,,,0,108,108,108,,,,,,,,,,,,,,,,,2940.462207,2925.8017965999998,,,,,,,,,2948.3522712,2948.3522712,2948.3522712,2948.3522712,2948.3522712,2948.3522712,2948.3522712,2948.3522712,None,None,None,,,,,,,,,,,2924.7241933,2924.7241933,None,,,,,2941.5524492,2941.5524492,2941.5524492,c,6.75985210000033,2924.7241933,2924.7241933,2936.9207271,2941.5524492,12,001,2024-07-04_14h06.56.828,robot_sternberg_sign,2022.2.5,60.06301811860389,
"['L_Arm_Z_For', 'R_Base_Y_Back', 'L_Arm_X_Back', 'R_Head_Z_For']",False,L_Torso_Y_Back,4,robot,4,False,True,"['robot_stimuli\\L_Arm_Z_For.mp4', 'robot_stimuli\\R_Base_Y_Back.mp4', 'robot_stimuli\\L_Arm_X_Back.mp4', 'robot_stimuli\\R_Head_Z_For.mp4']",robot_stimuli\L_Torso_Y_Back.mp4,12,,,,,,,,,,,,,0,109,109,109,,,,,,,,,,,,,,,,,2964.2474417999997,2965.3399013999997,,,,,,,,,2974.234359,2978.9126269,2974.234359,2978.9126269,2974.234359,2978.9126269,2974.234359,2978.9126269,100.37037037037038,3.7179283000000396,space,,,4.629808699999444,,,,,,,,2948.3522712,2948.3522712,None,,,,,2965.3399013999997,2965.3399013999997,2965.3399013999997,n,8.837186199999792,2948.3522712,2948.3522712,2960.6044322,2965.3399013999997,12,001,2024-07-04_14h06.56.828,robot_sternberg_sign,2022.2.5,60.06301811860389,
"['R_Head_Z_For', 'R_Head_X_For']",True,R_Head_X_For,2,robot,4,True,False,"['robot_stimuli\\R_Head_Z_For.mp4', 'robot_stimuli\\R_Head_X_For.mp4']",robot_stimuli\R_Head_X_For.mp4,12,,,,,,,,,,,,,0,110,110,110,,,,,,,,,,,,,,,,,2991.3958681999998,2992.4874581,,,,,,,,,2996.8692437,2996.8692437,2996.8692437,2996.8692437,2996.8692437,2996.8692437,2996.8692437,2996.8692437,None,None,None,,,,,,,,,,,2978.9126269,2978.9126269,space,4.023823800000059,,,,2992.4874581,2992.4874581,2992.4874581,c,4.345991599999593,,,2987.7560734999997,2992.4874581,12,001,2024-07-04_14h06.56.828,robot_sternberg_sign,2022.2.5,60.06301811860389,
"['R_Torso_Z_For', 'L_Arm_Y_Back']",False,L_Torso_X_For,2,robot,4,False,False,"['robot_stimuli\\R_Torso_Z_For.mp4', 'robot_stimuli\\L_Arm_Y_Back.mp4']",robot_stimuli\L_Torso_X_For.mp4,12,,,,,,,,,,,,,0,111,111,111,,,,,,,,,,,,,,,,,3005.3131405,3006.4011345,,,,,,,,,3011.2372649999998,3011.2372649999998,3011.2372649999998,3011.2372649999998,3011.2372649999998,3011.2372649999998,3011.2372649999998,3011.2372649999998,None,None,None,,,,,,,,,,,2996.8692437,2996.8692437,None,,,,,3006.4011345,3006.4011345,3006.4011345,c,4.80728729999953,2996.8692437,2996.8692437,3001.6737104999997,3006.4011345,12,001,2024-07-04_14h06.56.828,robot_sternberg_sign,2022.2.5,60.06301811860389,
"['L_Torso_X_Back', 'L_Head_X_For']",False,R_Torso_Z_For,2,robot,4,False,False,"['robot_stimuli\\L_Torso_X_Back.mp4', 'robot_stimuli\\L_Head_X_For.mp4']",robot_stimuli\R_Torso_Z_For.mp4,12,,,,,,,,,,,,,0,112,112,112,,,,,,,,,,,,,,,,,3019.6341451999997,3020.7219362,,,,,,,,,3032.6382995,3032.6382995,3032.6382995,3032.6382995,3032.6382995,3032.6382995,3032.6382995,3032.6382995,None,None,None,,,,,,,,,,,3011.2372649999998,3011.2372649999998,None,,,,,3020.7219362,3020.7219362,3020.7219362,n,11.877907899999968,3011.2372649999998,3011.2372649999998,3016.0726552,3020.7219362,12,001,2024-07-04_14h06.56.828,robot_sternberg_sign,2022.2.5,60.06301811860389,
"['L_Head_X_For', 'L_Head_Z_For']",False,R_Head_Y_Back,2,robot,4,False,False,"['robot_stimuli\\L_Head_X_For.mp4', 'robot_stimuli\\L_Head_Z_For.mp4']",robot_stimuli\R_Head_Y_Back.mp4,12,,,,,,,,,,,,,0,113,113,113,,,,,,,,,,,,,,,,,3040.9993546,3042.0847753,,,,,,,,,3045.7238486,3045.7238486,3045.7238486,3045.7238486,3045.7238486,3045.7238486,3045.7238486,3045.7238486,None,None,None,,,,,,,,,,,3032.6382995,3032.6382995,None,,,,,3042.0847753,3042.0847753,3042.0847753,n,3.210929700000065,3032.6382995,3032.6382995,3037.3662277999997,3042.0847753,12,001,2024-07-04_14h06.56.828,robot_sternberg_sign,2022.2.5,60.06301811860389,
"['L_Torso_Z_For', 'L_Arm_Z_Back']",True,L_Arm_Z_Back,2,robot,4,False,False,"['robot_stimuli\\L_Torso_Z_For.mp4', 'robot_stimuli\\L_Arm_Z_Back.mp4']",robot_stimuli\L_Arm_Z_Back.mp4,12,,,,,,,,,,,,,0,114,114,114,,,,,,,,,,,,,,,,,3054.1644656999997,3055.2534812999997,,,,,,,,,3058.8936271,3058.8936271,3058.8936271,3058.8936271,3058.8936271,3058.8936271,3058.8936271,3058.8936271,None,None,None,,,,,,,,,,,3045.7238486,3045.7238486,None,,,,,3055.2534812999997,3055.2534812999997,3055.2534812999997,c,3.4752020999998194,3045.7238486,3045.7238486,3050.5234682,3055.2534812999997,12,001,2024-07-04_14h06.56.828,robot_sternberg_sign,2022.2.5,60.06301811860389,
"['R_Torso_X_For', 'L_Base_X_For']",True,R_Torso_X_For,2,robot,4,False,False,"['robot_stimuli\\R_Torso_X_For.mp4', 'robot_stimuli\\L_Base_X_For.mp4']",robot_stimuli\R_Torso_X_For.mp4,12,,,,,,,,,,,,,0,115,115,115,,,,,,,,,,,,,,,,,3067.2445988,3059.9633009,,,,,,,,,3075.8844504999997,3075.8844504999997,3075.8844504999997,3075.8844504999997,3075.8844504999997,3075.8844504999997,3075.8844504999997,3075.8844504999997,None,None,None,,,,,,,,,,,3058.8936271,3058.8936271,None,,,,,3068.3342914,3068.3342914,3068.3342914,c,7.522986199999991,3058.8936271,3058.8936271,3063.6809871,3068.3342914,12,001,2024-07-04_14h06.56.828,robot_sternberg_sign,2022.2.5,60.06301811860389,
"['L_Arm_Z_Back', 'R_Torso_X_For']",True,R_Torso_X_For,2,robot,4,False,False,"['robot_stimuli\\L_Arm_Z_Back.mp4', 'robot_stimuli\\R_Torso_X_For.mp4']",robot_stimuli\R_Torso_X_For.mp4,12,,,,,,,,,,,,,0,116,116,116,,,,,,,,,,,,,,,,,3084.3175364999997,3085.4022916999998,,,,,,,,,3091.9756607,3091.9756607,3091.9756607,3091.9756607,3091.9756607,3091.9756607,3091.9756607,3091.9756607,None,None,None,,,,,,,,,,,3075.8844504999997,3075.8844504999997,None,,,,,3085.4022916999998,3085.4022916999998,3085.4022916999998,c,6.541861699999913,3075.8844504999997,3075.8844504999997,3080.6871226,3085.4022916999998,12,001,2024-07-04_14h06.56.828,robot_sternberg_sign,2022.2.5,60.06301811860389,
