sequence,odd_ones,parameter,choices,target,target_idx,condition,stimuli,block,is_block_beginning,is_block_ending,sequence_fnames,target_fname,subject,retraining.thisRepN,retraining.thisTrialN,retraining.thisN,retraining.thisIndex,training.thisRepN,training.thisTrialN,training.thisN,training.thisIndex,training_sequence_loop.thisRepN,training_sequence_loop.thisTrialN,training_sequence_loop.thisN,training_sequence_loop.thisIndex,trials.thisRepN,trials.thisTrialN,trials.thisN,trials.thisIndex,sequence_loop.thisRepN,sequence_loop.thisTrialN,sequence_loop.thisN,sequence_loop.thisIndex,langage_text.started,langage_key.started,langage_key.keys,langage_key.rt,intro_text.started,intro_key.started,intro_key.keys,intro_key.rt,training_intro_text.started,training_intro_key.started,training_intro_key.keys,training_intro_key.rt,polygon.started,cue_before_text.started,training_presentation_letter.started,training_presentation_letter.stopped,recall_key.started,recall_question.started,recall_answer.started,recall_key.keys,recall_key.rt,RSME_labels.started,RSME_labels.stopped,RSME_ticks.started,RSME_ticks.stopped,RSME_text.started,RSME_text.stopped,RSME_key.started,RSME_key.stopped,RSME_ticks.response,RSME_ticks.rt,RSME_key.keys,training_intro_text.stopped,training_intro_key.stopped,polygon.stopped,cue_before_text.stopped,RSME_key.rt,training_presentation_movie.started,experiment_beginning_text.started,experiment_beginning_keys.started,experiment_beginning_key.started,experiment_beginning_key.keys,experiment_beginning_key.rt,block_intro_text.started,block_intro_key.started,block_intro_key.keys,block_intro_key.rt,presentation_letter.started,presentation_letter.stopped,block_intro_text.stopped,block_intro_key.stopped,presentation_movie.started,participant,session,date,expName,psychopyVersion,frameRate,
,,,,,,,,,,,,,,,,,,,,,,,,,,,,,,,,,,29.863568000029773,29.863568000029773,f,16.07291750004515,,,,,,,,,,,,,,,,,,,,,,,,,,,,,,,,,,,,,,,,,,,,,,,,,18,001,2024-09-12_15h18.09.227,robot_cogshifting_sign,2022.2.5,59.86729820962966,
,,,,,,,,,,,,,,,,,,,,,,,,,,,,,,,,,,,,,,45.994399699848145,45.994399699848145,space,23.47015170007944,,,,,,,,,,,,,,,,,,,,,,,,,,,,,,,,,,,,,,,,,,,,,18,001,2024-09-12_15h18.09.227,robot_cogshifting_sign,2022.2.5,59.86729820962966,
"['red_bottom_T_0', 'blue_left_R_0', 'blue_bottom_P_0', 'blue_bottom_L_45']","{'color': 'red_bottom_T_0', 'position': 'blue_left_R_0', 'orientation': 'blue_bottom_L_45'}",position,['position'],blue_left_R_0,1,1,letter,1,True,False,"['robot_stimuli\\\\filler.mp4', 'robot_stimuli\\\\filler.mp4', 'robot_stimuli\\\\filler.mp4', 'robot_stimuli\\\\filler.mp4']",robot_stimuli\\filler.mp4,18,0,0,0,0,0,0,0,0,,,,,,,,,,,,,,,,,,,,,69.52402570005506,69.52402570005506,space,2.5415231995284557,72.09579889988527,73.09774139989167,83.70199450012296,85.73929279996082,85.73929279996082,85.73929279996082,85.73929279996082,2,154.06049309996888,239.85922480002046,239.85922480002046,239.85922480002046,239.85922480002046,239.85922480002046,239.85922480002046,239.85922480002046,239.85922480002046,None,None,None,,,,,,,,,,,,,,,,,,,,,18,001,2024-09-12_15h18.09.227,robot_cogshifting_sign,2022.2.5,59.86729820962966,
"['red_left_R_0', 'blue_left_L_0', 'blue_bottom_G_0', 'blue_left_T_45']","{'color': 'red_left_R_0', 'position': 'blue_bottom_G_0', 'orientation': 'blue_left_T_45'}",orientation,['orientation'],blue_left_T_45,3,1,letter,1,False,False,"['robot_stimuli\\\\filler.mp4', 'robot_stimuli\\\\filler.mp4', 'robot_stimuli\\\\filler.mp4', 'robot_stimuli\\\\filler.mp4']",robot_stimuli\\filler.mp4,18,0,0,0,0,0,1,1,1,,,,,,,,,,,,,,,,,,,,,239.85922480002046,239.85922480002046,None,,239.85922480002046,240.86121390014887,249.44484339980409,251.66585949994624,251.66585949994624,251.66585949994624,251.66585949994624,2,17.654375500045717,269.35057590017095,269.35057590017095,269.35057590017095,269.35057590017095,269.35057590017095,269.35057590017095,269.35057590017095,269.35057590017095,None,None,None,239.85922480002046,239.85922480002046,240.86121390014887,242.9319838997908,,,,,,,,,,,,,,,,,18,001,2024-09-12_15h18.09.227,robot_cogshifting_sign,2022.2.5,59.86729820962966,
"['blue_bottom_S_0', 'red_bottom_M_0', 'blue_left_V_0', 'blue_bottom_B_45']","{'color': 'red_bottom_M_0', 'position': 'blue_left_V_0', 'orientation': 'blue_bottom_B_45'}",color,['color'],red_bottom_M_0,1,1,letter,1,False,True,"['robot_stimuli\\\\filler.mp4', 'robot_stimuli\\\\filler.mp4', 'robot_stimuli\\\\filler.mp4', 'robot_stimuli\\\\filler.mp4']",robot_stimuli\\filler.mp4,18,0,0,0,0,0,2,2,2,,,,,,,,,,,,,,,,,,,,,269.35057590017095,269.35057590017095,None,,269.35057590017095,270.3525976999663,278.9361625998281,281.1571328002028,281.1571328002028,281.1571328002028,281.1571328002028,2,0.6512144999578595,281.87526659993455,287.5864623999223,281.87526659993455,287.5864623999223,281.87526659993455,287.5864623999223,281.87526659993455,287.5864623999223,25.634920634920633,3.9340257002040744,space,269.35057590017095,269.35057590017095,270.3525976999663,272.42326499987394,5.652687500230968,,,,,,,,,,,,,,,,18,001,2024-09-12_15h18.09.227,robot_cogshifting_sign,2022.2.5,59.86729820962966,
"['red_right_P_0', 'red_right_H_45', 'blue_right_K_0', 'red_bottom_J_0']","{'color': 'blue_right_K_0', 'position': 'red_bottom_J_0', 'orientation': 'red_right_H_45'}",color,"['color', 'orientation']",blue_right_K_0,2,2,letter,1,True,False,"['robot_stimuli\\\\filler.mp4', 'robot_stimuli\\\\filler.mp4', 'robot_stimuli\\\\filler.mp4', 'robot_stimuli\\\\filler.mp4']",robot_stimuli\\filler.mp4,18,0,0,0,0,0,3,3,3,,,,,,,,,,,,,,,,,,,,,287.5864623999223,287.5864623999223,space,3.79025759967044,291.39398769987747,292.3959531998262,301.17989030014724,303.20066590001807,303.20066590001807,303.20066590001807,303.20066590001807,2,4.11899339966476,307.3420036002062,307.3420036002062,307.3420036002062,307.3420036002062,307.3420036002062,307.3420036002062,307.3420036002062,307.3420036002062,None,None,None,,,,,,,,,,,,,,,,,,,,,18,001,2024-09-12_15h18.09.227,robot_cogshifting_sign,2022.2.5,59.86729820962966,
"['blue_top_Z_45', 'red_left_X_45', 'red_top_W_0', 'red_top_M_45']","{'color': 'blue_top_Z_45', 'position': 'red_left_X_45', 'orientation': 'red_top_W_0'}",orientation,"['orientation', 'position']",red_top_W_0,2,2,letter,1,False,False,"['robot_stimuli\\\\filler.mp4', 'robot_stimuli\\\\filler.mp4', 'robot_stimuli\\\\filler.mp4', 'robot_stimuli\\\\filler.mp4']",robot_stimuli\\filler.mp4,18,0,0,0,0,0,4,4,4,,,,,,,,,,,,,,,,,,,,,307.3420036002062,307.3420036002062,None,,307.3420036002062,308.34407000010833,316.9108445998281,318.94819540018216,318.94819540018216,318.94819540018216,318.94819540018216,2,6.131539500318468,325.1103167999536,325.1103167999536,325.1103167999536,325.1103167999536,325.1103167999536,325.1103167999536,325.1103167999536,325.1103167999536,None,None,None,307.3420036002062,307.3420036002062,308.34407000010833,310.4147573001683,,,,,,,,,,,,,,,,,18,001,2024-09-12_15h18.09.227,robot_cogshifting_sign,2022.2.5,59.86729820962966,
"['red_top_T_0', 'blue_top_F_0', 'red_bottom_V_0', 'red_top_F_45']","{'color': 'blue_top_F_0', 'position': 'red_bottom_V_0', 'orientation': 'red_top_F_45'}",position,"['color', 'position']",red_bottom_V_0,2,2,letter,1,False,True,"['robot_stimuli\\\\filler.mp4', 'robot_stimuli\\\\filler.mp4', 'robot_stimuli\\\\filler.mp4', 'robot_stimuli\\\\filler.mp4']",robot_stimuli\\filler.mp4,18,0,0,0,0,0,5,5,5,,,,,,,,,,,,,,,,,,,,,325.1103167999536,325.1103167999536,None,,325.1103167999536,326.1122834999114,334.4955670000054,336.5161323999055,336.5161323999055,336.5161323999055,336.5161323999055,3,3.9479864998720586,340.52404229994863,344.9494020999409,340.52404229994863,344.9494020999409,340.52404229994863,344.9494020999409,340.52404229994863,344.9494020999409,38.65079365079365,2.6646827002987266,space,325.1103167999536,325.1103167999536,326.1122834999114,328.18304880009964,4.371487699914724,,,,,,,,,,,,,,,,18,001,2024-09-12_15h18.09.227,robot_cogshifting_sign,2022.2.5,59.86729820962966,
"['red_right_P_45', 'blue_right_S_0', 'blue_right_G_45', 'blue_bottom_N_45']","{'color': 'red_right_P_45', 'position': 'blue_bottom_N_45', 'orientation': 'blue_right_S_0'}",position,"['color', 'orientation', 'position']",blue_bottom_N_45,3,3,letter,1,True,False,"['robot_stimuli\\\\filler.mp4', 'robot_stimuli\\\\filler.mp4', 'robot_stimuli\\\\filler.mp4', 'robot_stimuli\\\\filler.mp4']",robot_stimuli\\filler.mp4,18,0,0,0,0,0,6,6,6,,,,,,,,,,,,,,,,,,,,,344.9494020999409,344.9494020999409,space,4.6825072998180985,349.6586493998766,350.6606111000292,359.24424970010296,361.44851459981874,361.44851459981874,361.44851459981874,361.44851459981874,3,6.991653299890459,368.462326799985,368.462326799985,368.462326799985,368.462326799985,368.462326799985,368.462326799985,368.462326799985,368.462326799985,None,None,None,,,,,,,,,,,,,,,,,,,,,18,001,2024-09-12_15h18.09.227,robot_cogshifting_sign,2022.2.5,59.86729820962966,
"['blue_left_V_45', 'blue_bottom_K_0', 'red_left_C_0', 'blue_left_G_0']","{'color': 'red_left_C_0', 'position': 'blue_bottom_K_0', 'orientation': 'blue_left_V_45'}",color,"['color', 'orientation', 'position']",red_left_C_0,2,3,letter,1,False,False,"['robot_stimuli\\\\filler.mp4', 'robot_stimuli\\\\filler.mp4', 'robot_stimuli\\\\filler.mp4', 'robot_stimuli\\\\filler.mp4']",robot_stimuli\\filler.mp4,18,0,0,0,0,0,7,7,7,,,,,,,,,,,,,,,,,,,,,368.462326799985,368.462326799985,None,,368.462326799985,369.4643164998852,378.0312124998309,380.2521851998754,380.2521851998754,380.2521851998754,380.2521851998754,3,1.9153475002385676,382.18934120004997,382.18934120004997,382.18934120004997,382.18934120004997,382.18934120004997,382.18934120004997,382.18934120004997,382.18934120004997,None,None,None,368.462326799985,368.462326799985,369.4643164998852,371.535077100154,,,,,,,,,,,,,,,,,18,001,2024-09-12_15h18.09.227,robot_cogshifting_sign,2022.2.5,59.86729820962966,
"['red_left_R_45', 'red_right_T_45', 'blue_right_J_45', 'red_right_G_0']","{'color': 'blue_right_J_45', 'position': 'red_left_R_45', 'orientation': 'red_right_G_0'}",orientation,"['color', 'orientation', 'position']",red_right_G_0,3,3,letter,1,False,True,"['robot_stimuli\\\\filler.mp4', 'robot_stimuli\\\\filler.mp4', 'robot_stimuli\\\\filler.mp4', 'robot_stimuli\\\\filler.mp4']",robot_stimuli\\filler.mp4,18,0,0,0,0,0,8,8,8,,,,,,,,,,,,,,,,,,,,,382.18934120004997,382.18934120004997,None,,382.18934120004997,383.19129930017516,392.14442889997736,394.17964439978823,394.17964439978823,394.17964439978823,394.17964439978823,4,2.4040603996254504,396.65116709982976,399.5735490000807,396.65116709982976,399.5735490000807,396.65116709982976,399.5735490000807,396.65116709982976,399.5735490000807,49.92063492063492,2.2314494997262955,space,382.18934120004997,382.18934120004997,383.19129930017516,385.2787581998855,2.8457261002622545,,,,,,,,,,,,,,,,18,001,2024-09-12_15h18.09.227,robot_cogshifting_sign,2022.2.5,59.86729820962966,
"['R_Arm_Z_For', 'L_Arm_X_For', 'R_Arm_X_For', 'R_Base_X_For']","{'laterality': 'L_Arm_X_For', 'localisation': 'R_Base_X_For', 'movement': 'R_Arm_Z_For'}",movement,['movement'],R_Arm_Z_For,0,1,robot,2,True,False,"['robot_stimuli\\R_Arm_Z_For.mp4', 'robot_stimuli\\L_Arm_X_For.mp4', 'robot_stimuli\\R_Arm_X_For.mp4', 'robot_stimuli\\R_Base_X_For.mp4']",robot_stimuli\R_Arm_Z_For.mp4,18,0,0,0,0,0,9,9,9,,,,,,,,,,,,,,,,,,,,,399.5735490000807,399.5735490000807,space,1.035519199911505,400.6256480999291,401.6275839000009,,,418.42796179978177,418.42796179978177,418.42796179978177,4,10.42821089969948,428.881261699833,428.881261699833,428.881261699833,428.881261699833,428.881261699833,428.881261699833,428.881261699833,428.881261699833,None,None,None,,,,,,414.8870713999495,,,,,,,,,,,,,,,18,001,2024-09-12_15h18.09.227,robot_cogshifting_sign,2022.2.5,59.86729820962966,
"['L_Arm_X_Back', 'R_Torso_X_For', 'R_Arm_X_Back', 'R_Arm_Y_Back']","{'laterality': 'L_Arm_X_Back', 'localisation': 'R_Torso_X_For', 'movement': 'R_Arm_Y_Back'}",localisation,['localisation'],R_Torso_X_For,1,1,robot,2,False,False,"['robot_stimuli\\L_Arm_X_Back.mp4', 'robot_stimuli\\R_Torso_X_For.mp4', 'robot_stimuli\\R_Arm_X_Back.mp4', 'robot_stimuli\\R_Arm_Y_Back.mp4']",robot_stimuli\R_Torso_X_For.mp4,18,0,0,0,0,0,10,10,10,,,,,,,,,,,,,,,,,,,,,428.881261699833,428.881261699833,None,,428.881261699833,429.88323460007086,,,446.81652429979295,446.81652429979295,446.81652429979295,1,3.583849299699068,450.42362659983337,450.42362659983337,450.42362659983337,450.42362659983337,450.42362659983337,450.42362659983337,450.42362659983337,450.42362659983337,None,None,None,428.881261699833,428.881261699833,429.88323460007086,431.97066760016605,,443.1760291000828,,,,,,,,,,,,,,,18,001,2024-09-12_15h18.09.227,robot_cogshifting_sign,2022.2.5,59.86729820962966,
"['L_Arm_Z_Back', 'L_Head_Z_For', 'R_Arm_Z_For', 'L_Arm_Y_For']","{'laterality': 'R_Arm_Z_For', 'localisation': 'L_Head_Z_For', 'movement': 'L_Arm_Y_For'}",laterality,['laterality'],R_Arm_Z_For,2,1,robot,2,False,True,"['robot_stimuli\\L_Arm_Z_Back.mp4', 'robot_stimuli\\L_Head_Z_For.mp4', 'robot_stimuli\\R_Arm_Z_For.mp4', 'robot_stimuli\\L_Arm_Y_For.mp4']",robot_stimuli\R_Arm_Z_For.mp4,18,0,0,0,0,0,11,11,11,,,,,,,,,,,,,,,,,,,,,450.42362659983337,450.42362659983337,None,,450.42362659983337,451.4255920997821,,,468.3255846002139,468.3255846002139,468.3255846002139,3,0.5543364998884499,468.9434397998266,473.30199330020696,468.9434397998266,473.30199330020696,468.9434397998266,473.30199330020696,468.9434397998266,473.30199330020696,27.698412698412696,2.5312702995724976,space,450.42362659983337,450.42362659983337,451.4255920997821,453.51307930005714,4.280919999815524,464.68501089978963,,,,,,,,,,,,,,,18,001,2024-09-12_15h18.09.227,robot_cogshifting_sign,2022.2.5,59.86729820962966,
"['L_Head_Y_For', 'R_Head_Y_Back', 'R_Torso_Y_For', 'R_Head_X_For']","{'laterality': 'L_Head_Y_For', 'localisation': 'R_Torso_Y_For', 'movement': 'R_Head_X_For'}",localisation,"['laterality', 'localisation']",R_Torso_Y_For,2,2,robot,2,True,False,"['robot_stimuli\\L_Head_Y_For.mp4', 'robot_stimuli\\R_Head_Y_Back.mp4', 'robot_stimuli\\R_Torso_Y_For.mp4', 'robot_stimuli\\R_Head_X_For.mp4']",robot_stimuli\R_Torso_Y_For.mp4,18,0,0,0,0,0,12,12,12,,,,,,,,,,,,,,,,,,,,,473.30199330020696,473.30199330020696,space,0.8658535000868142,474.1870789998211,475.18901909980923,,,492.1056412002072,492.1056412002072,492.1056412002072,2,6.094518200028688,498.21770620020106,498.21770620020106,498.21770620020106,498.21770620020106,498.21770620020106,498.21770620020106,498.21770620020106,498.21770620020106,None,None,None,,,,,,488.46519890008494,,,,,,,,,,,,,,,18,001,2024-09-12_15h18.09.227,robot_cogshifting_sign,2022.2.5,59.86729820962966,
"['R_Arm_Y_Back', 'L_Base_Y_Back', 'L_Arm_Y_Back', 'L_Arm_Z_Back']","{'laterality': 'R_Arm_Y_Back', 'localisation': 'L_Base_Y_Back', 'movement': 'L_Arm_Z_Back'}",laterality,"['laterality', 'movement']",R_Arm_Y_Back,0,2,robot,2,False,False,"['robot_stimuli\\R_Arm_Y_Back.mp4', 'robot_stimuli\\L_Base_Y_Back.mp4', 'robot_stimuli\\L_Arm_Y_Back.mp4', 'robot_stimuli\\L_Arm_Z_Back.mp4']",robot_stimuli\R_Arm_Y_Back.mp4,18,0,0,0,0,0,13,13,13,,,,,,,,,,,,,,,,,,,,,498.21770620020106,498.21770620020106,None,,498.21770620020106,499.2196863000281,,,516.0694999000989,516.0694999000989,516.0694999000989,1,2.0259682997129858,518.1235480001196,518.1235480001196,518.1235480001196,518.1235480001196,518.1235480001196,518.1235480001196,518.1235480001196,518.1235480001196,None,None,None,498.21770620020106,498.21770620020106,499.2196863000281,501.32379909977317,,512.4290769998915,,,,,,,,,,,,,,,18,001,2024-09-12_15h18.09.227,robot_cogshifting_sign,2022.2.5,59.86729820962966,
"['L_Base_X_Back', 'R_Base_X_For', 'L_Base_Y_Back', 'L_Arm_X_Back']","{'laterality': 'R_Base_X_For', 'localisation': 'L_Arm_X_Back', 'movement': 'L_Base_Y_Back'}",movement,"['laterality', 'movement']",L_Base_Y_Back,2,2,robot,2,False,True,"['robot_stimuli\\L_Base_X_Back.mp4', 'robot_stimuli\\R_Base_X_For.mp4', 'robot_stimuli\\L_Base_Y_Back.mp4', 'robot_stimuli\\L_Arm_X_Back.mp4']",robot_stimuli\L_Base_Y_Back.mp4,18,0,0,0,0,0,14,14,14,,,,,,,,,,,,,,,,,,,,,518.1235480001196,518.1235480001196,None,,518.1235480001196,519.1255101999268,,,535.808594699949,535.808594699949,535.808594699949,3,4.543279499746859,540.41745790001,542.6217904998921,540.41745790001,542.6217904998921,540.41745790001,542.6217904998921,540.41745790001,542.6217904998921,52.46031746031746,1.879108500201255,space,518.1235480001196,518.1235480001196,519.1255101999268,521.212946599815,2.150498299859464,532.1683113002218,,,,,,,,,,,,,,,18,001,2024-09-12_15h18.09.227,robot_cogshifting_sign,2022.2.5,59.86729820962966,
"['R_Torso_X_Back', 'L_Torso_Y_For', 'R_Base_Y_Back', 'R_Torso_Y_Back']","{'laterality': 'L_Torso_Y_For', 'localisation': 'R_Base_Y_Back', 'movement': 'R_Torso_X_Back'}",localisation,"['laterality', 'localisation', 'movement']",R_Base_Y_Back,2,3,robot,2,True,False,"['robot_stimuli\\R_Torso_X_Back.mp4', 'robot_stimuli\\L_Torso_Y_For.mp4', 'robot_stimuli\\R_Base_Y_Back.mp4', 'robot_stimuli\\R_Torso_Y_Back.mp4']",robot_stimuli\R_Base_Y_Back.mp4,18,0,0,0,0,0,15,15,15,,,,,,,,,,,,,,,,,,,,,542.6217904998921,542.6217904998921,space,0.5615711994469166,543.2062375000678,544.2081896001473,,,561.1415651999414,561.1415651999414,561.1415651999414,2,4.106338399928063,565.2663447000086,565.2663447000086,565.2663447000086,565.2663447000086,565.2663447000086,565.2663447000086,565.2663447000086,565.2663447000086,None,None,None,,,,,,557.4843505001627,,,,,,,,,,,,,,,18,001,2024-09-12_15h18.09.227,robot_cogshifting_sign,2022.2.5,59.86729820962966,
"['R_Head_Z_Back', 'R_Torso_X_For', 'R_Head_X_For', 'L_Head_X_For']","{'laterality': 'L_Head_X_For', 'localisation': 'R_Torso_X_For', 'movement': 'R_Head_Z_Back'}",laterality,"['laterality', 'localisation', 'movement']",L_Head_X_For,3,3,robot,2,False,False,"['robot_stimuli\\R_Head_Z_Back.mp4', 'robot_stimuli\\R_Torso_X_For.mp4', 'robot_stimuli\\R_Head_X_For.mp4', 'robot_stimuli\\L_Head_X_For.mp4']",robot_stimuli\L_Head_X_For.mp4,18,0,0,0,0,0,16,16,16,,,,,,,,,,,,,,,,,,,,,565.2663447000086,565.2663447000086,None,,565.2663447000086,566.2682757000439,,,583.1014125999063,583.1014125999063,583.1014125999063,4,1.426781699527055,584.5542872999795,584.5542872999795,584.5542872999795,584.5542872999795,584.5542872999795,584.5542872999795,584.5542872999795,584.5542872999795,None,None,None,565.2663447000086,565.2663447000086,566.2682757000439,568.3557568001561,,579.5277590001933,,,,,,,,,,,,,,,18,001,2024-09-12_15h18.09.227,robot_cogshifting_sign,2022.2.5,59.86729820962966,
"['L_Torso_Y_For', 'R_Torso_Y_For', 'R_Head_Y_Back', 'R_Torso_Z_For']","{'laterality': 'L_Torso_Y_For', 'localisation': 'R_Head_Y_Back', 'movement': 'R_Torso_Z_For'}",movement,"['laterality', 'localisation', 'movement']",R_Torso_Z_For,3,3,robot,2,False,True,"['robot_stimuli\\L_Torso_Y_For.mp4', 'robot_stimuli\\R_Torso_Y_For.mp4', 'robot_stimuli\\R_Head_Y_Back.mp4', 'robot_stimuli\\R_Torso_Z_For.mp4']",robot_stimuli\R_Torso_Z_For.mp4,18,0,0,0,0,0,17,17,17,,,,,,,,,,,,,,,,,,,,,584.5542872999795,584.5542872999795,None,,584.5542872999795,585.55627179984,,,602.4561777999625,602.4561777999625,602.4561777999625,4,1.903346000239253,604.4100882001221,607.2489726999775,604.4100882001221,607.2489726999775,604.4100882001221,607.2489726999775,604.4100882001221,607.2489726999775,52.14285714285714,2.114211400039494,space,584.5542872999795,584.5542872999795,585.55627179984,587.6437826999463,2.7579123000614345,598.8156945002265,,,,,,,,,,,,,,,18,001,2024-09-12_15h18.09.227,robot_cogshifting_sign,2022.2.5,59.86729820962966,
,,,,,,,,,,,,,,0,0,0,0,,,,,,,,,,,,,,,,,,,,,,,,,,,,,,,,,,,,,,,,,,,,,,,,,,,,,,,607.2489726999775,607.2489726999775,607.2489726999775,c,3.26324769994244,,,,,,,,,,18,001,2024-09-12_15h18.09.227,robot_cogshifting_sign,2022.2.5,59.86729820962966,
"['red_left_P_45', 'red_left_T_0', 'red_bottom_J_45', 'blue_left_Z_45']","{'color': 'blue_left_Z_45', 'position': 'red_bottom_J_45', 'orientation': 'red_left_T_0'}",color,"['color', 'orientation', 'position']",blue_left_Z_45,3,3,letter,1,True,False,"['robot_stimuli\\\\filler.mp4', 'robot_stimuli\\\\filler.mp4', 'robot_stimuli\\\\filler.mp4', 'robot_stimuli\\\\filler.mp4']",robot_stimuli\\filler.mp4,18,,,,,,,,,,,,,0,0,0,0,,,,,,,,,,,,,,,,,,615.3983566001989,,,626.1361302998848,626.1361302998848,626.1361302998848,4,4.529011399950832,630.6951764998958,630.6951764998958,630.6951764998958,630.6951764998958,630.6951764998958,630.6951764998958,630.6951764998958,630.6951764998958,None,None,None,,,,,,,,,,,,610.5721869999543,610.5721869999543,space,4.804844799917191,623.9151794998907,626.1361302998848,,,,18,001,2024-09-12_15h18.09.227,robot_cogshifting_sign,2022.2.5,59.86729820962966,
"['blue_left_H_0', 'red_left_K_0', 'blue_left_C_45', 'blue_bottom_F_0']","{'color': 'red_left_K_0', 'position': 'blue_bottom_F_0', 'orientation': 'blue_left_C_45'}",orientation,"['color', 'orientation', 'position']",blue_left_C_45,2,3,letter,1,False,False,"['robot_stimuli\\\\filler.mp4', 'robot_stimuli\\\\filler.mp4', 'robot_stimuli\\\\filler.mp4', 'robot_stimuli\\\\filler.mp4']",robot_stimuli\\filler.mp4,18,,,,,,,,,,,,,0,1,1,1,,,,,,,,,,,,,,,,,,630.6951764998958,,,641.0321041001007,641.0321041001007,641.0321041001007,2,5.575579199939966,646.6264808000997,646.6264808000997,646.6264808000997,646.6264808000997,646.6264808000997,646.6264808000997,646.6264808000997,646.6264808000997,None,None,None,,,,632.7491566999815,,,,,,,,630.6951764998958,630.6951764998958,None,,639.0115644000471,641.0321041001007,630.6951764998958,630.6951764998958,,18,001,2024-09-12_15h18.09.227,robot_cogshifting_sign,2022.2.5,59.86729820962966,
"['red_left_C_45', 'blue_left_M_0', 'red_left_W_0', 'red_right_F_0']","{'color': 'blue_left_M_0', 'position': 'red_right_F_0', 'orientation': 'red_left_C_45'}",position,"['color', 'orientation', 'position']",red_right_F_0,3,3,letter,1,False,False,"['robot_stimuli\\\\filler.mp4', 'robot_stimuli\\\\filler.mp4', 'robot_stimuli\\\\filler.mp4', 'robot_stimuli\\\\filler.mp4']",robot_stimuli\\filler.mp4,18,,,,,,,,,,,,,0,2,2,2,,,,,,,,,,,,,,,,,,646.6264808000997,,,657.3810388999991,657.3810388999991,657.3810388999991,4,2.0906327995471656,659.5018074000254,659.5018074000254,659.5018074000254,659.5018074000254,659.5018074000254,659.5018074000254,659.5018074000254,659.5018074000254,None,None,None,,,,648.6972974999808,,,,,,,,646.6264808000997,646.6264808000997,None,,655.3603489999659,657.3810388999991,646.6264808000997,646.6264808000997,,18,001,2024-09-12_15h18.09.227,robot_cogshifting_sign,2022.2.5,59.86729820962966,
"['red_left_Q_45', 'red_top_V_0', 'red_top_J_45', 'blue_top_Z_45']","{'color': 'blue_top_Z_45', 'position': 'red_left_Q_45', 'orientation': 'red_top_V_0'}",position,"['color', 'orientation', 'position']",red_left_Q_45,0,3,letter,1,False,False,"['robot_stimuli\\\\filler.mp4', 'robot_stimuli\\\\filler.mp4', 'robot_stimuli\\\\filler.mp4', 'robot_stimuli\\\\filler.mp4']",robot_stimuli\\filler.mp4,18,,,,,,,,,,,,,0,3,3,3,,,,,,,,,,,,,,,,,,659.5018074000254,,,670.0225117001683,670.0225117001683,670.0225117001683,1,2.1851409999653697,672.2268770998344,672.2268770998344,672.2268770998344,672.2268770998344,672.2268770998344,672.2268770998344,672.2268770998344,672.2268770998344,None,None,None,,,,661.5726596000604,,,,,,,,659.5018074000254,659.5018074000254,None,,668.0024692998268,670.0225117001683,659.5018074000254,659.5018074000254,,18,001,2024-09-12_15h18.09.227,robot_cogshifting_sign,2022.2.5,59.86729820962966,
"['blue_right_L_0', 'red_right_L_45', 'blue_left_K_45', 'blue_right_R_45']","{'color': 'red_right_L_45', 'position': 'blue_left_K_45', 'orientation': 'blue_right_L_0'}",orientation,"['color', 'orientation', 'position']",blue_right_L_0,0,3,letter,1,False,False,"['robot_stimuli\\\\filler.mp4', 'robot_stimuli\\\\filler.mp4', 'robot_stimuli\\\\filler.mp4', 'robot_stimuli\\\\filler.mp4']",robot_stimuli\\filler.mp4,18,,,,,,,,,,,,,0,4,4,4,,,,,,,,,,,,,,,,,,672.2268770998344,,,682.5805644998327,682.5805644998327,682.5805644998327,2,3.6669280999340117,686.27117000008,686.27117000008,686.27117000008,686.27117000008,686.27117000008,686.27117000008,686.27117000008,686.27117000008,None,None,None,,,,674.2975873998366,,,,,,,,672.2268770998344,672.2268770998344,None,,680.5599882001989,682.5805644998327,672.2268770998344,672.2268770998344,,18,001,2024-09-12_15h18.09.227,robot_cogshifting_sign,2022.2.5,59.86729820962966,
"['red_bottom_T_0', 'blue_bottom_Z_45', 'red_right_V_45', 'red_bottom_L_45']","{'color': 'blue_bottom_Z_45', 'position': 'red_right_V_45', 'orientation': 'red_bottom_T_0'}",position,"['color', 'orientation', 'position']",red_right_V_45,2,3,letter,1,False,False,"['robot_stimuli\\\\filler.mp4', 'robot_stimuli\\\\filler.mp4', 'robot_stimuli\\\\filler.mp4', 'robot_stimuli\\\\filler.mp4']",robot_stimuli\\filler.mp4,18,,,,,,,,,,,,,0,5,5,5,,,,,,,,,,,,,,,,,,686.27117000008,,,696.6081691998988,696.6081691998988,696.6081691998988,3,3.535208699759096,700.1651579998434,700.1651579998434,700.1651579998434,700.1651579998434,700.1651579998434,700.1651579998434,700.1651579998434,700.1651579998434,None,None,None,,,,688.3252817001194,,,,,,,,686.27117000008,686.27117000008,None,,694.5876345997676,696.6081691998988,686.27117000008,686.27117000008,,18,001,2024-09-12_15h18.09.227,robot_cogshifting_sign,2022.2.5,59.86729820962966,
"['red_top_W_0', 'red_right_Q_45', 'red_top_B_45', 'blue_top_M_45']","{'color': 'blue_top_M_45', 'position': 'red_right_Q_45', 'orientation': 'red_top_W_0'}",orientation,"['color', 'orientation', 'position']",red_top_W_0,0,3,letter,1,False,False,"['robot_stimuli\\\\filler.mp4', 'robot_stimuli\\\\filler.mp4', 'robot_stimuli\\\\filler.mp4', 'robot_stimuli\\\\filler.mp4']",robot_stimuli\\filler.mp4,18,,,,,,,,,,,,,0,6,6,6,,,,,,,,,,,,,,,,,,700.1651579998434,,,710.9029887001961,710.9029887001961,710.9029887001961,1,4.088224799837917,715.0110892998055,715.0110892998055,715.0110892998055,715.0110892998055,715.0110892998055,715.0110892998055,715.0110892998055,715.0110892998055,None,None,None,,,,702.2360673998483,,,,,,,,700.1651579998434,700.1651579998434,None,,708.8823953000829,710.9029887001961,700.1651579998434,700.1651579998434,,18,001,2024-09-12_15h18.09.227,robot_cogshifting_sign,2022.2.5,59.86729820962966,
"['blue_top_W_45', 'red_bottom_R_45', 'blue_bottom_P_0', 'blue_bottom_Z_45']","{'color': 'red_bottom_R_45', 'position': 'blue_top_W_45', 'orientation': 'blue_bottom_P_0'}",color,"['color', 'orientation', 'position']",red_bottom_R_45,1,3,letter,1,False,False,"['robot_stimuli\\\\filler.mp4', 'robot_stimuli\\\\filler.mp4', 'robot_stimuli\\\\filler.mp4', 'robot_stimuli\\\\filler.mp4']",robot_stimuli\\filler.mp4,18,,,,,,,,,,,,,0,7,7,7,,,,,,,,,,,,,,,,,,715.0110892998055,,,725.7488127998076,725.7488127998076,725.7488127998076,1,1.6428670999594033,727.4188147000968,727.4188147000968,727.4188147000968,727.4188147000968,727.4188147000968,727.4188147000968,727.4188147000968,727.4188147000968,None,None,None,,,,717.0818905998021,,,,,,,,715.0110892998055,715.0110892998055,None,,723.7283117999323,725.7488127998076,715.0110892998055,715.0110892998055,,18,001,2024-09-12_15h18.09.227,robot_cogshifting_sign,2022.2.5,59.86729820962966,
"['red_top_D_45', 'blue_top_R_0', 'blue_bottom_L_45', 'blue_top_M_45']","{'color': 'red_top_D_45', 'position': 'blue_bottom_L_45', 'orientation': 'blue_top_R_0'}",color,"['color', 'orientation', 'position']",red_top_D_45,0,3,letter,1,False,True,"['robot_stimuli\\\\filler.mp4', 'robot_stimuli\\\\filler.mp4', 'robot_stimuli\\\\filler.mp4', 'robot_stimuli\\\\filler.mp4']",robot_stimuli\\filler.mp4,18,,,,,,,,,,,,,0,8,8,8,,,,,,,,,,,,,,,,,,727.4188147000968,,,737.97297659982,737.97297659982,737.97297659982,1,2.6987037998624146,740.7283650999889,744.4523684000596,740.7283650999889,744.4523684000596,740.7283650999889,744.4523684000596,740.7283650999889,744.4523684000596,54.2063492063492,3.1325337002053857,space,,,,729.4895540000871,3.663341599982232,,,,,,,727.4188147000968,727.4188147000968,None,,735.9532504999079,737.97297659982,727.4188147000968,727.4188147000968,,18,001,2024-09-12_15h18.09.227,robot_cogshifting_sign,2022.2.5,59.86729820962966,
"['red_top_W_45', 'red_left_S_0', 'blue_top_G_0', 'red_top_K_0']","{'color': 'blue_top_G_0', 'position': 'red_left_S_0', 'orientation': 'red_top_W_45'}",position,['position'],red_left_S_0,1,1,letter,1,True,False,"['robot_stimuli\\\\filler.mp4', 'robot_stimuli\\\\filler.mp4', 'robot_stimuli\\\\filler.mp4', 'robot_stimuli\\\\filler.mp4']",robot_stimuli\\filler.mp4,18,,,,,,,,,,,,,0,9,9,9,,,,,,,,,,,,,,,,,,745.5712338001467,,,756.1086026001722,756.1086026001722,756.1086026001722,2,0.5231141000986099,756.6597437001765,756.6597437001765,756.6597437001765,756.6597437001765,756.6597437001765,756.6597437001765,756.6597437001765,756.6597437001765,None,None,None,,,,,,,,,,,,744.4523684000596,744.4523684000596,space,1.0992850000038743,754.0881493999623,756.1086026001722,,,,18,001,2024-09-12_15h18.09.227,robot_cogshifting_sign,2022.2.5,59.86729820962966,
"['red_left_P_45', 'blue_left_Q_0', 'red_right_R_0', 'red_left_T_0']","{'color': 'blue_left_Q_0', 'position': 'red_right_R_0', 'orientation': 'red_left_P_45'}",orientation,['orientation'],red_left_P_45,0,1,letter,1,False,False,"['robot_stimuli\\\\filler.mp4', 'robot_stimuli\\\\filler.mp4', 'robot_stimuli\\\\filler.mp4', 'robot_stimuli\\\\filler.mp4']",robot_stimuli\\filler.mp4,18,,,,,,,,,,,,,0,10,10,10,,,,,,,,,,,,,,,,,,756.6597437001765,,,767.3974986998364,767.3974986998364,767.3974986998364,1,0.40228360006585717,767.831723399926,767.831723399926,767.831723399926,767.831723399926,767.831723399926,767.831723399926,767.831723399926,767.831723399926,None,None,None,,,,758.7138022999279,,,,,,,,756.6597437001765,756.6597437001765,None,,765.3772077001631,767.3974986998364,756.6597437001765,756.6597437001765,,18,001,2024-09-12_15h18.09.227,robot_cogshifting_sign,2022.2.5,59.86729820962966,
"['red_left_C_0', 'blue_left_K_45', 'red_bottom_R_45', 'red_left_J_45']","{'color': 'blue_left_K_45', 'position': 'red_bottom_R_45', 'orientation': 'red_left_C_0'}",color,['color'],blue_left_K_45,1,1,letter,1,False,False,"['robot_stimuli\\\\filler.mp4', 'robot_stimuli\\\\filler.mp4', 'robot_stimuli\\\\filler.mp4', 'robot_stimuli\\\\filler.mp4']",robot_stimuli\\filler.mp4,18,,,,,,,,,,,,,0,11,11,11,,,,,,,,,,,,,,,,,,767.831723399926,,,778.7698829998262,778.7698829998262,778.7698829998262,2,0.3093306994996965,779.1038870001212,779.1038870001212,779.1038870001212,779.1038870001212,779.1038870001212,779.1038870001212,779.1038870001212,779.1038870001212,None,None,None,,,,769.9024876998737,,,,,,,,767.831723399926,767.831723399926,None,,776.7493190001696,778.7698829998262,767.831723399926,767.831723399926,,18,001,2024-09-12_15h18.09.227,robot_cogshifting_sign,2022.2.5,59.86729820962966,
"['red_bottom_P_0', 'red_right_Z_0', 'red_right_B_45', 'blue_right_C_0']","{'color': 'blue_right_C_0', 'position': 'red_bottom_P_0', 'orientation': 'red_right_B_45'}",color,['color'],blue_right_C_0,3,1,letter,1,False,False,"['robot_stimuli\\\\filler.mp4', 'robot_stimuli\\\\filler.mp4', 'robot_stimuli\\\\filler.mp4', 'robot_stimuli\\\\filler.mp4']",robot_stimuli\\filler.mp4,18,,,,,,,,,,,,,0,12,12,12,,,,,,,,,,,,,,,,,,779.1038870001212,,,789.824963899795,789.824963899795,789.824963899795,4,0.24700739979743958,790.0921987001784,790.0921987001784,790.0921987001784,790.0921987001784,790.0921987001784,790.0921987001784,790.0921987001784,790.0921987001784,None,None,None,,,,781.1579831000417,,,,,,,,779.1038870001212,779.1038870001212,None,,787.6207205001265,789.824963899795,779.1038870001212,779.1038870001212,,18,001,2024-09-12_15h18.09.227,robot_cogshifting_sign,2022.2.5,59.86729820962966,
"['red_bottom_B_0', 'blue_bottom_V_0', 'blue_top_Q_0', 'blue_bottom_X_45']","{'color': 'red_bottom_B_0', 'position': 'blue_top_Q_0', 'orientation': 'blue_bottom_X_45'}",position,['position'],blue_top_Q_0,2,1,letter,1,False,False,"['robot_stimuli\\\\filler.mp4', 'robot_stimuli\\\\filler.mp4', 'robot_stimuli\\\\filler.mp4', 'robot_stimuli\\\\filler.mp4']",robot_stimuli\\filler.mp4,18,,,,,,,,,,,,,0,13,13,13,,,,,,,,,,,,,,,,,,790.0921987001784,,,800.6296159001067,800.6296159001067,800.6296159001067,2,5.225890299770981,805.8899237001315,805.8899237001315,805.8899237001315,805.8899237001315,805.8899237001315,805.8899237001315,805.8899237001315,805.8899237001315,None,None,None,,,,792.162994899787,,,,,,,,790.0921987001784,790.0921987001784,None,,798.6091359001584,800.6296159001067,790.0921987001784,790.0921987001784,,18,001,2024-09-12_15h18.09.227,robot_cogshifting_sign,2022.2.5,59.86729820962966,
"['blue_bottom_L_45', 'blue_bottom_Z_0', 'blue_top_Q_0', 'red_bottom_J_0']","{'color': 'red_bottom_J_0', 'position': 'blue_top_Q_0', 'orientation': 'blue_bottom_L_45'}",color,['color'],red_bottom_J_0,3,1,letter,1,False,False,"['robot_stimuli\\\\filler.mp4', 'robot_stimuli\\\\filler.mp4', 'robot_stimuli\\\\filler.mp4', 'robot_stimuli\\\\filler.mp4']",robot_stimuli\\filler.mp4,18,,,,,,,,,,,,,0,14,14,14,,,,,,,,,,,,,,,,,,805.8899237001315,,,816.8281140998006,816.8281140998006,816.8281140998006,4,0.22018809989094734,817.0786140998825,817.0786140998825,817.0786140998825,817.0786140998825,817.0786140998825,817.0786140998825,817.0786140998825,817.0786140998825,None,None,None,,,,,,,,,,,,805.8899237001315,805.8899237001315,None,,814.6071168999188,816.8281140998006,805.8899237001315,805.8899237001315,,18,001,2024-09-12_15h18.09.227,robot_cogshifting_sign,2022.2.5,59.86729820962966,
"['blue_left_Z_45', 'red_left_N_0', 'red_left_T_45', 'red_bottom_D_45']","{'color': 'blue_left_Z_45', 'position': 'red_bottom_D_45', 'orientation': 'red_left_N_0'}",position,['position'],red_bottom_D_45,3,1,letter,1,False,False,"['robot_stimuli\\\\filler.mp4', 'robot_stimuli\\\\filler.mp4', 'robot_stimuli\\\\filler.mp4', 'robot_stimuli\\\\filler.mp4']",robot_stimuli\\filler.mp4,18,,,,,,,,,,,,,0,15,15,15,,,,,,,,,,,,,,,,,,817.0786140998825,,,827.616057800129,827.616057800129,827.616057800129,4,0.42376469960436225,828.0669774999842,828.0669774999842,828.0669774999842,828.0669774999842,828.0669774999842,828.0669774999842,828.0669774999842,828.0669774999842,None,None,None,,,,819.1494136000983,,,,,,,,817.0786140998825,817.0786140998825,None,,825.595465300139,827.616057800129,817.0786140998825,817.0786140998825,,18,001,2024-09-12_15h18.09.227,robot_cogshifting_sign,2022.2.5,59.86729820962966,
"['blue_top_D_0', 'red_top_G_45', 'red_top_T_0', 'red_left_N_0']","{'color': 'blue_top_D_0', 'position': 'red_left_N_0', 'orientation': 'red_top_G_45'}",orientation,['orientation'],red_top_G_45,1,1,letter,1,False,False,"['robot_stimuli\\\\filler.mp4', 'robot_stimuli\\\\filler.mp4', 'robot_stimuli\\\\filler.mp4', 'robot_stimuli\\\\filler.mp4']",robot_stimuli\\filler.mp4,18,,,,,,,,,,,,,0,16,16,16,,,,,,,,,,,,,,,,,,828.0669774999842,,,839.005092700012,839.005092700012,839.005092700012,2,0.4910854999907315,839.5228173001669,839.5228173001669,839.5228173001669,839.5228173001669,839.5228173001669,839.5228173001669,839.5228173001669,839.5228173001669,None,None,None,,,,830.1376788001508,,,,,,,,828.0669774999842,828.0669774999842,None,,836.7840971997939,839.005092700012,828.0669774999842,828.0669774999842,,18,001,2024-09-12_15h18.09.227,robot_cogshifting_sign,2022.2.5,59.86729820962966,
"['blue_bottom_G_0', 'blue_bottom_L_45', 'red_bottom_B_0', 'blue_left_X_0']","{'color': 'red_bottom_B_0', 'position': 'blue_left_X_0', 'orientation': 'blue_bottom_L_45'}",orientation,['orientation'],blue_bottom_L_45,1,1,letter,1,False,True,"['robot_stimuli\\\\filler.mp4', 'robot_stimuli\\\\filler.mp4', 'robot_stimuli\\\\filler.mp4', 'robot_stimuli\\\\filler.mp4']",robot_stimuli\\filler.mp4,18,,,,,,,,,,,,,0,17,17,17,,,,,,,,,,,,,,,,,,839.5228173001669,,,849.8598070000298,849.8598070000298,849.8598070000298,2,0.5394929996691644,850.460992900189,852.9492331999354,850.460992900189,852.9492331999354,850.460992900189,852.9492331999354,850.460992900189,852.9492331999354,31.66666666666667,2.1301767998375,space,,,,841.5768340998329,2.4346803999505937,,,,,,,839.5228173001669,839.5228173001669,None,,847.8392956000753,849.8598070000298,839.5228173001669,839.5228173001669,,18,001,2024-09-12_15h18.09.227,robot_cogshifting_sign,2022.2.5,59.86729820962966,
"['red_left_V_0', 'red_left_K_45', 'blue_left_B_0', 'red_right_B_0']","{'color': 'blue_left_B_0', 'position': 'red_right_B_0', 'orientation': 'red_left_K_45'}",orientation,"['orientation', 'position']",red_left_K_45,1,2,letter,1,True,False,"['robot_stimuli\\\\filler.mp4', 'robot_stimuli\\\\filler.mp4', 'robot_stimuli\\\\filler.mp4', 'robot_stimuli\\\\filler.mp4']",robot_stimuli\\filler.mp4,18,,,,,,,,,,,,,0,18,18,18,,,,,,,,,,,,,,,,,,854.1015479001217,,,865.0397029998712,865.0397029998712,865.0397029998712,2,0.5677501000463963,865.6241704002023,865.6241704002023,865.6241704002023,865.6241704002023,865.6241704002023,865.6241704002023,865.6241704002023,865.6241704002023,None,None,None,,,,,,,,,,,,852.9492331999354,852.9492331999354,space,1.1221529999747872,862.8187894998118,865.0397029998712,,,,18,001,2024-09-12_15h18.09.227,robot_cogshifting_sign,2022.2.5,59.86729820962966,
"['red_left_P_0', 'blue_top_W_0', 'blue_left_C_45', 'blue_left_L_0']","{'color': 'red_left_P_0', 'position': 'blue_top_W_0', 'orientation': 'blue_left_C_45'}",orientation,"['orientation', 'position']",blue_left_C_45,2,2,letter,1,False,False,"['robot_stimuli\\\\filler.mp4', 'robot_stimuli\\\\filler.mp4', 'robot_stimuli\\\\filler.mp4', 'robot_stimuli\\\\filler.mp4']",robot_stimuli\\filler.mp4,18,,,,,,,,,,,,,0,19,19,19,,,,,,,,,,,,,,,,,,865.6241704002023,,,876.1615884997882,876.1615884997882,876.1615884997882,2,8.829894399736077,885.0123231997713,885.0123231997713,885.0123231997713,885.0123231997713,885.0123231997713,885.0123231997713,885.0123231997713,885.0123231997713,None,None,None,,,,867.6949595999904,,,,,,,,865.6241704002023,865.6241704002023,None,,874.1410909998231,876.1615884997882,865.6241704002023,865.6241704002023,,18,001,2024-09-12_15h18.09.227,robot_cogshifting_sign,2022.2.5,59.86729820962966,
"['blue_left_H_45', 'red_left_G_45', 'red_bottom_L_45', 'red_left_W_0']","{'color': 'blue_left_H_45', 'position': 'red_bottom_L_45', 'orientation': 'red_left_W_0'}",position,"['color', 'position']",red_bottom_L_45,2,2,letter,1,False,False,"['robot_stimuli\\\\filler.mp4', 'robot_stimuli\\\\filler.mp4', 'robot_stimuli\\\\filler.mp4', 'robot_stimuli\\\\filler.mp4']",robot_stimuli\\filler.mp4,18,,,,,,,,,,,,,0,20,20,20,,,,,,,,,,,,,,,,,,885.0123231997713,,,895.7668563001789,895.7668563001789,895.7668563001789,3,3.576280599925667,899.3739570998587,899.3739570998587,899.3739570998587,899.3739570998587,899.3739570998587,899.3739570998587,899.3739570998587,899.3739570998587,None,None,None,,,,887.0831933999434,,,,,,,,885.0123231997713,885.0123231997713,None,,893.5625251000747,895.7668563001789,885.0123231997713,885.0123231997713,,18,001,2024-09-12_15h18.09.227,robot_cogshifting_sign,2022.2.5,59.86729820962966,
"['blue_right_Q_0', 'red_left_P_0', 'red_right_W_0', 'red_right_M_45']","{'color': 'blue_right_Q_0', 'position': 'red_left_P_0', 'orientation': 'red_right_M_45'}",color,"['color', 'position']",blue_right_Q_0,0,2,letter,1,False,False,"['robot_stimuli\\\\filler.mp4', 'robot_stimuli\\\\filler.mp4', 'robot_stimuli\\\\filler.mp4', 'robot_stimuli\\\\filler.mp4']",robot_stimuli\\filler.mp4,18,,,,,,,,,,,,,0,21,21,21,,,,,,,,,,,,,,,,,,899.3739570998587,,,910.3121277000755,910.3121277000755,910.3121277000755,1,1.4869816000573337,911.8317823000252,911.8317823000252,911.8317823000252,911.8317823000252,911.8317823000252,911.8317823000252,911.8317823000252,911.8317823000252,None,None,None,,,,901.4447332001291,,,,,,,,899.3739570998587,899.3739570998587,None,,908.0911698997952,910.3121277000755,899.3739570998587,899.3739570998587,,18,001,2024-09-12_15h18.09.227,robot_cogshifting_sign,2022.2.5,59.86729820962966,
"['red_bottom_S_45', 'blue_bottom_M_0', 'red_bottom_C_0', 'red_left_Q_0']","{'color': 'blue_bottom_M_0', 'position': 'red_left_Q_0', 'orientation': 'red_bottom_S_45'}",position,"['color', 'position']",red_left_Q_0,3,2,letter,1,False,False,"['robot_stimuli\\\\filler.mp4', 'robot_stimuli\\\\filler.mp4', 'robot_stimuli\\\\filler.mp4', 'robot_stimuli\\\\filler.mp4']",robot_stimuli\\filler.mp4,18,,,,,,,,,,,,,0,22,22,22,,,,,,,,,,,,,,,,,,911.8317823000252,,,922.9870752999559,922.9870752999559,922.9870752999559,4,2.412682299967855,925.4252411997877,925.4252411997877,925.4252411997877,925.4252411997877,925.4252411997877,925.4252411997877,925.4252411997877,925.4252411997877,None,None,None,,,,913.9025743999518,,,,,,,,911.8317823000252,911.8317823000252,None,,920.7661798000336,922.9870752999559,911.8317823000252,911.8317823000252,,18,001,2024-09-12_15h18.09.227,robot_cogshifting_sign,2022.2.5,59.86729820962966,
"['red_left_M_45', 'blue_left_G_0', 'red_left_L_0', 'red_bottom_T_0']","{'color': 'blue_left_G_0', 'position': 'red_bottom_T_0', 'orientation': 'red_left_M_45'}",position,"['orientation', 'position']",red_bottom_T_0,3,2,letter,1,False,False,"['robot_stimuli\\\\filler.mp4', 'robot_stimuli\\\\filler.mp4', 'robot_stimuli\\\\filler.mp4', 'robot_stimuli\\\\filler.mp4']",robot_stimuli\\filler.mp4,18,,,,,,,,,,,,,0,23,23,23,,,,,,,,,,,,,,,,,,925.4252411997877,,,936.163041499909,936.163041499909,936.163041499909,4,0.9084646003320813,937.0981854000129,937.0981854000129,937.0981854000129,937.0981854000129,937.0981854000129,937.0981854000129,937.0981854000129,937.0981854000129,None,None,None,,,,927.4960209000856,,,,,,,,925.4252411997877,925.4252411997877,None,,934.1424929997884,936.163041499909,925.4252411997877,925.4252411997877,,18,001,2024-09-12_15h18.09.227,robot_cogshifting_sign,2022.2.5,59.86729820962966,
"['blue_top_V_45', 'red_bottom_J_45', 'red_top_T_0', 'red_top_K_45']","{'color': 'blue_top_V_45', 'position': 'red_bottom_J_45', 'orientation': 'red_top_T_0'}",orientation,"['orientation', 'position']",red_top_T_0,2,2,letter,1,False,False,"['robot_stimuli\\\\filler.mp4', 'robot_stimuli\\\\filler.mp4', 'robot_stimuli\\\\filler.mp4', 'robot_stimuli\\\\filler.mp4']",robot_stimuli\\filler.mp4,18,,,,,,,,,,,,,0,24,24,24,,,,,,,,,,,,,,,,,,937.0981854000129,,,947.6523182000965,947.6523182000965,947.6523182000965,3,1.3073871997185051,948.988245499786,948.988245499786,948.988245499786,948.988245499786,948.988245499786,948.988245499786,948.988245499786,948.988245499786,None,None,None,,,,939.1689157001674,,,,,,,,937.0981854000129,937.0981854000129,None,,945.6317051001824,947.6523182000965,937.0981854000129,937.0981854000129,,18,001,2024-09-12_15h18.09.227,robot_cogshifting_sign,2022.2.5,59.86729820962966,
"['blue_left_C_0', 'blue_bottom_S_0', 'blue_left_G_45', 'red_left_M_0']","{'color': 'red_left_M_0', 'position': 'blue_bottom_S_0', 'orientation': 'blue_left_G_45'}",color,"['color', 'orientation']",red_left_M_0,3,2,letter,1,False,False,"['robot_stimuli\\\\filler.mp4', 'robot_stimuli\\\\filler.mp4', 'robot_stimuli\\\\filler.mp4', 'robot_stimuli\\\\filler.mp4']",robot_stimuli\\filler.mp4,18,,,,,,,,,,,,,0,25,25,25,,,,,,,,,,,,,,,,,,948.988245499786,,,959.5424240999855,959.5424240999855,959.5424240999855,4,2.1452448000200093,961.7133316001855,961.7133316001855,961.7133316001855,961.7133316001855,961.7133316001855,961.7133316001855,961.7133316001855,961.7133316001855,None,None,None,,,,951.0423049000092,,,,,,,,948.988245499786,948.988245499786,None,,957.506454099901,959.5424240999855,948.988245499786,948.988245499786,,18,001,2024-09-12_15h18.09.227,robot_cogshifting_sign,2022.2.5,59.86729820962966,
"['red_left_W_45', 'blue_left_W_45', 'blue_left_Q_0', 'blue_top_P_45']","{'color': 'red_left_W_45', 'position': 'blue_top_P_45', 'orientation': 'blue_left_Q_0'}",color,"['color', 'position']",red_left_W_45,0,2,letter,1,False,True,"['robot_stimuli\\\\filler.mp4', 'robot_stimuli\\\\filler.mp4', 'robot_stimuli\\\\filler.mp4', 'robot_stimuli\\\\filler.mp4']",robot_stimuli\\filler.mp4,18,,,,,,,,,,,,,0,26,26,26,,,,,,,,,,,,,,,,,,961.7133316001855,,,972.6682041999884,972.6682041999884,972.6682041999884,1,0.7319471999071538,973.4530381998047,976.1250193999149,973.4530381998047,976.1250193999149,973.4530381998047,976.1250193999149,973.4530381998047,976.1250193999149,41.66666666666667,2.1657932000234723,space,,,,963.7840311001055,2.5950223999097943,,,,,,,961.7133316001855,961.7133316001855,None,,970.4638299997896,972.6682041999884,961.7133316001855,961.7133316001855,,18,001,2024-09-12_15h18.09.227,robot_cogshifting_sign,2022.2.5,59.86729820962966,
"['L_Torso_Z_Back', 'R_Torso_Y_For', 'L_Head_Y_For', 'L_Torso_Y_For']","{'laterality': 'R_Torso_Y_For', 'localisation': 'L_Head_Y_For', 'movement': 'L_Torso_Z_Back'}",movement,"['laterality', 'localisation', 'movement']",L_Torso_Z_Back,0,3,robot,2,True,False,"['robot_stimuli\\L_Torso_Z_Back.mp4', 'robot_stimuli\\R_Torso_Y_For.mp4', 'robot_stimuli\\L_Head_Y_For.mp4', 'robot_stimuli\\L_Torso_Y_For.mp4']",robot_stimuli\L_Torso_Z_Back.mp4,18,,,,,,,,,,,,,0,27,27,27,,,,,,,,,,,,,,,,,,982.2537251999602,,,999.0200563999824,999.0200563999824,999.0200563999824,3,6.243708999827504,1005.2823797999881,1005.2823797999881,1005.2823797999881,1005.2823797999881,1005.2823797999881,1005.2823797999881,1005.2823797999881,1005.2823797999881,None,None,None,,,,,,,,,,,,976.1250193999149,976.1250193999149,space,6.098595499992371,,,,,995.3795627998188,18,001,2024-09-12_15h18.09.227,robot_cogshifting_sign,2022.2.5,59.86729820962966,
"['L_Arm_Y_For', 'L_Torso_X_For', 'R_Arm_X_Back', 'L_Arm_X_For']","{'laterality': 'R_Arm_X_Back', 'localisation': 'L_Torso_X_For', 'movement': 'L_Arm_Y_For'}",movement,"['laterality', 'localisation', 'movement']",L_Arm_Y_For,0,3,robot,2,False,False,"['robot_stimuli\\L_Arm_Y_For.mp4', 'robot_stimuli\\L_Torso_X_For.mp4', 'robot_stimuli\\R_Arm_X_Back.mp4', 'robot_stimuli\\L_Arm_X_For.mp4']",robot_stimuli\L_Arm_Y_For.mp4,18,,,,,,,,,,,,,0,28,28,28,,,,,,,,,,,,,,,,,,1005.2823797999881,,,1022.1656076000072,1022.1656076000072,1022.1656076000072,2,3.13827019976452,1025.3218141999096,1025.3218141999096,1025.3218141999096,1025.3218141999096,1025.3218141999096,1025.3218141999096,1025.3218141999096,1025.3218141999096,None,None,None,,,,1007.369857700076,,,,,,,,1005.2823797999881,1005.2823797999881,None,,,,1005.2823797999881,1005.2823797999881,1018.5251283999532,18,001,2024-09-12_15h18.09.227,robot_cogshifting_sign,2022.2.5,59.86729820962966,
"['L_Base_Z_For', 'L_Base_X_For', 'L_Head_Z_Back', 'R_Base_Z_For']","{'laterality': 'R_Base_Z_For', 'localisation': 'L_Head_Z_Back', 'movement': 'L_Base_X_For'}",laterality,"['laterality', 'localisation', 'movement']",R_Base_Z_For,3,3,robot,2,False,False,"['robot_stimuli\\L_Base_Z_For.mp4', 'robot_stimuli\\L_Base_X_For.mp4', 'robot_stimuli\\L_Head_Z_Back.mp4', 'robot_stimuli\\R_Base_Z_For.mp4']",robot_stimuli\R_Base_Z_For.mp4,18,,,,,,,,,,,,,0,29,29,29,,,,,,,,,,,,,,,,,,1025.3218141999096,,,1042.154939999804,1042.154939999804,1042.154939999804,4,1.1900131995789707,1043.3740467000753,1043.3740467000753,1043.3740467000753,1043.3740467000753,1043.3740467000753,1043.3740467000753,1043.3740467000753,1043.3740467000753,None,None,None,,,,1027.4092528000474,,,,,,,,1025.3218141999096,1025.3218141999096,None,,,,1025.3218141999096,1025.3218141999096,1038.514466600027,18,001,2024-09-12_15h18.09.227,robot_cogshifting_sign,2022.2.5,59.86729820962966,
"['R_Torso_Y_Back', 'L_Torso_X_For', 'R_Torso_X_For', 'R_Head_X_For']","{'laterality': 'L_Torso_X_For', 'localisation': 'R_Head_X_For', 'movement': 'R_Torso_Y_Back'}",localisation,"['laterality', 'localisation', 'movement']",R_Head_X_For,3,3,robot,2,False,False,"['robot_stimuli\\R_Torso_Y_Back.mp4', 'robot_stimuli\\L_Torso_X_For.mp4', 'robot_stimuli\\R_Torso_X_For.mp4', 'robot_stimuli\\R_Head_X_For.mp4']",robot_stimuli\R_Head_X_For.mp4,18,,,,,,,,,,,,,0,30,30,30,,,,,,,,,,,,,,,,,,1043.3740467000753,,,1060.2739522000775,1060.2739522000775,1060.2739522000775,4,2.070067399647087,1062.361387200188,1062.361387200188,1062.361387200188,1062.361387200188,1062.361387200188,1062.361387200188,1062.361387200188,1062.361387200188,None,None,None,,,,1045.461519499775,,,,,,,,1043.3740467000753,1043.3740467000753,None,,,,1043.3740467000753,1043.3740467000753,1056.6334449001588,18,001,2024-09-12_15h18.09.227,robot_cogshifting_sign,2022.2.5,59.86729820962966,
"['R_Torso_Y_For', 'R_Head_X_For', 'L_Torso_X_Back', 'R_Torso_X_For']","{'laterality': 'L_Torso_X_Back', 'localisation': 'R_Head_X_For', 'movement': 'R_Torso_Y_For'}",movement,"['laterality', 'localisation', 'movement']",R_Torso_Y_For,0,3,robot,2,False,False,"['robot_stimuli\\R_Torso_Y_For.mp4', 'robot_stimuli\\R_Head_X_For.mp4', 'robot_stimuli\\L_Torso_X_Back.mp4', 'robot_stimuli\\R_Torso_X_For.mp4']",robot_stimuli\R_Torso_Y_For.mp4,18,,,,,,,,,,,,,0,31,31,31,,,,,,,,,,,,,,,,,,1062.361387200188,,,1079.2448784997687,1079.2448784997687,1079.2448784997687,2,3.930909799877554,1083.2023904002272,1083.2023904002272,1083.2023904002272,1083.2023904002272,1083.2023904002272,1083.2023904002272,1083.2023904002272,1083.2023904002272,None,None,None,,,,1064.4323109998368,,,,,,,,1062.361387200188,1062.361387200188,None,,,,1062.361387200188,1062.361387200188,1075.6208048001863,18,001,2024-09-12_15h18.09.227,robot_cogshifting_sign,2022.2.5,59.86729820962966,
"['R_Arm_Z_Back', 'L_Head_Z_Back', 'R_Head_X_Back', 'R_Head_Z_For']","{'laterality': 'L_Head_Z_Back', 'localisation': 'R_Arm_Z_Back', 'movement': 'R_Head_X_Back'}",laterality,"['laterality', 'localisation', 'movement']",L_Head_Z_Back,1,3,robot,2,False,False,"['robot_stimuli\\R_Arm_Z_Back.mp4', 'robot_stimuli\\L_Head_Z_Back.mp4', 'robot_stimuli\\R_Head_X_Back.mp4', 'robot_stimuli\\R_Head_Z_For.mp4']",robot_stimuli\L_Head_Z_Back.mp4,18,,,,,,,,,,,,,0,32,32,32,,,,,,,,,,,,,,,,,,1083.2023904002272,,,1100.1190077997744,1100.1190077997744,1100.1190077997744,2,0.6326866000890732,1100.7703074999154,1100.7703074999154,1100.7703074999154,1100.7703074999154,1100.7703074999154,1100.7703074999154,1100.7703074999154,1100.7703074999154,None,None,None,,,,1085.2898658001795,,,,,,,,1083.2023904002272,1083.2023904002272,None,,,,1083.2023904002272,1083.2023904002272,1096.4785512997769,18,001,2024-09-12_15h18.09.227,robot_cogshifting_sign,2022.2.5,59.86729820962966,
"['L_Arm_Y_For', 'L_Arm_Z_Back', 'R_Arm_Z_Back', 'L_Head_Z_For']","{'laterality': 'R_Arm_Z_Back', 'localisation': 'L_Head_Z_For', 'movement': 'L_Arm_Y_For'}",localisation,"['laterality', 'localisation', 'movement']",L_Head_Z_For,3,3,robot,2,False,False,"['robot_stimuli\\L_Arm_Y_For.mp4', 'robot_stimuli\\L_Arm_Z_Back.mp4', 'robot_stimuli\\R_Arm_Z_Back.mp4', 'robot_stimuli\\L_Head_Z_For.mp4']",robot_stimuli\L_Head_Z_For.mp4,18,,,,,,,,,,,,,0,33,33,33,,,,,,,,,,,,,,,,,,1100.7703074999154,,,1117.6535348999314,1117.6535348999314,1117.6535348999314,4,2.267059199512005,1119.9413703000173,1119.9413703000173,1119.9413703000173,1119.9413703000173,1119.9413703000173,1119.9413703000173,1119.9413703000173,1119.9413703000173,None,None,None,,,,1102.857774999924,,,,,,,,1100.7703074999154,1100.7703074999154,None,,,,1100.7703074999154,1100.7703074999154,1114.0130513999611,18,001,2024-09-12_15h18.09.227,robot_cogshifting_sign,2022.2.5,59.86729820962966,
"['L_Torso_Z_Back', 'R_Torso_X_Back', 'L_Torso_X_For', 'L_Head_X_Back']","{'laterality': 'R_Torso_X_Back', 'localisation': 'L_Head_X_Back', 'movement': 'L_Torso_Z_Back'}",laterality,"['laterality', 'localisation', 'movement']",R_Torso_X_Back,1,3,robot,2,False,False,"['robot_stimuli\\L_Torso_Z_Back.mp4', 'robot_stimuli\\R_Torso_X_Back.mp4', 'robot_stimuli\\L_Torso_X_For.mp4', 'robot_stimuli\\L_Head_X_Back.mp4']",robot_stimuli\R_Torso_X_Back.mp4,18,,,,,,,,,,,,,0,34,34,34,,,,,,,,,,,,,,,,,,1119.9413703000173,,,1136.707668799907,1136.707668799907,1136.707668799907,2,3.4035700000822544,1140.1310991002247,1140.1310991002247,1140.1310991002247,1140.1310991002247,1140.1310991002247,1140.1310991002247,1140.1310991002247,1140.1310991002247,None,None,None,,,,1122.0288215000182,,,,,,,,1119.9413703000173,1119.9413703000173,None,,,,1119.9413703000173,1119.9413703000173,1133.0505297998898,18,001,2024-09-12_15h18.09.227,robot_cogshifting_sign,2022.2.5,59.86729820962966,
"['R_Arm_X_Back', 'L_Arm_Z_For', 'R_Arm_Z_For', 'R_Head_Z_Back']","{'laterality': 'L_Arm_Z_For', 'localisation': 'R_Head_Z_Back', 'movement': 'R_Arm_X_Back'}",localisation,"['laterality', 'localisation', 'movement']",R_Head_Z_Back,3,3,robot,2,False,True,"['robot_stimuli\\R_Arm_X_Back.mp4', 'robot_stimuli\\L_Arm_Z_For.mp4', 'robot_stimuli\\R_Arm_Z_For.mp4', 'robot_stimuli\\R_Head_Z_Back.mp4']",robot_stimuli\R_Head_Z_Back.mp4,18,,,,,,,,,,,,,0,35,35,35,,,,,,,,,,,,,,,,,,1140.1310991002247,,,1157.031059099827,1157.031059099827,1157.031059099827,3,4.47996909962967,1161.5733129000291,1165.5310987001285,1161.5733129000291,1165.5310987001285,1161.5733129000291,1165.5310987001285,1161.5733129000291,1165.5310987001285,63.41269841269842,3.6331792999990284,space,,,,1142.2185666998848,3.8751443000510335,,,,,,,1140.1310991002247,1140.1310991002247,None,,,,1140.1310991002247,1140.1310991002247,1153.3905461998656,18,001,2024-09-12_15h18.09.227,robot_cogshifting_sign,2022.2.5,59.86729820962966,
"['R_Base_Z_For', 'R_Base_Y_For', 'L_Base_Z_Back', 'R_Arm_Z_For']","{'laterality': 'L_Base_Z_Back', 'localisation': 'R_Arm_Z_For', 'movement': 'R_Base_Y_For'}",laterality,['laterality'],L_Base_Z_Back,2,1,robot,2,True,False,"['robot_stimuli\\R_Base_Z_For.mp4', 'robot_stimuli\\R_Base_Y_For.mp4', 'robot_stimuli\\L_Base_Z_Back.mp4', 'robot_stimuli\\R_Arm_Z_For.mp4']",robot_stimuli\L_Base_Z_Back.mp4,18,,,,,,,,,,,,,0,36,36,36,,,,,,,,,,,,,,,,,,1166.9004603000358,,,1183.7836711998098,1183.7836711998098,1183.7836711998098,3,0.35984040005132556,1184.1678001000546,1184.1678001000546,1184.1678001000546,1184.1678001000546,1184.1678001000546,1184.1678001000546,1184.1678001000546,1184.1678001000546,None,None,None,,,,,,,,,,,,1165.5310987001285,1165.5310987001285,space,1.34060679981485,,,,,1180.143217400182,18,001,2024-09-12_15h18.09.227,robot_cogshifting_sign,2022.2.5,59.86729820962966,
"['L_Torso_Z_Back', 'R_Torso_Z_For', 'L_Torso_X_For', 'L_Arm_Z_For']","{'laterality': 'R_Torso_Z_For', 'localisation': 'L_Arm_Z_For', 'movement': 'L_Torso_X_For'}",localisation,['localisation'],L_Arm_Z_For,3,1,robot,2,False,False,"['robot_stimuli\\L_Torso_Z_Back.mp4', 'robot_stimuli\\R_Torso_Z_For.mp4', 'robot_stimuli\\L_Torso_X_For.mp4', 'robot_stimuli\\L_Arm_Z_For.mp4']",robot_stimuli\L_Arm_Z_For.mp4,18,,,,,,,,,,,,,0,37,37,37,,,,,,,,,,,,,,,,,,1184.1678001000546,,,1200.9341128999367,1200.9341128999367,1200.9341128999367,4,0.2896389001980424,1201.251399199944,1201.251399199944,1201.251399199944,1201.251399199944,1201.251399199944,1201.251399199944,1201.251399199944,1201.251399199944,None,None,None,,,,1186.2553230999038,,,,,,,,1184.1678001000546,1184.1678001000546,None,,,,1184.1678001000546,1184.1678001000546,1197.2769324998371,18,001,2024-09-12_15h18.09.227,robot_cogshifting_sign,2022.2.5,59.86729820962966,
"['L_Base_X_Back', 'L_Base_Z_Back', 'R_Base_Z_For', 'L_Arm_Z_Back']","{'laterality': 'R_Base_Z_For', 'localisation': 'L_Arm_Z_Back', 'movement': 'L_Base_X_Back'}",laterality,['laterality'],R_Base_Z_For,2,1,robot,2,False,False,"['robot_stimuli\\L_Base_X_Back.mp4', 'robot_stimuli\\L_Base_Z_Back.mp4', 'robot_stimuli\\R_Base_Z_For.mp4', 'robot_stimuli\\L_Arm_Z_Back.mp4']",robot_stimuli\R_Base_Z_For.mp4,18,,,,,,,,,,,,,0,38,38,38,,,,,,,,,,,,,,,,,,1201.251399199944,,,1218.1012304001488,1218.1012304001488,1218.1012304001488,4,5.7064176998101175,1223.829160099849,1223.829160099849,1223.829160099849,1223.829160099849,1223.829160099849,1223.829160099849,1223.829160099849,1223.829160099849,None,None,None,,,,1203.338862599805,,,,,,,,1201.251399199944,1201.251399199944,None,,,,1201.251399199944,1201.251399199944,1214.4607873000205,18,001,2024-09-12_15h18.09.227,robot_cogshifting_sign,2022.2.5,59.86729820962966,
"['R_Base_Z_Back', 'L_Torso_Z_Back', 'R_Torso_X_Back', 'R_Torso_Z_For']","{'laterality': 'L_Torso_Z_Back', 'localisation': 'R_Base_Z_Back', 'movement': 'R_Torso_X_Back'}",movement,['movement'],R_Torso_X_Back,2,1,robot,2,False,False,"['robot_stimuli\\R_Base_Z_Back.mp4', 'robot_stimuli\\L_Torso_Z_Back.mp4', 'robot_stimuli\\R_Torso_X_Back.mp4', 'robot_stimuli\\R_Torso_Z_For.mp4']",robot_stimuli\R_Torso_X_Back.mp4,18,,,,,,,,,,,,,0,39,39,39,,,,,,,,,,,,,,,,,,1223.829160099849,,,1240.4952897001058,1240.4952897001058,1240.4952897001058,3,0.2880746000446379,1240.812598099932,1240.812598099932,1240.812598099932,1240.812598099932,1240.812598099932,1240.812598099932,1240.812598099932,1240.812598099932,None,None,None,,,,1225.9166760002263,,,,,,,,1223.829160099849,1223.829160099849,None,,,,1223.829160099849,1223.829160099849,1236.854834199883,18,001,2024-09-12_15h18.09.227,robot_cogshifting_sign,2022.2.5,59.86729820962966,
"['R_Base_Y_For', 'R_Base_X_For', 'L_Base_X_Back', 'R_Arm_X_Back']","{'laterality': 'L_Base_X_Back', 'localisation': 'R_Arm_X_Back', 'movement': 'R_Base_Y_For'}",laterality,['laterality'],L_Base_X_Back,2,1,robot,2,False,False,"['robot_stimuli\\R_Base_Y_For.mp4', 'robot_stimuli\\R_Base_X_For.mp4', 'robot_stimuli\\L_Base_X_Back.mp4', 'robot_stimuli\\R_Arm_X_Back.mp4']",robot_stimuli\L_Base_X_Back.mp4,18,,,,,,,,,,,,,0,40,40,40,,,,,,,,,,,,,,,,,,1240.812598099932,,,1257.5789458001964,1257.5789458001964,1257.5789458001964,3,0.2925326996482909,1257.8962198002264,1257.8962198002264,1257.8962198002264,1257.8962198002264,1257.8962198002264,1257.8962198002264,1257.8962198002264,1257.8962198002264,None,None,None,,,,1242.9000793001615,,,,,,,,1240.812598099932,1240.812598099932,None,,,,1240.812598099932,1240.812598099932,1253.9217492998578,18,001,2024-09-12_15h18.09.227,robot_cogshifting_sign,2022.2.5,59.86729820962966,
"['L_Base_Y_Back', 'R_Base_Z_For', 'R_Torso_Y_For', 'R_Base_Y_Back']","{'laterality': 'L_Base_Y_Back', 'localisation': 'R_Torso_Y_For', 'movement': 'R_Base_Z_For'}",localisation,['localisation'],R_Torso_Y_For,2,1,robot,2,False,False,"['robot_stimuli\\L_Base_Y_Back.mp4', 'robot_stimuli\\R_Base_Z_For.mp4', 'robot_stimuli\\R_Torso_Y_For.mp4', 'robot_stimuli\\R_Base_Y_Back.mp4']",robot_stimuli\R_Torso_Y_For.mp4,18,,,,,,,,,,,,,0,41,41,41,,,,,,,,,,,,,,,,,,1257.8962198002264,,,1274.7293437002227,1274.7293437002227,1274.7293437002227,3,0.24565939977765083,1274.9965650998056,1274.9965650998056,1274.9965650998056,1274.9965650998056,1274.9965650998056,1274.9965650998056,1274.9965650998056,1274.9965650998056,None,None,None,,,,1259.9836841998622,,,,,,,,1257.8962198002264,1257.8962198002264,None,,,,1257.8962198002264,1257.8962198002264,1271.0721656000242,18,001,2024-09-12_15h18.09.227,robot_cogshifting_sign,2022.2.5,59.86729820962966,
"['R_Arm_Z_Back', 'R_Head_X_Back', 'R_Arm_X_Back', 'L_Arm_X_Back']","{'laterality': 'L_Arm_X_Back', 'localisation': 'R_Head_X_Back', 'movement': 'R_Arm_Z_Back'}",movement,['movement'],R_Arm_Z_Back,0,1,robot,2,False,False,"['robot_stimuli\\R_Arm_Z_Back.mp4', 'robot_stimuli\\R_Head_X_Back.mp4', 'robot_stimuli\\R_Arm_X_Back.mp4', 'robot_stimuli\\L_Arm_X_Back.mp4']",robot_stimuli\R_Arm_Z_Back.mp4,18,,,,,,,,,,,,,0,42,42,42,,,,,,,,,,,,,,,,,,1274.9965650998056,,,1291.896462299861,1291.896462299861,1291.896462299861,1,0.5107848001644015,1292.430874099955,1292.430874099955,1292.430874099955,1292.430874099955,1292.430874099955,1292.430874099955,1292.430874099955,1292.430874099955,None,None,None,,,,1277.0840018000454,,,,,,,,1274.9965650998056,1274.9965650998056,None,,,,1274.9965650998056,1274.9965650998056,1288.2392961001024,18,001,2024-09-12_15h18.09.227,robot_cogshifting_sign,2022.2.5,59.86729820962966,
"['L_Torso_X_For', 'R_Torso_X_For', 'R_Torso_Z_For', 'R_Arm_X_For']","{'laterality': 'L_Torso_X_For', 'localisation': 'R_Arm_X_For', 'movement': 'R_Torso_Z_For'}",localisation,['localisation'],R_Arm_X_For,3,1,robot,2,False,False,"['robot_stimuli\\L_Torso_X_For.mp4', 'robot_stimuli\\R_Torso_X_For.mp4', 'robot_stimuli\\R_Torso_Z_For.mp4', 'robot_stimuli\\R_Arm_X_For.mp4']",robot_stimuli\R_Arm_X_For.mp4,18,,,,,,,,,,,,,0,43,43,43,,,,,,,,,,,,,,,,,,1292.430874099955,,,1309.3308120002039,1309.3308120002039,1309.3308120002039,4,0.3168275998905301,1309.664750199765,1309.664750199765,1309.664750199765,1309.664750199765,1309.664750199765,1309.664750199765,1309.664750199765,1309.664750199765,None,None,None,,,,1294.518341800198,,,,,,,,1292.430874099955,1292.430874099955,None,,,,1292.430874099955,1292.430874099955,1305.6903162999079,18,001,2024-09-12_15h18.09.227,robot_cogshifting_sign,2022.2.5,59.86729820962966,
"['R_Base_Z_Back', 'R_Arm_Z_Back', 'L_Base_Z_For', 'R_Base_X_Back']","{'laterality': 'L_Base_Z_For', 'localisation': 'R_Arm_Z_Back', 'movement': 'R_Base_X_Back'}",movement,['movement'],R_Base_X_Back,3,1,robot,2,False,True,"['robot_stimuli\\R_Base_Z_Back.mp4', 'robot_stimuli\\R_Arm_Z_Back.mp4', 'robot_stimuli\\L_Base_Z_For.mp4', 'robot_stimuli\\R_Base_X_Back.mp4']",robot_stimuli\R_Base_X_Back.mp4,18,,,,,,,,,,,,,0,44,44,44,,,,,,,,,,,,,,,,,,1309.664750199765,,,1326.4812261001207,1326.4812261001207,1326.4812261001207,4,0.27858310006558895,1326.8152115000412,1329.6708129998296,1326.8152115000412,1329.6708129998296,1326.8152115000412,1329.6708129998296,1326.8152115000412,1329.6708129998296,43.88888888888889,2.4978251000866294,space,,,,1311.7522690999322,2.7762867999263108,,,,,,,1309.664750199765,1309.664750199765,None,,,,1309.664750199765,1309.664750199765,1322.8240447998978,18,001,2024-09-12_15h18.09.227,robot_cogshifting_sign,2022.2.5,59.86729820962966,
"['R_Torso_X_For', 'L_Torso_X_For', 'R_Base_X_For', 'R_Torso_Y_For']","{'laterality': 'L_Torso_X_For', 'localisation': 'R_Base_X_For', 'movement': 'R_Torso_Y_For'}",movement,"['localisation', 'movement']",R_Torso_Y_For,3,2,robot,2,True,False,"['robot_stimuli\\R_Torso_X_For.mp4', 'robot_stimuli\\L_Torso_X_For.mp4', 'robot_stimuli\\R_Base_X_For.mp4', 'robot_stimuli\\R_Torso_Y_For.mp4']",robot_stimuli\R_Torso_Y_For.mp4,18,,,,,,,,,,,,,0,45,45,45,,,,,,,,,,,,,,,,,,1330.7396141001955,,,1347.5560090998188,1347.5560090998188,1347.5560090998188,3,2.8035020995885134,1350.3782820999622,1350.3782820999622,1350.3782820999622,1350.3782820999622,1350.3782820999622,1350.3782820999622,1350.3782820999622,1350.3782820999622,None,None,None,,,,,,,,,,,,1329.6708129998296,1329.6708129998296,space,1.049697999842465,,,,,1343.8988243998028,18,001,2024-09-12_15h18.09.227,robot_cogshifting_sign,2022.2.5,59.86729820962966,
"['L_Arm_Z_Back', 'R_Arm_Z_For', 'L_Arm_Y_For', 'L_Head_Z_For']","{'laterality': 'R_Arm_Z_For', 'localisation': 'L_Head_Z_For', 'movement': 'L_Arm_Y_For'}",localisation,"['laterality', 'localisation']",L_Head_Z_For,3,2,robot,2,False,False,"['robot_stimuli\\L_Arm_Z_Back.mp4', 'robot_stimuli\\R_Arm_Z_For.mp4', 'robot_stimuli\\L_Arm_Y_For.mp4', 'robot_stimuli\\L_Head_Z_For.mp4']",robot_stimuli\L_Head_Z_For.mp4,18,,,,,,,,,,,,,0,46,46,46,,,,,,,,,,,,,,,,,,1350.3782820999622,,,1367.2781902998686,1367.2781902998686,1367.2781902998686,4,1.1298984996974468,1368.430449699983,1368.430449699983,1368.430449699983,1368.430449699983,1368.430449699983,1368.430449699983,1368.430449699983,1368.430449699983,None,None,None,,,,1352.4657025998458,,,,,,,,1350.3782820999622,1350.3782820999622,None,,,,1350.3782820999622,1350.3782820999622,1363.6210105000064,18,001,2024-09-12_15h18.09.227,robot_cogshifting_sign,2022.2.5,59.86729820962966,
"['L_Torso_Z_For', 'L_Arm_Z_For', 'L_Torso_X_For', 'R_Torso_Z_Back']","{'laterality': 'R_Torso_Z_Back', 'localisation': 'L_Arm_Z_For', 'movement': 'L_Torso_X_For'}",movement,"['localisation', 'movement']",L_Torso_X_For,2,2,robot,2,False,False,"['robot_stimuli\\L_Torso_Z_For.mp4', 'robot_stimuli\\L_Arm_Z_For.mp4', 'robot_stimuli\\L_Torso_X_For.mp4', 'robot_stimuli\\R_Torso_Z_Back.mp4']",robot_stimuli\L_Torso_X_For.mp4,18,,,,,,,,,,,,,0,47,47,47,,,,,,,,,,,,,,,,,,1368.430449699983,,,1385.3470610999502,1385.3470610999502,1385.3470610999502,2,5.300182600039989,1390.6743042999879,1390.6743042999879,1390.6743042999879,1390.6743042999879,1390.6743042999879,1390.6743042999879,1390.6743042999879,1390.6743042999879,None,None,None,,,,1370.534647199791,,,,,,,,1368.430449699983,1368.430449699983,None,,,,1368.430449699983,1368.430449699983,1381.6898847999983,18,001,2024-09-12_15h18.09.227,robot_cogshifting_sign,2022.2.5,59.86729820962966,
"['L_Torso_X_For', 'R_Head_X_For', 'L_Head_X_Back', 'L_Head_Z_For']","{'laterality': 'R_Head_X_For', 'localisation': 'L_Torso_X_For', 'movement': 'L_Head_Z_For'}",laterality,"['laterality', 'movement']",R_Head_X_For,1,2,robot,2,False,False,"['robot_stimuli\\L_Torso_X_For.mp4', 'robot_stimuli\\R_Head_X_For.mp4', 'robot_stimuli\\L_Head_X_Back.mp4', 'robot_stimuli\\L_Head_Z_For.mp4']",robot_stimuli\R_Head_X_For.mp4,18,,,,,,,,,,,,,0,48,48,48,,,,,,,,,,,,,,,,,,1390.6743042999879,,,1407.5741758001968,1407.5741758001968,1407.5741758001968,2,1.5285912998951972,1409.1272251000628,1409.1272251000628,1409.1272251000628,1409.1272251000628,1409.1272251000628,1409.1272251000628,1409.1272251000628,1409.1272251000628,None,None,None,,,,1392.7616812000051,,,,,,,,1390.6743042999879,1390.6743042999879,None,,,,1390.6743042999879,1390.6743042999879,1403.9169870000333,18,001,2024-09-12_15h18.09.227,robot_cogshifting_sign,2022.2.5,59.86729820962966,
"['R_Base_Z_For', 'L_Arm_Z_Back', 'R_Arm_Y_Back', 'R_Arm_Z_For']","{'laterality': 'L_Arm_Z_Back', 'localisation': 'R_Base_Z_For', 'movement': 'R_Arm_Y_Back'}",laterality,"['laterality', 'localisation']",L_Arm_Z_Back,1,2,robot,2,False,False,"['robot_stimuli\\R_Base_Z_For.mp4', 'robot_stimuli\\L_Arm_Z_Back.mp4', 'robot_stimuli\\R_Arm_Y_Back.mp4', 'robot_stimuli\\R_Arm_Z_For.mp4']",robot_stimuli\L_Arm_Z_Back.mp4,18,,,,,,,,,,,,,0,49,49,49,,,,,,,,,,,,,,,,,,1409.1272251000628,,,1426.010427000001,1426.010427000001,1426.010427000001,2,2.188707699533552,1428.2314939000644,1428.2314939000644,1428.2314939000644,1428.2314939000644,1428.2314939000644,1428.2314939000644,1428.2314939000644,1428.2314939000644,None,None,None,,,,1411.2146864999086,,,,,,,,1409.1272251000628,1409.1272251000628,None,,,,1409.1272251000628,1409.1272251000628,1422.3700426002033,18,001,2024-09-12_15h18.09.227,robot_cogshifting_sign,2022.2.5,59.86729820962966,
"['R_Head_X_Back', 'L_Base_X_Back', 'L_Head_X_For', 'L_Head_Z_For']","{'laterality': 'R_Head_X_Back', 'localisation': 'L_Base_X_Back', 'movement': 'L_Head_Z_For'}",localisation,"['localisation', 'movement']",L_Base_X_Back,1,2,robot,2,False,False,"['robot_stimuli\\R_Head_X_Back.mp4', 'robot_stimuli\\L_Base_X_Back.mp4', 'robot_stimuli\\L_Head_X_For.mp4', 'robot_stimuli\\L_Head_Z_For.mp4']",robot_stimuli\L_Base_X_Back.mp4,18,,,,,,,,,,,,,0,50,50,50,,,,,,,,,,,,,,,,,,1428.2314939000644,,,1445.0312279998325,1445.0312279998325,1445.0312279998325,4,5.872635700274259,1450.926149699837,1450.926149699837,1450.926149699837,1450.926149699837,1450.926149699837,1450.926149699837,1450.926149699837,1450.926149699837,None,None,None,,,,1430.318934999872,,,,,,,,1428.2314939000644,1428.2314939000644,None,,,,1428.2314939000644,1428.2314939000644,1441.3907400998287,18,001,2024-09-12_15h18.09.227,robot_cogshifting_sign,2022.2.5,59.86729820962966,
"['R_Base_Y_Back', 'L_Base_Y_Back', 'R_Base_Z_For', 'R_Head_Y_Back']","{'laterality': 'L_Base_Y_Back', 'localisation': 'R_Head_Y_Back', 'movement': 'R_Base_Z_For'}",laterality,"['laterality', 'localisation']",L_Base_Y_Back,1,2,robot,2,False,False,"['robot_stimuli\\R_Base_Y_Back.mp4', 'robot_stimuli\\L_Base_Y_Back.mp4', 'robot_stimuli\\R_Base_Z_For.mp4', 'robot_stimuli\\R_Head_Y_Back.mp4']",robot_stimuli\L_Base_Y_Back.mp4,18,,,,,,,,,,,,,0,51,51,51,,,,,,,,,,,,,,,,,,1450.926149699837,,,1467.7592854998074,1467.7592854998074,1467.7592854998074,4,7.415595899801701,1475.2072796998546,1475.2072796998546,1475.2072796998546,1475.2072796998546,1475.2072796998546,1475.2072796998546,1475.2072796998546,1475.2072796998546,None,None,None,,,,1453.0136274998076,,,,,,,,1450.926149699837,1450.926149699837,None,,,,1450.926149699837,1450.926149699837,1464.1188257997856,18,001,2024-09-12_15h18.09.227,robot_cogshifting_sign,2022.2.5,59.86729820962966,
"['L_Head_X_For', 'L_Arm_Z_For', 'L_Arm_X_For', 'R_Arm_X_Back']","{'laterality': 'R_Arm_X_Back', 'localisation': 'L_Head_X_For', 'movement': 'L_Arm_Z_For'}",movement,"['laterality', 'movement']",L_Arm_Z_For,1,2,robot,2,False,False,"['robot_stimuli\\L_Head_X_For.mp4', 'robot_stimuli\\L_Arm_Z_For.mp4', 'robot_stimuli\\L_Arm_X_For.mp4', 'robot_stimuli\\R_Arm_X_Back.mp4']",robot_stimuli\L_Arm_Z_For.mp4,18,,,,,,,,,,,,,0,52,52,52,,,,,,,,,,,,,,,,,,1475.2072796998546,,,1492.0403976999223,1492.0403976999223,1492.0403976999223,2,4.262622700072825,1496.3322213999927,1496.3322213999927,1496.3322213999927,1496.3322213999927,1496.3322213999927,1496.3322213999927,1496.3322213999927,1496.3322213999927,None,None,None,,,,1477.2947868001647,,,,,,,,1475.2072796998546,1475.2072796998546,None,,,,1475.2072796998546,1475.2072796998546,1488.3999759000726,18,001,2024-09-12_15h18.09.227,robot_cogshifting_sign,2022.2.5,59.86729820962966,
"['L_Arm_Y_Back', 'L_Arm_Z_For', 'R_Arm_Y_For', 'L_Torso_Y_For']","{'laterality': 'R_Arm_Y_For', 'localisation': 'L_Torso_Y_For', 'movement': 'L_Arm_Z_For'}",localisation,"['laterality', 'localisation']",L_Torso_Y_For,3,2,robot,2,False,True,"['robot_stimuli\\L_Arm_Y_Back.mp4', 'robot_stimuli\\L_Arm_Z_For.mp4', 'robot_stimuli\\R_Arm_Y_For.mp4', 'robot_stimuli\\L_Torso_Y_For.mp4']",robot_stimuli\L_Torso_Y_For.mp4,18,,,,,,,,,,,,,0,53,53,53,,,,,,,,,,,,,,,,,,1496.3322213999927,,,1513.0818095998839,1513.0818095998839,1513.0818095998839,4,2.9823121996596456,1516.12113900017,1519.628047300037,1516.12113900017,1519.628047300037,1516.12113900017,1519.628047300037,1516.12113900017,1519.628047300037,55.47619047619048,2.6812724000774324,space,,,,1498.4196546999738,3.4545974996872246,,,,,,,1496.3322213999927,1496.3322213999927,None,,,,1496.3322213999927,1496.3322213999927,1509.4413251997903,18,001,2024-09-12_15h18.09.227,robot_cogshifting_sign,2022.2.5,59.86729820962966,
"['blue_right_K_45', 'red_right_V_0', 'red_left_L_45', 'red_right_K_45']","{'color': 'blue_right_K_45', 'position': 'red_left_L_45', 'orientation': 'red_right_V_0'}",color,['color'],blue_right_K_45,0,1,letter,3,True,False,"['robot_stimuli\\\\filler.mp4', 'robot_stimuli\\\\filler.mp4', 'robot_stimuli\\\\filler.mp4', 'robot_stimuli\\\\filler.mp4']",robot_stimuli\\filler.mp4,18,,,,,,,,,,,,,0,54,54,54,,,,,,,,,,,,,,,,,,1520.3628512998112,,,1530.71657329984,1530.71657329984,1530.71657329984,1,0.42678190022706985,1531.1674135001376,1531.1674135001376,1531.1674135001376,1531.1674135001376,1531.1674135001376,1531.1674135001376,1531.1674135001376,1531.1674135001376,None,None,None,,,,,,,,,,,,1519.628047300037,1519.628047300037,space,0.7077015996910632,1528.695970799774,1530.71657329984,,,,18,001,2024-09-12_15h18.09.227,robot_cogshifting_sign,2022.2.5,59.86729820962966,
"['red_top_V_45', 'blue_right_F_45', 'blue_top_F_45', 'blue_top_M_0']","{'color': 'red_top_V_45', 'position': 'blue_right_F_45', 'orientation': 'blue_top_M_0'}",color,['color'],red_top_V_45,0,1,letter,3,False,False,"['robot_stimuli\\\\filler.mp4', 'robot_stimuli\\\\filler.mp4', 'robot_stimuli\\\\filler.mp4', 'robot_stimuli\\\\filler.mp4']",robot_stimuli\\filler.mp4,18,,,,,,,,,,,,,0,55,55,55,,,,,,,,,,,,,,,,,,1531.1674135001376,,,1541.7048264998011,1541.7048264998011,1541.7048264998011,1,0.24650169955566525,1541.9720379998907,1541.9720379998907,1541.9720379998907,1541.9720379998907,1541.9720379998907,1541.9720379998907,1541.9720379998907,1541.9720379998907,None,None,None,,,,1533.2382451999001,,,,,,,,1531.1674135001376,1531.1674135001376,None,,1539.6844305000268,1541.7048264998011,1531.1674135001376,1531.1674135001376,,18,001,2024-09-12_15h18.09.227,robot_cogshifting_sign,2022.2.5,59.86729820962966,
"['red_left_Z_0', 'red_left_Q_45', 'red_bottom_Q_45', 'blue_left_G_45']","{'color': 'blue_left_G_45', 'position': 'red_bottom_Q_45', 'orientation': 'red_left_Z_0'}",orientation,['orientation'],red_left_Z_0,0,1,letter,3,False,False,"['robot_stimuli\\\\filler.mp4', 'robot_stimuli\\\\filler.mp4', 'robot_stimuli\\\\filler.mp4', 'robot_stimuli\\\\filler.mp4']",robot_stimuli\\filler.mp4,18,,,,,,,,,,,,,0,56,56,56,,,,,,,,,,,,,,,,,,1541.9720379998907,,,1552.7098495000973,1552.7098495000973,1552.7098495000973,1,0.20940239960327744,1552.9436201998033,1552.9436201998033,1552.9436201998033,1552.9436201998033,1552.9436201998033,1552.9436201998033,1552.9436201998033,1552.9436201998033,None,None,None,,,,1544.042836499866,,,,,,,,1541.9720379998907,1541.9720379998907,None,,1550.488800500054,1552.7098495000973,1541.9720379998907,1541.9720379998907,,18,001,2024-09-12_15h18.09.227,robot_cogshifting_sign,2022.2.5,59.86729820962966,
"['blue_right_F_45', 'blue_top_Q_0', 'blue_top_W_45', 'red_top_L_45']","{'color': 'red_top_L_45', 'position': 'blue_right_F_45', 'orientation': 'blue_top_Q_0'}",position,['position'],blue_right_F_45,0,1,letter,3,False,False,"['robot_stimuli\\\\filler.mp4', 'robot_stimuli\\\\filler.mp4', 'robot_stimuli\\\\filler.mp4', 'robot_stimuli\\\\filler.mp4']",robot_stimuli\\filler.mp4,18,,,,,,,,,,,,,0,57,57,57,,,,,,,,,,,,,,,,,,1552.9436201998033,,,1563.6980849001557,1563.6980849001557,1563.6980849001557,1,0.3573083998635411,1564.0822099000216,1564.0822099000216,1564.0822099000216,1564.0822099000216,1564.0822099000216,1564.0822099000216,1564.0822099000216,1564.0822099000216,None,None,None,,,,1555.0144671001472,,,,,,,,1552.9436201998033,1552.9436201998033,None,,1561.6610809997655,1563.6980849001557,1552.9436201998033,1552.9436201998033,,18,001,2024-09-12_15h18.09.227,robot_cogshifting_sign,2022.2.5,59.86729820962966,
"['red_top_Z_45', 'blue_top_H_45', 'blue_right_N_45', 'blue_top_G_0']","{'color': 'red_top_Z_45', 'position': 'blue_right_N_45', 'orientation': 'blue_top_G_0'}",orientation,['orientation'],blue_top_G_0,3,1,letter,3,False,False,"['robot_stimuli\\\\filler.mp4', 'robot_stimuli\\\\filler.mp4', 'robot_stimuli\\\\filler.mp4', 'robot_stimuli\\\\filler.mp4']",robot_stimuli\\filler.mp4,18,,,,,,,,,,,,,0,58,58,58,,,,,,,,,,,,,,,,,,1564.0822099000216,,,1575.0370875000954,1575.0370875000954,1575.0370875000954,4,0.178897799924016,1575.2374923001043,1575.2374923001043,1575.2374923001043,1575.2374923001043,1575.2374923001043,1575.2374923001043,1575.2374923001043,1575.2374923001043,None,None,None,,,,1566.153056500014,,,,,,,,1564.0822099000216,1564.0822099000216,None,,1572.8161606001668,1575.0370875000954,1564.0822099000216,1564.0822099000216,,18,001,2024-09-12_15h18.09.227,robot_cogshifting_sign,2022.2.5,59.86729820962966,
"['blue_bottom_L_45', 'blue_right_R_45', 'blue_bottom_G_0', 'red_bottom_C_45']","{'color': 'red_bottom_C_45', 'position': 'blue_right_R_45', 'orientation': 'blue_bottom_G_0'}",color,['color'],red_bottom_C_45,3,1,letter,3,False,False,"['robot_stimuli\\\\filler.mp4', 'robot_stimuli\\\\filler.mp4', 'robot_stimuli\\\\filler.mp4', 'robot_stimuli\\\\filler.mp4']",robot_stimuli\\filler.mp4,18,,,,,,,,,,,,,0,59,59,59,,,,,,,,,,,,,,,,,,1575.2374923001043,,,1586.1923740999773,1586.1923740999773,1586.1923740999773,4,0.15120700001716614,1586.3760703997687,1586.3760703997687,1586.3760703997687,1586.3760703997687,1586.3760703997687,1586.3760703997687,1586.3760703997687,1586.3760703997687,None,None,None,,,,1577.3082232000306,,,,,,,,1575.2374923001043,1575.2374923001043,None,,1583.9714325000532,1586.1923740999773,1575.2374923001043,1575.2374923001043,,18,001,2024-09-12_15h18.09.227,robot_cogshifting_sign,2022.2.5,59.86729820962966,
"['blue_bottom_N_45', 'blue_top_H_0', 'red_bottom_F_0', 'blue_bottom_Z_0']","{'color': 'red_bottom_F_0', 'position': 'blue_top_H_0', 'orientation': 'blue_bottom_N_45'}",position,['position'],blue_top_H_0,1,1,letter,3,False,False,"['robot_stimuli\\\\filler.mp4', 'robot_stimuli\\\\filler.mp4', 'robot_stimuli\\\\filler.mp4', 'robot_stimuli\\\\filler.mp4']",robot_stimuli\\filler.mp4,18,,,,,,,,,,,,,0,60,60,60,,,,,,,,,,,,,,,,,,1586.3760703997687,,,1597.1138720000163,1597.1138720000163,1597.1138720000163,2,0.30157099990174174,1597.4478927999735,1597.4478927999735,1597.4478927999735,1597.4478927999735,1597.4478927999735,1597.4478927999735,1597.4478927999735,1597.4478927999735,None,None,None,,,,1588.4468709998764,,,,,,,,1586.3760703997687,1586.3760703997687,None,,1595.0932435002178,1597.1138720000163,1586.3760703997687,1586.3760703997687,,18,001,2024-09-12_15h18.09.227,robot_cogshifting_sign,2022.2.5,59.86729820962966,
"['blue_bottom_W_45', 'blue_right_M_0', 'red_bottom_L_0', 'blue_bottom_Z_0']","{'color': 'red_bottom_L_0', 'position': 'blue_right_M_0', 'orientation': 'blue_bottom_W_45'}",position,['position'],blue_right_M_0,1,1,letter,3,False,False,"['robot_stimuli\\\\filler.mp4', 'robot_stimuli\\\\filler.mp4', 'robot_stimuli\\\\filler.mp4', 'robot_stimuli\\\\filler.mp4']",robot_stimuli\\filler.mp4,18,,,,,,,,,,,,,0,61,61,61,,,,,,,,,,,,,,,,,,1597.4478927999735,,,1608.3863582001068,1608.3863582001068,1608.3863582001068,2,0.22852090001106262,1608.6365050999448,1608.6365050999448,1608.6365050999448,1608.6365050999448,1608.6365050999448,1608.6365050999448,1608.6365050999448,1608.6365050999448,None,None,None,,,,1599.5186789999716,,,,,,,,1597.4478927999735,1597.4478927999735,None,,1606.1817863998003,1608.3863582001068,1597.4478927999735,1597.4478927999735,,18,001,2024-09-12_15h18.09.227,robot_cogshifting_sign,2022.2.5,59.86729820962966,
"['blue_right_V_45', 'blue_left_D_45', 'red_left_W_45', 'blue_left_B_0']","{'color': 'red_left_W_45', 'position': 'blue_right_V_45', 'orientation': 'blue_left_B_0'}",orientation,['orientation'],blue_left_B_0,3,1,letter,3,False,True,"['robot_stimuli\\\\filler.mp4', 'robot_stimuli\\\\filler.mp4', 'robot_stimuli\\\\filler.mp4', 'robot_stimuli\\\\filler.mp4']",robot_stimuli\\filler.mp4,18,,,,,,,,,,,,,0,62,62,62,,,,,,,,,,,,,,,,,,1608.6365050999448,,,1619.5747779998928,1619.5747779998928,1619.5747779998928,4,0.1121068000793457,1619.7417525001802,1622.497171400115,1619.7417525001802,1622.497171400115,1619.7417525001802,1622.497171400115,1619.7417525001802,1622.497171400115,26.746031746031747,2.331119599752128,space,,,,1610.7073869998567,2.6977204997092485,,,,,,,1608.6365050999448,1608.6365050999448,None,,1617.3704923000187,1619.5747779998928,1608.6365050999448,1608.6365050999448,,18,001,2024-09-12_15h18.09.227,robot_cogshifting_sign,2022.2.5,59.86729820962966,
"['red_left_N_0', 'red_left_T_45', 'red_right_L_45', 'blue_left_H_45']","{'color': 'blue_left_H_45', 'position': 'red_right_L_45', 'orientation': 'red_left_N_0'}",color,"['color', 'position']",blue_left_H_45,3,2,letter,3,True,False,"['robot_stimuli\\\\filler.mp4', 'robot_stimuli\\\\filler.mp4', 'robot_stimuli\\\\filler.mp4', 'robot_stimuli\\\\filler.mp4']",robot_stimuli\\filler.mp4,18,,,,,,,,,,,,,0,63,63,63,,,,,,,,,,,,,,,,,,1623.5659659998491,,,1634.5041518998332,1634.5041518998332,1634.5041518998332,4,0.6945597003214061,1635.2222306998447,1635.2222306998447,1635.2222306998447,1635.2222306998447,1635.2222306998447,1635.2222306998447,1635.2222306998447,1635.2222306998447,None,None,None,,,,,,,,,,,,1622.497171400115,1622.497171400115,space,1.0374182998202741,1632.2831427999772,1634.5041518998332,,,,18,001,2024-09-12_15h18.09.227,robot_cogshifting_sign,2022.2.5,59.86729820962966,
"['blue_top_R_0', 'blue_bottom_W_45', 'red_bottom_L_0', 'blue_bottom_G_0']","{'color': 'red_bottom_L_0', 'position': 'blue_top_R_0', 'orientation': 'blue_bottom_W_45'}",color,"['color', 'orientation']",red_bottom_L_0,2,2,letter,3,False,False,"['robot_stimuli\\\\filler.mp4', 'robot_stimuli\\\\filler.mp4', 'robot_stimuli\\\\filler.mp4', 'robot_stimuli\\\\filler.mp4']",robot_stimuli\\filler.mp4,18,,,,,,,,,,,,,0,64,64,64,,,,,,,,,,,,,,,,,,1635.2222306998447,,,1646.1771375001408,1646.1771375001408,1646.1771375001408,3,0.6297540999948978,1646.8284042999148,1646.8284042999148,1646.8284042999148,1646.8284042999148,1646.8284042999148,1646.8284042999148,1646.8284042999148,1646.8284042999148,None,None,None,,,,1637.2930609001778,,,,,,,,1635.2222306998447,1635.2222306998447,None,,1643.9561744001694,1646.1771375001408,1635.2222306998447,1635.2222306998447,,18,001,2024-09-12_15h18.09.227,robot_cogshifting_sign,2022.2.5,59.86729820962966,
"['blue_top_G_0', 'blue_top_D_45', 'red_top_N_0', 'blue_right_W_0']","{'color': 'red_top_N_0', 'position': 'blue_right_W_0', 'orientation': 'blue_top_D_45'}",position,"['color', 'position']",blue_right_W_0,3,2,letter,3,False,False,"['robot_stimuli\\\\filler.mp4', 'robot_stimuli\\\\filler.mp4', 'robot_stimuli\\\\filler.mp4', 'robot_stimuli\\\\filler.mp4']",robot_stimuli\\filler.mp4,18,,,,,,,,,,,,,0,65,65,65,,,,,,,,,,,,,,,,,,1646.8284042999148,,,1657.582900899928,1657.582900899928,1657.582900899928,4,1.9442548998631537,1659.5534361000173,1659.5534361000173,1659.5534361000173,1659.5534361000173,1659.5534361000173,1659.5534361000173,1659.5534361000173,1659.5534361000173,None,None,None,,,,1648.899221799802,,,,,,,,1646.8284042999148,1646.8284042999148,None,,1655.3619793001562,1657.582900899928,1646.8284042999148,1646.8284042999148,,18,001,2024-09-12_15h18.09.227,robot_cogshifting_sign,2022.2.5,59.86729820962966,
"['red_top_T_0', 'red_top_P_45', 'blue_top_S_45', 'red_right_S_45']","{'color': 'blue_top_S_45', 'position': 'red_right_S_45', 'orientation': 'red_top_T_0'}",orientation,"['orientation', 'position']",red_top_T_0,0,2,letter,3,False,False,"['robot_stimuli\\\\filler.mp4', 'robot_stimuli\\\\filler.mp4', 'robot_stimuli\\\\filler.mp4', 'robot_stimuli\\\\filler.mp4']",robot_stimuli\\filler.mp4,18,,,,,,,,,,,,,0,66,66,66,,,,,,,,,,,,,,,,,,1659.5534361000173,,,1670.274882200174,1670.274882200174,1670.274882200174,2,0.7478554002009332,1671.0427135000937,1671.0427135000937,1671.0427135000937,1671.0427135000937,1671.0427135000937,1671.0427135000937,1671.0427135000937,1671.0427135000937,None,None,None,,,,1661.6243008999154,,,,,,,,1659.5534361000173,1659.5534361000173,None,,1668.2539848000742,1670.274882200174,1659.5534361000173,1659.5534361000173,,18,001,2024-09-12_15h18.09.227,robot_cogshifting_sign,2022.2.5,59.86729820962966,
"['blue_left_W_45', 'red_left_J_0', 'blue_left_Z_0', 'blue_top_P_0']","{'color': 'red_left_J_0', 'position': 'blue_top_P_0', 'orientation': 'blue_left_W_45'}",position,"['color', 'position']",blue_top_P_0,3,2,letter,3,False,False,"['robot_stimuli\\\\filler.mp4', 'robot_stimuli\\\\filler.mp4', 'robot_stimuli\\\\filler.mp4', 'robot_stimuli\\\\filler.mp4']",robot_stimuli\\filler.mp4,18,,,,,,,,,,,,,0,67,67,67,,,,,,,,,,,,,,,,,,1671.0427135000937,,,1682.1813341998495,1682.1813341998495,1682.1813341998495,4,0.6740867998450994,1682.8826712998562,1682.8826712998562,1682.8826712998562,1682.8826712998562,1682.8826712998562,1682.8826712998562,1682.8826712998562,1682.8826712998562,None,None,None,,,,1673.1135324998759,,,,,,,,1671.0427135000937,1671.0427135000937,None,,1679.9770072000101,1682.1813341998495,1671.0427135000937,1671.0427135000937,,18,001,2024-09-12_15h18.09.227,robot_cogshifting_sign,2022.2.5,59.86729820962966,
"['blue_top_F_0', 'red_top_M_0', 'red_right_T_0', 'red_top_L_45']","{'color': 'blue_top_F_0', 'position': 'red_right_T_0', 'orientation': 'red_top_L_45'}",position,"['color', 'position']",red_right_T_0,2,2,letter,3,False,False,"['robot_stimuli\\\\filler.mp4', 'robot_stimuli\\\\filler.mp4', 'robot_stimuli\\\\filler.mp4', 'robot_stimuli\\\\filler.mp4']",robot_stimuli\\filler.mp4,18,,,,,,,,,,,,,0,68,68,68,,,,,,,,,,,,,,,,,,1682.8826712998562,,,1693.4367948998697,1693.4367948998697,1693.4367948998697,3,0.5788341998122633,1694.0379996998236,1694.0379996998236,1694.0379996998236,1694.0379996998236,1694.0379996998236,1694.0379996998236,1694.0379996998236,1694.0379996998236,None,None,None,,,,1684.953589099925,,,,,,,,1682.8826712998562,1682.8826712998562,None,,1691.2158331000246,1693.4367948998697,1682.8826712998562,1682.8826712998562,,18,001,2024-09-12_15h18.09.227,robot_cogshifting_sign,2022.2.5,59.86729820962966,
"['red_bottom_S_0', 'blue_top_C_0', 'red_top_H_0', 'red_top_V_45']","{'color': 'blue_top_C_0', 'position': 'red_bottom_S_0', 'orientation': 'red_top_V_45'}",orientation,"['orientation', 'position']",red_top_V_45,3,2,letter,3,False,False,"['robot_stimuli\\\\filler.mp4', 'robot_stimuli\\\\filler.mp4', 'robot_stimuli\\\\filler.mp4', 'robot_stimuli\\\\filler.mp4']",robot_stimuli\\filler.mp4,18,,,,,,,,,,,,,0,69,69,69,,,,,,,,,,,,,,,,,,1694.0379996998236,,,1705.1765970000997,1705.1765970000997,1705.1765970000997,4,0.48643659986555576,1705.6942440001294,1705.6942440001294,1705.6942440001294,1705.6942440001294,1705.6942440001294,1705.6942440001294,1705.6942440001294,1705.6942440001294,None,None,None,,,,1696.108846399933,,,,,,,,1694.0379996998236,1694.0379996998236,None,,1702.972288900055,1705.1765970000997,1694.0379996998236,1694.0379996998236,,18,001,2024-09-12_15h18.09.227,robot_cogshifting_sign,2022.2.5,59.86729820962966,
"['blue_bottom_F_0', 'blue_left_N_0', 'red_bottom_Q_0', 'blue_bottom_S_45']","{'color': 'red_bottom_Q_0', 'position': 'blue_left_N_0', 'orientation': 'blue_bottom_S_45'}",color,"['color', 'position']",red_bottom_Q_0,2,2,letter,3,False,False,"['robot_stimuli\\\\filler.mp4', 'robot_stimuli\\\\filler.mp4', 'robot_stimuli\\\\filler.mp4', 'robot_stimuli\\\\filler.mp4']",robot_stimuli\\filler.mp4,18,,,,,,,,,,,,,0,70,70,70,,,,,,,,,,,,,,,,,,1705.6942440001294,,,1716.4487514002249,1716.4487514002249,1716.4487514002249,3,0.5577517999336123,1717.0332442000508,1717.0332442000508,1717.0332442000508,1717.0332442000508,1717.0332442000508,1717.0332442000508,1717.0332442000508,1717.0332442000508,None,None,None,,,,1707.765063600149,,,,,,,,1705.6942440001294,1705.6942440001294,None,,1714.4114298000932,1716.4487514002249,1705.6942440001294,1705.6942440001294,,18,001,2024-09-12_15h18.09.227,robot_cogshifting_sign,2022.2.5,59.86729820962966,
"['red_top_W_0', 'red_left_F_0', 'red_top_J_45', 'blue_top_D_0']","{'color': 'blue_top_D_0', 'position': 'red_left_F_0', 'orientation': 'red_top_J_45'}",orientation,"['orientation', 'position']",red_top_J_45,2,2,letter,3,False,True,"['robot_stimuli\\\\filler.mp4', 'robot_stimuli\\\\filler.mp4', 'robot_stimuli\\\\filler.mp4', 'robot_stimuli\\\\filler.mp4']",robot_stimuli\\filler.mp4,18,,,,,,,,,,,,,0,71,71,71,,,,,,,,,,,,,,,,,,1717.0332442000508,,,1727.9714325000532,1727.9714325000532,1727.9714325000532,3,0.5234643002040684,1728.55594820017,1731.6119197998196,1728.55594820017,1731.6119197998196,1728.55594820017,1731.6119197998196,1728.55594820017,1731.6119197998196,44.04761904761905,2.430709999985993,space,,,,1719.1040632999502,3.0037602996453643,,,,,,,1717.0332442000508,1717.0332442000508,None,,1725.9516393002123,1727.9714325000532,1717.0332442000508,1717.0332442000508,,18,001,2024-09-12_15h18.09.227,robot_cogshifting_sign,2022.2.5,59.86729820962966,
"['blue_right_V_0', 'red_right_Q_45', 'red_top_X_0', 'red_right_X_0']","{'color': 'blue_right_V_0', 'position': 'red_top_X_0', 'orientation': 'red_right_Q_45'}",orientation,"['color', 'orientation', 'position']",red_right_Q_45,1,3,letter,3,True,False,"['robot_stimuli\\\\filler.mp4', 'robot_stimuli\\\\filler.mp4', 'robot_stimuli\\\\filler.mp4', 'robot_stimuli\\\\filler.mp4']",robot_stimuli\\filler.mp4,18,,,,,,,,,,,,,0,72,72,72,,,,,,,,,,,,,,,,,,1735.0353298000991,,,1745.8065337999724,1745.8065337999724,1745.8065337999724,2,1.8491989998146892,1747.6768972999416,1747.6768972999416,1747.6768972999416,1747.6768972999416,1747.6768972999416,1747.6768972999416,1747.6768972999416,1747.6768972999416,None,None,None,,,,,,,,,,,,1731.6119197998196,1731.6119197998196,space,3.40355939976871,1743.7862860998139,1745.8065337999724,,,,18,001,2024-09-12_15h18.09.227,robot_cogshifting_sign,2022.2.5,59.86729820962966,
"['blue_right_W_0', 'blue_right_G_45', 'red_right_N_45', 'blue_top_W_45']","{'color': 'red_right_N_45', 'position': 'blue_top_W_45', 'orientation': 'blue_right_W_0'}",position,"['color', 'orientation', 'position']",blue_top_W_45,3,3,letter,3,False,False,"['robot_stimuli\\\\filler.mp4', 'robot_stimuli\\\\filler.mp4', 'robot_stimuli\\\\filler.mp4', 'robot_stimuli\\\\filler.mp4']",robot_stimuli\\filler.mp4,18,,,,,,,,,,,,,0,73,73,73,,,,,,,,,,,,,,,,,,1747.6768972999416,,,1758.6150568001904,1758.6150568001904,1758.6150568001904,4,1.767964799888432,1760.4019097001292,1760.4019097001292,1760.4019097001292,1760.4019097001292,1760.4019097001292,1760.4019097001292,1760.4019097001292,1760.4019097001292,None,None,None,,,,1749.7476984001696,,,,,,,,1747.6768972999416,1747.6768972999416,None,,1756.594761500135,1758.6150568001904,1747.6768972999416,1747.6768972999416,,18,001,2024-09-12_15h18.09.227,robot_cogshifting_sign,2022.2.5,59.86729820962966,
"['blue_right_S_45', 'blue_left_Z_45', 'red_right_W_45', 'blue_right_C_0']","{'color': 'red_right_W_45', 'position': 'blue_left_Z_45', 'orientation': 'blue_right_C_0'}",color,"['color', 'orientation', 'position']",red_right_W_45,2,3,letter,3,False,False,"['robot_stimuli\\\\filler.mp4', 'robot_stimuli\\\\filler.mp4', 'robot_stimuli\\\\filler.mp4', 'robot_stimuli\\\\filler.mp4']",robot_stimuli\\filler.mp4,18,,,,,,,,,,,,,0,74,74,74,,,,,,,,,,,,,,,,,,1760.4019097001292,,,1770.9393345997669,1770.9393345997669,1770.9393345997669,3,1.8761909995228052,1772.8430834999308,1772.8430834999308,1772.8430834999308,1772.8430834999308,1772.8430834999308,1772.8430834999308,1772.8430834999308,1772.8430834999308,None,None,None,,,,1762.4580756002106,,,,,,,,1760.4019097001292,1760.4019097001292,None,,1768.718411900103,1770.9393345997669,1760.4019097001292,1760.4019097001292,,18,001,2024-09-12_15h18.09.227,robot_cogshifting_sign,2022.2.5,59.86729820962966,
"['blue_bottom_X_45', 'red_bottom_M_45', 'red_left_D_45', 'red_bottom_B_0']","{'color': 'blue_bottom_X_45', 'position': 'red_left_D_45', 'orientation': 'red_bottom_B_0'}",position,"['color', 'orientation', 'position']",red_left_D_45,2,3,letter,3,False,False,"['robot_stimuli\\\\filler.mp4', 'robot_stimuli\\\\filler.mp4', 'robot_stimuli\\\\filler.mp4', 'robot_stimuli\\\\filler.mp4']",robot_stimuli\\filler.mp4,18,,,,,,,,,,,,,0,75,75,75,,,,,,,,,,,,,,,,,,1772.8430834999308,,,1783.7812532000244,1783.7812532000244,1783.7812532000244,3,1.137272299733013,1784.9502448001876,1784.9502448001876,1784.9502448001876,1784.9502448001876,1784.9502448001876,1784.9502448001876,1784.9502448001876,1784.9502448001876,None,None,None,,,,1774.9139474001713,,,,,,,,1772.8430834999308,1772.8430834999308,None,,1781.7606248999946,1783.7812532000244,1772.8430834999308,1772.8430834999308,,18,001,2024-09-12_15h18.09.227,robot_cogshifting_sign,2022.2.5,59.86729820962966,
"['red_top_V_0', 'red_left_P_45', 'red_top_W_45', 'blue_top_V_45']","{'color': 'blue_top_V_45', 'position': 'red_left_P_45', 'orientation': 'red_top_V_0'}",color,"['color', 'orientation', 'position']",blue_top_V_45,3,3,letter,3,False,False,"['robot_stimuli\\\\filler.mp4', 'robot_stimuli\\\\filler.mp4', 'robot_stimuli\\\\filler.mp4', 'robot_stimuli\\\\filler.mp4']",robot_stimuli\\filler.mp4,18,,,,,,,,,,,,,0,76,76,76,,,,,,,,,,,,,,,,,,1784.9502448001876,,,1795.48763410002,1795.48763410002,1795.48763410002,4,1.6237733997404575,1797.1408846997656,1797.1408846997656,1797.1408846997656,1797.1408846997656,1797.1408846997656,1797.1408846997656,1797.1408846997656,1797.1408846997656,None,None,None,,,,1787.021064599976,,,,,,,,1784.9502448001876,1784.9502448001876,None,,1793.4671029001474,1795.48763410002,1784.9502448001876,1784.9502448001876,,18,001,2024-09-12_15h18.09.227,robot_cogshifting_sign,2022.2.5,59.86729820962966,
"['blue_bottom_G_0', 'blue_left_X_0', 'blue_bottom_F_45', 'red_bottom_F_0']","{'color': 'red_bottom_F_0', 'position': 'blue_left_X_0', 'orientation': 'blue_bottom_F_45'}",orientation,"['color', 'orientation', 'position']",blue_bottom_F_45,2,3,letter,3,False,False,"['robot_stimuli\\\\filler.mp4', 'robot_stimuli\\\\filler.mp4', 'robot_stimuli\\\\filler.mp4', 'robot_stimuli\\\\filler.mp4']",robot_stimuli\\filler.mp4,18,,,,,,,,,,,,,0,77,77,77,,,,,,,,,,,,,,,,,,1797.1408846997656,,,1807.8787116999738,1807.8787116999738,1807.8787116999738,3,1.1284596999175847,1809.0309593998827,1809.0309593998827,1809.0309593998827,1809.0309593998827,1809.0309593998827,1809.0309593998827,1809.0309593998827,1809.0309593998827,None,None,None,,,,1799.2116915001534,,,,,,,,1797.1408846997656,1797.1408846997656,None,,1805.8582015000284,1807.8787116999738,1797.1408846997656,1797.1408846997656,,18,001,2024-09-12_15h18.09.227,robot_cogshifting_sign,2022.2.5,59.86729820962966,
"['blue_left_Z_45', 'blue_left_D_0', 'red_left_J_45', 'blue_bottom_C_45']","{'color': 'red_left_J_45', 'position': 'blue_bottom_C_45', 'orientation': 'blue_left_D_0'}",orientation,"['color', 'orientation', 'position']",blue_left_D_0,1,3,letter,3,False,False,"['robot_stimuli\\\\filler.mp4', 'robot_stimuli\\\\filler.mp4', 'robot_stimuli\\\\filler.mp4', 'robot_stimuli\\\\filler.mp4']",robot_stimuli\\filler.mp4,18,,,,,,,,,,,,,0,78,78,78,,,,,,,,,,,,,,,,,,1809.0309593998827,,,1819.7687570000999,1819.7687570000999,1819.7687570000999,1,0.6956098000518978,1820.4868509001099,1820.4868509001099,1820.4868509001099,1820.4868509001099,1820.4868509001099,1820.4868509001099,1820.4868509001099,1820.4868509001099,None,None,None,,,,1811.101813599933,,,,,,,,1809.0309593998827,1809.0309593998827,None,,1817.7481359997764,1819.7687570000999,1809.0309593998827,1809.0309593998827,,18,001,2024-09-12_15h18.09.227,robot_cogshifting_sign,2022.2.5,59.86729820962966,
"['blue_top_V_0', 'blue_bottom_L_45', 'red_bottom_S_0', 'blue_bottom_M_0']","{'color': 'red_bottom_S_0', 'position': 'blue_top_V_0', 'orientation': 'blue_bottom_L_45'}",position,"['color', 'orientation', 'position']",blue_top_V_0,0,3,letter,3,False,False,"['robot_stimuli\\\\filler.mp4', 'robot_stimuli\\\\filler.mp4', 'robot_stimuli\\\\filler.mp4', 'robot_stimuli\\\\filler.mp4']",robot_stimuli\\filler.mp4,18,,,,,,,,,,,,,0,79,79,79,,,,,,,,,,,,,,,,,,1820.4868509001099,,,1831.2246730001643,1831.2246730001643,1831.2246730001643,1,1.246466999873519,1832.493790899869,1832.493790899869,1832.493790899869,1832.493790899869,1832.493790899869,1832.493790899869,1832.493790899869,1832.493790899869,None,None,None,,,,1822.5576666002162,,,,,,,,1820.4868509001099,1820.4868509001099,None,,1829.0037135998718,1831.2246730001643,1820.4868509001099,1820.4868509001099,,18,001,2024-09-12_15h18.09.227,robot_cogshifting_sign,2022.2.5,59.86729820962966,
"['red_bottom_D_0', 'blue_bottom_X_0', 'red_right_K_0', 'red_bottom_D_45']","{'color': 'blue_bottom_X_0', 'position': 'red_right_K_0', 'orientation': 'red_bottom_D_45'}",color,"['color', 'orientation', 'position']",blue_bottom_X_0,1,3,letter,3,False,True,"['robot_stimuli\\\\filler.mp4', 'robot_stimuli\\\\filler.mp4', 'robot_stimuli\\\\filler.mp4', 'robot_stimuli\\\\filler.mp4']",robot_stimuli\\filler.mp4,18,,,,,,,,,,,,,0,80,80,80,,,,,,,,,,,,,,,,,,1832.493790899869,,,1843.2483080001548,1843.2483080001548,1843.2483080001548,2,0.8790680998936296,1844.1834872998297,1846.8888313998468,1844.1834872998297,1846.8888313998468,1844.1834872998297,1846.8888313998468,1844.1834872998297,1846.8888313998468,53.88888888888889,2.2518970002420247,space,,,,1834.5478726997972,2.6236927998252213,,,,,,,1832.493790899869,1832.493790899869,None,,1841.027323300019,1843.2483080001548,1832.493790899869,1832.493790899869,,18,001,2024-09-12_15h18.09.227,robot_cogshifting_sign,2022.2.5,59.86729820962966,
"['R_Head_X_Back', 'L_Head_X_Back', 'R_Head_Z_For', 'R_Arm_X_Back']","{'laterality': 'L_Head_X_Back', 'localisation': 'R_Arm_X_Back', 'movement': 'R_Head_Z_For'}",localisation,"['laterality', 'localisation', 'movement']",R_Arm_X_Back,3,3,robot,4,True,False,"['robot_stimuli\\R_Head_X_Back.mp4', 'robot_stimuli\\L_Head_X_Back.mp4', 'robot_stimuli\\R_Head_Z_For.mp4', 'robot_stimuli\\R_Arm_X_Back.mp4']",robot_stimuli\R_Arm_X_Back.mp4,18,,,,,,,,,,,,,0,81,81,81,,,,,,,,,,,,,,,,,,1855.973372099921,,,1872.8732664999552,1872.8732664999552,1872.8732664999552,1,3.7030925997532904,1876.5972569999285,1876.5972569999285,1876.5972569999285,1876.5972569999285,1876.5972569999285,1876.5972569999285,1876.5972569999285,1876.5972569999285,None,None,None,,,,,,,,,,,,1846.8888313998468,1846.8888313998468,space,9.053882799576968,,,,,1869.2161230999045,18,001,2024-09-12_15h18.09.227,robot_cogshifting_sign,2022.2.5,59.86729820962966,
"['R_Base_Z_Back', 'L_Base_Z_For', 'R_Head_Z_For', 'R_Base_X_Back']","{'laterality': 'L_Base_Z_For', 'localisation': 'R_Head_Z_For', 'movement': 'R_Base_X_Back'}",laterality,"['laterality', 'localisation', 'movement']",L_Base_Z_For,1,3,robot,4,False,False,"['robot_stimuli\\R_Base_Z_Back.mp4', 'robot_stimuli\\L_Base_Z_For.mp4', 'robot_stimuli\\R_Head_Z_For.mp4', 'robot_stimuli\\R_Base_X_Back.mp4']",robot_stimuli\L_Base_Z_For.mp4,18,,,,,,,,,,,,,0,82,82,82,,,,,,,,,,,,,,,,,,1876.5972569999285,,,1893.4137213998474,1893.4137213998474,1893.4137213998474,2,1.3866945002228022,1894.8331522000954,1894.8331522000954,1894.8331522000954,1894.8331522000954,1894.8331522000954,1894.8331522000954,1894.8331522000954,1894.8331522000954,None,None,None,,,,1878.7014202000573,,,,,,,,1876.5972569999285,1876.5972569999285,None,,,,1876.5972569999285,1876.5972569999285,1889.7565485998057,18,001,2024-09-12_15h18.09.227,robot_cogshifting_sign,2022.2.5,59.86729820962966,
"['L_Arm_X_For', 'L_Arm_Y_Back', 'R_Arm_Y_Back', 'L_Base_Y_For']","{'laterality': 'R_Arm_Y_Back', 'localisation': 'L_Base_Y_For', 'movement': 'L_Arm_X_For'}",laterality,"['laterality', 'localisation', 'movement']",R_Arm_Y_Back,2,3,robot,4,False,False,"['robot_stimuli\\L_Arm_X_For.mp4', 'robot_stimuli\\L_Arm_Y_Back.mp4', 'robot_stimuli\\R_Arm_Y_Back.mp4', 'robot_stimuli\\L_Base_Y_For.mp4']",robot_stimuli\R_Arm_Y_Back.mp4,18,,,,,,,,,,,,,0,83,83,83,,,,,,,,,,,,,,,,,,1894.8331522000954,,,1911.632911299821,1911.632911299821,1911.632911299821,3,1.2463743002153933,1912.9020544998348,1912.9020544998348,1912.9020544998348,1912.9020544998348,1912.9020544998348,1912.9020544998348,1912.9020544998348,1912.9020544998348,None,None,None,,,,1896.9206063998863,,,,,,,,1894.8331522000954,1894.8331522000954,None,,,,1894.8331522000954,1894.8331522000954,1908.0926381000318,18,001,2024-09-12_15h18.09.227,robot_cogshifting_sign,2022.2.5,59.86729820962966,
"['R_Torso_X_For', 'R_Head_Z_For', 'L_Torso_Z_For', 'R_Torso_Z_Back']","{'laterality': 'L_Torso_Z_For', 'localisation': 'R_Head_Z_For', 'movement': 'R_Torso_X_For'}",movement,"['laterality', 'localisation', 'movement']",R_Torso_X_For,0,3,robot,4,False,False,"['robot_stimuli\\R_Torso_X_For.mp4', 'robot_stimuli\\R_Head_Z_For.mp4', 'robot_stimuli\\L_Torso_Z_For.mp4', 'robot_stimuli\\R_Torso_Z_Back.mp4']",robot_stimuli\R_Torso_X_For.mp4,18,,,,,,,,,,,,,0,84,84,84,,,,,,,,,,,,,,,,,,1912.9020544998348,,,1929.768579499796,1929.768579499796,1929.768579499796,2,5.846480699721724,1935.6468278001994,1935.6468278001994,1935.6468278001994,1935.6468278001994,1935.6468278001994,1935.6468278001994,1935.6468278001994,1935.6468278001994,None,None,None,,,,1914.9895497998223,,,,,,,,1912.9020544998348,1912.9020544998348,None,,,,1912.9020544998348,1912.9020544998348,1926.144804699812,18,001,2024-09-12_15h18.09.227,robot_cogshifting_sign,2022.2.5,59.86729820962966,
"['R_Arm_Y_For', 'L_Arm_Y_For', 'R_Arm_X_Back', 'R_Torso_Y_For']","{'laterality': 'L_Arm_Y_For', 'localisation': 'R_Torso_Y_For', 'movement': 'R_Arm_X_Back'}",movement,"['laterality', 'localisation', 'movement']",R_Arm_X_Back,2,3,robot,4,False,False,"['robot_stimuli\\R_Arm_Y_For.mp4', 'robot_stimuli\\L_Arm_Y_For.mp4', 'robot_stimuli\\R_Arm_X_Back.mp4', 'robot_stimuli\\R_Torso_Y_For.mp4']",robot_stimuli\R_Arm_X_Back.mp4,18,,,,,,,,,,,,,0,85,85,85,,,,,,,,,,,,,,,,,,1935.6468278001994,,,1952.3964657997712,1952.3964657997712,1952.3964657997712,3,5.818187600001693,1958.2412876999006,1958.2412876999006,1958.2412876999006,1958.2412876999006,1958.2412876999006,1958.2412876999006,1958.2412876999006,1958.2412876999006,None,None,None,,,,1937.7342786998488,,,,,,,,1935.6468278001994,1935.6468278001994,None,,,,1935.6468278001994,1935.6468278001994,1948.756000999827,18,001,2024-09-12_15h18.09.227,robot_cogshifting_sign,2022.2.5,59.86729820962966,
