sequence,is_target,condition,stimuli,block,is_block_beginning,is_block_ending,fname,subject,retraining.thisRepN,retraining.thisTrialN,retraining.thisN,retraining.thisIndex,training.thisRepN,training.thisTrialN,training.thisN,training.thisIndex,trials.thisRepN,trials.thisTrialN,trials.thisN,trials.thisIndex,langage_text.started,langage_key.started,langage_key.keys,langage_key.rt,intro_text.started,intro_key.started,intro_key.keys,intro_key.rt,training_robot_intro_text.started,training_robot_intro_key.started,training_robot_intro_key.keys,training_robot_intro_key.rt,cross.started,cross.stopped,training_letter.started,training_robot_key.started,training_robot_question.started,training_robot_keys.started,training_letter.stopped,training_robot_key.keys,RSME_labels.started,RSME_labels.stopped,RSME_ticks.started,RSME_ticks.stopped,RSME_text.started,RSME_text.stopped,RSME_key.started,RSME_key.stopped,RSME_ticks.response,RSME_ticks.rt,RSME_key.keys,training_robot_intro_text.stopped,training_robot_intro_key.stopped,training_robot_key.rt,RSME_key.rt,training_robot_movie.started,experiment_beginning_text.started,experiment_beginning_keys.started,experiment_beginning_key.started,experiment_beginning_key.keys,experiment_beginning_key.rt,block_intro_text.started,block_intro_key.started,block_intro_key.keys,block_intro_key.rt,letter.started,key.started,letter.stopped,key.keys,block_intro_text.stopped,block_intro_key.stopped,key.rt,movie.started,participant,session,date,expName,psychopyVersion,frameRate,
,,,,,,,,,,,,,,,,,,,,,13.394869099999596,13.394869099999596,f,1.4022051000001738,,,,,,,,,,,,,,,,,,,,,,,,,,,,,,,,,,,,,,,,,,,,,,,,,,22,001,2024-07-30_11h34.15.352,robot_nback_sign,2022.2.5,60.01939826962462,
,,,,,,,,,,,,,,,,,,,,,,,,,14.861168200000066,14.861168200000066,space,130.04053829999975,,,,,,,,,,,,,,,,,,,,,,,,,,,,,,,,,,,,,,,,,,,,,,22,001,2024-07-30_11h34.15.352,robot_nback_sign,2022.2.5,60.01939826962462,
L,False,1,letter,1,True,False,robot_stimuli\\filler.mp4,22,0,0,0,0,0,0,0,0,,,,,,,,,,,,,144.94131689999995,144.94131689999995,space,4.536228399999345,149.50717770000028,150.89770659999976,150.89770659999976,150.89770659999976,150.89770659999976,150.89770659999976,153.21108389999972,None,153.21108389999972,153.21108389999972,153.21108389999972,153.21108389999972,153.21108389999972,153.21108389999972,153.21108389999972,153.21108389999972,None,None,None,,,,,,,,,,,,,,,,,,,,,,,22,001,2024-07-30_11h34.15.352,robot_nback_sign,2022.2.5,60.01939826962462,
M,False,1,letter,1,False,False,robot_stimuli\\filler.mp4,22,0,0,0,0,0,1,1,1,,,,,,,,,,,,,153.21108389999972,153.21108389999972,None,,153.21108389999972,,154.28922779999994,154.28922779999994,154.28922779999994,154.28922779999994,156.3266096999996,n,156.3266096999996,156.3266096999996,156.3266096999996,156.3266096999996,156.3266096999996,156.3266096999996,156.3266096999996,156.3266096999996,None,None,None,153.21108389999972,153.21108389999972,1.7003611999998611,,,,,,,,,,,,,,,,,,,,22,001,2024-07-30_11h34.15.352,robot_nback_sign,2022.2.5,60.01939826962462,
Z,False,1,letter,1,False,False,robot_stimuli\\filler.mp4,22,0,0,0,0,0,2,2,2,,,,,,,,,,,,,156.3266096999996,156.3266096999996,None,,156.3266096999996,,157.40660839999964,157.40660839999964,157.40660839999964,157.40660839999964,159.4309161000001,None,159.4309161000001,159.4309161000001,159.4309161000001,159.4309161000001,159.4309161000001,159.4309161000001,159.4309161000001,159.4309161000001,None,None,None,156.3266096999996,156.3266096999996,,,,,,,,,,,,,,,,,,,,,22,001,2024-07-30_11h34.15.352,robot_nback_sign,2022.2.5,60.01939826962462,
X,False,1,letter,1,False,False,robot_stimuli\\filler.mp4,22,0,0,0,0,0,3,3,3,,,,,,,,,,,,,159.4309161000001,159.4309161000001,None,,159.4309161000001,160.50599630000033,160.50599630000033,160.50599630000033,160.50599630000033,160.50599630000033,162.53772440000012,n,162.53772440000012,162.53772440000012,162.53772440000012,162.53772440000012,162.53772440000012,162.53772440000012,162.53772440000012,162.53772440000012,None,None,None,159.4309161000001,159.4309161000001,1.4442503000000215,,,,,,,,,,,,,,,,,,,,22,001,2024-07-30_11h34.15.352,robot_nback_sign,2022.2.5,60.01939826962462,
X,True,1,letter,1,False,False,robot_stimuli\\filler.mp4,22,0,0,0,0,0,4,4,4,,,,,,,,,,,,,162.53772440000012,162.53772440000012,None,,162.53772440000012,163.60852849999992,163.60852849999992,163.60852849999992,163.60852849999992,163.60852849999992,165.83675740000035,c,165.83675740000035,165.83675740000035,165.83675740000035,165.83675740000035,165.83675740000035,165.83675740000035,165.83675740000035,165.83675740000035,None,None,None,162.53772440000012,162.53772440000012,0.8054314000000886,,,,,,,,,,,,,,,,,,,,22,001,2024-07-30_11h34.15.352,robot_nback_sign,2022.2.5,60.01939826962462,
X,True,1,letter,1,False,True,robot_stimuli\\filler.mp4,22,0,0,0,0,0,5,5,5,,,,,,,,,,,,,165.83675740000035,165.83675740000035,None,,165.83675740000035,166.90487329999996,166.90487329999996,166.90487329999996,166.90487329999996,166.90487329999996,168.991215,c,168.991215,184.27864070000032,168.991215,184.27864070000032,168.991215,184.27864070000032,168.991215,184.27864070000032,20.123456790123452,13.68281879999995,space,165.83675740000035,165.83675740000035,0.9248122999997577,15.221713699999782,,,,,,,,,,,,,,,,,,,22,001,2024-07-30_11h34.15.352,robot_nback_sign,2022.2.5,60.01939826962462,
D,False,2,letter,1,True,False,robot_stimuli\\filler.mp4,22,0,0,0,0,0,6,6,6,,,,,,,,,,,,,184.27864070000032,184.27864070000032,space,2.351056299999982,186.6571855000002,187.7308240000002,187.7308240000002,187.7308240000002,187.7308240000002,187.7308240000002,189.95825739999964,None,189.95825739999964,189.95825739999964,189.95825739999964,189.95825739999964,189.95825739999964,189.95825739999964,189.95825739999964,189.95825739999964,None,None,None,,,,,,,,,,,,,,,,,,,,,,,22,001,2024-07-30_11h34.15.352,robot_nback_sign,2022.2.5,60.01939826962462,
H,False,2,letter,1,False,False,robot_stimuli\\filler.mp4,22,0,0,0,0,0,7,7,7,,,,,,,,,,,,,189.95825739999964,189.95825739999964,None,,189.95825739999964,,191.03912149999996,191.03912149999996,191.03912149999996,191.03912149999996,193.07684979999976,None,193.07684979999976,193.07684979999976,193.07684979999976,193.07684979999976,193.07684979999976,193.07684979999976,193.07684979999976,193.07684979999976,None,None,None,189.95825739999964,189.95825739999964,,,,,,,,,,,,,,,,,,,,,22,001,2024-07-30_11h34.15.352,robot_nback_sign,2022.2.5,60.01939826962462,
X,False,2,letter,1,False,False,robot_stimuli\\filler.mp4,22,0,0,0,0,0,8,8,8,,,,,,,,,,,,,193.07684979999976,193.07684979999976,None,,193.07684979999976,,194.15577349999967,194.15577349999967,194.15577349999967,194.15577349999967,196.18663949999973,n,196.18663949999973,196.18663949999973,196.18663949999973,196.18663949999973,196.18663949999973,196.18663949999973,196.18663949999973,196.18663949999973,None,None,None,193.07684979999976,193.07684979999976,1.3924383000003218,,,,,,,,,,,,,,,,,,,,22,001,2024-07-30_11h34.15.352,robot_nback_sign,2022.2.5,60.01939826962462,
H,True,2,letter,1,False,False,robot_stimuli\\filler.mp4,22,0,0,0,0,0,9,9,9,,,,,,,,,,,,,196.18663949999973,196.18663949999973,None,,196.18663949999973,197.25440340000023,197.25440340000023,197.25440340000023,197.25440340000023,197.25440340000023,199.28487620000033,c,199.28487620000033,199.28487620000033,199.28487620000033,199.28487620000033,199.28487620000033,199.28487620000033,199.28487620000033,199.28487620000033,None,None,None,196.18663949999973,196.18663949999973,1.4776891000001342,,,,,,,,,,,,,,,,,,,,22,001,2024-07-30_11h34.15.352,robot_nback_sign,2022.2.5,60.01939826962462,
X,True,2,letter,1,False,False,robot_stimuli\\filler.mp4,22,0,0,0,0,0,10,10,10,,,,,,,,,,,,,199.28487620000033,199.28487620000033,None,,199.28487620000033,200.35576070000025,200.35576070000025,200.35576070000025,200.35576070000025,200.35576070000025,202.38296710000031,c,202.38296710000031,202.38296710000031,202.38296710000031,202.38296710000031,202.38296710000031,202.38296710000031,202.38296710000031,202.38296710000031,None,None,None,199.28487620000033,199.28487620000033,0.8414739999998346,,,,,,,,,,,,,,,,,,,,22,001,2024-07-30_11h34.15.352,robot_nback_sign,2022.2.5,60.01939826962462,
V,False,2,letter,1,False,True,robot_stimuli\\filler.mp4,22,0,0,0,0,0,11,11,11,,,,,,,,,,,,,202.38296710000031,202.38296710000031,None,,202.38296710000031,203.45857849999993,203.45857849999993,203.45857849999993,203.45857849999993,203.45857849999993,205.71822059999977,n,205.71822059999977,212.3642278999996,205.71822059999977,212.3642278999996,205.71822059999977,212.3642278999996,205.71822059999977,212.3642278999996,30.308641975308642,5.15193889999955,space,202.38296710000031,202.38296710000031,1.1216465999996217,6.582942299999559,,,,,,,,,,,,,,,,,,,22,001,2024-07-30_11h34.15.352,robot_nback_sign,2022.2.5,60.01939826962462,
M,False,3,letter,1,True,False,robot_stimuli\\filler.mp4,22,0,0,0,0,0,12,12,12,,,,,,,,,,,,,212.3642278999996,212.3642278999996,space,4.081440399999337,216.47393439999996,217.5423697999995,217.5423697999995,217.5423697999995,217.5423697999995,217.5423697999995,219.7712093,None,219.7712093,219.7712093,219.7712093,219.7712093,219.7712093,219.7712093,219.7712093,219.7712093,None,None,None,,,,,,,,,,,,,,,,,,,,,,,22,001,2024-07-30_11h34.15.352,robot_nback_sign,2022.2.5,60.01939826962462,
L,False,3,letter,1,False,False,robot_stimuli\\filler.mp4,22,0,0,0,0,0,13,13,13,,,,,,,,,,,,,219.7712093,219.7712093,None,,219.7712093,220.83895610000036,220.83895610000036,220.83895610000036,220.83895610000036,220.83895610000036,222.87284809999983,None,222.87284809999983,222.87284809999983,222.87284809999983,222.87284809999983,222.87284809999983,222.87284809999983,222.87284809999983,222.87284809999983,None,None,None,219.7712093,219.7712093,,,,,,,,,,,,,,,,,,,,,22,001,2024-07-30_11h34.15.352,robot_nback_sign,2022.2.5,60.01939826962462,
H,False,3,letter,1,False,False,robot_stimuli\\filler.mp4,22,0,0,0,0,0,14,14,14,,,,,,,,,,,,,222.87284809999983,222.87284809999983,None,,222.87284809999983,223.9381487999999,223.9381487999999,223.9381487999999,223.9381487999999,223.9381487999999,225.9658343000001,n,225.9658343000001,225.9658343000001,225.9658343000001,225.9658343000001,225.9658343000001,225.9658343000001,225.9658343000001,225.9658343000001,None,None,None,222.87284809999983,222.87284809999983,1.2188056000004508,,,,,,,,,,,,,,,,,,,,22,001,2024-07-30_11h34.15.352,robot_nback_sign,2022.2.5,60.01939826962462,
M,True,3,letter,1,False,False,robot_stimuli\\filler.mp4,22,0,0,0,0,0,15,15,15,,,,,,,,,,,,,225.9658343000001,225.9658343000001,None,,225.9658343000001,227.03885170000012,227.03885170000012,227.03885170000012,227.03885170000012,227.03885170000012,229.0654324999996,n,229.0654324999996,229.0654324999996,229.0654324999996,229.0654324999996,229.0654324999996,229.0654324999996,229.0654324999996,229.0654324999996,None,None,None,225.9658343000001,225.9658343000001,1.4219444999998814,,,,,,,,,,,,,,,,,,,,22,001,2024-07-30_11h34.15.352,robot_nback_sign,2022.2.5,60.01939826962462,
Z,False,3,letter,1,False,False,robot_stimuli\\filler.mp4,22,0,0,0,0,0,16,16,16,,,,,,,,,,,,,229.0654324999996,229.0654324999996,None,,229.0654324999996,230.13901569999962,230.13901569999962,230.13901569999962,230.13901569999962,230.13901569999962,232.1683981999995,None,232.1683981999995,232.1683981999995,232.1683981999995,232.1683981999995,232.1683981999995,232.1683981999995,232.1683981999995,232.1683981999995,None,None,None,229.0654324999996,229.0654324999996,,,,,,,,,,,,,,,,,,,,,22,001,2024-07-30_11h34.15.352,robot_nback_sign,2022.2.5,60.01939826962462,
H,True,3,letter,1,False,True,robot_stimuli\\filler.mp4,22,0,0,0,0,0,17,17,17,,,,,,,,,,,,,232.1683981999995,232.1683981999995,None,,232.1683981999995,233.23872909999955,233.23872909999955,233.23872909999955,233.23872909999955,233.23872909999955,235.2987422999995,c,235.2987422999995,242.63049609999962,235.2987422999995,242.63049609999962,235.2987422999995,242.63049609999962,235.2987422999995,242.63049609999962,100.06172839506172,6.486153900000318,space,232.1683981999995,232.1683981999995,1.0222124000001713,7.289571400000568,,,,,,,,,,,,,,,,,,,22,001,2024-07-30_11h34.15.352,robot_nback_sign,2022.2.5,60.01939826962462,
R_Base_X_For,False,1,robot,2,True,False,robot_stimuli\R_Base_X_For.mp4,22,0,0,0,0,0,18,18,18,,,,,,,,,,,,,242.63049609999962,242.63049609999962,space,1.9355666000001293,244.59066299999995,245.71384959999978,,245.71384959999978,245.71384959999978,245.71384959999978,,None,249.23572140000033,249.23572140000033,249.23572140000033,249.23572140000033,249.23572140000033,249.23572140000033,249.23572140000033,249.23572140000033,None,None,None,,,,,245.71384959999978,,,,,,,,,,,,,,,,,,22,001,2024-07-30_11h34.15.352,robot_nback_sign,2022.2.5,60.01939826962462,
L_Torso_X_For,False,1,robot,2,False,False,robot_stimuli\L_Torso_X_For.mp4,22,0,0,0,0,0,19,19,19,,,,,,,,,,,,,249.23572140000033,249.23572140000033,None,,249.23572140000033,250.34047910000027,,250.34047910000027,250.34047910000027,250.34047910000027,,n,253.9837908999998,253.9837908999998,253.9837908999998,253.9837908999998,253.9837908999998,253.9837908999998,253.9837908999998,253.9837908999998,None,None,None,249.23572140000033,249.23572140000033,3.5202572999996846,,250.34047910000027,,,,,,,,,,,,,,,,,,22,001,2024-07-30_11h34.15.352,robot_nback_sign,2022.2.5,60.01939826962462,
L_Torso_X_For,True,1,robot,2,False,False,robot_stimuli\L_Torso_X_For.mp4,22,0,0,0,0,0,20,20,20,,,,,,,,,,,,,253.9837908999998,253.9837908999998,None,,253.9837908999998,255.07882160000008,,255.07882160000008,255.07882160000008,255.07882160000008,,c,258.72649980000006,258.72649980000006,258.72649980000006,258.72649980000006,258.72649980000006,258.72649980000006,258.72649980000006,258.72649980000006,None,None,None,253.9837908999998,253.9837908999998,3.1021113999995578,,255.07882160000008,,,,,,,,,,,,,,,,,,22,001,2024-07-30_11h34.15.352,robot_nback_sign,2022.2.5,60.01939826962462,
L_Torso_X_For,True,1,robot,2,False,False,robot_stimuli\L_Torso_X_For.mp4,22,0,0,0,0,0,21,21,21,,,,,,,,,,,,,258.72649980000006,258.72649980000006,None,,258.72649980000006,,,259.8318786,259.8318786,259.8318786,,c,263.4733815999998,263.4733815999998,263.4733815999998,263.4733815999998,263.4733815999998,263.4733815999998,263.4733815999998,263.4733815999998,None,None,None,258.72649980000006,258.72649980000006,3.0696508999999423,,259.8318786,,,,,,,,,,,,,,,,,,22,001,2024-07-30_11h34.15.352,robot_nback_sign,2022.2.5,60.01939826962462,
R_Head_Z_Back,False,1,robot,2,False,False,robot_stimuli\R_Head_Z_Back.mp4,22,0,0,0,0,0,22,22,22,,,,,,,,,,,,,263.4733815999998,263.4733815999998,None,,263.4733815999998,264.578477,,264.578477,264.578477,264.578477,,n,268.22047049999946,268.22047049999946,268.22047049999946,268.22047049999946,268.22047049999946,268.22047049999946,268.22047049999946,268.22047049999946,None,None,None,263.4733815999998,263.4733815999998,2.7628397999997105,,264.578477,,,,,,,,,,,,,,,,,,22,001,2024-07-30_11h34.15.352,robot_nback_sign,2022.2.5,60.01939826962462,
R_Arm_Y_Back,False,1,robot,2,False,True,robot_stimuli\R_Arm_Y_Back.mp4,22,0,0,0,0,0,23,23,23,,,,,,,,,,,,,268.22047049999946,268.22047049999946,None,,268.22047049999946,269.32336510000005,,269.32336510000005,269.32336510000005,269.32336510000005,,n,273.0037276000003,277.53682899999967,273.0037276000003,277.53682899999967,273.0037276000003,277.53682899999967,273.0037276000003,277.53682899999967,29.691358024691354,3.6010495000000446,space,268.22047049999946,268.22047049999946,1.8419726000001901,4.488803999999618,269.32336510000005,,,,,,,,,,,,,,,,,,22,001,2024-07-30_11h34.15.352,robot_nback_sign,2022.2.5,60.01939826962462,
R_Base_Y_For,False,2,robot,2,True,False,robot_stimuli\R_Base_Y_For.mp4,22,0,0,0,0,0,24,24,24,,,,,,,,,,,,,277.53682899999967,277.53682899999967,space,0.7806531999995059,278.34069480000016,279.43317819999993,,279.43317819999993,279.43317819999993,279.43317819999993,,None,283.0746960999995,283.0746960999995,283.0746960999995,283.0746960999995,283.0746960999995,283.0746960999995,283.0746960999995,283.0746960999995,None,None,None,,,,,279.43317819999993,,,,,,,,,,,,,,,,,,22,001,2024-07-30_11h34.15.352,robot_nback_sign,2022.2.5,60.01939826962462,
R_Head_X_Back,False,2,robot,2,False,False,robot_stimuli\R_Head_X_Back.mp4,22,0,0,0,0,0,25,25,25,,,,,,,,,,,,,283.0746960999995,283.0746960999995,None,,283.0746960999995,284.1720693999996,,284.1720693999996,284.1720693999996,284.1720693999996,,None,287.8254380999997,287.8254380999997,287.8254380999997,287.8254380999997,287.8254380999997,287.8254380999997,287.8254380999997,287.8254380999997,None,None,None,283.0746960999995,283.0746960999995,,,284.1720693999996,,,,,,,,,,,,,,,,,,22,001,2024-07-30_11h34.15.352,robot_nback_sign,2022.2.5,60.01939826962462,
L_Head_X_Back,False,2,robot,2,False,False,robot_stimuli\L_Head_X_Back.mp4,22,0,0,0,0,0,26,26,26,,,,,,,,,,,,,287.8254380999997,287.8254380999997,None,,287.8254380999997,,,288.9356908999998,288.9356908999998,288.9356908999998,,n,292.5892146999995,292.5892146999995,292.5892146999995,292.5892146999995,292.5892146999995,292.5892146999995,292.5892146999995,292.5892146999995,None,None,None,287.8254380999997,287.8254380999997,1.636507399999573,,288.9356908999998,,,,,,,,,,,,,,,,,,22,001,2024-07-30_11h34.15.352,robot_nback_sign,2022.2.5,60.01939826962462,
R_Head_X_Back,True,2,robot,2,False,False,robot_stimuli\R_Head_X_Back.mp4,22,0,0,0,0,0,27,27,27,,,,,,,,,,,,,292.5892146999995,292.5892146999995,None,,292.5892146999995,293.6841666999999,,293.6841666999999,293.6841666999999,293.6841666999999,,c,297.3256881999996,297.3256881999996,297.3256881999996,297.3256881999996,297.3256881999996,297.3256881999996,297.3256881999996,297.3256881999996,None,None,None,292.5892146999995,292.5892146999995,1.8722396000002846,,293.6841666999999,,,,,,,,,,,,,,,,,,22,001,2024-07-30_11h34.15.352,robot_nback_sign,2022.2.5,60.01939826962462,
R_Head_Y_Back,False,2,robot,2,False,False,robot_stimuli\R_Head_Y_Back.mp4,22,0,0,0,0,0,28,28,28,,,,,,,,,,,,,297.3256881999996,297.3256881999996,None,,297.3256881999996,,,298.43388739999955,298.43388739999955,298.43388739999955,,n,302.0722843000003,302.0722843000003,302.0722843000003,302.0722843000003,302.0722843000003,302.0722843000003,302.0722843000003,302.0722843000003,None,None,None,297.3256881999996,297.3256881999996,1.4589544000000387,,298.43388739999955,,,,,,,,,,,,,,,,,,22,001,2024-07-30_11h34.15.352,robot_nback_sign,2022.2.5,60.01939826962462,
R_Head_X_Back,True,2,robot,2,False,True,robot_stimuli\R_Head_X_Back.mp4,22,0,0,0,0,0,29,29,29,,,,,,,,,,,,,302.0722843000003,302.0722843000003,None,,302.0722843000003,303.1527409999999,,303.1527409999999,303.1527409999999,303.1527409999999,,c,306.8195378999999,310.68656099999953,306.8195378999999,310.68656099999953,306.8195378999999,310.68656099999953,306.8195378999999,310.68656099999953,35.24691358024691,3.140259800000422,space,302.0722843000003,302.0722843000003,1.5164599999998245,3.8254664000005505,303.1527409999999,,,,,,,,,,,,,,,,,,22,001,2024-07-30_11h34.15.352,robot_nback_sign,2022.2.5,60.01939826962462,
R_Head_Y_For,False,3,robot,2,True,False,robot_stimuli\R_Head_Y_For.mp4,22,0,0,0,0,0,30,30,30,,,,,,,,,,,,,310.68656099999953,310.68656099999953,space,7.135378300000411,317.84087219999947,318.9262668000001,,318.9262668000001,318.9262668000001,318.9262668000001,,n,322.5733825999996,322.5733825999996,322.5733825999996,322.5733825999996,322.5733825999996,322.5733825999996,322.5733825999996,322.5733825999996,None,None,None,,,2.9826382999999623,,318.9262668000001,,,,,,,,,,,,,,,,,,22,001,2024-07-30_11h34.15.352,robot_nback_sign,2022.2.5,60.01939826962462,
L_Arm_X_For,False,3,robot,2,False,False,robot_stimuli\L_Arm_X_For.mp4,22,0,0,0,0,0,31,31,31,,,,,,,,,,,,,322.5733825999996,322.5733825999996,None,,322.5733825999996,323.6549715000001,,323.6549715000001,323.6549715000001,323.6549715000001,,None,327.30317149999973,327.30317149999973,327.30317149999973,327.30317149999973,327.30317149999973,327.30317149999973,327.30317149999973,327.30317149999973,None,None,None,322.5733825999996,322.5733825999996,,,323.6549715000001,,,,,,,,,,,,,,,,,,22,001,2024-07-30_11h34.15.352,robot_nback_sign,2022.2.5,60.01939826962462,
R_Torso_X_For,False,3,robot,2,False,False,robot_stimuli\R_Torso_X_For.mp4,22,0,0,0,0,0,32,32,32,,,,,,,,,,,,,327.30317149999973,327.30317149999973,None,,327.30317149999973,328.3993654999995,,328.3993654999995,328.3993654999995,328.3993654999995,,None,332.03930690000016,332.03930690000016,332.03930690000016,332.03930690000016,332.03930690000016,332.03930690000016,332.03930690000016,332.03930690000016,None,None,None,327.30317149999973,327.30317149999973,,,328.3993654999995,,,,,,,,,,,,,,,,,,22,001,2024-07-30_11h34.15.352,robot_nback_sign,2022.2.5,60.01939826962462,
R_Head_Y_For,True,3,robot,2,False,False,robot_stimuli\R_Head_Y_For.mp4,22,0,0,0,0,0,33,33,33,,,,,,,,,,,,,332.03930690000016,332.03930690000016,None,,332.03930690000016,333.1168717999999,,333.1168717999999,333.1168717999999,333.1168717999999,,c,336.7719936000003,336.7719936000003,336.7719936000003,336.7719936000003,336.7719936000003,336.7719936000003,336.7719936000003,336.7719936000003,None,None,None,332.03930690000016,332.03930690000016,1.72719749999942,,333.1168717999999,,,,,,,,,,,,,,,,,,22,001,2024-07-30_11h34.15.352,robot_nback_sign,2022.2.5,60.01939826962462,
L_Arm_X_For,True,3,robot,2,False,False,robot_stimuli\L_Arm_X_For.mp4,22,0,0,0,0,0,34,34,34,,,,,,,,,,,,,336.7719936000003,336.7719936000003,None,,336.7719936000003,337.8668279000003,,337.8668279000003,337.8668279000003,337.8668279000003,,c,341.5066219,341.5066219,341.5066219,341.5066219,341.5066219,341.5066219,341.5066219,341.5066219,None,None,None,336.7719936000003,336.7719936000003,1.793823899999552,,337.8668279000003,,,,,,,,,,,,,,,,,,22,001,2024-07-30_11h34.15.352,robot_nback_sign,2022.2.5,60.01939826962462,
R_Base_Z_Back,False,3,robot,2,False,True,robot_stimuli\R_Base_Z_Back.mp4,22,0,0,0,0,0,35,35,35,,,,,,,,,,,,,341.5066219,341.5066219,None,,341.5066219,342.59048449999955,,342.59048449999955,342.59048449999955,342.59048449999955,,n,346.1688342999996,349.97436629999993,346.1688342999996,349.97436629999993,346.1688342999996,349.97436629999993,346.1688342999996,349.97436629999993,102.68518518518519,2.0588888000002044,space,341.5066219,341.5066219,3.07030179999947,3.755313499999829,342.59048449999955,,,,,,,,,,,,,,,,,,22,001,2024-07-30_11h34.15.352,robot_nback_sign,2022.2.5,60.01939826962462,
,,,,,,,,,0,0,0,0,,,,,,,,,,,,,,,,,,,,,,,,,,,,,,,,,,,,,,,,,,,,,349.97436629999993,349.97436629999993,349.97436629999993,c,12.863756499999909,,,,,,,,,,,,,22,001,2024-07-30_11h34.15.352,robot_nback_sign,2022.2.5,60.01939826962462,
G,False,1,letter,1,True,False,robot_stimuli\\filler.mp4,22,,,,,,,,,0,0,0,0,,,,,,,,,,,,,366.5408070000003,367.5992604000003,,,,,,,369.6250054000002,369.6250054000002,369.6250054000002,369.6250054000002,369.6250054000002,369.6250054000002,369.6250054000002,369.6250054000002,None,None,None,,,,,,,,,,,362.8966782999996,362.8966782999996,space,3.6119416999999885,367.5992604000003,367.5992604000003,369.6250054000002,None,,,,,22,001,2024-07-30_11h34.15.352,robot_nback_sign,2022.2.5,60.01939826962462,
Z,False,1,letter,1,False,False,robot_stimuli\\filler.mp4,22,,,,,,,,,0,1,1,1,,,,,,,,,,,,,369.6250054000002,,,,,,,,372.9161965000003,372.9161965000003,372.9161965000003,372.9161965000003,372.9161965000003,372.9161965000003,372.9161965000003,372.9161965000003,None,None,None,,,,,,,,,,,369.6250054000002,369.6250054000002,None,,370.6932184999996,370.6932184999996,372.9161965000003,None,369.6250054000002,369.6250054000002,,,22,001,2024-07-30_11h34.15.352,robot_nback_sign,2022.2.5,60.01939826962462,
Z,True,1,letter,1,False,False,robot_stimuli\\filler.mp4,22,,,,,,,,,0,2,2,2,,,,,,,,,,,,,372.9161965000003,373.97662779999973,,,,,,,376.21005369999966,376.21005369999966,376.21005369999966,376.21005369999966,376.21005369999966,376.21005369999966,376.21005369999966,376.21005369999966,None,None,None,,,,,,,,,,,372.9161965000003,372.9161965000003,None,,373.97662779999973,373.97662779999973,376.21005369999966,c,372.9161965000003,372.9161965000003,1.8372812999996313,,22,001,2024-07-30_11h34.15.352,robot_nback_sign,2022.2.5,60.01939826962462,
M,False,1,letter,1,False,False,robot_stimuli\\filler.mp4,22,,,,,,,,,0,3,3,3,,,,,,,,,,,,,376.21005369999966,,,,,,,,379.3060577999995,379.3060577999995,379.3060577999995,379.3060577999995,379.3060577999995,379.3060577999995,379.3060577999995,379.3060577999995,None,None,None,,,,,,,,,,,376.21005369999966,376.21005369999966,None,,377.2762780000003,377.2762780000003,379.3060577999995,n,376.21005369999966,376.21005369999966,1.5919333000001643,,22,001,2024-07-30_11h34.15.352,robot_nback_sign,2022.2.5,60.01939826962462,
F,False,1,letter,1,False,False,robot_stimuli\\filler.mp4,22,,,,,,,,,0,4,4,4,,,,,,,,,,,,,379.3060577999995,380.3599008000001,,,,,,,382.5878686999995,382.5878686999995,382.5878686999995,382.5878686999995,382.5878686999995,382.5878686999995,382.5878686999995,382.5878686999995,None,None,None,,,,,,,,,,,379.3060577999995,379.3060577999995,None,,380.3599008000001,380.3599008000001,382.5878686999995,None,379.3060577999995,379.3060577999995,,,22,001,2024-07-30_11h34.15.352,robot_nback_sign,2022.2.5,60.01939826962462,
P,False,1,letter,1,False,False,robot_stimuli\\filler.mp4,22,,,,,,,,,0,5,5,5,,,,,,,,,,,,,382.5878686999995,383.64583370000037,,,,,,,385.6827666999998,385.6827666999998,385.6827666999998,385.6827666999998,385.6827666999998,385.6827666999998,385.6827666999998,385.6827666999998,None,None,None,,,,,,,,,,,382.5878686999995,382.5878686999995,None,,383.64583370000037,383.64583370000037,385.6827666999998,None,382.5878686999995,382.5878686999995,,,22,001,2024-07-30_11h34.15.352,robot_nback_sign,2022.2.5,60.01939826962462,
M,False,1,letter,1,False,False,robot_stimuli\\filler.mp4,22,,,,,,,,,0,6,6,6,,,,,,,,,,,,,385.6827666999998,386.7521108000001,,,,,,,388.7789697999997,388.7789697999997,388.7789697999997,388.7789697999997,388.7789697999997,388.7789697999997,388.7789697999997,388.7789697999997,None,None,None,,,,,,,,,,,385.6827666999998,385.6827666999998,None,,386.7521108000001,386.7521108000001,388.7789697999997,n,385.6827666999998,385.6827666999998,1.6376779000001989,,22,001,2024-07-30_11h34.15.352,robot_nback_sign,2022.2.5,60.01939826962462,
M,True,1,letter,1,False,False,robot_stimuli\\filler.mp4,22,,,,,,,,,0,7,7,7,,,,,,,,,,,,,388.7789697999997,389.8411549000002,,,,,,,391.87233409999953,391.87233409999953,391.87233409999953,391.87233409999953,391.87233409999953,391.87233409999953,391.87233409999953,391.87233409999953,None,None,None,,,,,,,,,,,388.7789697999997,388.7789697999997,None,,389.8411549000002,389.8411549000002,391.87233409999953,c,388.7789697999997,388.7789697999997,1.067531599999711,,22,001,2024-07-30_11h34.15.352,robot_nback_sign,2022.2.5,60.01939826962462,
L,False,1,letter,1,False,False,robot_stimuli\\filler.mp4,22,,,,,,,,,0,8,8,8,,,,,,,,,,,,,391.87233409999953,392.9353043000001,,,,,,,394.9724322000002,394.9724322000002,394.9724322000002,394.9724322000002,394.9724322000002,394.9724322000002,394.9724322000002,394.9724322000002,None,None,None,,,,,,,,,,,391.87233409999953,391.87233409999953,None,,392.9353043000001,392.9353043000001,394.9724322000002,None,391.87233409999953,391.87233409999953,,,22,001,2024-07-30_11h34.15.352,robot_nback_sign,2022.2.5,60.01939826962462,
G,False,1,letter,1,False,False,robot_stimuli\\filler.mp4,22,,,,,,,,,0,9,9,9,,,,,,,,,,,,,394.9724322000002,396.02801889999955,,,,,,,398.0594298999995,398.0594298999995,398.0594298999995,398.0594298999995,398.0594298999995,398.0594298999995,398.0594298999995,398.0594298999995,None,None,None,,,,,,,,,,,394.9724322000002,394.9724322000002,None,,396.02801889999955,396.02801889999955,398.0594298999995,n,394.9724322000002,394.9724322000002,0.944935099999384,,22,001,2024-07-30_11h34.15.352,robot_nback_sign,2022.2.5,60.01939826962462,
D,False,1,letter,1,False,False,robot_stimuli\\filler.mp4,22,,,,,,,,,0,10,10,10,,,,,,,,,,,,,398.0594298999995,,,,,,,,401.3567812000001,401.3567812000001,401.3567812000001,401.3567812000001,401.3567812000001,401.3567812000001,401.3567812000001,401.3567812000001,None,None,None,,,,,,,,,,,398.0594298999995,398.0594298999995,None,,399.12686250000024,399.12686250000024,401.3567812000001,n,398.0594298999995,398.0594298999995,0.9750462000001789,,22,001,2024-07-30_11h34.15.352,robot_nback_sign,2022.2.5,60.01939826962462,
R,False,1,letter,1,False,False,robot_stimuli\\filler.mp4,22,,,,,,,,,0,11,11,11,,,,,,,,,,,,,401.3567812000001,402.4096790000003,,,,,,,404.6443570000001,404.6443570000001,404.6443570000001,404.6443570000001,404.6443570000001,404.6443570000001,404.6443570000001,404.6443570000001,None,None,None,,,,,,,,,,,401.3567812000001,401.3567812000001,None,,402.4096790000003,402.4096790000003,404.6443570000001,n,401.3567812000001,401.3567812000001,0.875241100000494,,22,001,2024-07-30_11h34.15.352,robot_nback_sign,2022.2.5,60.01939826962462,
R,True,1,letter,1,False,False,robot_stimuli\\filler.mp4,22,,,,,,,,,0,12,12,12,,,,,,,,,,,,,404.6443570000001,405.72646369999984,,,,,,,407.96234300000015,407.96234300000015,407.96234300000015,407.96234300000015,407.96234300000015,407.96234300000015,407.96234300000015,407.96234300000015,None,None,None,,,,,,,,,,,404.6443570000001,404.6443570000001,None,,405.72646369999984,405.72646369999984,407.96234300000015,c,404.6443570000001,404.6443570000001,0.5417127000000619,,22,001,2024-07-30_11h34.15.352,robot_nback_sign,2022.2.5,60.01939826962462,
V,False,1,letter,1,False,False,robot_stimuli\\filler.mp4,22,,,,,,,,,0,13,13,13,,,,,,,,,,,,,407.96234300000015,409.0279488999995,,,,,,,411.2511536000002,411.2511536000002,411.2511536000002,411.2511536000002,411.2511536000002,411.2511536000002,411.2511536000002,411.2511536000002,None,None,None,,,,,,,,,,,407.96234300000015,407.96234300000015,None,,409.0279488999995,409.0279488999995,411.2511536000002,n,407.96234300000015,407.96234300000015,1.6009951999994882,,22,001,2024-07-30_11h34.15.352,robot_nback_sign,2022.2.5,60.01939826962462,
X,False,1,letter,1,False,False,robot_stimuli\\filler.mp4,22,,,,,,,,,0,14,14,14,,,,,,,,,,,,,411.2511536000002,412.3106379999999,,,,,,,414.54297719999977,414.54297719999977,414.54297719999977,414.54297719999977,414.54297719999977,414.54297719999977,414.54297719999977,414.54297719999977,None,None,None,,,,,,,,,,,411.2511536000002,411.2511536000002,None,,412.3106379999999,412.3106379999999,414.54297719999977,n,411.2511536000002,411.2511536000002,1.3507488000004741,,22,001,2024-07-30_11h34.15.352,robot_nback_sign,2022.2.5,60.01939826962462,
T,False,1,letter,1,False,False,robot_stimuli\\filler.mp4,22,,,,,,,,,0,15,15,15,,,,,,,,,,,,,414.54297719999977,,,,,,,,417.63392289999956,417.63392289999956,417.63392289999956,417.63392289999956,417.63392289999956,417.63392289999956,417.63392289999956,417.63392289999956,None,None,None,,,,,,,,,,,414.54297719999977,414.54297719999977,None,,415.61086160000013,415.61086160000013,417.63392289999956,n,414.54297719999977,414.54297719999977,0.5704343999996127,,22,001,2024-07-30_11h34.15.352,robot_nback_sign,2022.2.5,60.01939826962462,
P,False,1,letter,1,False,False,robot_stimuli\\filler.mp4,22,,,,,,,,,0,16,16,16,,,,,,,,,,,,,417.63392289999956,418.6934848000001,,,,,,,420.92353660000026,420.92353660000026,420.92353660000026,420.92353660000026,420.92353660000026,420.92353660000026,420.92353660000026,420.92353660000026,None,None,None,,,,,,,,,,,417.63392289999956,417.63392289999956,None,,418.6934848000001,418.6934848000001,420.92353660000026,n,417.63392289999956,417.63392289999956,0.5998402999994141,,22,001,2024-07-30_11h34.15.352,robot_nback_sign,2022.2.5,60.01939826962462,
V,False,1,letter,1,False,False,robot_stimuli\\filler.mp4,22,,,,,,,,,0,17,17,17,,,,,,,,,,,,,420.92353660000026,421.9773445999999,,,,,,,424.2042798000002,424.2042798000002,424.2042798000002,424.2042798000002,424.2042798000002,424.2042798000002,424.2042798000002,424.2042798000002,None,None,None,,,,,,,,,,,420.92353660000026,420.92353660000026,None,,421.9773445999999,421.9773445999999,424.2042798000002,n,420.92353660000026,420.92353660000026,0.9395525999998426,,22,001,2024-07-30_11h34.15.352,robot_nback_sign,2022.2.5,60.01939826962462,
V,True,1,letter,1,False,False,robot_stimuli\\filler.mp4,22,,,,,,,,,0,18,18,18,,,,,,,,,,,,,424.2042798000002,425.25718080000024,,,,,,,427.29021290000037,427.29021290000037,427.29021290000037,427.29021290000037,427.29021290000037,427.29021290000037,427.29021290000037,427.29021290000037,None,None,None,,,,,,,,,,,424.2042798000002,424.2042798000002,None,,425.25718080000024,425.25718080000024,427.29021290000037,c,424.2042798000002,424.2042798000002,0.6115391999992426,,22,001,2024-07-30_11h34.15.352,robot_nback_sign,2022.2.5,60.01939826962462,
H,False,1,letter,1,False,False,robot_stimuli\\filler.mp4,22,,,,,,,,,0,19,19,19,,,,,,,,,,,,,427.29021290000037,428.3448400999996,,,,,,,430.37321109999993,430.37321109999993,430.37321109999993,430.37321109999993,430.37321109999993,430.37321109999993,430.37321109999993,430.37321109999993,None,None,None,,,,,,,,,,,427.29021290000037,427.29021290000037,None,,428.3448400999996,428.3448400999996,430.37321109999993,n,427.29021290000037,427.29021290000037,0.5886380000001736,,22,001,2024-07-30_11h34.15.352,robot_nback_sign,2022.2.5,60.01939826962462,
H,True,1,letter,1,False,False,robot_stimuli\\filler.mp4,22,,,,,,,,,0,20,20,20,,,,,,,,,,,,,430.37321109999993,431.42636760000005,,,,,,,433.65426260000004,433.65426260000004,433.65426260000004,433.65426260000004,433.65426260000004,433.65426260000004,433.65426260000004,433.65426260000004,None,None,None,,,,,,,,,,,430.37321109999993,430.37321109999993,None,,431.42636760000005,431.42636760000005,433.65426260000004,c,430.37321109999993,430.37321109999993,0.44247660000019096,,22,001,2024-07-30_11h34.15.352,robot_nback_sign,2022.2.5,60.01939826962462,
T,False,1,letter,1,False,False,robot_stimuli\\filler.mp4,22,,,,,,,,,0,21,21,21,,,,,,,,,,,,,433.65426260000004,434.7137001000001,,,,,,,436.93689710000035,436.93689710000035,436.93689710000035,436.93689710000035,436.93689710000035,436.93689710000035,436.93689710000035,436.93689710000035,None,None,None,,,,,,,,,,,433.65426260000004,433.65426260000004,None,,434.7137001000001,434.7137001000001,436.93689710000035,n,433.65426260000004,433.65426260000004,0.5783703999995851,,22,001,2024-07-30_11h34.15.352,robot_nback_sign,2022.2.5,60.01939826962462,
T,True,1,letter,1,False,False,robot_stimuli\\filler.mp4,22,,,,,,,,,0,22,22,22,,,,,,,,,,,,,436.93689710000035,437.9920168999997,,,,,,,440.21450170000026,440.21450170000026,440.21450170000026,440.21450170000026,440.21450170000026,440.21450170000026,440.21450170000026,440.21450170000026,None,None,None,,,,,,,,,,,436.93689710000035,436.93689710000035,None,,437.9920168999997,437.9920168999997,440.21450170000026,c,436.93689710000035,436.93689710000035,0.613166099999944,,22,001,2024-07-30_11h34.15.352,robot_nback_sign,2022.2.5,60.01939826962462,
T,True,1,letter,1,False,False,robot_stimuli\\filler.mp4,22,,,,,,,,,0,23,23,23,,,,,,,,,,,,,440.21450170000026,441.2760589999998,,,,,,,443.5030283999995,443.5030283999995,443.5030283999995,443.5030283999995,443.5030283999995,443.5030283999995,443.5030283999995,443.5030283999995,None,None,None,,,,,,,,,,,440.21450170000026,440.21450170000026,None,,441.2760589999998,441.2760589999998,443.5030283999995,c,440.21450170000026,440.21450170000026,0.5456834999995408,,22,001,2024-07-30_11h34.15.352,robot_nback_sign,2022.2.5,60.01939826962462,
J,False,1,letter,1,False,False,robot_stimuli\\filler.mp4,22,,,,,,,,,0,24,24,24,,,,,,,,,,,,,443.5030283999995,444.5636545999996,,,,,,,446.7867897999995,446.7867897999995,446.7867897999995,446.7867897999995,446.7867897999995,446.7867897999995,446.7867897999995,446.7867897999995,None,None,None,,,,,,,,,,,443.5030283999995,443.5030283999995,None,,444.5636545999996,444.5636545999996,446.7867897999995,n,443.5030283999995,443.5030283999995,0.6331361999991714,,22,001,2024-07-30_11h34.15.352,robot_nback_sign,2022.2.5,60.01939826962462,
W,False,1,letter,1,False,False,robot_stimuli\\filler.mp4,22,,,,,,,,,0,25,25,25,,,,,,,,,,,,,446.7867897999995,447.84818410000025,,,,,,,449.87416550000034,449.87416550000034,449.87416550000034,449.87416550000034,449.87416550000034,449.87416550000034,449.87416550000034,449.87416550000034,None,None,None,,,,,,,,,,,446.7867897999995,446.7867897999995,None,,447.84818410000025,447.84818410000025,449.87416550000034,n,446.7867897999995,446.7867897999995,0.580992399999559,,22,001,2024-07-30_11h34.15.352,robot_nback_sign,2022.2.5,60.01939826962462,
W,True,1,letter,1,False,False,robot_stimuli\\filler.mp4,22,,,,,,,,,0,26,26,26,,,,,,,,,,,,,449.87416550000034,450.9252636000001,,,,,,,453.1504181,453.1504181,453.1504181,453.1504181,453.1504181,453.1504181,453.1504181,453.1504181,None,None,None,,,,,,,,,,,449.87416550000034,449.87416550000034,None,,450.9252636000001,450.9252636000001,453.1504181,c,449.87416550000034,449.87416550000034,1.0067693999999392,,22,001,2024-07-30_11h34.15.352,robot_nback_sign,2022.2.5,60.01939826962462,
T,False,1,letter,1,False,False,robot_stimuli\\filler.mp4,22,,,,,,,,,0,27,27,27,,,,,,,,,,,,,453.1504181,454.2116335999999,,,,,,,456.23509730000023,456.23509730000023,456.23509730000023,456.23509730000023,456.23509730000023,456.23509730000023,456.23509730000023,456.23509730000023,None,None,None,,,,,,,,,,,453.1504181,453.1504181,None,,454.2116335999999,454.2116335999999,456.23509730000023,n,453.1504181,453.1504181,0.7781642999998439,,22,001,2024-07-30_11h34.15.352,robot_nback_sign,2022.2.5,60.01939826962462,
B,False,1,letter,1,False,False,robot_stimuli\\filler.mp4,22,,,,,,,,,0,28,28,28,,,,,,,,,,,,,456.23509730000023,457.29396610000003,,,,,,,459.52844689999984,459.52844689999984,459.52844689999984,459.52844689999984,459.52844689999984,459.52844689999984,459.52844689999984,459.52844689999984,None,None,None,,,,,,,,,,,456.23509730000023,456.23509730000023,None,,457.29396610000003,457.29396610000003,459.52844689999984,n,456.23509730000023,456.23509730000023,0.6238327999999456,,22,001,2024-07-30_11h34.15.352,robot_nback_sign,2022.2.5,60.01939826962462,
S,False,1,letter,1,False,False,robot_stimuli\\filler.mp4,22,,,,,,,,,0,29,29,29,,,,,,,,,,,,,459.52844689999984,460.6085565000003,,,,,,,462.63730099999975,462.63730099999975,462.63730099999975,462.63730099999975,462.63730099999975,462.63730099999975,462.63730099999975,462.63730099999975,None,None,None,,,,,,,,,,,459.52844689999984,459.52844689999984,None,,460.6085565000003,460.6085565000003,462.63730099999975,n,459.52844689999984,459.52844689999984,0.605024799999228,,22,001,2024-07-30_11h34.15.352,robot_nback_sign,2022.2.5,60.01939826962462,
C,False,1,letter,1,False,False,robot_stimuli\\filler.mp4,22,,,,,,,,,0,30,30,30,,,,,,,,,,,,,462.63730099999975,463.69418099999984,,,,,,,465.7180397000002,465.7180397000002,465.7180397000002,465.7180397000002,465.7180397000002,465.7180397000002,465.7180397000002,465.7180397000002,None,None,None,,,,,,,,,,,462.63730099999975,462.63730099999975,None,,463.69418099999984,463.69418099999984,465.7180397000002,n,462.63730099999975,462.63730099999975,0.6313866999998936,,22,001,2024-07-30_11h34.15.352,robot_nback_sign,2022.2.5,60.01939826962462,
V,False,1,letter,1,False,False,robot_stimuli\\filler.mp4,22,,,,,,,,,0,31,31,31,,,,,,,,,,,,,465.7180397000002,466.78386409999985,,,,,,,468.81276809999963,468.81276809999963,468.81276809999963,468.81276809999963,468.81276809999963,468.81276809999963,468.81276809999963,468.81276809999963,None,None,None,,,,,,,,,,,465.7180397000002,465.7180397000002,None,,466.78386409999985,466.78386409999985,468.81276809999963,n,465.7180397000002,465.7180397000002,0.5814538999993601,,22,001,2024-07-30_11h34.15.352,robot_nback_sign,2022.2.5,60.01939826962462,
V,True,1,letter,1,False,False,robot_stimuli\\filler.mp4,22,,,,,,,,,0,32,32,32,,,,,,,,,,,,,468.81276809999963,469.87644660000024,,,,,,,472.10103419999996,472.10103419999996,472.10103419999996,472.10103419999996,472.10103419999996,472.10103419999996,472.10103419999996,472.10103419999996,None,None,None,,,,,,,,,,,468.81276809999963,468.81276809999963,None,,469.87644660000024,469.87644660000024,472.10103419999996,c,468.81276809999963,468.81276809999963,0.7036459000000832,,22,001,2024-07-30_11h34.15.352,robot_nback_sign,2022.2.5,60.01939826962462,
V,True,1,letter,1,False,False,robot_stimuli\\filler.mp4,22,,,,,,,,,0,33,33,33,,,,,,,,,,,,,472.10103419999996,473.16064780000033,,,,,,,475.19279929999993,475.19279929999993,475.19279929999993,475.19279929999993,475.19279929999993,475.19279929999993,475.19279929999993,475.19279929999993,None,None,None,,,,,,,,,,,472.10103419999996,472.10103419999996,None,,473.16064780000033,473.16064780000033,475.19279929999993,c,472.10103419999996,472.10103419999996,0.9962242999999944,,22,001,2024-07-30_11h34.15.352,robot_nback_sign,2022.2.5,60.01939826962462,
H,False,1,letter,1,False,False,robot_stimuli\\filler.mp4,22,,,,,,,,,0,34,34,34,,,,,,,,,,,,,475.19279929999993,,,,,,,,478.4926878999995,478.4926878999995,478.4926878999995,478.4926878999995,478.4926878999995,478.4926878999995,478.4926878999995,478.4926878999995,None,None,None,,,,,,,,,,,475.19279929999993,475.19279929999993,None,,476.25953649999974,476.25953649999974,478.4926878999995,n,475.19279929999993,475.19279929999993,0.593985900000007,,22,001,2024-07-30_11h34.15.352,robot_nback_sign,2022.2.5,60.01939826962462,
N,False,1,letter,1,False,False,robot_stimuli\\filler.mp4,22,,,,,,,,,0,35,35,35,,,,,,,,,,,,,478.4926878999995,,,,,,,,481.5958516999999,481.5958516999999,481.5958516999999,481.5958516999999,481.5958516999999,481.5958516999999,481.5958516999999,481.5958516999999,None,None,None,,,,,,,,,,,478.4926878999995,478.4926878999995,None,,479.56359919999977,479.56359919999977,481.5958516999999,n,478.4926878999995,478.4926878999995,0.6005464999998367,,22,001,2024-07-30_11h34.15.352,robot_nback_sign,2022.2.5,60.01939826962462,
P,False,1,letter,1,False,False,robot_stimuli\\filler.mp4,22,,,,,,,,,0,36,36,36,,,,,,,,,,,,,481.5958516999999,482.66096990000005,,,,,,,484.6931500999999,484.6931500999999,484.6931500999999,484.6931500999999,484.6931500999999,484.6931500999999,484.6931500999999,484.6931500999999,None,None,None,,,,,,,,,,,481.5958516999999,481.5958516999999,None,,482.66096990000005,482.66096990000005,484.6931500999999,n,481.5958516999999,481.5958516999999,0.9044767999994292,,22,001,2024-07-30_11h34.15.352,robot_nback_sign,2022.2.5,60.01939826962462,
C,False,1,letter,1,False,False,robot_stimuli\\filler.mp4,22,,,,,,,,,0,37,37,37,,,,,,,,,,,,,484.6931500999999,,,,,,,,487.79732409999997,487.79732409999997,487.79732409999997,487.79732409999997,487.79732409999997,487.79732409999997,487.79732409999997,487.79732409999997,None,None,None,,,,,,,,,,,484.6931500999999,484.6931500999999,None,,485.77291700000023,485.77291700000023,487.79732409999997,n,484.6931500999999,484.6931500999999,0.545169299999543,,22,001,2024-07-30_11h34.15.352,robot_nback_sign,2022.2.5,60.01939826962462,
X,False,1,letter,1,False,False,robot_stimuli\\filler.mp4,22,,,,,,,,,0,38,38,38,,,,,,,,,,,,,487.79732409999997,488.8593453000003,,,,,,,491.09307979999994,491.09307979999994,491.09307979999994,491.09307979999994,491.09307979999994,491.09307979999994,491.09307979999994,491.09307979999994,None,None,None,,,,,,,,,,,487.79732409999997,487.79732409999997,None,,488.8593453000003,488.8593453000003,491.09307979999994,n,487.79732409999997,487.79732409999997,0.7463697000002867,,22,001,2024-07-30_11h34.15.352,robot_nback_sign,2022.2.5,60.01939826962462,
H,False,1,letter,1,False,False,robot_stimuli\\filler.mp4,22,,,,,,,,,0,39,39,39,,,,,,,,,,,,,491.09307979999994,,,,,,,,494.18411130000004,494.18411130000004,494.18411130000004,494.18411130000004,494.18411130000004,494.18411130000004,494.18411130000004,494.18411130000004,None,None,None,,,,,,,,,,,491.09307979999994,491.09307979999994,None,,492.1606001,492.1606001,494.18411130000004,n,491.09307979999994,491.09307979999994,1.0768499999994674,,22,001,2024-07-30_11h34.15.352,robot_nback_sign,2022.2.5,60.01939826962462,
S,False,1,letter,1,False,False,robot_stimuli\\filler.mp4,22,,,,,,,,,0,40,40,40,,,,,,,,,,,,,494.18411130000004,495.24391560000004,,,,,,,497.4711017999998,497.4711017999998,497.4711017999998,497.4711017999998,497.4711017999998,497.4711017999998,497.4711017999998,497.4711017999998,None,None,None,,,,,,,,,,,494.18411130000004,494.18411130000004,None,,495.24391560000004,495.24391560000004,497.4711017999998,n,494.18411130000004,494.18411130000004,1.5700631999998222,,22,001,2024-07-30_11h34.15.352,robot_nback_sign,2022.2.5,60.01939826962462,
D,False,1,letter,1,False,False,robot_stimuli\\filler.mp4,22,,,,,,,,,0,41,41,41,,,,,,,,,,,,,497.4711017999998,498.527521,,,,,,,500.55769599999985,500.55769599999985,500.55769599999985,500.55769599999985,500.55769599999985,500.55769599999985,500.55769599999985,500.55769599999985,None,None,None,,,,,,,,,,,497.4711017999998,497.4711017999998,None,,498.527521,498.527521,500.55769599999985,n,497.4711017999998,497.4711017999998,0.44620020000002114,,22,001,2024-07-30_11h34.15.352,robot_nback_sign,2022.2.5,60.01939826962462,
H,False,1,letter,1,False,False,robot_stimuli\\filler.mp4,22,,,,,,,,,0,42,42,42,,,,,,,,,,,,,500.55769599999985,501.60988459999953,,,,,,,503.8370549000001,503.8370549000001,503.8370549000001,503.8370549000001,503.8370549000001,503.8370549000001,503.8370549000001,503.8370549000001,None,None,None,,,,,,,,,,,500.55769599999985,500.55769599999985,None,,501.60988459999953,501.60988459999953,503.8370549000001,n,500.55769599999985,500.55769599999985,0.4917165999995632,,22,001,2024-07-30_11h34.15.352,robot_nback_sign,2022.2.5,60.01939826962462,
Q,False,1,letter,1,False,False,robot_stimuli\\filler.mp4,22,,,,,,,,,0,43,43,43,,,,,,,,,,,,,503.8370549000001,504.89774750000015,,,,,,,506.9248697000003,506.9248697000003,506.9248697000003,506.9248697000003,506.9248697000003,506.9248697000003,506.9248697000003,506.9248697000003,None,None,None,,,,,,,,,,,503.8370549000001,503.8370549000001,None,,504.89774750000015,504.89774750000015,506.9248697000003,n,503.8370549000001,503.8370549000001,0.7303896000003078,,22,001,2024-07-30_11h34.15.352,robot_nback_sign,2022.2.5,60.01939826962462,
S,False,1,letter,1,False,False,robot_stimuli\\filler.mp4,22,,,,,,,,,0,44,44,44,,,,,,,,,,,,,506.9248697000003,507.9783268000001,,,,,,,510.01160549999986,510.01160549999986,510.01160549999986,510.01160549999986,510.01160549999986,510.01160549999986,510.01160549999986,510.01160549999986,None,None,None,,,,,,,,,,,506.9248697000003,506.9248697000003,None,,507.9783268000001,507.9783268000001,510.01160549999986,n,506.9248697000003,506.9248697000003,0.8189115000004676,,22,001,2024-07-30_11h34.15.352,robot_nback_sign,2022.2.5,60.01939826962462,
K,False,1,letter,1,False,False,robot_stimuli\\filler.mp4,22,,,,,,,,,0,45,45,45,,,,,,,,,,,,,510.01160549999986,511.0818099999997,,,,,,,513.1078893000004,513.1078893000004,513.1078893000004,513.1078893000004,513.1078893000004,513.1078893000004,513.1078893000004,513.1078893000004,None,None,None,,,,,,,,,,,510.01160549999986,510.01160549999986,None,,511.0818099999997,511.0818099999997,513.1078893000004,n,510.01160549999986,510.01160549999986,0.6272341000003507,,22,001,2024-07-30_11h34.15.352,robot_nback_sign,2022.2.5,60.01939826962462,
R,False,1,letter,1,False,False,robot_stimuli\\filler.mp4,22,,,,,,,,,0,46,46,46,,,,,,,,,,,,,513.1078893000004,514.1591052000003,,,,,,,516.3928286,516.3928286,516.3928286,516.3928286,516.3928286,516.3928286,516.3928286,516.3928286,None,None,None,,,,,,,,,,,513.1078893000004,513.1078893000004,None,,514.1591052000003,514.1591052000003,516.3928286,n,513.1078893000004,513.1078893000004,0.4785953000000518,,22,001,2024-07-30_11h34.15.352,robot_nback_sign,2022.2.5,60.01939826962462,
Q,False,1,letter,1,False,False,robot_stimuli\\filler.mp4,22,,,,,,,,,0,47,47,47,,,,,,,,,,,,,516.3928286,,,,,,,,519.6844933000002,519.6844933000002,519.6844933000002,519.6844933000002,519.6844933000002,519.6844933000002,519.6844933000002,519.6844933000002,None,None,None,,,,,,,,,,,516.3928286,516.3928286,None,,517.4601843,517.4601843,519.6844933000002,n,516.3928286,516.3928286,0.47305150000011054,,22,001,2024-07-30_11h34.15.352,robot_nback_sign,2022.2.5,60.01939826962462,
B,False,1,letter,1,False,False,robot_stimuli\\filler.mp4,22,,,,,,,,,0,48,48,48,,,,,,,,,,,,,519.6844933000002,520.7440754999998,,,,,,,522.9781512999998,522.9781512999998,522.9781512999998,522.9781512999998,522.9781512999998,522.9781512999998,522.9781512999998,522.9781512999998,None,None,None,,,,,,,,,,,519.6844933000002,519.6844933000002,None,,520.7440754999998,520.7440754999998,522.9781512999998,n,519.6844933000002,519.6844933000002,0.4773267999989912,,22,001,2024-07-30_11h34.15.352,robot_nback_sign,2022.2.5,60.01939826962462,
X,False,1,letter,1,False,True,robot_stimuli\\filler.mp4,22,,,,,,,,,0,49,49,49,,,,,,,,,,,,,522.9781512999998,524.0454710000004,,,,,,,526.3072691999996,618.8008876000004,526.3072691999996,618.8008876000004,526.3072691999996,618.8008876000004,526.3072691999996,618.8008876000004,37.40740740740741,84.67177739999988,space,,,,92.44108080000024,,,,,,,522.9781512999998,522.9781512999998,None,,524.0454710000004,524.0454710000004,526.3072691999996,n,522.9781512999998,522.9781512999998,0.43126240000037797,,22,001,2024-07-30_11h34.15.352,robot_nback_sign,2022.2.5,60.01939826962462,
X,False,3,letter,1,True,False,robot_stimuli\\filler.mp4,22,,,,,,,,,0,50,50,50,,,,,,,,,,,,,623.7909848999998,624.8435819999995,,,,,,,627.0729012000002,627.0729012000002,627.0729012000002,627.0729012000002,627.0729012000002,627.0729012000002,627.0729012000002,627.0729012000002,None,None,None,,,,,,,,,,,618.8008876000004,618.8008876000004,space,4.96514229999957,624.8435819999995,624.8435819999995,627.0729012000002,None,,,,,22,001,2024-07-30_11h34.15.352,robot_nback_sign,2022.2.5,60.01939826962462,
Z,False,3,letter,1,False,False,robot_stimuli\\filler.mp4,22,,,,,,,,,0,51,51,51,,,,,,,,,,,,,627.0729012000002,628.1284993999998,,,,,,,630.3532973000001,630.3532973000001,630.3532973000001,630.3532973000001,630.3532973000001,630.3532973000001,630.3532973000001,630.3532973000001,None,None,None,,,,,,,,,,,627.0729012000002,627.0729012000002,None,,628.1284993999998,628.1284993999998,630.3532973000001,None,627.0729012000002,627.0729012000002,,,22,001,2024-07-30_11h34.15.352,robot_nback_sign,2022.2.5,60.01939826962462,
T,False,3,letter,1,False,False,robot_stimuli\\filler.mp4,22,,,,,,,,,0,52,52,52,,,,,,,,,,,,,630.3532973000001,631.4103113000001,,,,,,,633.6419587,633.6419587,633.6419587,633.6419587,633.6419587,633.6419587,633.6419587,633.6419587,None,None,None,,,,,,,,,,,630.3532973000001,630.3532973000001,None,,631.4103113000001,631.4103113000001,633.6419587,None,630.3532973000001,630.3532973000001,,,22,001,2024-07-30_11h34.15.352,robot_nback_sign,2022.2.5,60.01939826962462,
N,False,3,letter,1,False,False,robot_stimuli\\filler.mp4,22,,,,,,,,,0,53,53,53,,,,,,,,,,,,,633.6419587,634.6937333999995,,,,,,,636.9231867999997,636.9231867999997,636.9231867999997,636.9231867999997,636.9231867999997,636.9231867999997,636.9231867999997,636.9231867999997,None,None,None,,,,,,,,,,,633.6419587,633.6419587,None,,634.6937333999995,634.6937333999995,636.9231867999997,n,633.6419587,633.6419587,0.5433702999998786,,22,001,2024-07-30_11h34.15.352,robot_nback_sign,2022.2.5,60.01939826962462,
M,False,3,letter,1,False,False,robot_stimuli\\filler.mp4,22,,,,,,,,,0,54,54,54,,,,,,,,,,,,,636.9231867999997,637.9765189,,,,,,,640.2085847999997,640.2085847999997,640.2085847999997,640.2085847999997,640.2085847999997,640.2085847999997,640.2085847999997,640.2085847999997,None,None,None,,,,,,,,,,,636.9231867999997,636.9231867999997,None,,637.9765189,637.9765189,640.2085847999997,None,636.9231867999997,636.9231867999997,,,22,001,2024-07-30_11h34.15.352,robot_nback_sign,2022.2.5,60.01939826962462,
T,True,3,letter,1,False,False,robot_stimuli\\filler.mp4,22,,,,,,,,,0,55,55,55,,,,,,,,,,,,,640.2085847999997,641.2624999,,,,,,,643.2848888999997,643.2848888999997,643.2848888999997,643.2848888999997,643.2848888999997,643.2848888999997,643.2848888999997,643.2848888999997,None,None,None,,,,,,,,,,,640.2085847999997,640.2085847999997,None,,641.2624999,641.2624999,643.2848888999997,None,640.2085847999997,640.2085847999997,,,22,001,2024-07-30_11h34.15.352,robot_nback_sign,2022.2.5,60.01939826962462,
N,True,3,letter,1,False,False,robot_stimuli\\filler.mp4,22,,,,,,,,,0,56,56,56,,,,,,,,,,,,,643.2848888999997,644.3432535000002,,,,,,,646.5668199000002,646.5668199000002,646.5668199000002,646.5668199000002,646.5668199000002,646.5668199000002,646.5668199000002,646.5668199000002,None,None,None,,,,,,,,,,,643.2848888999997,643.2848888999997,None,,644.3432535000002,644.3432535000002,646.5668199000002,c,643.2848888999997,643.2848888999997,1.7662851999994018,,22,001,2024-07-30_11h34.15.352,robot_nback_sign,2022.2.5,60.01939826962462,
Q,False,3,letter,1,False,False,robot_stimuli\\filler.mp4,22,,,,,,,,,0,57,57,57,,,,,,,,,,,,,646.5668199000002,647.6275624,,,,,,,649.6615714999998,649.6615714999998,649.6615714999998,649.6615714999998,649.6615714999998,649.6615714999998,649.6615714999998,649.6615714999998,None,None,None,,,,,,,,,,,646.5668199000002,646.5668199000002,None,,647.6275624,647.6275624,649.6615714999998,n,646.5668199000002,646.5668199000002,1.8336553999997705,,22,001,2024-07-30_11h34.15.352,robot_nback_sign,2022.2.5,60.01939826962462,
P,False,3,letter,1,False,False,robot_stimuli\\filler.mp4,22,,,,,,,,,0,58,58,58,,,,,,,,,,,,,649.6615714999998,650.7272776999998,,,,,,,652.9533297999997,652.9533297999997,652.9533297999997,652.9533297999997,652.9533297999997,652.9533297999997,652.9533297999997,652.9533297999997,None,None,None,,,,,,,,,,,649.6615714999998,649.6615714999998,None,,650.7272776999998,650.7272776999998,652.9533297999997,n,649.6615714999998,649.6615714999998,1.494002499999624,,22,001,2024-07-30_11h34.15.352,robot_nback_sign,2022.2.5,60.01939826962462,
M,False,3,letter,1,False,False,robot_stimuli\\filler.mp4,22,,,,,,,,,0,59,59,59,,,,,,,,,,,,,652.9533297999997,654.0119058,,,,,,,656.0415598,656.0415598,656.0415598,656.0415598,656.0415598,656.0415598,656.0415598,656.0415598,None,None,None,,,,,,,,,,,652.9533297999997,652.9533297999997,None,,654.0119058,654.0119058,656.0415598,n,652.9533297999997,652.9533297999997,0.8573445000001811,,22,001,2024-07-30_11h34.15.352,robot_nback_sign,2022.2.5,60.01939826962462,
X,False,3,letter,1,False,False,robot_stimuli\\filler.mp4,22,,,,,,,,,0,60,60,60,,,,,,,,,,,,,656.0415598,657.0958091000002,,,,,,,659.3212905999999,659.3212905999999,659.3212905999999,659.3212905999999,659.3212905999999,659.3212905999999,659.3212905999999,659.3212905999999,None,None,None,,,,,,,,,,,656.0415598,656.0415598,None,,657.0958091000002,657.0958091000002,659.3212905999999,n,656.0415598,656.0415598,0.8048872999997911,,22,001,2024-07-30_11h34.15.352,robot_nback_sign,2022.2.5,60.01939826962462,
X,False,3,letter,1,False,False,robot_stimuli\\filler.mp4,22,,,,,,,,,0,61,61,61,,,,,,,,,,,,,659.3212905999999,660.3805818999999,,,,,,,662.4117226999997,662.4117226999997,662.4117226999997,662.4117226999997,662.4117226999997,662.4117226999997,662.4117226999997,662.4117226999997,None,None,None,,,,,,,,,,,659.3212905999999,659.3212905999999,None,,660.3805818999999,660.3805818999999,662.4117226999997,c,659.3212905999999,659.3212905999999,1.5053674999999203,,22,001,2024-07-30_11h34.15.352,robot_nback_sign,2022.2.5,60.01939826962462,
M,True,3,letter,1,False,False,robot_stimuli\\filler.mp4,22,,,,,,,,,0,62,62,62,,,,,,,,,,,,,662.4117226999997,663.4778543000002,,,,,,,665.7100245000001,665.7100245000001,665.7100245000001,665.7100245000001,665.7100245000001,665.7100245000001,665.7100245000001,665.7100245000001,None,None,None,,,,,,,,,,,662.4117226999997,662.4117226999997,None,,663.4778543000002,663.4778543000002,665.7100245000001,None,662.4117226999997,662.4117226999997,,,22,001,2024-07-30_11h34.15.352,robot_nback_sign,2022.2.5,60.01939826962462,
V,False,3,letter,1,False,False,robot_stimuli\\filler.mp4,22,,,,,,,,,0,63,63,63,,,,,,,,,,,,,665.7100245000001,,,,,,,,669.0051006000003,669.0051006000003,669.0051006000003,669.0051006000003,669.0051006000003,669.0051006000003,669.0051006000003,669.0051006000003,None,None,None,,,,,,,,,,,665.7100245000001,665.7100245000001,None,,666.7775044999998,666.7775044999998,669.0051006000003,None,665.7100245000001,665.7100245000001,,,22,001,2024-07-30_11h34.15.352,robot_nback_sign,2022.2.5,60.01939826962462,
Q,False,3,letter,1,False,False,robot_stimuli\\filler.mp4,22,,,,,,,,,0,64,64,64,,,,,,,,,,,,,669.0051006000003,670.0601218000002,,,,,,,672.2890912000003,672.2890912000003,672.2890912000003,672.2890912000003,672.2890912000003,672.2890912000003,672.2890912000003,672.2890912000003,None,None,None,,,,,,,,,,,669.0051006000003,669.0051006000003,None,,670.0601218000002,670.0601218000002,672.2890912000003,n,669.0051006000003,669.0051006000003,1.2965919999996913,,22,001,2024-07-30_11h34.15.352,robot_nback_sign,2022.2.5,60.01939826962462,
L,False,3,letter,1,False,False,robot_stimuli\\filler.mp4,22,,,,,,,,,0,65,65,65,,,,,,,,,,,,,672.2890912000003,673.3445565000002,,,,,,,675.3675932999995,675.3675932999995,675.3675932999995,675.3675932999995,675.3675932999995,675.3675932999995,675.3675932999995,675.3675932999995,None,None,None,,,,,,,,,,,672.2890912000003,672.2890912000003,None,,673.3445565000002,673.3445565000002,675.3675932999995,None,672.2890912000003,672.2890912000003,,,22,001,2024-07-30_11h34.15.352,robot_nback_sign,2022.2.5,60.01939826962462,
V,True,3,letter,1,False,False,robot_stimuli\\filler.mp4,22,,,,,,,,,0,66,66,66,,,,,,,,,,,,,675.3675932999995,676.4264794000001,,,,,,,678.6537520000002,678.6537520000002,678.6537520000002,678.6537520000002,678.6537520000002,678.6537520000002,678.6537520000002,678.6537520000002,None,None,None,,,,,,,,,,,675.3675932999995,675.3675932999995,None,,676.4264794000001,676.4264794000001,678.6537520000002,c,675.3675932999995,675.3675932999995,1.4832354000000123,,22,001,2024-07-30_11h34.15.352,robot_nback_sign,2022.2.5,60.01939826962462,
K,False,3,letter,1,False,False,robot_stimuli\\filler.mp4,22,,,,,,,,,0,67,67,67,,,,,,,,,,,,,678.6537520000002,679.7116338999995,,,,,,,681.7405522999998,681.7405522999998,681.7405522999998,681.7405522999998,681.7405522999998,681.7405522999998,681.7405522999998,681.7405522999998,None,None,None,,,,,,,,,,,678.6537520000002,678.6537520000002,None,,679.7116338999995,679.7116338999995,681.7405522999998,n,678.6537520000002,678.6537520000002,1.5894208999998227,,22,001,2024-07-30_11h34.15.352,robot_nback_sign,2022.2.5,60.01939826962462,
H,False,3,letter,1,False,False,robot_stimuli\\filler.mp4,22,,,,,,,,,0,68,68,68,,,,,,,,,,,,,681.7405522999998,682.7935342999999,,,,,,,684.8287738999998,684.8287738999998,684.8287738999998,684.8287738999998,684.8287738999998,684.8287738999998,684.8287738999998,684.8287738999998,None,None,None,,,,,,,,,,,681.7405522999998,681.7405522999998,None,,682.7935342999999,682.7935342999999,684.8287738999998,n,681.7405522999998,681.7405522999998,1.698862299999746,,22,001,2024-07-30_11h34.15.352,robot_nback_sign,2022.2.5,60.01939826962462,
K,False,3,letter,1,False,False,robot_stimuli\\filler.mp4,22,,,,,,,,,0,69,69,69,,,,,,,,,,,,,684.8287738999998,685.8949166000002,,,,,,,688.1221758000002,688.1221758000002,688.1221758000002,688.1221758000002,688.1221758000002,688.1221758000002,688.1221758000002,688.1221758000002,None,None,None,,,,,,,,,,,684.8287738999998,684.8287738999998,None,,685.8949166000002,685.8949166000002,688.1221758000002,c,684.8287738999998,684.8287738999998,1.7337660999992295,,22,001,2024-07-30_11h34.15.352,robot_nback_sign,2022.2.5,60.01939826962462,
V,False,3,letter,1,False,False,robot_stimuli\\filler.mp4,22,,,,,,,,,0,70,70,70,,,,,,,,,,,,,688.1221758000002,689.1782186999999,,,,,,,691.4048858999995,691.4048858999995,691.4048858999995,691.4048858999995,691.4048858999995,691.4048858999995,691.4048858999995,691.4048858999995,None,None,None,,,,,,,,,,,688.1221758000002,688.1221758000002,None,,689.1782186999999,689.1782186999999,691.4048858999995,c,688.1221758000002,688.1221758000002,1.4433145000002696,,22,001,2024-07-30_11h34.15.352,robot_nback_sign,2022.2.5,60.01939826962462,
K,False,3,letter,1,False,False,robot_stimuli\\filler.mp4,22,,,,,,,,,0,71,71,71,,,,,,,,,,,,,691.4048858999995,692.4609068,,,,,,,694.6878126000001,694.6878126000001,694.6878126000001,694.6878126000001,694.6878126000001,694.6878126000001,694.6878126000001,694.6878126000001,None,None,None,,,,,,,,,,,691.4048858999995,691.4048858999995,None,,692.4609068,692.4609068,694.6878126000001,c,691.4048858999995,691.4048858999995,1.9768425000002026,,22,001,2024-07-30_11h34.15.352,robot_nback_sign,2022.2.5,60.01939826962462,
R,False,3,letter,1,False,False,robot_stimuli\\filler.mp4,22,,,,,,,,,0,72,72,72,,,,,,,,,,,,,694.6878126000001,695.7435304,,,,,,,697.9758977000001,697.9758977000001,697.9758977000001,697.9758977000001,697.9758977000001,697.9758977000001,697.9758977000001,697.9758977000001,None,None,None,,,,,,,,,,,694.6878126000001,694.6878126000001,None,,695.7435304,695.7435304,697.9758977000001,None,694.6878126000001,694.6878126000001,,,22,001,2024-07-30_11h34.15.352,robot_nback_sign,2022.2.5,60.01939826962462,
V,True,3,letter,1,False,False,robot_stimuli\\filler.mp4,22,,,,,,,,,0,73,73,73,,,,,,,,,,,,,697.9758977000001,,,,,,,,701.2745494000001,701.2745494000001,701.2745494000001,701.2745494000001,701.2745494000001,701.2745494000001,701.2745494000001,701.2745494000001,None,None,None,,,,,,,,,,,697.9758977000001,697.9758977000001,None,,699.0444852,699.0444852,701.2745494000001,c,697.9758977000001,697.9758977000001,1.2091435999991518,,22,001,2024-07-30_11h34.15.352,robot_nback_sign,2022.2.5,60.01939826962462,
F,False,3,letter,1,False,False,robot_stimuli\\filler.mp4,22,,,,,,,,,0,74,74,74,,,,,,,,,,,,,701.2745494000001,702.3278493999996,,,,,,,704.5553241999996,704.5553241999996,704.5553241999996,704.5553241999996,704.5553241999996,704.5553241999996,704.5553241999996,704.5553241999996,None,None,None,,,,,,,,,,,701.2745494000001,701.2745494000001,None,,702.3278493999996,702.3278493999996,704.5553241999996,n,701.2745494000001,701.2745494000001,0.7576983999997537,,22,001,2024-07-30_11h34.15.352,robot_nback_sign,2022.2.5,60.01939826962462,
L,False,3,letter,1,False,False,robot_stimuli\\filler.mp4,22,,,,,,,,,0,75,75,75,,,,,,,,,,,,,704.5553241999996,705.6207978000002,,,,,,,707.6443397000003,707.6443397000003,707.6443397000003,707.6443397000003,707.6443397000003,707.6443397000003,707.6443397000003,707.6443397000003,None,None,None,,,,,,,,,,,704.5553241999996,704.5553241999996,None,,705.6207978000002,705.6207978000002,707.6443397000003,n,704.5553241999996,704.5553241999996,1.8074173999993945,,22,001,2024-07-30_11h34.15.352,robot_nback_sign,2022.2.5,60.01939826962462,
P,False,3,letter,1,False,False,robot_stimuli\\filler.mp4,22,,,,,,,,,0,76,76,76,,,,,,,,,,,,,707.6443397000003,708.7110175999996,,,,,,,710.7418091,710.7418091,710.7418091,710.7418091,710.7418091,710.7418091,710.7418091,710.7418091,None,None,None,,,,,,,,,,,707.6443397000003,707.6443397000003,None,,708.7110175999996,708.7110175999996,710.7418091,n,707.6443397000003,707.6443397000003,1.262278399999559,,22,001,2024-07-30_11h34.15.352,robot_nback_sign,2022.2.5,60.01939826962462,
W,False,3,letter,1,False,False,robot_stimuli\\filler.mp4,22,,,,,,,,,0,77,77,77,,,,,,,,,,,,,710.7418091,711.8050486000002,,,,,,,713.8287628999997,713.8287628999997,713.8287628999997,713.8287628999997,713.8287628999997,713.8287628999997,713.8287628999997,713.8287628999997,None,None,None,,,,,,,,,,,710.7418091,710.7418091,None,,711.8050486000002,711.8050486000002,713.8287628999997,n,710.7418091,710.7418091,1.2237889999996696,,22,001,2024-07-30_11h34.15.352,robot_nback_sign,2022.2.5,60.01939826962462,
T,False,3,letter,1,False,False,robot_stimuli\\filler.mp4,22,,,,,,,,,0,78,78,78,,,,,,,,,,,,,713.8287628999997,714.8939798000001,,,,,,,717.125798,717.125798,717.125798,717.125798,717.125798,717.125798,717.125798,717.125798,None,None,None,,,,,,,,,,,713.8287628999997,713.8287628999997,None,,714.8939798000001,714.8939798000001,717.125798,n,713.8287628999997,713.8287628999997,1.6311142999993535,,22,001,2024-07-30_11h34.15.352,robot_nback_sign,2022.2.5,60.01939826962462,
C,False,3,letter,1,False,False,robot_stimuli\\filler.mp4,22,,,,,,,,,0,79,79,79,,,,,,,,,,,,,717.125798,,,,,,,,720.4174577000003,720.4174577000003,720.4174577000003,720.4174577000003,720.4174577000003,720.4174577000003,720.4174577000003,720.4174577000003,None,None,None,,,,,,,,,,,717.125798,717.125798,None,,718.1947496000003,718.1947496000003,720.4174577000003,c,717.125798,717.125798,1.6027811999992991,,22,001,2024-07-30_11h34.15.352,robot_nback_sign,2022.2.5,60.01939826962462,
P,False,3,letter,1,False,False,robot_stimuli\\filler.mp4,22,,,,,,,,,0,80,80,80,,,,,,,,,,,,,720.4174577000003,721.4778151999999,,,,,,,723.5076634999996,723.5076634999996,723.5076634999996,723.5076634999996,723.5076634999996,723.5076634999996,723.5076634999996,723.5076634999996,None,None,None,,,,,,,,,,,720.4174577000003,720.4174577000003,None,,721.4778151999999,721.4778151999999,723.5076634999996,None,720.4174577000003,720.4174577000003,,,22,001,2024-07-30_11h34.15.352,robot_nback_sign,2022.2.5,60.01939826962462,
K,False,3,letter,1,False,False,robot_stimuli\\filler.mp4,22,,,,,,,,,0,81,81,81,,,,,,,,,,,,,723.5076634999996,724.5606397000001,,,,,,,726.5925830999995,726.5925830999995,726.5925830999995,726.5925830999995,726.5925830999995,726.5925830999995,726.5925830999995,726.5925830999995,None,None,None,,,,,,,,,,,723.5076634999996,723.5076634999996,None,,724.5606397000001,724.5606397000001,726.5925830999995,n,723.5076634999996,723.5076634999996,1.485240299999532,,22,001,2024-07-30_11h34.15.352,robot_nback_sign,2022.2.5,60.01939826962462,
S,False,3,letter,1,False,False,robot_stimuli\\filler.mp4,22,,,,,,,,,0,82,82,82,,,,,,,,,,,,,726.5925830999995,,,,,,,,729.8889546,729.8889546,729.8889546,729.8889546,729.8889546,729.8889546,729.8889546,729.8889546,None,None,None,,,,,,,,,,,726.5925830999995,726.5925830999995,None,,727.6615186999998,727.6615186999998,729.8889546,n,726.5925830999995,726.5925830999995,1.7275187000004735,,22,001,2024-07-30_11h34.15.352,robot_nback_sign,2022.2.5,60.01939826962462,
Z,False,3,letter,1,False,False,robot_stimuli\\filler.mp4,22,,,,,,,,,0,83,83,83,,,,,,,,,,,,,729.8889546,730.9438855999997,,,,,,,733.1716666000002,733.1716666000002,733.1716666000002,733.1716666000002,733.1716666000002,733.1716666000002,733.1716666000002,733.1716666000002,None,None,None,,,,,,,,,,,729.8889546,729.8889546,None,,730.9438855999997,730.9438855999997,733.1716666000002,n,729.8889546,729.8889546,1.7727816999995412,,22,001,2024-07-30_11h34.15.352,robot_nback_sign,2022.2.5,60.01939826962462,
K,True,3,letter,1,False,False,robot_stimuli\\filler.mp4,22,,,,,,,,,0,84,84,84,,,,,,,,,,,,,733.1716666000002,734.2266060000002,,,,,,,736.4585497999997,736.4585497999997,736.4585497999997,736.4585497999997,736.4585497999997,736.4585497999997,736.4585497999997,736.4585497999997,None,None,None,,,,,,,,,,,733.1716666000002,733.1716666000002,None,,734.2266060000002,734.2266060000002,736.4585497999997,c,733.1716666000002,733.1716666000002,0.9631966999995711,,22,001,2024-07-30_11h34.15.352,robot_nback_sign,2022.2.5,60.01939826962462,
R,False,3,letter,1,False,False,robot_stimuli\\filler.mp4,22,,,,,,,,,0,85,85,85,,,,,,,,,,,,,736.4585497999997,737.5173943999998,,,,,,,739.5515648999999,739.5515648999999,739.5515648999999,739.5515648999999,739.5515648999999,739.5515648999999,739.5515648999999,739.5515648999999,None,None,None,,,,,,,,,,,736.4585497999997,736.4585497999997,None,,737.5173943999998,737.5173943999998,739.5515648999999,n,736.4585497999997,736.4585497999997,1.2561561000002257,,22,001,2024-07-30_11h34.15.352,robot_nback_sign,2022.2.5,60.01939826962462,
Z,True,3,letter,1,False,False,robot_stimuli\\filler.mp4,22,,,,,,,,,0,86,86,86,,,,,,,,,,,,,739.5515648999999,740.6101902999999,,,,,,,742.8394394999996,742.8394394999996,742.8394394999996,742.8394394999996,742.8394394999996,742.8394394999996,742.8394394999996,742.8394394999996,None,None,None,,,,,,,,,,,739.5515648999999,739.5515648999999,None,,740.6101902999999,740.6101902999999,742.8394394999996,n,739.5515648999999,739.5515648999999,1.4430286000006163,,22,001,2024-07-30_11h34.15.352,robot_nback_sign,2022.2.5,60.01939826962462,
X,False,3,letter,1,False,False,robot_stimuli\\filler.mp4,22,,,,,,,,,0,87,87,87,,,,,,,,,,,,,742.8394394999996,743.8943658999997,,,,,,,746.1177531000003,746.1177531000003,746.1177531000003,746.1177531000003,746.1177531000003,746.1177531000003,746.1177531000003,746.1177531000003,None,None,None,,,,,,,,,,,742.8394394999996,742.8394394999996,None,,743.8943658999997,743.8943658999997,746.1177531000003,n,742.8394394999996,742.8394394999996,1.7596917000000758,,22,001,2024-07-30_11h34.15.352,robot_nback_sign,2022.2.5,60.01939826962462,
R,True,3,letter,1,False,False,robot_stimuli\\filler.mp4,22,,,,,,,,,0,88,88,88,,,,,,,,,,,,,746.1177531000003,747.177291,,,,,,,749.4109982999998,749.4109982999998,749.4109982999998,749.4109982999998,749.4109982999998,749.4109982999998,749.4109982999998,749.4109982999998,None,None,None,,,,,,,,,,,746.1177531000003,746.1177531000003,None,,747.177291,747.177291,749.4109982999998,c,746.1177531000003,746.1177531000003,1.3959043000004385,,22,001,2024-07-30_11h34.15.352,robot_nback_sign,2022.2.5,60.01939826962462,
V,False,3,letter,1,False,False,robot_stimuli\\filler.mp4,22,,,,,,,,,0,89,89,89,,,,,,,,,,,,,749.4109982999998,750.4794697999996,,,,,,,752.5065053999997,752.5065053999997,752.5065053999997,752.5065053999997,752.5065053999997,752.5065053999997,752.5065053999997,752.5065053999997,None,None,None,,,,,,,,,,,749.4109982999998,749.4109982999998,None,,750.4794697999996,750.4794697999996,752.5065053999997,n,749.4109982999998,749.4109982999998,1.7808838999999352,,22,001,2024-07-30_11h34.15.352,robot_nback_sign,2022.2.5,60.01939826962462,
D,False,3,letter,1,False,False,robot_stimuli\\filler.mp4,22,,,,,,,,,0,90,90,90,,,,,,,,,,,,,752.5065053999997,753.5602904999996,,,,,,,755.7922503,755.7922503,755.7922503,755.7922503,755.7922503,755.7922503,755.7922503,755.7922503,None,None,None,,,,,,,,,,,752.5065053999997,752.5065053999997,None,,753.5602904999996,753.5602904999996,755.7922503,n,752.5065053999997,752.5065053999997,1.165561599999819,,22,001,2024-07-30_11h34.15.352,robot_nback_sign,2022.2.5,60.01939826962462,
Z,False,3,letter,1,False,False,robot_stimuli\\filler.mp4,22,,,,,,,,,0,91,91,91,,,,,,,,,,,,,755.7922503,,,,,,,,758.8928187000001,758.8928187000001,758.8928187000001,758.8928187000001,758.8928187000001,758.8928187000001,758.8928187000001,758.8928187000001,None,None,None,,,,,,,,,,,755.7922503,755.7922503,None,,756.8624831999996,756.8624831999996,758.8928187000001,c,755.7922503,755.7922503,0.9508919999998398,,22,001,2024-07-30_11h34.15.352,robot_nback_sign,2022.2.5,60.01939826962462,
F,False,3,letter,1,False,False,robot_stimuli\\filler.mp4,22,,,,,,,,,0,92,92,92,,,,,,,,,,,,,758.8928187000001,,,,,,,,762.1930197000001,762.1930197000001,762.1930197000001,762.1930197000001,762.1930197000001,762.1930197000001,762.1930197000001,762.1930197000001,None,None,None,,,,,,,,,,,758.8928187000001,758.8928187000001,None,,759.9603504999995,759.9603504999995,762.1930197000001,n,758.8928187000001,758.8928187000001,1.5417539999998553,,22,001,2024-07-30_11h34.15.352,robot_nback_sign,2022.2.5,60.01939826962462,
D,True,3,letter,1,False,False,robot_stimuli\\filler.mp4,22,,,,,,,,,0,93,93,93,,,,,,,,,,,,,762.1930197000001,,,,,,,,765.4867832999998,765.4867832999998,765.4867832999998,765.4867832999998,765.4867832999998,765.4867832999998,765.4867832999998,765.4867832999998,None,None,None,,,,,,,,,,,762.1930197000001,762.1930197000001,None,,763.2634467999997,763.2634467999997,765.4867832999998,n,762.1930197000001,762.1930197000001,1.0291887000003044,,22,001,2024-07-30_11h34.15.352,robot_nback_sign,2022.2.5,60.01939826962462,
D,False,3,letter,1,False,False,robot_stimuli\\filler.mp4,22,,,,,,,,,0,94,94,94,,,,,,,,,,,,,765.4867832999998,766.5434568999999,,,,,,,768.7760172999997,768.7760172999997,768.7760172999997,768.7760172999997,768.7760172999997,768.7760172999997,768.7760172999997,768.7760172999997,None,None,None,,,,,,,,,,,765.4867832999998,765.4867832999998,None,,766.5434568999999,766.5434568999999,768.7760172999997,n,765.4867832999998,765.4867832999998,1.125918300000194,,22,001,2024-07-30_11h34.15.352,robot_nback_sign,2022.2.5,60.01939826962462,
B,False,3,letter,1,False,False,robot_stimuli\\filler.mp4,22,,,,,,,,,0,95,95,95,,,,,,,,,,,,,768.7760172999997,,,,,,,,771.8738266,771.8738266,771.8738266,771.8738266,771.8738266,771.8738266,771.8738266,771.8738266,None,None,None,,,,,,,,,,,768.7760172999997,768.7760172999997,None,,769.8481517999999,769.8481517999999,771.8738266,n,768.7760172999997,768.7760172999997,0.7015422000004037,,22,001,2024-07-30_11h34.15.352,robot_nback_sign,2022.2.5,60.01939826962462,
H,False,3,letter,1,False,False,robot_stimuli\\filler.mp4,22,,,,,,,,,0,96,96,96,,,,,,,,,,,,,771.8738266,772.9292247000003,,,,,,,774.9573672999995,774.9573672999995,774.9573672999995,774.9573672999995,774.9573672999995,774.9573672999995,774.9573672999995,774.9573672999995,None,None,None,,,,,,,,,,,771.8738266,771.8738266,None,,772.9292247000003,772.9292247000003,774.9573672999995,n,771.8738266,771.8738266,0.7953169000002163,,22,001,2024-07-30_11h34.15.352,robot_nback_sign,2022.2.5,60.01939826962462,
L,False,3,letter,1,False,False,robot_stimuli\\filler.mp4,22,,,,,,,,,0,97,97,97,,,,,,,,,,,,,774.9573672999995,776.0115700999995,,,,,,,778.0407230000001,778.0407230000001,778.0407230000001,778.0407230000001,778.0407230000001,778.0407230000001,778.0407230000001,778.0407230000001,None,None,None,,,,,,,,,,,774.9573672999995,774.9573672999995,None,,776.0115700999995,776.0115700999995,778.0407230000001,n,774.9573672999995,774.9573672999995,0.8818377999996301,,22,001,2024-07-30_11h34.15.352,robot_nback_sign,2022.2.5,60.01939826962462,
K,False,3,letter,1,False,False,robot_stimuli\\filler.mp4,22,,,,,,,,,0,98,98,98,,,,,,,,,,,,,778.0407230000001,779.0937401000001,,,,,,,781.3222704,781.3222704,781.3222704,781.3222704,781.3222704,781.3222704,781.3222704,781.3222704,None,None,None,,,,,,,,,,,778.0407230000001,778.0407230000001,None,,779.0937401000001,779.0937401000001,781.3222704,n,778.0407230000001,778.0407230000001,1.3682611999993242,,22,001,2024-07-30_11h34.15.352,robot_nback_sign,2022.2.5,60.01939826962462,
H,True,3,letter,1,False,True,robot_stimuli\\filler.mp4,22,,,,,,,,,0,99,99,99,,,,,,,,,,,,,781.3222704,782.3798949000002,,,,,,,784.4395126,788.7478353999995,784.4395126,788.7478353999995,784.4395126,788.7478353999995,784.4395126,788.7478353999995,150.0,3.268416399999296,space,,,,4.268739499999356,,,,,,,781.3222704,781.3222704,None,,782.3798949000002,782.3798949000002,784.4395126,c,781.3222704,781.3222704,1.5528472999994847,,22,001,2024-07-30_11h34.15.352,robot_nback_sign,2022.2.5,60.01939826962462,
V,False,2,letter,1,True,False,robot_stimuli\\filler.mp4,22,,,,,,,,,0,100,100,100,,,,,,,,,,,,,807.8577831000002,808.9142494999996,,,,,,,810.9428261000003,810.9428261000003,810.9428261000003,810.9428261000003,810.9428261000003,810.9428261000003,810.9428261000003,810.9428261000003,None,None,None,,,,,,,,,,,788.7478353999995,788.7478353999995,space,19.090162799999234,808.9142494999996,808.9142494999996,810.9428261000003,None,,,,,22,001,2024-07-30_11h34.15.352,robot_nback_sign,2022.2.5,60.01939826962462,
P,False,2,letter,1,False,False,robot_stimuli\\filler.mp4,22,,,,,,,,,0,101,101,101,,,,,,,,,,,,,810.9428261000003,,,,,,,,814.2372380999996,814.2372380999996,814.2372380999996,814.2372380999996,814.2372380999996,814.2372380999996,814.2372380999996,814.2372380999996,None,None,None,,,,,,,,,,,810.9428261000003,810.9428261000003,None,,812.0117055000001,812.0117055000001,814.2372380999996,None,810.9428261000003,810.9428261000003,,,22,001,2024-07-30_11h34.15.352,robot_nback_sign,2022.2.5,60.01939826962462,
M,False,2,letter,1,False,False,robot_stimuli\\filler.mp4,22,,,,,,,,,0,102,102,102,,,,,,,,,,,,,814.2372380999996,815.2944283999996,,,,,,,817.5182793000004,817.5182793000004,817.5182793000004,817.5182793000004,817.5182793000004,817.5182793000004,817.5182793000004,817.5182793000004,None,None,None,,,,,,,,,,,814.2372380999996,814.2372380999996,None,,815.2944283999996,815.2944283999996,817.5182793000004,n,814.2372380999996,814.2372380999996,1.4229484999996203,,22,001,2024-07-30_11h34.15.352,robot_nback_sign,2022.2.5,60.01939826962462,
G,False,2,letter,1,False,False,robot_stimuli\\filler.mp4,22,,,,,,,,,0,103,103,103,,,,,,,,,,,,,817.5182793000004,818.5768435,,,,,,,820.6034374000001,820.6034374000001,820.6034374000001,820.6034374000001,820.6034374000001,820.6034374000001,820.6034374000001,820.6034374000001,None,None,None,,,,,,,,,,,817.5182793000004,817.5182793000004,None,,818.5768435,818.5768435,820.6034374000001,n,817.5182793000004,817.5182793000004,1.2693269999999757,,22,001,2024-07-30_11h34.15.352,robot_nback_sign,2022.2.5,60.01939826962462,
P,False,2,letter,1,False,False,robot_stimuli\\filler.mp4,22,,,,,,,,,0,104,104,104,,,,,,,,,,,,,820.6034374000001,821.6615595000003,,,,,,,823.8841853000004,823.8841853000004,823.8841853000004,823.8841853000004,823.8841853000004,823.8841853000004,823.8841853000004,823.8841853000004,None,None,None,,,,,,,,,,,820.6034374000001,820.6034374000001,None,,821.6615595000003,821.6615595000003,823.8841853000004,n,820.6034374000001,820.6034374000001,1.2233267000001433,,22,001,2024-07-30_11h34.15.352,robot_nback_sign,2022.2.5,60.01939826962462,
X,False,2,letter,1,False,False,robot_stimuli\\filler.mp4,22,,,,,,,,,0,105,105,105,,,,,,,,,,,,,823.8841853000004,824.9438634999997,,,,,,,827.1726603999996,827.1726603999996,827.1726603999996,827.1726603999996,827.1726603999996,827.1726603999996,827.1726603999996,827.1726603999996,None,None,None,,,,,,,,,,,823.8841853000004,823.8841853000004,None,,824.9438634999997,824.9438634999997,827.1726603999996,n,823.8841853000004,823.8841853000004,0.8521842999998626,,22,001,2024-07-30_11h34.15.352,robot_nback_sign,2022.2.5,60.01939826962462,
C,False,2,letter,1,False,False,robot_stimuli\\filler.mp4,22,,,,,,,,,0,106,106,106,,,,,,,,,,,,,827.1726603999996,828.228067,,,,,,,830.4514104999998,830.4514104999998,830.4514104999998,830.4514104999998,830.4514104999998,830.4514104999998,830.4514104999998,830.4514104999998,None,None,None,,,,,,,,,,,827.1726603999996,827.1726603999996,None,,828.228067,828.228067,830.4514104999998,n,827.1726603999996,827.1726603999996,1.257918699999209,,22,001,2024-07-30_11h34.15.352,robot_nback_sign,2022.2.5,60.01939826962462,
F,False,2,letter,1,False,False,robot_stimuli\\filler.mp4,22,,,,,,,,,0,107,107,107,,,,,,,,,,,,,830.4514104999998,831.5108337000001,,,,,,,833.7369282999998,833.7369282999998,833.7369282999998,833.7369282999998,833.7369282999998,833.7369282999998,833.7369282999998,833.7369282999998,None,None,None,,,,,,,,,,,830.4514104999998,830.4514104999998,None,,831.5108337000001,831.5108337000001,833.7369282999998,n,830.4514104999998,830.4514104999998,0.8693456999990303,,22,001,2024-07-30_11h34.15.352,robot_nback_sign,2022.2.5,60.01939826962462,
K,False,2,letter,1,False,False,robot_stimuli\\filler.mp4,22,,,,,,,,,0,108,108,108,,,,,,,,,,,,,833.7369282999998,834.7951512,,,,,,,837.0260398,837.0260398,837.0260398,837.0260398,837.0260398,837.0260398,837.0260398,837.0260398,None,None,None,,,,,,,,,,,833.7369282999998,833.7369282999998,None,,834.7951512,834.7951512,837.0260398,n,833.7369282999998,833.7369282999998,1.2015682000001107,,22,001,2024-07-30_11h34.15.352,robot_nback_sign,2022.2.5,60.01939826962462,
C,False,2,letter,1,False,False,robot_stimuli\\filler.mp4,22,,,,,,,,,0,109,109,109,,,,,,,,,,,,,837.0260398,,,,,,,,840.3237964,840.3237964,840.3237964,840.3237964,840.3237964,840.3237964,840.3237964,840.3237964,None,None,None,,,,,,,,,,,837.0260398,837.0260398,None,,838.0938465999998,838.0938465999998,840.3237964,n,837.0260398,837.0260398,1.4793945999999778,,22,001,2024-07-30_11h34.15.352,robot_nback_sign,2022.2.5,60.01939826962462,
K,True,2,letter,1,False,False,robot_stimuli\\filler.mp4,22,,,,,,,,,0,110,110,110,,,,,,,,,,,,,840.3237964,841.3788320000003,,,,,,,843.6021455999999,843.6021455999999,843.6021455999999,843.6021455999999,843.6021455999999,843.6021455999999,843.6021455999999,843.6021455999999,None,None,None,,,,,,,,,,,840.3237964,840.3237964,None,,841.3788320000003,841.3788320000003,843.6021455999999,c,840.3237964,840.3237964,1.16196729999956,,22,001,2024-07-30_11h34.15.352,robot_nback_sign,2022.2.5,60.01939826962462,
L,False,2,letter,1,False,False,robot_stimuli\\filler.mp4,22,,,,,,,,,0,111,111,111,,,,,,,,,,,,,843.6021455999999,844.6624738999999,,,,,,,846.6850930999999,846.6850930999999,846.6850930999999,846.6850930999999,846.6850930999999,846.6850930999999,846.6850930999999,846.6850930999999,None,None,None,,,,,,,,,,,843.6021455999999,843.6021455999999,None,,844.6624738999999,844.6624738999999,846.6850930999999,n,843.6021455999999,843.6021455999999,0.7975659000003361,,22,001,2024-07-30_11h34.15.352,robot_nback_sign,2022.2.5,60.01939826962462,
D,False,2,letter,1,False,False,robot_stimuli\\filler.mp4,22,,,,,,,,,0,112,112,112,,,,,,,,,,,,,846.6850930999999,847.7442229999997,,,,,,,849.7700509999995,849.7700509999995,849.7700509999995,849.7700509999995,849.7700509999995,849.7700509999995,849.7700509999995,849.7700509999995,None,None,None,,,,,,,,,,,846.6850930999999,846.6850930999999,None,,847.7442229999997,847.7442229999997,849.7700509999995,n,846.6850930999999,846.6850930999999,0.7257464000003893,,22,001,2024-07-30_11h34.15.352,robot_nback_sign,2022.2.5,60.01939826962462,
F,False,2,letter,1,False,False,robot_stimuli\\filler.mp4,22,,,,,,,,,0,113,113,113,,,,,,,,,,,,,849.7700509999995,850.8280228000003,,,,,,,852.8626021,852.8626021,852.8626021,852.8626021,852.8626021,852.8626021,852.8626021,852.8626021,None,None,None,,,,,,,,,,,849.7700509999995,849.7700509999995,None,,850.8280228000003,850.8280228000003,852.8626021,n,849.7700509999995,849.7700509999995,0.8642024999999194,,22,001,2024-07-30_11h34.15.352,robot_nback_sign,2022.2.5,60.01939826962462,
M,False,2,letter,1,False,False,robot_stimuli\\filler.mp4,22,,,,,,,,,0,114,114,114,,,,,,,,,,,,,852.8626021,853.9286917999998,,,,,,,855.9546639,855.9546639,855.9546639,855.9546639,855.9546639,855.9546639,855.9546639,855.9546639,None,None,None,,,,,,,,,,,852.8626021,852.8626021,None,,853.9286917999998,853.9286917999998,855.9546639,n,852.8626021,852.8626021,0.6355245999993713,,22,001,2024-07-30_11h34.15.352,robot_nback_sign,2022.2.5,60.01939826962462,
X,False,2,letter,1,False,False,robot_stimuli\\filler.mp4,22,,,,,,,,,0,115,115,115,,,,,,,,,,,,,855.9546639,857.0098558999998,,,,,,,859.2428639,859.2428639,859.2428639,859.2428639,859.2428639,859.2428639,859.2428639,859.2428639,None,None,None,,,,,,,,,,,855.9546639,855.9546639,None,,857.0098558999998,857.0098558999998,859.2428639,n,855.9546639,855.9546639,0.9702683999994406,,22,001,2024-07-30_11h34.15.352,robot_nback_sign,2022.2.5,60.01939826962462,
Q,False,2,letter,1,False,False,robot_stimuli\\filler.mp4,22,,,,,,,,,0,116,116,116,,,,,,,,,,,,,859.2428639,,,,,,,,862.3410253000002,862.3410253000002,862.3410253000002,862.3410253000002,862.3410253000002,862.3410253000002,862.3410253000002,862.3410253000002,None,None,None,,,,,,,,,,,859.2428639,859.2428639,None,,860.3150083999999,860.3150083999999,862.3410253000002,n,859.2428639,859.2428639,0.9468433000001824,,22,001,2024-07-30_11h34.15.352,robot_nback_sign,2022.2.5,60.01939826962462,
D,False,2,letter,1,False,False,robot_stimuli\\filler.mp4,22,,,,,,,,,0,117,117,117,,,,,,,,,,,,,862.3410253000002,863.3951551,,,,,,,865.4270245999996,865.4270245999996,865.4270245999996,865.4270245999996,865.4270245999996,865.4270245999996,865.4270245999996,865.4270245999996,None,None,None,,,,,,,,,,,862.3410253000002,862.3410253000002,None,,863.3951551,863.3951551,865.4270245999996,n,862.3410253000002,862.3410253000002,1.2972798999999213,,22,001,2024-07-30_11h34.15.352,robot_nback_sign,2022.2.5,60.01939826962462,
F,False,2,letter,1,False,False,robot_stimuli\\filler.mp4,22,,,,,,,,,0,118,118,118,,,,,,,,,,,,,865.4270245999996,,,,,,,,868.7270312999999,868.7270312999999,868.7270312999999,868.7270312999999,868.7270312999999,868.7270312999999,868.7270312999999,868.7270312999999,None,None,None,,,,,,,,,,,865.4270245999996,865.4270245999996,None,,866.4946807999995,866.4946807999995,868.7270312999999,n,865.4270245999996,865.4270245999996,1.2784622999997737,,22,001,2024-07-30_11h34.15.352,robot_nback_sign,2022.2.5,60.01939826962462,
Q,False,2,letter,1,False,False,robot_stimuli\\filler.mp4,22,,,,,,,,,0,119,119,119,,,,,,,,,,,,,868.7270312999999,,,,,,,,872.0269704000002,872.0269704000002,872.0269704000002,872.0269704000002,872.0269704000002,872.0269704000002,872.0269704000002,872.0269704000002,None,None,None,,,,,,,,,,,868.7270312999999,868.7270312999999,None,,869.7941836999998,869.7941836999998,872.0269704000002,n,868.7270312999999,868.7270312999999,1.4111080000002403,,22,001,2024-07-30_11h34.15.352,robot_nback_sign,2022.2.5,60.01939826962462,
F,True,2,letter,1,False,False,robot_stimuli\\filler.mp4,22,,,,,,,,,0,120,120,120,,,,,,,,,,,,,872.0269704000002,,,,,,,,875.1255340999996,875.1255340999996,875.1255340999996,875.1255340999996,875.1255340999996,875.1255340999996,875.1255340999996,875.1255340999996,None,None,None,,,,,,,,,,,872.0269704000002,872.0269704000002,None,,873.0959918999997,873.0959918999997,875.1255340999996,c,872.0269704000002,872.0269704000002,1.277103100000204,,22,001,2024-07-30_11h34.15.352,robot_nback_sign,2022.2.5,60.01939826962462,
K,False,2,letter,1,False,False,robot_stimuli\\filler.mp4,22,,,,,,,,,0,121,121,121,,,,,,,,,,,,,875.1255340999996,876.1767959999997,,,,,,,878.4015884999999,878.4015884999999,878.4015884999999,878.4015884999999,878.4015884999999,878.4015884999999,878.4015884999999,878.4015884999999,None,None,None,,,,,,,,,,,875.1255340999996,875.1255340999996,None,,876.1767959999997,876.1767959999997,878.4015884999999,n,875.1255340999996,875.1255340999996,1.1471799999999348,,22,001,2024-07-30_11h34.15.352,robot_nback_sign,2022.2.5,60.01939826962462,
V,False,2,letter,1,False,False,robot_stimuli\\filler.mp4,22,,,,,,,,,0,122,122,122,,,,,,,,,,,,,878.4015884999999,879.4616224000001,,,,,,,881.4906248999996,881.4906248999996,881.4906248999996,881.4906248999996,881.4906248999996,881.4906248999996,881.4906248999996,881.4906248999996,None,None,None,,,,,,,,,,,878.4015884999999,878.4015884999999,None,,879.4616224000001,879.4616224000001,881.4906248999996,n,878.4015884999999,878.4015884999999,1.471485600000051,,22,001,2024-07-30_11h34.15.352,robot_nback_sign,2022.2.5,60.01939826962462,
Q,False,2,letter,1,False,False,robot_stimuli\\filler.mp4,22,,,,,,,,,0,123,123,123,,,,,,,,,,,,,881.4906248999996,882.5439809999998,,,,,,,884.5790925000001,884.5790925000001,884.5790925000001,884.5790925000001,884.5790925000001,884.5790925000001,884.5790925000001,884.5790925000001,None,None,None,,,,,,,,,,,881.4906248999996,881.4906248999996,None,,882.5439809999998,882.5439809999998,884.5790925000001,n,881.4906248999996,881.4906248999996,1.5255035999998654,,22,001,2024-07-30_11h34.15.352,robot_nback_sign,2022.2.5,60.01939826962462,
V,True,2,letter,1,False,False,robot_stimuli\\filler.mp4,22,,,,,,,,,0,124,124,124,,,,,,,,,,,,,884.5790925000001,885.6441572000003,,,,,,,887.8782843999998,887.8782843999998,887.8782843999998,887.8782843999998,887.8782843999998,887.8782843999998,887.8782843999998,887.8782843999998,None,None,None,,,,,,,,,,,884.5790925000001,884.5790925000001,None,,885.6441572000003,885.6441572000003,887.8782843999998,c,884.5790925000001,884.5790925000001,1.281423000000359,,22,001,2024-07-30_11h34.15.352,robot_nback_sign,2022.2.5,60.01939826962462,
L,False,2,letter,1,False,False,robot_stimuli\\filler.mp4,22,,,,,,,,,0,125,125,125,,,,,,,,,,,,,887.8782843999998,888.9442957000001,,,,,,,891.1716637999998,891.1716637999998,891.1716637999998,891.1716637999998,891.1716637999998,891.1716637999998,891.1716637999998,891.1716637999998,None,None,None,,,,,,,,,,,887.8782843999998,887.8782843999998,None,,888.9442957000001,888.9442957000001,891.1716637999998,n,887.8782843999998,887.8782843999998,1.6291126000005534,,22,001,2024-07-30_11h34.15.352,robot_nback_sign,2022.2.5,60.01939826962462,
W,False,2,letter,1,False,False,robot_stimuli\\filler.mp4,22,,,,,,,,,0,126,126,126,,,,,,,,,,,,,891.1716637999998,892.2289449,,,,,,,894.4526877999997,894.4526877999997,894.4526877999997,894.4526877999997,894.4526877999997,894.4526877999997,894.4526877999997,894.4526877999997,None,None,None,,,,,,,,,,,891.1716637999998,891.1716637999998,None,,892.2289449,892.2289449,894.4526877999997,n,891.1716637999998,891.1716637999998,1.3195986999990055,,22,001,2024-07-30_11h34.15.352,robot_nback_sign,2022.2.5,60.01939826962462,
Q,False,2,letter,1,False,False,robot_stimuli\\filler.mp4,22,,,,,,,,,0,127,127,127,,,,,,,,,,,,,894.4526877999997,895.5120199000003,,,,,,,897.7372207999997,897.7372207999997,897.7372207999997,897.7372207999997,897.7372207999997,897.7372207999997,897.7372207999997,897.7372207999997,None,None,None,,,,,,,,,,,894.4526877999997,894.4526877999997,None,,895.5120199000003,895.5120199000003,897.7372207999997,n,894.4526877999997,894.4526877999997,1.261140499999783,,22,001,2024-07-30_11h34.15.352,robot_nback_sign,2022.2.5,60.01939826962462,
Q,False,2,letter,1,False,False,robot_stimuli\\filler.mp4,22,,,,,,,,,0,128,128,128,,,,,,,,,,,,,897.7372207999997,898.7935706999997,,,,,,,901.0200961999999,901.0200961999999,901.0200961999999,901.0200961999999,901.0200961999999,901.0200961999999,901.0200961999999,901.0200961999999,None,None,None,,,,,,,,,,,897.7372207999997,897.7372207999997,None,,898.7935706999997,898.7935706999997,901.0200961999999,c,897.7372207999997,897.7372207999997,0.71547929999997,,22,001,2024-07-30_11h34.15.352,robot_nback_sign,2022.2.5,60.01939826962462,
L,False,2,letter,1,False,False,robot_stimuli\\filler.mp4,22,,,,,,,,,0,129,129,129,,,,,,,,,,,,,901.0200961999999,902.0757838999998,,,,,,,904.1025000999998,904.1025000999998,904.1025000999998,904.1025000999998,904.1025000999998,904.1025000999998,904.1025000999998,904.1025000999998,None,None,None,,,,,,,,,,,901.0200961999999,901.0200961999999,None,,902.0757838999998,902.0757838999998,904.1025000999998,None,901.0200961999999,901.0200961999999,,,22,001,2024-07-30_11h34.15.352,robot_nback_sign,2022.2.5,60.01939826962462,
Q,True,2,letter,1,False,False,robot_stimuli\\filler.mp4,22,,,,,,,,,0,130,130,130,,,,,,,,,,,,,904.1025000999998,905.1599899000003,,,,,,,907.3865425000004,907.3865425000004,907.3865425000004,907.3865425000004,907.3865425000004,907.3865425000004,907.3865425000004,907.3865425000004,None,None,None,,,,,,,,,,,904.1025000999998,904.1025000999998,None,,905.1599899000003,905.1599899000003,907.3865425000004,c,904.1025000999998,904.1025000999998,0.8289260999999897,,22,001,2024-07-30_11h34.15.352,robot_nback_sign,2022.2.5,60.01939826962462,
X,False,2,letter,1,False,False,robot_stimuli\\filler.mp4,22,,,,,,,,,0,131,131,131,,,,,,,,,,,,,907.3865425000004,908.4438498,,,,,,,910.6707205000002,910.6707205000002,910.6707205000002,910.6707205000002,910.6707205000002,910.6707205000002,910.6707205000002,910.6707205000002,None,None,None,,,,,,,,,,,907.3865425000004,907.3865425000004,None,,908.4438498,908.4438498,910.6707205000002,n,907.3865425000004,907.3865425000004,0.9062145999996574,,22,001,2024-07-30_11h34.15.352,robot_nback_sign,2022.2.5,60.01939826962462,
N,False,2,letter,1,False,False,robot_stimuli\\filler.mp4,22,,,,,,,,,0,132,132,132,,,,,,,,,,,,,910.6707205000002,911.7290438999999,,,,,,,913.7571701999996,913.7571701999996,913.7571701999996,913.7571701999996,913.7571701999996,913.7571701999996,913.7571701999996,913.7571701999996,None,None,None,,,,,,,,,,,910.6707205000002,910.6707205000002,None,,911.7290438999999,911.7290438999999,913.7571701999996,n,910.6707205000002,910.6707205000002,0.9949243999999453,,22,001,2024-07-30_11h34.15.352,robot_nback_sign,2022.2.5,60.01939826962462,
X,True,2,letter,1,False,False,robot_stimuli\\filler.mp4,22,,,,,,,,,0,133,133,133,,,,,,,,,,,,,913.7571701999996,914.8121185999998,,,,,,,917.0373714999996,917.0373714999996,917.0373714999996,917.0373714999996,917.0373714999996,917.0373714999996,917.0373714999996,917.0373714999996,None,None,None,,,,,,,,,,,913.7571701999996,913.7571701999996,None,,914.8121185999998,914.8121185999998,917.0373714999996,c,913.7571701999996,913.7571701999996,0.912751599999865,,22,001,2024-07-30_11h34.15.352,robot_nback_sign,2022.2.5,60.01939826962462,
X,False,2,letter,1,False,False,robot_stimuli\\filler.mp4,22,,,,,,,,,0,134,134,134,,,,,,,,,,,,,917.0373714999996,918.0936081999998,,,,,,,920.3228589999999,920.3228589999999,920.3228589999999,920.3228589999999,920.3228589999999,920.3228589999999,920.3228589999999,920.3228589999999,None,None,None,,,,,,,,,,,917.0373714999996,917.0373714999996,None,,918.0936081999998,918.0936081999998,920.3228589999999,n,917.0373714999996,917.0373714999996,1.5362628000002587,,22,001,2024-07-30_11h34.15.352,robot_nback_sign,2022.2.5,60.01939826962462,
Z,False,2,letter,1,False,False,robot_stimuli\\filler.mp4,22,,,,,,,,,0,135,135,135,,,,,,,,,,,,,920.3228589999999,921.3783372999997,,,,,,,923.4021898000001,923.4021898000001,923.4021898000001,923.4021898000001,923.4021898000001,923.4021898000001,923.4021898000001,923.4021898000001,None,None,None,,,,,,,,,,,920.3228589999999,920.3228589999999,None,,921.3783372999997,921.3783372999997,923.4021898000001,n,920.3228589999999,920.3228589999999,1.7388110000001689,,22,001,2024-07-30_11h34.15.352,robot_nback_sign,2022.2.5,60.01939826962462,
X,True,2,letter,1,False,False,robot_stimuli\\filler.mp4,22,,,,,,,,,0,136,136,136,,,,,,,,,,,,,923.4021898000001,924.4611464,,,,,,,926.6883688999997,926.6883688999997,926.6883688999997,926.6883688999997,926.6883688999997,926.6883688999997,926.6883688999997,926.6883688999997,None,None,None,,,,,,,,,,,923.4021898000001,923.4021898000001,None,,924.4611464,924.4611464,926.6883688999997,c,923.4021898000001,923.4021898000001,1.0067411999998512,,22,001,2024-07-30_11h34.15.352,robot_nback_sign,2022.2.5,60.01939826962462,
Z,True,2,letter,1,False,False,robot_stimuli\\filler.mp4,22,,,,,,,,,0,137,137,137,,,,,,,,,,,,,926.6883688999997,927.7431945999997,,,,,,,929.9762535,929.9762535,929.9762535,929.9762535,929.9762535,929.9762535,929.9762535,929.9762535,None,None,None,,,,,,,,,,,926.6883688999997,926.6883688999997,None,,927.7431945999997,927.7431945999997,929.9762535,c,926.6883688999997,926.6883688999997,1.454037999999855,,22,001,2024-07-30_11h34.15.352,robot_nback_sign,2022.2.5,60.01939826962462,
T,False,2,letter,1,False,False,robot_stimuli\\filler.mp4,22,,,,,,,,,0,138,138,138,,,,,,,,,,,,,929.9762535,,,,,,,,933.2683969999998,933.2683969999998,933.2683969999998,933.2683969999998,933.2683969999998,933.2683969999998,933.2683969999998,933.2683969999998,None,None,None,,,,,,,,,,,929.9762535,929.9762535,None,,931.0441156999996,931.0441156999996,933.2683969999998,None,929.9762535,929.9762535,,,22,001,2024-07-30_11h34.15.352,robot_nback_sign,2022.2.5,60.01939826962462,
N,False,2,letter,1,False,False,robot_stimuli\\filler.mp4,22,,,,,,,,,0,139,139,139,,,,,,,,,,,,,933.2683969999998,934.3286583999998,,,,,,,936.3578609999995,936.3578609999995,936.3578609999995,936.3578609999995,936.3578609999995,936.3578609999995,936.3578609999995,936.3578609999995,None,None,None,,,,,,,,,,,933.2683969999998,933.2683969999998,None,,934.3286583999998,934.3286583999998,936.3578609999995,n,933.2683969999998,933.2683969999998,1.4282195999994656,,22,001,2024-07-30_11h34.15.352,robot_nback_sign,2022.2.5,60.01939826962462,
T,True,2,letter,1,False,False,robot_stimuli\\filler.mp4,22,,,,,,,,,0,140,140,140,,,,,,,,,,,,,936.3578609999995,937.4182328999996,,,,,,,939.4517187000001,939.4517187000001,939.4517187000001,939.4517187000001,939.4517187000001,939.4517187000001,939.4517187000001,939.4517187000001,None,None,None,,,,,,,,,,,936.3578609999995,936.3578609999995,None,,937.4182328999996,937.4182328999996,939.4517187000001,c,936.3578609999995,936.3578609999995,0.7619293999996444,,22,001,2024-07-30_11h34.15.352,robot_nback_sign,2022.2.5,60.01939826962462,
R,False,2,letter,1,False,False,robot_stimuli\\filler.mp4,22,,,,,,,,,0,141,141,141,,,,,,,,,,,,,939.4517187000001,940.5206431999995,,,,,,,942.5455865000004,942.5455865000004,942.5455865000004,942.5455865000004,942.5455865000004,942.5455865000004,942.5455865000004,942.5455865000004,None,None,None,,,,,,,,,,,939.4517187000001,939.4517187000001,None,,940.5206431999995,940.5206431999995,942.5455865000004,n,939.4517187000001,939.4517187000001,0.764029500000106,,22,001,2024-07-30_11h34.15.352,robot_nback_sign,2022.2.5,60.01939826962462,
W,False,2,letter,1,False,False,robot_stimuli\\filler.mp4,22,,,,,,,,,0,142,142,142,,,,,,,,,,,,,942.5455865000004,943.6122601999996,,,,,,,945.6346383999999,945.6346383999999,945.6346383999999,945.6346383999999,945.6346383999999,945.6346383999999,945.6346383999999,945.6346383999999,None,None,None,,,,,,,,,,,942.5455865000004,942.5455865000004,None,,943.6122601999996,943.6122601999996,945.6346383999999,n,942.5455865000004,942.5455865000004,1.2975055999995675,,22,001,2024-07-30_11h34.15.352,robot_nback_sign,2022.2.5,60.01939826962462,
X,False,2,letter,1,False,False,robot_stimuli\\filler.mp4,22,,,,,,,,,0,143,143,143,,,,,,,,,,,,,945.6346383999999,946.6934894999995,,,,,,,948.9250478000004,948.9250478000004,948.9250478000004,948.9250478000004,948.9250478000004,948.9250478000004,948.9250478000004,948.9250478000004,None,None,None,,,,,,,,,,,945.6346383999999,945.6346383999999,None,,946.6934894999995,946.6934894999995,948.9250478000004,n,945.6346383999999,945.6346383999999,1.1833999999998923,,22,001,2024-07-30_11h34.15.352,robot_nback_sign,2022.2.5,60.01939826962462,
W,True,2,letter,1,False,False,robot_stimuli\\filler.mp4,22,,,,,,,,,0,144,144,144,,,,,,,,,,,,,948.9250478000004,949.9809759,,,,,,,952.2089993999998,952.2089993999998,952.2089993999998,952.2089993999998,952.2089993999998,952.2089993999998,952.2089993999998,952.2089993999998,None,None,None,,,,,,,,,,,948.9250478000004,948.9250478000004,None,,949.9809759,949.9809759,952.2089993999998,c,948.9250478000004,948.9250478000004,1.6160541999997804,,22,001,2024-07-30_11h34.15.352,robot_nback_sign,2022.2.5,60.01939826962462,
S,False,2,letter,1,False,False,robot_stimuli\\filler.mp4,22,,,,,,,,,0,145,145,145,,,,,,,,,,,,,952.2089993999998,953.2610073999995,,,,,,,955.4911290999999,955.4911290999999,955.4911290999999,955.4911290999999,955.4911290999999,955.4911290999999,955.4911290999999,955.4911290999999,None,None,None,,,,,,,,,,,952.2089993999998,952.2089993999998,None,,953.2610073999995,953.2610073999995,955.4911290999999,n,952.2089993999998,952.2089993999998,1.3916835999998511,,22,001,2024-07-30_11h34.15.352,robot_nback_sign,2022.2.5,60.01939826962462,
W,True,2,letter,1,False,False,robot_stimuli\\filler.mp4,22,,,,,,,,,0,146,146,146,,,,,,,,,,,,,955.4911290999999,956.5446413999998,,,,,,,958.5743087999999,958.5743087999999,958.5743087999999,958.5743087999999,958.5743087999999,958.5743087999999,958.5743087999999,958.5743087999999,None,None,None,,,,,,,,,,,955.4911290999999,955.4911290999999,None,,956.5446413999998,956.5446413999998,958.5743087999999,n,955.4911290999999,955.4911290999999,1.9161031999992701,,22,001,2024-07-30_11h34.15.352,robot_nback_sign,2022.2.5,60.01939826962462,
W,False,2,letter,1,False,False,robot_stimuli\\filler.mp4,22,,,,,,,,,0,147,147,147,,,,,,,,,,,,,958.5743087999999,959.6269706000003,,,,,,,961.8532278000002,961.8532278000002,961.8532278000002,961.8532278000002,961.8532278000002,961.8532278000002,961.8532278000002,961.8532278000002,None,None,None,,,,,,,,,,,958.5743087999999,958.5743087999999,None,,959.6269706000003,959.6269706000003,961.8532278000002,n,958.5743087999999,958.5743087999999,1.616957199999888,,22,001,2024-07-30_11h34.15.352,robot_nback_sign,2022.2.5,60.01939826962462,
R,False,2,letter,1,False,False,robot_stimuli\\filler.mp4,22,,,,,,,,,0,148,148,148,,,,,,,,,,,,,961.8532278000002,962.9111237999996,,,,,,,965.1392837000003,965.1392837000003,965.1392837000003,965.1392837000003,965.1392837000003,965.1392837000003,965.1392837000003,965.1392837000003,None,None,None,,,,,,,,,,,961.8532278000002,961.8532278000002,None,,962.9111237999996,962.9111237999996,965.1392837000003,n,961.8532278000002,961.8532278000002,1.5743093999999473,,22,001,2024-07-30_11h34.15.352,robot_nback_sign,2022.2.5,60.01939826962462,
