sequence,odd_ones,parameter,choices,target,target_idx,condition,stimuli,block,is_block_beginning,is_block_ending,sequence_fnames,target_fname,subject,retraining.thisRepN,retraining.thisTrialN,retraining.thisN,retraining.thisIndex,training.thisRepN,training.thisTrialN,training.thisN,training.thisIndex,training_sequence_loop.thisRepN,training_sequence_loop.thisTrialN,training_sequence_loop.thisN,training_sequence_loop.thisIndex,trials.thisRepN,trials.thisTrialN,trials.thisN,trials.thisIndex,sequence_loop.thisRepN,sequence_loop.thisTrialN,sequence_loop.thisN,sequence_loop.thisIndex,langage_text.started,langage_key.started,langage_key.keys,langage_key.rt,intro_text.started,intro_key.started,intro_key.keys,intro_key.rt,training_intro_text.started,training_intro_key.started,training_intro_key.keys,training_intro_key.rt,polygon.started,cue_before_text.started,training_presentation_letter.started,training_presentation_letter.stopped,recall_key.started,recall_question.started,recall_answer.started,recall_key.keys,recall_key.rt,RSME_labels.started,RSME_labels.stopped,RSME_ticks.started,RSME_ticks.stopped,RSME_text.started,RSME_text.stopped,RSME_key.started,RSME_key.stopped,RSME_ticks.response,RSME_ticks.rt,RSME_key.keys,training_intro_text.stopped,training_intro_key.stopped,polygon.stopped,cue_before_text.stopped,RSME_key.rt,training_presentation_movie.started,experiment_beginning_text.started,experiment_beginning_keys.started,experiment_beginning_key.started,experiment_beginning_key.keys,experiment_beginning_key.rt,block_intro_text.started,block_intro_key.started,block_intro_key.keys,block_intro_key.rt,presentation_letter.started,presentation_letter.stopped,block_intro_text.stopped,block_intro_key.stopped,presentation_movie.started,participant,session,date,expName,psychopyVersion,frameRate,
,,,,,,,,,,,,,,,,,,,,,,,,,,,,,,,,,,10.92956650070846,10.92956650070846,f,7.544872499071062,,,,,,,,,,,,,,,,,,,,,,,,,,,,,,,,,,,,,,,,,,,,,,,,,22,001,2024-09-25_16h37.28.159,robot_cogshifting_sign,2022.2.5,59.87317641086729,
,,,,,,,,,,,,,,,,,,,,,,,,,,,,,,,,,,,,,,18.526697200722992,18.526697200722992,space,22.699894599616528,,,,,,,,,,,,,,,,,,,,,,,,,,,,,,,,,,,,,,,,,,,,,22,001,2024-09-25_16h37.28.159,robot_cogshifting_sign,2022.2.5,59.87317641086729,
"['red_bottom_B_45', 'blue_bottom_J_0', 'blue_bottom_L_45', 'blue_left_B_45']","{'color': 'red_bottom_B_45', 'position': 'blue_left_B_45', 'orientation': 'blue_bottom_J_0'}",color,['color'],red_bottom_B_45,0,1,letter,1,True,False,"['robot_stimuli\\\\filler.mp4', 'robot_stimuli\\\\filler.mp4', 'robot_stimuli\\\\filler.mp4', 'robot_stimuli\\\\filler.mp4']",robot_stimuli\\filler.mp4,22,0,0,0,0,0,0,0,0,,,,,,,,,,,,,,,,,,,,,41.288147600367665,41.288147600367665,space,3.9636189993470907,45.27932500001043,46.281301400624216,55.78345700073987,58.02109550032765,58.02109550032765,58.02109550032765,58.02109550032765,1,3.2778834998607635,61.360986799933016,61.360986799933016,61.360986799933016,61.360986799933016,61.360986799933016,61.360986799933016,61.360986799933016,61.360986799933016,None,None,None,,,,,,,,,,,,,,,,,,,,,22,001,2024-09-25_16h37.28.159,robot_cogshifting_sign,2022.2.5,59.87317641086729,
"['red_left_H_0', 'red_left_T_45', 'blue_left_J_45', 'red_bottom_J_45']","{'color': 'blue_left_J_45', 'position': 'red_bottom_J_45', 'orientation': 'red_left_H_0'}",position,['position'],red_bottom_J_45,3,1,letter,1,False,False,"['robot_stimuli\\\\filler.mp4', 'robot_stimuli\\\\filler.mp4', 'robot_stimuli\\\\filler.mp4', 'robot_stimuli\\\\filler.mp4']",robot_stimuli\\filler.mp4,22,0,0,0,0,0,1,1,1,,,,,,,,,,,,,,,,,,,,,61.360986799933016,61.360986799933016,None,,61.360986799933016,62.362957400269806,71.14706009998918,73.36793870013207,73.36793870013207,73.36793870013207,73.36793870013207,4,1.1480967989191413,74.53692360036075,74.53692360036075,74.53692360036075,74.53692360036075,74.53692360036075,74.53692360036075,74.53692360036075,74.53692360036075,None,None,None,61.360986799933016,61.360986799933016,62.362957400269806,64.43375260010362,,,,,,,,,,,,,,,,,22,001,2024-09-25_16h37.28.159,robot_cogshifting_sign,2022.2.5,59.87317641086729,
"['blue_top_Z_0', 'red_top_M_45', 'red_top_V_0', 'red_bottom_T_0']","{'color': 'blue_top_Z_0', 'position': 'red_bottom_T_0', 'orientation': 'red_top_M_45'}",orientation,['orientation'],red_top_M_45,1,1,letter,1,False,True,"['robot_stimuli\\\\filler.mp4', 'robot_stimuli\\\\filler.mp4', 'robot_stimuli\\\\filler.mp4', 'robot_stimuli\\\\filler.mp4']",robot_stimuli\\filler.mp4,22,0,0,0,0,0,2,2,2,,,,,,,,,,,,,,,,,,,,,74.53692360036075,74.53692360036075,None,,74.53692360036075,75.53889890015125,83.922158700414,85.95937540009618,85.95937540009618,85.95937540009618,85.95937540009618,2,0.43567009922116995,86.47708640061319,103.36031750030816,86.47708640061319,103.36031750030816,86.47708640061319,103.36031750030816,86.47708640061319,103.36031750030816,6.111111111111112,15.573393699713051,space,74.53692360036075,74.53692360036075,75.53889890015125,77.60961170028895,16.815009699203074,,,,,,,,,,,,,,,,22,001,2024-09-25_16h37.28.159,robot_cogshifting_sign,2022.2.5,59.87317641086729,
"['blue_top_N_45', 'blue_bottom_M_0', 'red_top_T_0', 'blue_top_H_0']","{'color': 'red_top_T_0', 'position': 'blue_bottom_M_0', 'orientation': 'blue_top_N_45'}",position,"['color', 'position']",blue_bottom_M_0,1,2,letter,1,True,False,"['robot_stimuli\\\\filler.mp4', 'robot_stimuli\\\\filler.mp4', 'robot_stimuli\\\\filler.mp4', 'robot_stimuli\\\\filler.mp4']",robot_stimuli\\filler.mp4,22,0,0,0,0,0,3,3,3,,,,,,,,,,,,,,,,,,,,,103.36031750030816,103.36031750030816,space,2.218658799305558,105.59804160054773,106.60001590009779,115.16690080054104,117.20421250071377,117.20421250071377,117.20421250071377,117.20421250071377,2,3.1909041991457343,120.42721599992365,120.42721599992365,120.42721599992365,120.42721599992365,120.42721599992365,120.42721599992365,120.42721599992365,120.42721599992365,None,None,None,,,,,,,,,,,,,,,,,,,,,22,001,2024-09-25_16h37.28.159,robot_cogshifting_sign,2022.2.5,59.87317641086729,
"['red_top_Q_0', 'red_left_C_45', 'blue_top_X_45', 'red_top_M_45']","{'color': 'blue_top_X_45', 'position': 'red_left_C_45', 'orientation': 'red_top_Q_0'}",orientation,"['color', 'orientation']",red_top_Q_0,0,2,letter,1,False,False,"['robot_stimuli\\\\filler.mp4', 'robot_stimuli\\\\filler.mp4', 'robot_stimuli\\\\filler.mp4', 'robot_stimuli\\\\filler.mp4']",robot_stimuli\\filler.mp4,22,0,0,0,0,0,4,4,4,,,,,,,,,,,,,,,,,,,,,120.42721599992365,120.42721599992365,None,,120.42721599992365,121.42917000036687,130.01282639987767,132.03337260056287,132.03337260056287,132.03337260056287,132.03337260056287,3,10.057531499303877,142.11990460008383,142.11990460008383,142.11990460008383,142.11990460008383,142.11990460008383,142.11990460008383,142.11990460008383,142.11990460008383,None,None,None,120.42721599992365,120.42721599992365,121.42917000036687,123.4998858999461,,,,,,,,,,,,,,,,,22,001,2024-09-25_16h37.28.159,robot_cogshifting_sign,2022.2.5,59.87317641086729,
"['red_top_N_45', 'red_right_S_45', 'blue_right_T_45', 'red_right_D_0']","{'color': 'blue_right_T_45', 'position': 'red_top_N_45', 'orientation': 'red_right_D_0'}",color,"['color', 'orientation']",blue_right_T_45,2,2,letter,1,False,True,"['robot_stimuli\\\\filler.mp4', 'robot_stimuli\\\\filler.mp4', 'robot_stimuli\\\\filler.mp4', 'robot_stimuli\\\\filler.mp4']",robot_stimuli\\filler.mp4,22,0,0,0,0,0,5,5,5,,,,,,,,,,,,,,,,,,,,,142.11990460008383,142.11990460008383,None,,142.11990460008383,143.12188370060176,151.5051185004413,153.72607510071248,153.72607510071248,153.72607510071248,153.72607510071248,3,1.46113339997828,155.24573960062116,160.18880350049585,155.24573960062116,160.18880350049585,155.24573960062116,160.18880350049585,155.24573960062116,160.18880350049585,33.730158730158735,3.5666337003931403,space,142.11990460008383,142.11990460008383,143.12188370060176,145.19263700023293,4.877499799244106,,,,,,,,,,,,,,,,22,001,2024-09-25_16h37.28.159,robot_cogshifting_sign,2022.2.5,59.87317641086729,
"['red_right_T_45', 'red_right_T_0', 'red_top_K_0', 'blue_right_L_0']","{'color': 'blue_right_L_0', 'position': 'red_top_K_0', 'orientation': 'red_right_T_45'}",position,"['color', 'orientation', 'position']",red_top_K_0,2,3,letter,1,True,False,"['robot_stimuli\\\\filler.mp4', 'robot_stimuli\\\\filler.mp4', 'robot_stimuli\\\\filler.mp4', 'robot_stimuli\\\\filler.mp4']",robot_stimuli\\filler.mp4,22,0,0,0,0,0,6,6,6,,,,,,,,,,,,,,,,,,,,,160.18880350049585,160.18880350049585,space,1.6857647998258471,161.89213500078768,162.89411600027233,171.46104149986058,173.48163140006363,173.48163140006363,173.48163140006363,173.48163140006363,2,4.649891898967326,178.1575170001015,178.1575170001015,178.1575170001015,178.1575170001015,178.1575170001015,178.1575170001015,178.1575170001015,178.1575170001015,None,None,None,,,,,,,,,,,,,,,,,,,,,22,001,2024-09-25_16h37.28.159,robot_cogshifting_sign,2022.2.5,59.87317641086729,
"['blue_right_W_0', 'blue_top_M_0', 'blue_right_X_45', 'red_right_S_0']","{'color': 'red_right_S_0', 'position': 'blue_top_M_0', 'orientation': 'blue_right_X_45'}",orientation,"['color', 'orientation', 'position']",blue_right_X_45,2,3,letter,1,False,False,"['robot_stimuli\\\\filler.mp4', 'robot_stimuli\\\\filler.mp4', 'robot_stimuli\\\\filler.mp4', 'robot_stimuli\\\\filler.mp4']",robot_stimuli\\filler.mp4,22,0,0,0,0,0,7,7,7,,,,,,,,,,,,,,,,,,,,,178.1575170001015,178.1575170001015,None,,178.1575170001015,179.15943440049887,187.70962270069867,189.74702330026776,189.74702330026776,189.74702330026776,189.74702330026776,4,6.055258099921048,195.8255646005273,195.8255646005273,195.8255646005273,195.8255646005273,195.8255646005273,195.8255646005273,195.8255646005273,195.8255646005273,None,None,None,178.1575170001015,178.1575170001015,179.15943440049887,181.23019770067185,,,,,,,,,,,,,,,,,22,001,2024-09-25_16h37.28.159,robot_cogshifting_sign,2022.2.5,59.87317641086729,
"['red_left_G_0', 'blue_left_L_45', 'blue_left_V_0', 'blue_bottom_Q_0']","{'color': 'red_left_G_0', 'position': 'blue_bottom_Q_0', 'orientation': 'blue_left_L_45'}",color,"['color', 'orientation', 'position']",red_left_G_0,0,3,letter,1,False,True,"['robot_stimuli\\\\filler.mp4', 'robot_stimuli\\\\filler.mp4', 'robot_stimuli\\\\filler.mp4', 'robot_stimuli\\\\filler.mp4']",robot_stimuli\\filler.mp4,22,0,0,0,0,0,8,8,8,,,,,,,,,,,,,,,,,,,,,195.8255646005273,195.8255646005273,None,,195.8255646005273,196.82761250063777,205.77863050065935,207.7991482000798,207.7991482000798,207.7991482000798,207.7991482000798,1,2.515638799406588,210.37087320070714,213.99468620028347,210.37087320070714,213.99468620028347,210.37087320070714,213.99468620028347,210.37087320070714,213.99468620028347,41.98412698412698,2.598151500336826,space,195.8255646005273,195.8255646005273,196.82761250063777,198.91505040042102,3.5442781997844577,,,,,,,,,,,,,,,,22,001,2024-09-25_16h37.28.159,robot_cogshifting_sign,2022.2.5,59.87317641086729,
"['R_Arm_Y_Back', 'R_Torso_Z_Back', 'R_Arm_Z_For', 'L_Arm_Z_Back']","{'laterality': 'L_Arm_Z_Back', 'localisation': 'R_Torso_Z_Back', 'movement': 'R_Arm_Y_Back'}",movement,['movement'],R_Arm_Y_Back,0,1,robot,2,True,False,"['robot_stimuli\\R_Arm_Y_Back.mp4', 'robot_stimuli\\R_Torso_Z_Back.mp4', 'robot_stimuli\\R_Arm_Z_For.mp4', 'robot_stimuli\\L_Arm_Z_Back.mp4']",robot_stimuli\R_Arm_Y_Back.mp4,22,0,0,0,0,0,9,9,9,,,,,,,,,,,,,,,,,,,,,213.99468620028347,213.99468620028347,space,3.17578539904207,217.20098729990423,218.20301360078156,,,235.13701140042394,235.13701140042394,235.13701140042394,1,1.6191132999956608,236.7728391001001,236.7728391001001,236.7728391001001,236.7728391001001,236.7728391001001,236.7728391001001,236.7728391001001,236.7728391001001,None,None,None,,,,,,231.4957736004144,,,,,,,,,,,,,,,22,001,2024-09-25_16h37.28.159,robot_cogshifting_sign,2022.2.5,59.87317641086729,
"['L_Arm_Z_Back', 'R_Head_Z_For', 'R_Arm_X_Back', 'R_Arm_Z_For']","{'laterality': 'L_Arm_Z_Back', 'localisation': 'R_Head_Z_For', 'movement': 'R_Arm_X_Back'}",laterality,['laterality'],L_Arm_Z_Back,0,1,robot,2,False,False,"['robot_stimuli\\L_Arm_Z_Back.mp4', 'robot_stimuli\\R_Head_Z_For.mp4', 'robot_stimuli\\R_Arm_X_Back.mp4', 'robot_stimuli\\R_Arm_Z_For.mp4']",robot_stimuli\L_Arm_Z_Back.mp4,22,0,0,0,0,0,10,10,10,,,,,,,,,,,,,,,,,,,,,236.7728391001001,236.7728391001001,None,,236.7728391001001,237.77484280057251,,,254.6747236000374,254.6747236000374,254.6747236000374,1,1.3438641000539064,256.0440995004028,256.0440995004028,256.0440995004028,256.0440995004028,256.0440995004028,256.0440995004028,256.0440995004028,256.0440995004028,None,None,None,236.7728391001001,236.7728391001001,237.77484280057251,239.8623071005568,,251.03425460029393,,,,,,,,,,,,,,,22,001,2024-09-25_16h37.28.159,robot_cogshifting_sign,2022.2.5,59.87317641086729,
"['L_Base_X_Back', 'L_Arm_X_For', 'L_Arm_Y_For', 'R_Arm_X_For']","{'laterality': 'R_Arm_X_For', 'localisation': 'L_Base_X_Back', 'movement': 'L_Arm_Y_For'}",localisation,['localisation'],L_Base_X_Back,0,1,robot,2,False,True,"['robot_stimuli\\L_Base_X_Back.mp4', 'robot_stimuli\\L_Arm_X_For.mp4', 'robot_stimuli\\L_Arm_Y_For.mp4', 'robot_stimuli\\R_Arm_X_For.mp4']",robot_stimuli\L_Base_X_Back.mp4,22,0,0,0,0,0,11,11,11,,,,,,,,,,,,,,,,,,,,,256.0440995004028,256.0440995004028,None,,256.0440995004028,257.0460965000093,,,273.96266890037805,273.96266890037805,273.96266890037805,1,2.0640222001820803,276.0835589999333,281.4107194002718,276.0835589999333,281.4107194002718,276.0835589999333,281.4107194002718,276.0835589999333,281.4107194002718,23.412698412698415,3.0658689001575112,space,256.0440995004028,256.0440995004028,257.0460965000093,259.15025030076504,5.2548492988571525,270.32222730014473,,,,,,,,,,,,,,,22,001,2024-09-25_16h37.28.159,robot_cogshifting_sign,2022.2.5,59.87317641086729,
"['L_Base_X_For', 'R_Base_X_Back', 'L_Arm_X_For', 'L_Base_Z_Back']","{'laterality': 'R_Base_X_Back', 'localisation': 'L_Arm_X_For', 'movement': 'L_Base_Z_Back'}",localisation,"['localisation', 'movement']",L_Arm_X_For,2,2,robot,2,True,False,"['robot_stimuli\\L_Base_X_For.mp4', 'robot_stimuli\\R_Base_X_Back.mp4', 'robot_stimuli\\L_Arm_X_For.mp4', 'robot_stimuli\\L_Base_Z_Back.mp4']",robot_stimuli\L_Arm_X_For.mp4,22,0,0,0,0,0,12,12,12,,,,,,,,,,,,,,,,,,,,,281.4107194002718,281.4107194002718,space,1.4725820999592543,282.9136554999277,283.9156452007592,,,300.7654830003157,300.7654830003157,300.7654830003157,3,3.677504599094391,304.47276760078967,304.47276760078967,304.47276760078967,304.47276760078967,304.47276760078967,304.47276760078967,304.47276760078967,304.47276760078967,None,None,None,,,,,,297.1249390998855,,,,,,,,,,,,,,,22,001,2024-09-25_16h37.28.159,robot_cogshifting_sign,2022.2.5,59.87317641086729,
"['L_Arm_Y_Back', 'L_Arm_X_Back', 'L_Torso_Y_Back', 'R_Arm_Y_For']","{'laterality': 'R_Arm_Y_For', 'localisation': 'L_Torso_Y_Back', 'movement': 'L_Arm_X_Back'}",laterality,"['laterality', 'movement']",R_Arm_Y_For,3,2,robot,2,False,False,"['robot_stimuli\\L_Arm_Y_Back.mp4', 'robot_stimuli\\L_Arm_X_Back.mp4', 'robot_stimuli\\L_Torso_Y_Back.mp4', 'robot_stimuli\\R_Arm_Y_For.mp4']",robot_stimuli\R_Arm_Y_For.mp4,22,0,0,0,0,0,13,13,13,,,,,,,,,,,,,,,,,,,,,304.47276760078967,304.47276760078967,None,,304.47276760078967,305.4747375007719,,,322.12414890062064,322.12414890062064,322.12414890062064,4,2.430487599223852,324.5789970001206,324.5789970001206,324.5789970001206,324.5789970001206,324.5789970001206,324.5789970001206,324.5789970001206,324.5789970001206,None,None,None,304.47276760078967,304.47276760078967,305.4747375007719,307.5621714005247,,318.6172497002408,,,,,,,,,,,,,,,22,001,2024-09-25_16h37.28.159,robot_cogshifting_sign,2022.2.5,59.87317641086729,
"['L_Head_Z_Back', 'R_Torso_Z_Back', 'R_Head_Z_Back', 'R_Head_X_Back']","{'laterality': 'L_Head_Z_Back', 'localisation': 'R_Torso_Z_Back', 'movement': 'R_Head_X_Back'}",movement,"['localisation', 'movement']",R_Head_X_Back,3,2,robot,2,False,True,"['robot_stimuli\\L_Head_Z_Back.mp4', 'robot_stimuli\\R_Torso_Z_Back.mp4', 'robot_stimuli\\R_Head_Z_Back.mp4', 'robot_stimuli\\R_Head_X_Back.mp4']",robot_stimuli\R_Head_X_Back.mp4,22,0,0,0,0,0,14,14,14,,,,,,,,,,,,,,,,,,,,,324.5789970001206,324.5789970001206,None,,324.5789970001206,325.581025400199,,,342.480872400105,342.480872400105,342.480872400105,4,1.3376883985474706,343.88369890023023,351.2982747005299,343.88369890023023,351.2982747005299,343.88369890023023,351.2982747005299,343.88369890023023,351.2982747005299,32.46031746031746,6.589660099707544,space,324.5789970001206,324.5789970001206,325.581025400199,327.68510530050844,7.3590097995474935,338.85714509990066,,,,,,,,,,,,,,,22,001,2024-09-25_16h37.28.159,robot_cogshifting_sign,2022.2.5,59.87317641086729,
"['R_Head_Y_Back', 'L_Base_Y_For', 'L_Head_Z_Back', 'L_Head_Y_Back']","{'laterality': 'R_Head_Y_Back', 'localisation': 'L_Base_Y_For', 'movement': 'L_Head_Z_Back'}",laterality,"['laterality', 'localisation', 'movement']",R_Head_Y_Back,0,3,robot,2,True,False,"['robot_stimuli\\R_Head_Y_Back.mp4', 'robot_stimuli\\L_Base_Y_For.mp4', 'robot_stimuli\\L_Head_Z_Back.mp4', 'robot_stimuli\\L_Head_Y_Back.mp4']",robot_stimuli\R_Head_Y_Back.mp4,22,0,0,0,0,0,15,15,15,,,,,,,,,,,,,,,,,,,,,351.2982747005299,351.2982747005299,space,1.1681883996352553,352.4839392006397,353.48591950070113,,,370.26907630078495,370.26907630078495,370.26907630078495,1,3.2775504998862743,373.57544660009444,373.57544660009444,373.57544660009444,373.57544660009444,373.57544660009444,373.57544660009444,373.57544660009444,373.57544660009444,None,None,None,,,,,,366.62846470065415,,,,,,,,,,,,,,,22,001,2024-09-25_16h37.28.159,robot_cogshifting_sign,2022.2.5,59.87317641086729,
"['R_Head_Y_Back', 'R_Arm_Y_Back', 'R_Head_Z_Back', 'L_Head_Y_Back']","{'laterality': 'L_Head_Y_Back', 'localisation': 'R_Arm_Y_Back', 'movement': 'R_Head_Z_Back'}",movement,"['laterality', 'localisation', 'movement']",R_Head_Z_Back,2,3,robot,2,False,False,"['robot_stimuli\\R_Head_Y_Back.mp4', 'robot_stimuli\\R_Arm_Y_Back.mp4', 'robot_stimuli\\R_Head_Z_Back.mp4', 'robot_stimuli\\L_Head_Y_Back.mp4']",robot_stimuli\R_Head_Z_Back.mp4,22,0,0,0,0,0,16,16,16,,,,,,,,,,,,,,,,,,,,,373.57544660009444,373.57544660009444,None,,373.57544660009444,374.57739050034434,,,391.4773254999891,391.4773254999891,391.4773254999891,1,4.581403998658061,396.08642360009253,396.08642360009253,396.08642360009253,396.08642360009253,396.08642360009253,396.08642360009253,396.08642360009253,396.08642360009253,None,None,None,373.57544660009444,373.57544660009444,374.57739050034434,376.6649208003655,,387.8202068004757,,,,,,,,,,,,,,,22,001,2024-09-25_16h37.28.159,robot_cogshifting_sign,2022.2.5,59.87317641086729,
"['R_Arm_Z_Back', 'R_Head_Y_Back', 'R_Head_Z_Back', 'L_Head_Z_For']","{'laterality': 'L_Head_Z_For', 'localisation': 'R_Arm_Z_Back', 'movement': 'R_Head_Y_Back'}",localisation,"['laterality', 'localisation', 'movement']",R_Arm_Z_Back,0,3,robot,2,False,True,"['robot_stimuli\\R_Arm_Z_Back.mp4', 'robot_stimuli\\R_Head_Y_Back.mp4', 'robot_stimuli\\R_Head_Z_Back.mp4', 'robot_stimuli\\L_Head_Z_For.mp4']",robot_stimuli\R_Arm_Z_Back.mp4,22,0,0,0,0,0,17,17,17,,,,,,,,,,,,,,,,,,,,,396.08642360009253,396.08642360009253,None,,396.08642360009253,397.0883836001158,,,413.988309700042,413.988309700042,413.988309700042,1,3.774618400260806,417.8292284999043,423.80765920039266,417.8292284999043,423.80765920039266,417.8292284999043,423.80765920039266,417.8292284999043,423.80765920039266,53.88888888888889,5.119779200293124,space,396.08642360009253,396.08642360009253,397.0883836001158,399.17582980077714,5.901748499833047,410.3311099000275,,,,,,,,,,,,,,,22,001,2024-09-25_16h37.28.159,robot_cogshifting_sign,2022.2.5,59.87317641086729,
,,,,,,,,,,,,,,0,0,0,0,,,,,,,,,,,,,,,,,,,,,,,,,,,,,,,,,,,,,,,,,,,,,,,,,,,,,,,423.80765920039266,423.80765920039266,423.80765920039266,c,2.6190900998190045,,,,,,,,,,22,001,2024-09-25_16h37.28.159,robot_cogshifting_sign,2022.2.5,59.87317641086729,
"['blue_right_P_45', 'blue_top_W_0', 'blue_top_P_45', 'red_top_Z_45']","{'color': 'red_top_Z_45', 'position': 'blue_right_P_45', 'orientation': 'blue_top_W_0'}",position,"['color', 'position']",blue_right_P_45,0,2,letter,1,True,False,"['robot_stimuli\\\\filler.mp4', 'robot_stimuli\\\\filler.mp4', 'robot_stimuli\\\\filler.mp4', 'robot_stimuli\\\\filler.mp4']",robot_stimuli\\filler.mp4,22,,,,,,,,,,,,,0,0,0,0,,,,,,,,,,,,,,,,,,429.2851103004068,,,440.44039810076356,440.44039810076356,440.44039810076356,1,2.994367999024689,443.4630070999265,443.4630070999265,443.4630070999265,443.4630070999265,443.4630070999265,443.4630070999265,443.4630070999265,443.4630070999265,None,None,None,,,,,,,,,,,,426.47959390003234,426.47959390003234,space,2.7877356000244617,438.23610800039023,440.44039810076356,,,,22,001,2024-09-25_16h37.28.159,robot_cogshifting_sign,2022.2.5,59.87317641086729,
"['red_left_C_0', 'red_left_S_45', 'red_bottom_P_0', 'blue_left_N_0']","{'color': 'blue_left_N_0', 'position': 'red_bottom_P_0', 'orientation': 'red_left_S_45'}",position,"['color', 'position']",red_bottom_P_0,2,2,letter,1,False,False,"['robot_stimuli\\\\filler.mp4', 'robot_stimuli\\\\filler.mp4', 'robot_stimuli\\\\filler.mp4', 'robot_stimuli\\\\filler.mp4']",robot_stimuli\\filler.mp4,22,,,,,,,,,,,,,0,1,1,1,,,,,,,,,,,,,,,,,,443.4630070999265,,,454.01708890032023,454.01708890032023,454.01708890032023,3,2.017313299700618,456.05452890042216,456.05452890042216,456.05452890042216,456.05452890042216,456.05452890042216,456.05452890042216,456.05452890042216,456.05452890042216,None,None,None,,,,445.5337936002761,,,,,,,,443.4630070999265,443.4630070999265,None,,451.9966358002275,454.01708890032023,443.4630070999265,443.4630070999265,,22,001,2024-09-25_16h37.28.159,robot_cogshifting_sign,2022.2.5,59.87317641086729,
"['red_bottom_N_45', 'red_top_T_0', 'blue_bottom_T_0', 'red_bottom_D_0']","{'color': 'blue_bottom_T_0', 'position': 'red_top_T_0', 'orientation': 'red_bottom_N_45'}",color,"['color', 'position']",blue_bottom_T_0,2,2,letter,1,False,False,"['robot_stimuli\\\\filler.mp4', 'robot_stimuli\\\\filler.mp4', 'robot_stimuli\\\\filler.mp4', 'robot_stimuli\\\\filler.mp4']",robot_stimuli\\filler.mp4,22,,,,,,,,,,,,,0,2,2,2,,,,,,,,,,,,,,,,,,456.05452890042216,,,466.39148940052837,466.39148940052837,466.39148940052837,3,7.051076999865472,473.4720887001604,473.4720887001604,473.4720887001604,473.4720887001604,473.4720887001604,473.4720887001604,473.4720887001604,473.4720887001604,None,None,None,,,,458.10856540035456,,,,,,,,456.05452890042216,456.05452890042216,None,,464.37182300072163,466.39148940052837,456.05452890042216,456.05452890042216,,22,001,2024-09-25_16h37.28.159,robot_cogshifting_sign,2022.2.5,59.87317641086729,
"['blue_top_L_0', 'red_right_S_0', 'blue_right_Q_45', 'blue_right_H_0']","{'color': 'red_right_S_0', 'position': 'blue_top_L_0', 'orientation': 'blue_right_Q_45'}",orientation,"['color', 'orientation']",blue_right_Q_45,2,2,letter,1,False,False,"['robot_stimuli\\\\filler.mp4', 'robot_stimuli\\\\filler.mp4', 'robot_stimuli\\\\filler.mp4', 'robot_stimuli\\\\filler.mp4']",robot_stimuli\\filler.mp4,22,,,,,,,,,,,,,0,3,3,3,,,,,,,,,,,,,,,,,,473.4720887001604,,,484.20990920066833,484.20990920066833,484.20990920066833,3,1.880711299367249,486.1136702001095,486.1136702001095,486.1136702001095,486.1136702001095,486.1136702001095,486.1136702001095,486.1136702001095,486.1136702001095,None,None,None,,,,475.54282390046865,,,,,,,,473.4720887001604,473.4720887001604,None,,482.1893921000883,484.20990920066833,473.4720887001604,473.4720887001604,,22,001,2024-09-25_16h37.28.159,robot_cogshifting_sign,2022.2.5,59.87317641086729,
"['red_left_C_45', 'blue_left_G_45', 'red_left_V_0', 'red_top_J_45']","{'color': 'blue_left_G_45', 'position': 'red_top_J_45', 'orientation': 'red_left_V_0'}",color,"['color', 'position']",blue_left_G_45,1,2,letter,1,False,False,"['robot_stimuli\\\\filler.mp4', 'robot_stimuli\\\\filler.mp4', 'robot_stimuli\\\\filler.mp4', 'robot_stimuli\\\\filler.mp4']",robot_stimuli\\filler.mp4,22,,,,,,,,,,,,,0,4,4,4,,,,,,,,,,,,,,,,,,486.1136702001095,,,496.6510185999796,496.6510185999796,496.6510185999796,2,1.4953887993469834,498.1706974003464,498.1706974003464,498.1706974003464,498.1706974003464,498.1706974003464,498.1706974003464,498.1706974003464,498.1706974003464,None,None,None,,,,488.18445469997823,,,,,,,,486.1136702001095,486.1136702001095,None,,494.6304886005819,496.6510185999796,486.1136702001095,486.1136702001095,,22,001,2024-09-25_16h37.28.159,robot_cogshifting_sign,2022.2.5,59.87317641086729,
"['blue_top_J_45', 'red_top_V_45', 'red_right_P_45', 'red_top_L_0']","{'color': 'blue_top_J_45', 'position': 'red_right_P_45', 'orientation': 'red_top_L_0'}",position,"['orientation', 'position']",red_right_P_45,2,2,letter,1,False,False,"['robot_stimuli\\\\filler.mp4', 'robot_stimuli\\\\filler.mp4', 'robot_stimuli\\\\filler.mp4', 'robot_stimuli\\\\filler.mp4']",robot_stimuli\\filler.mp4,22,,,,,,,,,,,,,0,5,5,5,,,,,,,,,,,,,,,,,,498.1706974003464,,,509.10887160059065,509.10887160059065,509.10887160059065,3,2.4859675988554955,511.6138233002275,511.6138233002275,511.6138233002275,511.6138233002275,511.6138233002275,511.6138233002275,511.6138233002275,511.6138233002275,None,None,None,,,,500.24149200040847,,,,,,,,498.1706974003464,498.1706974003464,None,,507.0887843007222,509.10887160059065,498.1706974003464,498.1706974003464,,22,001,2024-09-25_16h37.28.159,robot_cogshifting_sign,2022.2.5,59.87317641086729,
"['red_top_D_0', 'red_bottom_N_45', 'blue_top_G_45', 'red_top_F_45']","{'color': 'blue_top_G_45', 'position': 'red_bottom_N_45', 'orientation': 'red_top_D_0'}",orientation,"['orientation', 'position']",red_top_D_0,0,2,letter,1,False,False,"['robot_stimuli\\\\filler.mp4', 'robot_stimuli\\\\filler.mp4', 'robot_stimuli\\\\filler.mp4', 'robot_stimuli\\\\filler.mp4']",robot_stimuli\\filler.mp4,22,,,,,,,,,,,,,0,6,6,6,,,,,,,,,,,,,,,,,,511.6138233002275,,,522.7691069003195,522.7691069003195,522.7691069003195,1,4.249311699531972,527.044214900583,527.044214900583,527.044214900583,527.044214900583,527.044214900583,527.044214900583,527.044214900583,527.044214900583,None,None,None,,,,513.6846316000447,,,,,,,,511.6138233002275,511.6138233002275,None,,520.5481286998838,522.7691069003195,511.6138233002275,511.6138233002275,,22,001,2024-09-25_16h37.28.159,robot_cogshifting_sign,2022.2.5,59.87317641086729,
"['blue_bottom_B_0', 'red_left_H_0', 'red_bottom_P_45', 'red_bottom_K_0']","{'color': 'blue_bottom_B_0', 'position': 'red_left_H_0', 'orientation': 'red_bottom_P_45'}",color,"['color', 'position']",blue_bottom_B_0,0,2,letter,1,False,False,"['robot_stimuli\\\\filler.mp4', 'robot_stimuli\\\\filler.mp4', 'robot_stimuli\\\\filler.mp4', 'robot_stimuli\\\\filler.mp4']",robot_stimuli\\filler.mp4,22,,,,,,,,,,,,,0,7,7,7,,,,,,,,,,,,,,,,,,527.044214900583,,,537.9824407007545,537.9824407007545,537.9824407007545,1,2.316645499318838,540.3203273005784,540.3203273005784,540.3203273005784,540.3203273005784,540.3203273005784,540.3203273005784,540.3203273005784,540.3203273005784,None,None,None,,,,529.115018600598,,,,,,,,527.044214900583,527.044214900583,None,,535.9623647006229,537.9824407007545,527.044214900583,527.044214900583,,22,001,2024-09-25_16h37.28.159,robot_cogshifting_sign,2022.2.5,59.87317641086729,
"['blue_right_L_0', 'blue_left_W_0', 'blue_left_Q_45', 'red_left_K_0']","{'color': 'red_left_K_0', 'position': 'blue_right_L_0', 'orientation': 'blue_left_Q_45'}",orientation,"['orientation', 'position']",blue_left_Q_45,2,2,letter,1,False,True,"['robot_stimuli\\\\filler.mp4', 'robot_stimuli\\\\filler.mp4', 'robot_stimuli\\\\filler.mp4', 'robot_stimuli\\\\filler.mp4']",robot_stimuli\\filler.mp4,22,,,,,,,,,,,,,0,8,8,8,,,,,,,,,,,,,,,,,,540.3203273005784,,,551.2585295001045,551.2585295001045,551.2585295001045,4,4.167832899838686,555.4834566004574,559.7753284005448,555.4834566004574,559.7753284005448,555.4834566004574,559.7753284005448,555.4834566004574,559.7753284005448,58.49206349206349,3.0322791999205947,space,,,,542.3911460004747,4.21544239949435,,,,,,,540.3203273005784,540.3203273005784,None,,549.037606600672,551.2585295001045,540.3203273005784,540.3203273005784,,22,001,2024-09-25_16h37.28.159,robot_cogshifting_sign,2022.2.5,59.87317641086729,
"['blue_top_M_45', 'blue_top_Z_0', 'blue_bottom_D_0', 'red_top_J_0']","{'color': 'red_top_J_0', 'position': 'blue_bottom_D_0', 'orientation': 'blue_top_M_45'}",position,['position'],blue_bottom_D_0,2,1,letter,1,True,False,"['robot_stimuli\\\\filler.mp4', 'robot_stimuli\\\\filler.mp4', 'robot_stimuli\\\\filler.mp4', 'robot_stimuli\\\\filler.mp4']",robot_stimuli\\filler.mp4,22,,,,,,,,,,,,,0,9,9,9,,,,,,,,,,,,,,,,,,562.3470283001661,,,572.9011337999254,572.9011337999254,572.9011337999254,3,1.621245900169015,574.5543578006327,574.5543578006327,574.5543578006327,574.5543578006327,574.5543578006327,574.5543578006327,574.5543578006327,574.5543578006327,None,None,None,,,,,,,,,,,,559.7753284005448,559.7753284005448,space,2.54753299895674,570.8808659007773,572.9011337999254,,,,22,001,2024-09-25_16h37.28.159,robot_cogshifting_sign,2022.2.5,59.87317641086729,
"['red_left_R_45', 'blue_bottom_K_45', 'red_bottom_Z_45', 'red_bottom_M_0']","{'color': 'blue_bottom_K_45', 'position': 'red_left_R_45', 'orientation': 'red_bottom_M_0'}",orientation,['orientation'],red_bottom_M_0,3,1,letter,1,False,False,"['robot_stimuli\\\\filler.mp4', 'robot_stimuli\\\\filler.mp4', 'robot_stimuli\\\\filler.mp4', 'robot_stimuli\\\\filler.mp4']",robot_stimuli\\filler.mp4,22,,,,,,,,,,,,,0,10,10,10,,,,,,,,,,,,,,,,,,574.5543578006327,,,585.4925824999809,585.4925824999809,585.4925824999809,4,0.589776499196887,586.1104856003076,586.1104856003076,586.1104856003076,586.1104856003076,586.1104856003076,586.1104856003076,586.1104856003076,586.1104856003076,None,None,None,,,,576.6251958999783,,,,,,,,574.5543578006327,574.5543578006327,None,,583.2882908005267,585.4925824999809,574.5543578006327,574.5543578006327,,22,001,2024-09-25_16h37.28.159,robot_cogshifting_sign,2022.2.5,59.87317641086729,
"['blue_bottom_R_0', 'blue_top_Z_45', 'blue_top_N_0', 'red_top_W_0']","{'color': 'red_top_W_0', 'position': 'blue_bottom_R_0', 'orientation': 'blue_top_Z_45'}",orientation,['orientation'],blue_top_Z_45,1,1,letter,1,False,False,"['robot_stimuli\\\\filler.mp4', 'robot_stimuli\\\\filler.mp4', 'robot_stimuli\\\\filler.mp4', 'robot_stimuli\\\\filler.mp4']",robot_stimuli\\filler.mp4,22,,,,,,,,,,,,,0,11,11,11,,,,,,,,,,,,,,,,,,586.1104856003076,,,597.0653800005093,597.0653800005093,597.0653800005093,2,1.0734778000041842,598.1675530001521,598.1675530001521,598.1675530001521,598.1675530001521,598.1675530001521,598.1675530001521,598.1675530001521,598.1675530001521,None,None,None,,,,588.1812546001747,,,,,,,,586.1104856003076,586.1104856003076,None,,594.844450100325,597.0653800005093,586.1104856003076,586.1104856003076,,22,001,2024-09-25_16h37.28.159,robot_cogshifting_sign,2022.2.5,59.87317641086729,
"['red_top_S_0', 'blue_left_S_0', 'red_left_Q_45', 'red_left_F_0']","{'color': 'blue_left_S_0', 'position': 'red_top_S_0', 'orientation': 'red_left_Q_45'}",color,['color'],blue_left_S_0,1,1,letter,1,False,False,"['robot_stimuli\\\\filler.mp4', 'robot_stimuli\\\\filler.mp4', 'robot_stimuli\\\\filler.mp4', 'robot_stimuli\\\\filler.mp4']",robot_stimuli\\filler.mp4,22,,,,,,,,,,,,,0,12,12,12,,,,,,,,,,,,,,,,,,598.1675530001521,,,608.7216417007148,608.7216417007148,608.7216417007148,2,0.529526099562645,609.2727311998606,609.2727311998606,609.2727311998606,609.2727311998606,609.2727311998606,609.2727311998606,609.2727311998606,609.2727311998606,None,None,None,,,,600.2550568003207,,,,,,,,598.1675530001521,598.1675530001521,None,,606.7010634001344,608.7216417007148,598.1675530001521,598.1675530001521,,22,001,2024-09-25_16h37.28.159,robot_cogshifting_sign,2022.2.5,59.87317641086729,
"['blue_left_W_45', 'blue_left_M_0', 'red_left_V_0', 'blue_top_V_0']","{'color': 'red_left_V_0', 'position': 'blue_top_V_0', 'orientation': 'blue_left_W_45'}",position,['position'],blue_top_V_0,3,1,letter,1,False,False,"['robot_stimuli\\\\filler.mp4', 'robot_stimuli\\\\filler.mp4', 'robot_stimuli\\\\filler.mp4', 'robot_stimuli\\\\filler.mp4']",robot_stimuli\\filler.mp4,22,,,,,,,,,,,,,0,13,13,13,,,,,,,,,,,,,,,,,,609.2727311998606,,,620.2109014000744,620.2109014000744,620.2109014000744,4,0.2313799997791648,620.4613780006766,620.4613780006766,620.4613780006766,620.4613780006766,620.4613780006766,620.4613780006766,620.4613780006766,620.4613780006766,None,None,None,,,,611.343541700393,,,,,,,,609.2727311998606,609.2727311998606,None,,617.9899083999917,620.2109014000744,609.2727311998606,609.2727311998606,,22,001,2024-09-25_16h37.28.159,robot_cogshifting_sign,2022.2.5,59.87317641086729,
"['red_top_M_0', 'red_bottom_N_0', 'blue_bottom_T_0', 'red_bottom_V_45']","{'color': 'blue_bottom_T_0', 'position': 'red_top_M_0', 'orientation': 'red_bottom_V_45'}",position,['position'],red_top_M_0,0,1,letter,1,False,False,"['robot_stimuli\\\\filler.mp4', 'robot_stimuli\\\\filler.mp4', 'robot_stimuli\\\\filler.mp4', 'robot_stimuli\\\\filler.mp4']",robot_stimuli\\filler.mp4,22,,,,,,,,,,,,,0,14,14,14,,,,,,,,,,,,,,,,,,620.4613780006766,,,630.9821342006326,630.9821342006326,630.9821342006326,1,0.33215339947491884,631.3328281007707,631.3328281007707,631.3328281007707,631.3328281007707,631.3328281007707,631.3328281007707,631.3328281007707,631.3328281007707,None,None,None,,,,622.5154910003766,,,,,,,,620.4613780006766,620.4613780006766,None,,628.777841700241,630.9821342006326,620.4613780006766,620.4613780006766,,22,001,2024-09-25_16h37.28.159,robot_cogshifting_sign,2022.2.5,59.87317641086729,
"['red_right_R_45', 'red_right_S_0', 'red_left_B_45', 'blue_right_B_45']","{'color': 'blue_right_B_45', 'position': 'red_left_B_45', 'orientation': 'red_right_S_0'}",color,['color'],blue_right_B_45,3,1,letter,1,False,False,"['robot_stimuli\\\\filler.mp4', 'robot_stimuli\\\\filler.mp4', 'robot_stimuli\\\\filler.mp4', 'robot_stimuli\\\\filler.mp4']",robot_stimuli\\filler.mp4,22,,,,,,,,,,,,,0,15,15,15,,,,,,,,,,,,,,,,,,631.3328281007707,,,641.6698429007083,641.6698429007083,641.6698429007083,4,0.2851155987009406,641.9871338000521,641.9871338000521,641.9871338000521,641.9871338000521,641.9871338000521,641.9871338000521,641.9871338000521,641.9871338000521,None,None,None,,,,633.3878851002082,,,,,,,,631.3328281007707,631.3328281007707,None,,639.6492909006774,641.6698429007083,631.3328281007707,631.3328281007707,,22,001,2024-09-25_16h37.28.159,robot_cogshifting_sign,2022.2.5,59.87317641086729,
"['red_right_K_45', 'blue_right_Q_0', 'blue_right_N_45', 'blue_top_W_45']","{'color': 'red_right_K_45', 'position': 'blue_top_W_45', 'orientation': 'blue_right_Q_0'}",color,['color'],red_right_K_45,0,1,letter,1,False,False,"['robot_stimuli\\\\filler.mp4', 'robot_stimuli\\\\filler.mp4', 'robot_stimuli\\\\filler.mp4', 'robot_stimuli\\\\filler.mp4']",robot_stimuli\\filler.mp4,22,,,,,,,,,,,,,0,16,16,16,,,,,,,,,,,,,,,,,,641.9871338000521,,,652.9420305006206,652.9420305006206,652.9420305006206,1,1.1325123999267817,654.0942999003455,654.0942999003455,654.0942999003455,654.0942999003455,654.0942999003455,654.0942999003455,654.0942999003455,654.0942999003455,None,None,None,,,,644.0578985000029,,,,,,,,641.9871338000521,641.9871338000521,None,,650.9214946003631,652.9420305006206,641.9871338000521,641.9871338000521,,22,001,2024-09-25_16h37.28.159,robot_cogshifting_sign,2022.2.5,59.87317641086729,
"['red_bottom_C_45', 'blue_left_B_45', 'blue_bottom_W_0', 'blue_bottom_H_45']","{'color': 'red_bottom_C_45', 'position': 'blue_left_B_45', 'orientation': 'blue_bottom_W_0'}",orientation,['orientation'],blue_bottom_W_0,2,1,letter,1,False,True,"['robot_stimuli\\\\filler.mp4', 'robot_stimuli\\\\filler.mp4', 'robot_stimuli\\\\filler.mp4', 'robot_stimuli\\\\filler.mp4']",robot_stimuli\\filler.mp4,22,,,,,,,,,,,,,0,17,17,17,,,,,,,,,,,,,,,,,,654.0942999003455,,,665.0491852005944,665.0491852005944,665.0491852005944,3,0.2248204993084073,665.3330292003229,669.2908567003906,665.3330292003229,669.2908567003906,665.3330292003229,669.2908567003906,665.3330292003229,669.2908567003906,12.619047619047615,2.49766210000962,space,,,,656.1650916999206,3.901358699426055,,,,,,,654.0942999003455,654.0942999003455,None,,662.8281986005604,665.0491852005944,654.0942999003455,654.0942999003455,,22,001,2024-09-25_16h37.28.159,robot_cogshifting_sign,2022.2.5,59.87317641086729,
"['red_bottom_Q_0', 'red_right_J_45', 'red_bottom_X_45', 'blue_bottom_D_45']","{'color': 'blue_bottom_D_45', 'position': 'red_right_J_45', 'orientation': 'red_bottom_Q_0'}",orientation,"['color', 'orientation', 'position']",red_bottom_Q_0,0,3,letter,1,True,False,"['robot_stimuli\\\\filler.mp4', 'robot_stimuli\\\\filler.mp4', 'robot_stimuli\\\\filler.mp4', 'robot_stimuli\\\\filler.mp4']",robot_stimuli\\filler.mp4,22,,,,,,,,,,,,,0,18,18,18,,,,,,,,,,,,,,,,,,691.7517953002825,,,702.907048500143,702.907048500143,702.907048500143,1,4.016646199859679,706.9483214002103,706.9483214002103,706.9483214002103,706.9483214002103,706.9483214002103,706.9483214002103,706.9483214002103,706.9483214002103,None,None,None,,,,,,,,,,,,669.2908567003906,669.2908567003906,space,22.439417799003422,700.686033400707,702.907048500143,,,,22,001,2024-09-25_16h37.28.159,robot_cogshifting_sign,2022.2.5,59.87317641086729,
"['red_top_Q_0', 'blue_top_M_45', 'red_top_M_45', 'red_right_S_45']","{'color': 'blue_top_M_45', 'position': 'red_right_S_45', 'orientation': 'red_top_Q_0'}",position,"['color', 'orientation', 'position']",red_right_S_45,3,3,letter,1,False,False,"['robot_stimuli\\\\filler.mp4', 'robot_stimuli\\\\filler.mp4', 'robot_stimuli\\\\filler.mp4', 'robot_stimuli\\\\filler.mp4']",robot_stimuli\\filler.mp4,22,,,,,,,,,,,,,0,19,19,19,,,,,,,,,,,,,,,,,,706.9483214002103,,,717.2853337004781,717.2853337004781,717.2853337004781,2,8.34909619949758,725.6518205003813,725.6518205003813,725.6518205003813,725.6518205003813,725.6518205003813,725.6518205003813,725.6518205003813,725.6518205003813,None,None,None,,,,709.0024597998708,,,,,,,,706.9483214002103,706.9483214002103,None,,715.2647762000561,717.2853337004781,706.9483214002103,706.9483214002103,,22,001,2024-09-25_16h37.28.159,robot_cogshifting_sign,2022.2.5,59.87317641086729,
"['red_bottom_D_0', 'red_bottom_W_45', 'red_right_L_45', 'blue_bottom_R_45']","{'color': 'blue_bottom_R_45', 'position': 'red_right_L_45', 'orientation': 'red_bottom_D_0'}",color,"['color', 'orientation', 'position']",blue_bottom_R_45,3,3,letter,1,False,False,"['robot_stimuli\\\\filler.mp4', 'robot_stimuli\\\\filler.mp4', 'robot_stimuli\\\\filler.mp4', 'robot_stimuli\\\\filler.mp4']",robot_stimuli\\filler.mp4,22,,,,,,,,,,,,,0,20,20,20,,,,,,,,,,,,,,,,,,725.6518205003813,,,736.7903984002769,736.7903984002769,736.7903984002769,4,1.2840920994058251,738.0929250000045,738.0929250000045,738.0929250000045,738.0929250000045,738.0929250000045,738.0929250000045,738.0929250000045,738.0929250000045,None,None,None,,,,727.7225395003334,,,,,,,,725.6518205003813,725.6518205003813,None,,734.5861216001213,736.7903984002769,725.6518205003813,725.6518205003813,,22,001,2024-09-25_16h37.28.159,robot_cogshifting_sign,2022.2.5,59.87317641086729,
"['blue_right_Q_0', 'red_top_Z_0', 'red_right_F_0', 'red_right_H_45']","{'color': 'blue_right_Q_0', 'position': 'red_top_Z_0', 'orientation': 'red_right_H_45'}",orientation,"['color', 'orientation', 'position']",red_right_H_45,3,3,letter,1,False,False,"['robot_stimuli\\\\filler.mp4', 'robot_stimuli\\\\filler.mp4', 'robot_stimuli\\\\filler.mp4', 'robot_stimuli\\\\filler.mp4']",robot_stimuli\\filler.mp4,22,,,,,,,,,,,,,0,21,21,21,,,,,,,,,,,,,,,,,,738.0929250000045,,,748.8307663006708,748.8307663006708,748.8307663006708,2,4.1563310995697975,753.005653500557,753.005653500557,753.005653500557,753.005653500557,753.005653500557,753.005653500557,753.005653500557,753.005653500557,None,None,None,,,,740.1637912001461,,,,,,,,738.0929250000045,738.0929250000045,None,,746.8101909998804,748.8307663006708,738.0929250000045,738.0929250000045,,22,001,2024-09-25_16h37.28.159,robot_cogshifting_sign,2022.2.5,59.87317641086729,
"['red_right_T_0', 'red_right_B_45', 'blue_right_H_45', 'red_top_B_45']","{'color': 'blue_right_H_45', 'position': 'red_top_B_45', 'orientation': 'red_right_T_0'}",color,"['color', 'orientation', 'position']",blue_right_H_45,2,3,letter,1,False,False,"['robot_stimuli\\\\filler.mp4', 'robot_stimuli\\\\filler.mp4', 'robot_stimuli\\\\filler.mp4', 'robot_stimuli\\\\filler.mp4']",robot_stimuli\\filler.mp4,22,,,,,,,,,,,,,0,22,22,22,,,,,,,,,,,,,,,,,,753.005653500557,,,763.5430671004578,763.5430671004578,763.5430671004578,2,4.179533898830414,767.7514260001481,767.7514260001481,767.7514260001481,767.7514260001481,767.7514260001481,767.7514260001481,767.7514260001481,767.7514260001481,None,None,None,,,,755.0765115004033,,,,,,,,753.005653500557,753.005653500557,None,,761.5223943004385,763.5430671004578,753.005653500557,753.005653500557,,22,001,2024-09-25_16h37.28.159,robot_cogshifting_sign,2022.2.5,59.87317641086729,
"['red_left_V_45', 'blue_left_T_0', 'red_left_M_0', 'red_bottom_T_0']","{'color': 'blue_left_T_0', 'position': 'red_bottom_T_0', 'orientation': 'red_left_V_45'}",orientation,"['color', 'orientation', 'position']",red_left_V_45,0,3,letter,1,False,False,"['robot_stimuli\\\\filler.mp4', 'robot_stimuli\\\\filler.mp4', 'robot_stimuli\\\\filler.mp4', 'robot_stimuli\\\\filler.mp4']",robot_stimuli\\filler.mp4,22,,,,,,,,,,,,,0,23,23,23,,,,,,,,,,,,,,,,,,767.7514260001481,,,778.5058384006843,778.5058384006843,778.5058384006843,1,1.8648899998515844,780.3928541000932,780.3928541000932,780.3928541000932,780.3928541000932,780.3928541000932,780.3928541000932,780.3928541000932,780.3928541000932,None,None,None,,,,769.8221617005765,,,,,,,,767.7514260001481,767.7514260001481,None,,776.4853686001152,778.5058384006843,767.7514260001481,767.7514260001481,,22,001,2024-09-25_16h37.28.159,robot_cogshifting_sign,2022.2.5,59.87317641086729,
"['blue_left_G_0', 'blue_bottom_X_0', 'blue_bottom_S_45', 'red_bottom_X_0']","{'color': 'red_bottom_X_0', 'position': 'blue_left_G_0', 'orientation': 'blue_bottom_S_45'}",color,"['color', 'orientation', 'position']",red_bottom_X_0,3,3,letter,1,False,False,"['robot_stimuli\\\\filler.mp4', 'robot_stimuli\\\\filler.mp4', 'robot_stimuli\\\\filler.mp4', 'robot_stimuli\\\\filler.mp4']",robot_stimuli\\filler.mp4,22,,,,,,,,,,,,,0,24,24,24,,,,,,,,,,,,,,,,,,780.3928541000932,,,791.1473826998845,791.1473826998845,791.1473826998845,4,2.4795226994901896,793.6523167006671,793.6523167006671,793.6523167006671,793.6523167006671,793.6523167006671,793.6523167006671,793.6523167006671,793.6523167006671,None,None,None,,,,782.4637032998726,,,,,,,,780.3928541000932,780.3928541000932,None,,789.1271403999999,791.1473826998845,780.3928541000932,780.3928541000932,,22,001,2024-09-25_16h37.28.159,robot_cogshifting_sign,2022.2.5,59.87317641086729,
"['blue_top_Q_0', 'blue_left_H_0', 'blue_top_S_45', 'red_top_C_0']","{'color': 'red_top_C_0', 'position': 'blue_left_H_0', 'orientation': 'blue_top_S_45'}",position,"['color', 'orientation', 'position']",blue_left_H_0,1,3,letter,1,False,False,"['robot_stimuli\\\\filler.mp4', 'robot_stimuli\\\\filler.mp4', 'robot_stimuli\\\\filler.mp4', 'robot_stimuli\\\\filler.mp4']",robot_stimuli\\filler.mp4,22,,,,,,,,,,,,,0,25,25,25,,,,,,,,,,,,,,,,,,793.6523167006671,,,803.9893540004268,803.9893540004268,803.9893540004268,1,2.604619899764657,806.6111540002748,806.6111540002748,806.6111540002748,806.6111540002748,806.6111540002748,806.6111540002748,806.6111540002748,806.6111540002748,None,None,None,,,,795.7071330007166,,,,,,,,793.6523167006671,793.6523167006671,None,,801.9687721002847,803.9893540004268,793.6523167006671,793.6523167006671,,22,001,2024-09-25_16h37.28.159,robot_cogshifting_sign,2022.2.5,59.87317641086729,
"['blue_left_B_0', 'red_left_N_45', 'red_left_T_0', 'red_top_T_0']","{'color': 'blue_left_B_0', 'position': 'red_top_T_0', 'orientation': 'red_left_N_45'}",position,"['color', 'orientation', 'position']",red_top_T_0,3,3,letter,1,False,True,"['robot_stimuli\\\\filler.mp4', 'robot_stimuli\\\\filler.mp4', 'robot_stimuli\\\\filler.mp4', 'robot_stimuli\\\\filler.mp4']",robot_stimuli\\filler.mp4,22,,,,,,,,,,,,,0,26,26,26,,,,,,,,,,,,,,,,,,806.6111540002748,,,816.9482637001202,816.9482637001202,816.9482637001202,4,1.9340214990079403,818.9354471005499,832.2616548007354,818.9354471005499,832.2616548007354,818.9354471005499,832.2616548007354,818.9354471005499,832.2616548007354,69.12698412698413,9.864580400288105,space,,,,808.6652029007673,13.244195098988712,,,,,,,806.6111540002748,806.6111540002748,None,,814.9276859005913,816.9482637001202,806.6111540002748,806.6111540002748,,22,001,2024-09-25_16h37.28.159,robot_cogshifting_sign,2022.2.5,59.87317641086729,
"['L_Arm_X_For', 'R_Arm_X_Back', 'L_Torso_X_Back', 'L_Arm_Z_Back']","{'laterality': 'R_Arm_X_Back', 'localisation': 'L_Torso_X_Back', 'movement': 'L_Arm_Z_Back'}",localisation,"['laterality', 'localisation']",L_Torso_X_Back,2,2,robot,2,True,False,"['robot_stimuli\\L_Arm_X_For.mp4', 'robot_stimuli\\R_Arm_X_Back.mp4', 'robot_stimuli\\L_Torso_X_Back.mp4', 'robot_stimuli\\L_Arm_Z_Back.mp4']",robot_stimuli\L_Torso_X_Back.mp4,22,,,,,,,,,,,,,0,27,27,27,,,,,,,,,,,,,,,,,,834.4993762001395,,,851.3993394998834,851.3993394998834,851.3993394998834,3,2.7718912987038493,854.188145400025,854.188145400025,854.188145400025,854.188145400025,854.188145400025,854.188145400025,854.188145400025,854.188145400025,None,None,None,,,,,,,,,,,,832.2616548007354,832.2616548007354,space,2.2208767998963594,,,,,847.7588423006237,22,001,2024-09-25_16h37.28.159,robot_cogshifting_sign,2022.2.5,59.87317641086729,
"['L_Head_Y_Back', 'R_Head_Z_Back', 'L_Head_Z_For', 'L_Torso_Z_Back']","{'laterality': 'R_Head_Z_Back', 'localisation': 'L_Torso_Z_Back', 'movement': 'L_Head_Y_Back'}",movement,"['localisation', 'movement']",L_Head_Y_Back,0,2,robot,2,False,False,"['robot_stimuli\\L_Head_Y_Back.mp4', 'robot_stimuli\\R_Head_Z_Back.mp4', 'robot_stimuli\\L_Head_Z_For.mp4', 'robot_stimuli\\L_Torso_Z_Back.mp4']",robot_stimuli\L_Head_Y_Back.mp4,22,,,,,,,,,,,,,0,28,28,28,,,,,,,,,,,,,,,,,,854.188145400025,,,870.9377664001659,870.9377664001659,870.9377664001659,2,2.8018657993525267,873.7599953999743,873.7599953999743,873.7599953999743,873.7599953999743,873.7599953999743,873.7599953999743,873.7599953999743,873.7599953999743,None,None,None,,,,856.2589098000899,,,,,,,,854.188145400025,854.188145400025,None,,,,854.188145400025,854.188145400025,867.4308658000082,22,001,2024-09-25_16h37.28.159,robot_cogshifting_sign,2022.2.5,59.87317641086729,
"['R_Base_Y_For', 'R_Torso_Z_Back', 'L_Torso_Y_For', 'R_Torso_Y_For']","{'laterality': 'L_Torso_Y_For', 'localisation': 'R_Base_Y_For', 'movement': 'R_Torso_Z_Back'}",movement,"['laterality', 'movement']",R_Torso_Z_Back,1,2,robot,2,False,False,"['robot_stimuli\\R_Base_Y_For.mp4', 'robot_stimuli\\R_Torso_Z_Back.mp4', 'robot_stimuli\\L_Torso_Y_For.mp4', 'robot_stimuli\\R_Torso_Y_For.mp4']",robot_stimuli\R_Torso_Z_Back.mp4,22,,,,,,,,,,,,,0,29,29,29,,,,,,,,,,,,,,,,,,873.7599953999743,,,890.6599483005702,890.6599483005702,890.6599483005702,2,2.0382992001250386,892.7306921007112,892.7306921007112,892.7306921007112,892.7306921007112,892.7306921007112,892.7306921007112,892.7306921007112,892.7306921007112,None,None,None,,,,875.8475304003805,,,,,,,,873.7599953999743,873.7599953999743,None,,,,873.7599953999743,873.7599953999743,887.019485000521,22,001,2024-09-25_16h37.28.159,robot_cogshifting_sign,2022.2.5,59.87317641086729,
"['L_Torso_Y_For', 'L_Head_Y_Back', 'R_Head_Y_Back', 'L_Head_Z_For']","{'laterality': 'R_Head_Y_Back', 'localisation': 'L_Torso_Y_For', 'movement': 'L_Head_Z_For'}",laterality,"['laterality', 'movement']",R_Head_Y_Back,2,2,robot,2,False,False,"['robot_stimuli\\L_Torso_Y_For.mp4', 'robot_stimuli\\L_Head_Y_Back.mp4', 'robot_stimuli\\R_Head_Y_Back.mp4', 'robot_stimuli\\L_Head_Z_For.mp4']",robot_stimuli\R_Head_Y_Back.mp4,22,,,,,,,,,,,,,0,30,30,30,,,,,,,,,,,,,,,,,,892.7306921007112,,,909.6305980002508,909.6305980002508,909.6305980002508,3,2.6215792996808887,912.2691631000489,912.2691631000489,912.2691631000489,912.2691631000489,912.2691631000489,912.2691631000489,912.2691631000489,912.2691631000489,None,None,None,,,,894.8181431004778,,,,,,,,892.7306921007112,892.7306921007112,None,,,,892.7306921007112,892.7306921007112,905.9901876999065,22,001,2024-09-25_16h37.28.159,robot_cogshifting_sign,2022.2.5,59.87317641086729,
"['R_Head_Y_Back', 'L_Head_Z_For', 'R_Head_Z_Back', 'R_Arm_Z_Back']","{'laterality': 'L_Head_Z_For', 'localisation': 'R_Arm_Z_Back', 'movement': 'R_Head_Y_Back'}",localisation,"['localisation', 'movement']",R_Arm_Z_Back,3,2,robot,2,False,False,"['robot_stimuli\\R_Head_Y_Back.mp4', 'robot_stimuli\\L_Head_Z_For.mp4', 'robot_stimuli\\R_Head_Z_Back.mp4', 'robot_stimuli\\R_Arm_Z_Back.mp4']",robot_stimuli\R_Arm_Z_Back.mp4,22,,,,,,,,,,,,,0,31,31,31,,,,,,,,,,,,,,,,,,912.2691631000489,,,929.1690779002383,929.1690779002383,929.1690779002383,4,2.065624399110675,931.2565005999058,931.2565005999058,931.2565005999058,931.2565005999058,931.2565005999058,931.2565005999058,931.2565005999058,931.2565005999058,None,None,None,,,,914.3566514998674,,,,,,,,912.2691631000489,912.2691631000489,None,,,,912.2691631000489,912.2691631000489,925.5285884998739,22,001,2024-09-25_16h37.28.159,robot_cogshifting_sign,2022.2.5,59.87317641086729,
"['R_Base_Y_For', 'R_Base_Z_For', 'R_Torso_Z_Back', 'L_Base_Z_Back']","{'laterality': 'L_Base_Z_Back', 'localisation': 'R_Torso_Z_Back', 'movement': 'R_Base_Y_For'}",laterality,"['laterality', 'movement']",L_Base_Z_Back,3,2,robot,2,False,False,"['robot_stimuli\\R_Base_Y_For.mp4', 'robot_stimuli\\R_Base_Z_For.mp4', 'robot_stimuli\\R_Torso_Z_Back.mp4', 'robot_stimuli\\L_Base_Z_Back.mp4']",robot_stimuli\L_Base_Z_Back.mp4,22,,,,,,,,,,,,,0,32,32,32,,,,,,,,,,,,,,,,,,931.2565005999058,,,948.156441600062,948.156441600062,948.156441600062,3,3.285928199067712,951.4629481006414,951.4629481006414,951.4629481006414,951.4629481006414,951.4629481006414,951.4629481006414,951.4629481006414,951.4629481006414,None,None,None,,,,933.3440016005188,,,,,,,,931.2565005999058,931.2565005999058,None,,,,931.2565005999058,931.2565005999058,944.4994988003746,22,001,2024-09-25_16h37.28.159,robot_cogshifting_sign,2022.2.5,59.87317641086729,
"['R_Torso_Y_Back', 'L_Torso_Z_Back', 'L_Base_Y_For', 'L_Torso_Y_For']","{'laterality': 'R_Torso_Y_Back', 'localisation': 'L_Base_Y_For', 'movement': 'L_Torso_Z_Back'}",localisation,"['laterality', 'localisation']",L_Base_Y_For,2,2,robot,2,False,False,"['robot_stimuli\\R_Torso_Y_Back.mp4', 'robot_stimuli\\L_Torso_Z_Back.mp4', 'robot_stimuli\\L_Base_Y_For.mp4', 'robot_stimuli\\L_Torso_Y_For.mp4']",robot_stimuli\L_Base_Y_For.mp4,22,,,,,,,,,,,,,0,33,33,33,,,,,,,,,,,,,,,,,,951.4629481006414,,,968.1290655005723,968.1290655005723,968.1290655005723,1,1.882588799111545,970.032836000435,970.032836000435,970.032836000435,970.032836000435,970.032836000435,970.032836000435,970.032836000435,970.032836000435,None,None,None,,,,953.5503986999393,,,,,,,,951.4629481006414,951.4629481006414,None,,,,951.4629481006414,951.4629481006414,964.4886066000909,22,001,2024-09-25_16h37.28.159,robot_cogshifting_sign,2022.2.5,59.87317641086729,
"['L_Base_X_For', 'R_Torso_X_For', 'R_Base_Y_For', 'R_Base_X_For']","{'laterality': 'L_Base_X_For', 'localisation': 'R_Torso_X_For', 'movement': 'R_Base_Y_For'}",laterality,"['laterality', 'movement']",L_Base_X_For,0,2,robot,2,False,False,"['robot_stimuli\\L_Base_X_For.mp4', 'robot_stimuli\\R_Torso_X_For.mp4', 'robot_stimuli\\R_Base_Y_For.mp4', 'robot_stimuli\\R_Base_X_For.mp4']",robot_stimuli\L_Base_X_For.mp4,22,,,,,,,,,,,,,0,34,34,34,,,,,,,,,,,,,,,,,,970.032836000435,,,986.7490939004347,986.7490939004347,986.7490939004347,4,4.236864099279046,991.0074805999175,991.0074805999175,991.0074805999175,991.0074805999175,991.0074805999175,991.0074805999175,991.0074805999175,991.0074805999175,None,None,None,,,,972.1202958999202,,,,,,,,970.032836000435,970.032836000435,None,,,,970.032836000435,970.032836000435,983.2087898002937,22,001,2024-09-25_16h37.28.159,robot_cogshifting_sign,2022.2.5,59.87317641086729,
"['R_Arm_Y_Back', 'L_Arm_X_Back', 'L_Head_Y_Back', 'L_Arm_Y_For']","{'laterality': 'R_Arm_Y_Back', 'localisation': 'L_Head_Y_Back', 'movement': 'L_Arm_X_Back'}",movement,"['laterality', 'movement']",L_Arm_X_Back,1,2,robot,2,False,True,"['robot_stimuli\\R_Arm_Y_Back.mp4', 'robot_stimuli\\L_Arm_X_Back.mp4', 'robot_stimuli\\L_Head_Y_Back.mp4', 'robot_stimuli\\L_Arm_Y_For.mp4']",robot_stimuli\L_Arm_X_Back.mp4,22,,,,,,,,,,,,,0,35,35,35,,,,,,,,,,,,,,,,,,991.0074805999175,,,1007.9241032004356,1007.9241032004356,1007.9241032004356,2,3.581904198974371,1011.5646134000272,1015.2218106007203,1011.5646134000272,1015.2218106007203,1011.5646134000272,1015.2218106007203,1011.5646134000272,1015.2218106007203,83.4126984126984,2.39759480021894,space,,,,993.0949276005849,3.5985928997397423,,,,,,,991.0074805999175,991.0074805999175,None,,,,991.0074805999175,991.0074805999175,1004.2835975000635,22,001,2024-09-25_16h37.28.159,robot_cogshifting_sign,2022.2.5,59.87317641086729,
"['R_Head_Y_Back', 'L_Arm_Y_Back', 'L_Head_Y_Back', 'L_Head_Z_Back']","{'laterality': 'R_Head_Y_Back', 'localisation': 'L_Arm_Y_Back', 'movement': 'L_Head_Z_Back'}",laterality,['laterality'],R_Head_Y_Back,0,1,robot,2,True,False,"['robot_stimuli\\R_Head_Y_Back.mp4', 'robot_stimuli\\L_Arm_Y_Back.mp4', 'robot_stimuli\\L_Head_Y_Back.mp4', 'robot_stimuli\\L_Head_Z_Back.mp4']",robot_stimuli\R_Head_Y_Back.mp4,22,,,,,,,,,,,,,0,36,36,36,,,,,,,,,,,,,,,,,,1018.3279263004661,,,1035.2445627003908,1035.2445627003908,1035.2445627003908,4,1.7337394999340177,1036.99798340071,1036.99798340071,1036.99798340071,1036.99798340071,1036.99798340071,1036.99798340071,1036.99798340071,1036.99798340071,None,None,None,,,,,,,,,,,,1015.2218106007203,1015.2218106007203,space,3.075998199172318,,,,,1031.6040640007704,22,001,2024-09-25_16h37.28.159,robot_cogshifting_sign,2022.2.5,59.87317641086729,
"['L_Arm_Z_For', 'L_Head_Z_For', 'L_Arm_X_Back', 'R_Arm_Z_For']","{'laterality': 'R_Arm_Z_For', 'localisation': 'L_Head_Z_For', 'movement': 'L_Arm_X_Back'}",laterality,['laterality'],R_Arm_Z_For,3,1,robot,2,False,False,"['robot_stimuli\\L_Arm_Z_For.mp4', 'robot_stimuli\\L_Head_Z_For.mp4', 'robot_stimuli\\L_Arm_X_Back.mp4', 'robot_stimuli\\R_Arm_Z_For.mp4']",robot_stimuli\R_Arm_Z_For.mp4,22,,,,,,,,,,,,,0,37,37,37,,,,,,,,,,,,,,,,,,1036.99798340071,,,1053.8979253005236,1053.8979253005236,1053.8979253005236,4,0.12802269961684942,1054.0482045998797,1054.0482045998797,1054.0482045998797,1054.0482045998797,1054.0482045998797,1054.0482045998797,1054.0482045998797,1054.0482045998797,None,None,None,,,,1039.085472700186,,,,,,,,1036.99798340071,1036.99798340071,None,,,,1036.99798340071,1036.99798340071,1050.257410700433,22,001,2024-09-25_16h37.28.159,robot_cogshifting_sign,2022.2.5,59.87317641086729,
"['L_Base_Y_Back', 'L_Arm_Z_For', 'L_Base_Z_For', 'R_Base_Z_For']","{'laterality': 'R_Base_Z_For', 'localisation': 'L_Arm_Z_For', 'movement': 'L_Base_Y_Back'}",localisation,['localisation'],L_Arm_Z_For,1,1,robot,2,False,False,"['robot_stimuli\\L_Base_Y_Back.mp4', 'robot_stimuli\\L_Arm_Z_For.mp4', 'robot_stimuli\\L_Base_Z_For.mp4', 'robot_stimuli\\R_Base_Z_For.mp4']",robot_stimuli\L_Arm_Z_For.mp4,22,,,,,,,,,,,,,0,38,38,38,,,,,,,,,,,,,,,,,,1054.0482045998797,,,1070.881339800544,1070.881339800544,1070.881339800544,2,2.6894968999549747,1073.60337060038,1073.60337060038,1073.60337060038,1073.60337060038,1073.60337060038,1073.60337060038,1073.60337060038,1073.60337060038,None,None,None,,,,1056.135658999905,,,,,,,,1054.0482045998797,1054.0482045998797,None,,,,1054.0482045998797,1054.0482045998797,1067.224151399918,22,001,2024-09-25_16h37.28.159,robot_cogshifting_sign,2022.2.5,59.87317641086729,
"['L_Arm_Z_Back', 'L_Arm_X_For', 'R_Arm_Z_Back', 'L_Base_Z_For']","{'laterality': 'R_Arm_Z_Back', 'localisation': 'L_Base_Z_For', 'movement': 'L_Arm_X_For'}",movement,['movement'],L_Arm_X_For,1,1,robot,2,False,False,"['robot_stimuli\\L_Arm_Z_Back.mp4', 'robot_stimuli\\L_Arm_X_For.mp4', 'robot_stimuli\\R_Arm_Z_Back.mp4', 'robot_stimuli\\L_Base_Z_For.mp4']",robot_stimuli\L_Arm_X_For.mp4,22,,,,,,,,,,,,,0,39,39,39,,,,,,,,,,,,,,,,,,1073.60337060038,,,1090.4866233002394,1090.4866233002394,1090.4866233002394,2,0.931381898932159,1091.4384943004698,1091.4384943004698,1091.4384943004698,1091.4384943004698,1091.4384943004698,1091.4384943004698,1091.4384943004698,1091.4384943004698,None,None,None,,,,1075.6908543007448,,,,,,,,1073.60337060038,1073.60337060038,None,,,,1073.60337060038,1073.60337060038,1086.8461182005703,22,001,2024-09-25_16h37.28.159,robot_cogshifting_sign,2022.2.5,59.87317641086729,
"['R_Arm_Y_Back', 'L_Arm_Y_For', 'R_Arm_X_For', 'R_Torso_Y_Back']","{'laterality': 'L_Arm_Y_For', 'localisation': 'R_Torso_Y_Back', 'movement': 'R_Arm_X_For'}",localisation,['localisation'],R_Torso_Y_Back,3,1,robot,2,False,False,"['robot_stimuli\\R_Arm_Y_Back.mp4', 'robot_stimuli\\L_Arm_Y_For.mp4', 'robot_stimuli\\R_Arm_X_For.mp4', 'robot_stimuli\\R_Torso_Y_Back.mp4']",robot_stimuli\R_Torso_Y_Back.mp4,22,,,,,,,,,,,,,0,40,40,40,,,,,,,,,,,,,,,,,,1091.4384943004698,,,1108.3384357001632,1108.3384357001632,1108.3384357001632,4,1.1999687999486923,1109.5575156006962,1109.5575156006962,1109.5575156006962,1109.5575156006962,1109.5575156006962,1109.5575156006962,1109.5575156006962,1109.5575156006962,None,None,None,,,,1093.5259252004325,,,,,,,,1091.4384943004698,1091.4384943004698,None,,,,1091.4384943004698,1091.4384943004698,1104.6979816006497,22,001,2024-09-25_16h37.28.159,robot_cogshifting_sign,2022.2.5,59.87317641086729,
"['L_Base_Y_For', 'L_Head_X_Back', 'L_Base_X_Back', 'R_Base_X_Back']","{'laterality': 'R_Base_X_Back', 'localisation': 'L_Head_X_Back', 'movement': 'L_Base_Y_For'}",laterality,['laterality'],R_Base_X_Back,3,1,robot,2,False,False,"['robot_stimuli\\L_Base_Y_For.mp4', 'robot_stimuli\\L_Head_X_Back.mp4', 'robot_stimuli\\L_Base_X_Back.mp4', 'robot_stimuli\\R_Base_X_Back.mp4']",robot_stimuli\R_Base_X_Back.mp4,22,,,,,,,,,,,,,0,41,41,41,,,,,,,,,,,,,,,,,,1109.5575156006962,,,1126.3238588003442,1126.3238588003442,1126.3238588003442,4,3.815659798681736,1130.1647150004283,1130.1647150004283,1130.1647150004283,1130.1647150004283,1130.1647150004283,1130.1647150004283,1130.1647150004283,1130.1647150004283,None,None,None,,,,1111.6449835002422,,,,,,,,1109.5575156006962,1109.5575156006962,None,,,,1109.5575156006962,1109.5575156006962,1122.683319600299,22,001,2024-09-25_16h37.28.159,robot_cogshifting_sign,2022.2.5,59.87317641086729,
"['R_Arm_Z_Back', 'R_Arm_X_Back', 'R_Base_X_For', 'L_Arm_X_For']","{'laterality': 'L_Arm_X_For', 'localisation': 'R_Base_X_For', 'movement': 'R_Arm_Z_Back'}",movement,['movement'],R_Arm_Z_Back,0,1,robot,2,False,False,"['robot_stimuli\\R_Arm_Z_Back.mp4', 'robot_stimuli\\R_Arm_X_Back.mp4', 'robot_stimuli\\R_Base_X_For.mp4', 'robot_stimuli\\L_Arm_X_For.mp4']",robot_stimuli\R_Arm_Z_Back.mp4,22,,,,,,,,,,,,,0,42,42,42,,,,,,,,,,,,,,,,,,1130.1647150004283,,,1146.9644692000002,1146.9644692000002,1146.9644692000002,1,1.1342029999941587,1148.116733500734,1148.116733500734,1148.116733500734,1148.116733500734,1148.116733500734,1148.116733500734,1148.116733500734,1148.116733500734,None,None,None,,,,1132.2522189999,,,,,,,,1130.1647150004283,1130.1647150004283,None,,,,1130.1647150004283,1130.1647150004283,1143.3239569999278,22,001,2024-09-25_16h37.28.159,robot_cogshifting_sign,2022.2.5,59.87317641086729,
"['R_Head_X_Back', 'R_Base_X_For', 'L_Head_X_Back', 'R_Head_Y_Back']","{'laterality': 'L_Head_X_Back', 'localisation': 'R_Base_X_For', 'movement': 'R_Head_Y_Back'}",movement,['movement'],R_Head_Y_Back,3,1,robot,2,False,False,"['robot_stimuli\\R_Head_X_Back.mp4', 'robot_stimuli\\R_Base_X_For.mp4', 'robot_stimuli\\L_Head_X_Back.mp4', 'robot_stimuli\\R_Head_Y_Back.mp4']",robot_stimuli\R_Head_Y_Back.mp4,22,,,,,,,,,,,,,0,43,43,43,,,,,,,,,,,,,,,,,,1148.116733500734,,,1164.9165019001812,1164.9165019001812,1164.9165019001812,4,0.9653185000643134,1165.9017225001007,1165.9017225001007,1165.9017225001007,1165.9017225001007,1165.9017225001007,1165.9017225001007,1165.9017225001007,1165.9017225001007,None,None,None,,,,1150.2042163005099,,,,,,,,1148.116733500734,1148.116733500734,None,,,,1148.116733500734,1148.116733500734,1161.259291600436,22,001,2024-09-25_16h37.28.159,robot_cogshifting_sign,2022.2.5,59.87317641086729,
"['R_Arm_X_Back', 'L_Arm_Z_For', 'L_Base_X_Back', 'L_Arm_X_For']","{'laterality': 'R_Arm_X_Back', 'localisation': 'L_Base_X_Back', 'movement': 'L_Arm_Z_For'}",localisation,['localisation'],L_Base_X_Back,2,1,robot,2,False,True,"['robot_stimuli\\R_Arm_X_Back.mp4', 'robot_stimuli\\L_Arm_Z_For.mp4', 'robot_stimuli\\L_Base_X_Back.mp4', 'robot_stimuli\\L_Arm_X_For.mp4']",robot_stimuli\L_Base_X_Back.mp4,22,,,,,,,,,,,,,0,44,44,44,,,,,,,,,,,,,,,,,,1165.9017225001007,,,1182.7682970007882,1182.7682970007882,1182.7682970007882,3,2.073342699557543,1184.9058378003538,1189.1474493006244,1184.9058378003538,1189.1474493006244,1184.9058378003538,1189.1474493006244,1184.9058378003538,1189.1474493006244,38.17460317460318,3.148904100060463,space,,,,1167.9892848003656,4.168605299666524,,,,,,,1165.9017225001007,1165.9017225001007,None,,,,1165.9017225001007,1165.9017225001007,1179.1277556000277,22,001,2024-09-25_16h37.28.159,robot_cogshifting_sign,2022.2.5,59.87317641086729,
"['R_Base_X_For', 'R_Arm_Y_Back', 'L_Base_Y_For', 'R_Base_Y_Back']","{'laterality': 'L_Base_Y_For', 'localisation': 'R_Arm_Y_Back', 'movement': 'R_Base_X_For'}",movement,"['laterality', 'localisation', 'movement']",R_Base_X_For,0,3,robot,2,True,False,"['robot_stimuli\\R_Base_X_For.mp4', 'robot_stimuli\\R_Arm_Y_Back.mp4', 'robot_stimuli\\L_Base_Y_For.mp4', 'robot_stimuli\\R_Base_Y_Back.mp4']",robot_stimuli\R_Base_X_For.mp4,22,,,,,,,,,,,,,0,45,45,45,,,,,,,,,,,,,,,,,,1192.287013400346,,,1208.9865578999743,1208.9865578999743,1208.9865578999743,2,5.9198989989236,1214.9315721001476,1214.9315721001476,1214.9315721001476,1214.9315721001476,1214.9315721001476,1214.9315721001476,1214.9315721001476,1214.9315721001476,None,None,None,,,,,,,,,,,,1189.1474493006244,1189.1474493006244,space,3.1104073990136385,,,,,1205.3460619999096,22,001,2024-09-25_16h37.28.159,robot_cogshifting_sign,2022.2.5,59.87317641086729,
"['R_Base_Y_Back', 'R_Head_Y_For', 'R_Base_Z_Back', 'L_Base_Y_Back']","{'laterality': 'L_Base_Y_Back', 'localisation': 'R_Head_Y_For', 'movement': 'R_Base_Z_Back'}",laterality,"['laterality', 'localisation', 'movement']",L_Base_Y_Back,3,3,robot,2,False,False,"['robot_stimuli\\R_Base_Y_Back.mp4', 'robot_stimuli\\R_Head_Y_For.mp4', 'robot_stimuli\\R_Base_Z_Back.mp4', 'robot_stimuli\\L_Base_Y_Back.mp4']",robot_stimuli\L_Base_Y_Back.mp4,22,,,,,,,,,,,,,0,46,46,46,,,,,,,,,,,,,,,,,,1214.9315721001476,,,1231.6481263004243,1231.6481263004243,1231.6481263004243,4,1.5779756996780634,1233.2509639002383,1233.2509639002383,1233.2509639002383,1233.2509639002383,1233.2509639002383,1233.2509639002383,1233.2509639002383,1233.2509639002383,None,None,None,,,,1217.0190600007772,,,,,,,,1214.9315721001476,1214.9315721001476,None,,,,1214.9315721001476,1214.9315721001476,1228.0908216005191,22,001,2024-09-25_16h37.28.159,robot_cogshifting_sign,2022.2.5,59.87317641086729,
"['R_Base_X_For', 'R_Torso_X_For', 'L_Torso_X_For', 'R_Torso_Y_Back']","{'laterality': 'L_Torso_X_For', 'localisation': 'R_Base_X_For', 'movement': 'R_Torso_Y_Back'}",movement,"['laterality', 'localisation', 'movement']",R_Torso_Y_Back,3,3,robot,2,False,False,"['robot_stimuli\\R_Base_X_For.mp4', 'robot_stimuli\\R_Torso_X_For.mp4', 'robot_stimuli\\L_Torso_X_For.mp4', 'robot_stimuli\\R_Torso_Y_Back.mp4']",robot_stimuli\R_Torso_Y_Back.mp4,22,,,,,,,,,,,,,0,47,47,47,,,,,,,,,,,,,,,,,,1233.2509639002383,,,1250.0507336007431,1250.0507336007431,1250.0507336007431,3,5.014961599372327,1255.0939645003527,1255.0939645003527,1255.0939645003527,1255.0939645003527,1255.0939645003527,1255.0939645003527,1255.0939645003527,1255.0939645003527,None,None,None,,,,1235.3384220004082,,,,,,,,1233.2509639002383,1233.2509639002383,None,,,,1233.2509639002383,1233.2509639002383,1246.4102270007133,22,001,2024-09-25_16h37.28.159,robot_cogshifting_sign,2022.2.5,59.87317641086729,
"['R_Head_Y_For', 'R_Torso_Y_Back', 'R_Torso_X_Back', 'L_Torso_Y_Back']","{'laterality': 'L_Torso_Y_Back', 'localisation': 'R_Head_Y_For', 'movement': 'R_Torso_X_Back'}",localisation,"['laterality', 'localisation', 'movement']",R_Head_Y_For,0,3,robot,2,False,False,"['robot_stimuli\\R_Head_Y_For.mp4', 'robot_stimuli\\R_Torso_Y_Back.mp4', 'robot_stimuli\\R_Torso_X_Back.mp4', 'robot_stimuli\\L_Torso_Y_Back.mp4']",robot_stimuli\R_Head_Y_For.mp4,22,,,,,,,,,,,,,0,48,48,48,,,,,,,,,,,,,,,,,,1255.0939645003527,,,1271.8770008999854,1271.8770008999854,1271.8770008999854,2,2.406252699904144,1274.315158000216,1274.315158000216,1274.315158000216,1274.315158000216,1274.315158000216,1274.315158000216,1274.315158000216,1274.315158000216,None,None,None,,,,1257.1814451003447,,,,,,,,1255.0939645003527,1255.0939645003527,None,,,,1255.0939645003527,1255.0939645003527,1268.353405000642,22,001,2024-09-25_16h37.28.159,robot_cogshifting_sign,2022.2.5,59.87317641086729,
"['R_Base_X_Back', 'L_Base_Z_For', 'L_Base_X_For', 'L_Arm_X_For']","{'laterality': 'R_Base_X_Back', 'localisation': 'L_Arm_X_For', 'movement': 'L_Base_Z_For'}",movement,"['laterality', 'localisation', 'movement']",L_Base_Z_For,1,3,robot,2,False,False,"['robot_stimuli\\R_Base_X_Back.mp4', 'robot_stimuli\\L_Base_Z_For.mp4', 'robot_stimuli\\L_Base_X_For.mp4', 'robot_stimuli\\L_Arm_X_For.mp4']",robot_stimuli\L_Base_Z_For.mp4,22,,,,,,,,,,,,,0,49,49,49,,,,,,,,,,,,,,,,,,1274.315158000216,,,1291.131581400521,1291.131581400521,1291.131581400521,2,2.6541422996670008,1293.8034852007404,1293.8034852007404,1293.8034852007404,1293.8034852007404,1293.8034852007404,1293.8034852007404,1293.8034852007404,1293.8034852007404,None,None,None,,,,1276.4026412004605,,,,,,,,1274.315158000216,1274.315158000216,None,,,,1274.315158000216,1274.315158000216,1287.5077762007713,22,001,2024-09-25_16h37.28.159,robot_cogshifting_sign,2022.2.5,59.87317641086729,
"['R_Torso_Y_Back', 'L_Torso_X_Back', 'R_Torso_X_For', 'R_Arm_X_Back']","{'laterality': 'L_Torso_X_Back', 'localisation': 'R_Arm_X_Back', 'movement': 'R_Torso_Y_Back'}",localisation,"['laterality', 'localisation', 'movement']",R_Arm_X_Back,3,3,robot,2,False,False,"['robot_stimuli\\R_Torso_Y_Back.mp4', 'robot_stimuli\\L_Torso_X_Back.mp4', 'robot_stimuli\\R_Torso_X_For.mp4', 'robot_stimuli\\R_Arm_X_Back.mp4']",robot_stimuli\R_Arm_X_Back.mp4,22,,,,,,,,,,,,,0,50,50,50,,,,,,,,,,,,,,,,,,1293.8034852007404,,,1310.6867812005803,1310.6867812005803,1310.6867812005803,4,1.6514579998329282,1312.3567000003532,1312.3567000003532,1312.3567000003532,1312.3567000003532,1312.3567000003532,1312.3567000003532,1312.3567000003532,1312.3567000003532,None,None,None,,,,1295.890965600498,,,,,,,,1293.8034852007404,1293.8034852007404,None,,,,1293.8034852007404,1293.8034852007404,1307.0462546003982,22,001,2024-09-25_16h37.28.159,robot_cogshifting_sign,2022.2.5,59.87317641086729,
"['L_Torso_Y_For', 'L_Arm_X_For', 'L_Torso_X_Back', 'R_Torso_X_Back']","{'laterality': 'R_Torso_X_Back', 'localisation': 'L_Arm_X_For', 'movement': 'L_Torso_Y_For'}",laterality,"['laterality', 'localisation', 'movement']",R_Torso_X_Back,3,3,robot,2,False,False,"['robot_stimuli\\L_Torso_Y_For.mp4', 'robot_stimuli\\L_Arm_X_For.mp4', 'robot_stimuli\\L_Torso_X_Back.mp4', 'robot_stimuli\\R_Torso_X_Back.mp4']",robot_stimuli\R_Torso_X_Back.mp4,22,,,,,,,,,,,,,0,51,51,51,,,,,,,,,,,,,,,,,,1312.3567000003532,,,1329.256629800424,1329.256629800424,1329.256629800424,3,24.089629999361932,1353.3707761000842,1353.3707761000842,1353.3707761000842,1353.3707761000842,1353.3707761000842,1353.3707761000842,1353.3707761000842,1353.3707761000842,None,None,None,,,,1314.4441430000588,,,,,,,,1312.3567000003532,1312.3567000003532,None,,,,1312.3567000003532,1312.3567000003532,1325.6161504006013,22,001,2024-09-25_16h37.28.159,robot_cogshifting_sign,2022.2.5,59.87317641086729,
"['L_Arm_Z_Back', 'L_Base_Y_For', 'R_Base_Z_For', 'L_Base_Z_For']","{'laterality': 'R_Base_Z_For', 'localisation': 'L_Arm_Z_Back', 'movement': 'L_Base_Y_For'}",laterality,"['laterality', 'localisation', 'movement']",R_Base_Z_For,2,3,robot,2,False,False,"['robot_stimuli\\L_Arm_Z_Back.mp4', 'robot_stimuli\\L_Base_Y_For.mp4', 'robot_stimuli\\R_Base_Z_For.mp4', 'robot_stimuli\\L_Base_Z_For.mp4']",robot_stimuli\R_Base_Z_For.mp4,22,,,,,,,,,,,,,0,52,52,52,,,,,,,,,,,,,,,,,,1353.3707761000842,,,1370.1538022002205,1370.1538022002205,1370.1538022002205,3,3.4720799988135695,1373.644010600634,1373.644010600634,1373.644010600634,1373.644010600634,1373.644010600634,1373.644010600634,1373.644010600634,1373.644010600634,None,None,None,,,,1355.4582333005965,,,,,,,,1353.3707761000842,1353.3707761000842,None,,,,1353.3707761000842,1353.3707761000842,1366.5299979001284,22,001,2024-09-25_16h37.28.159,robot_cogshifting_sign,2022.2.5,59.87317641086729,
"['L_Torso_Z_For', 'L_Arm_Y_For', 'R_Torso_Y_Back', 'L_Torso_Y_Back']","{'laterality': 'R_Torso_Y_Back', 'localisation': 'L_Arm_Y_For', 'movement': 'L_Torso_Z_For'}",localisation,"['laterality', 'localisation', 'movement']",L_Arm_Y_For,1,3,robot,2,False,True,"['robot_stimuli\\L_Torso_Z_For.mp4', 'robot_stimuli\\L_Arm_Y_For.mp4', 'robot_stimuli\\R_Torso_Y_Back.mp4', 'robot_stimuli\\L_Torso_Y_Back.mp4']",robot_stimuli\L_Arm_Y_For.mp4,22,,,,,,,,,,,,,0,53,53,53,,,,,,,,,,,,,,,,,,1373.644010600634,,,1390.4103080006316,1390.4103080006316,1390.4103080006316,2,1.5370185989886522,1392.0135082006454,1396.088178500533,1392.0135082006454,1396.088178500533,1392.0135082006454,1396.088178500533,1392.0135082006454,1396.088178500533,73.09523809523809,2.781663700006902,space,,,,1375.7315020002425,4.021840299479663,,,,,,,1373.644010600634,1373.644010600634,None,,,,1373.644010600634,1373.644010600634,1386.8867292003706,22,001,2024-09-25_16h37.28.159,robot_cogshifting_sign,2022.2.5,59.87317641086729,
"['blue_left_Z_45', 'red_left_R_45', 'red_left_B_0', 'red_bottom_C_45']","{'color': 'blue_left_Z_45', 'position': 'red_bottom_C_45', 'orientation': 'red_left_B_0'}",position,"['orientation', 'position']",red_bottom_C_45,3,2,letter,3,True,False,"['robot_stimuli\\\\filler.mp4', 'robot_stimuli\\\\filler.mp4', 'robot_stimuli\\\\filler.mp4', 'robot_stimuli\\\\filler.mp4']",robot_stimuli\\filler.mp4,22,,,,,,,,,,,,,0,54,54,54,,,,,,,,,,,,,,,,,,1432.5766941001639,,,1443.314458400011,1443.314458400011,1443.314458400011,4,2.126944199204445,1445.4686683006585,1445.4686683006585,1445.4686683006585,1445.4686683006585,1445.4686683006585,1445.4686683006585,1445.4686683006585,1445.4686683006585,None,None,None,,,,,,,,,,,,1396.088178500533,1396.088178500533,space,36.45749509893358,1441.2940417006612,1443.314458400011,,,,22,001,2024-09-25_16h37.28.159,robot_cogshifting_sign,2022.2.5,59.87317641086729,
"['blue_left_Z_45', 'red_left_G_45', 'red_top_F_45', 'red_left_R_0']","{'color': 'blue_left_Z_45', 'position': 'red_top_F_45', 'orientation': 'red_left_R_0'}",orientation,"['color', 'orientation']",red_left_R_0,3,2,letter,3,False,False,"['robot_stimuli\\\\filler.mp4', 'robot_stimuli\\\\filler.mp4', 'robot_stimuli\\\\filler.mp4', 'robot_stimuli\\\\filler.mp4']",robot_stimuli\\filler.mp4,22,,,,,,,,,,,,,0,55,55,55,,,,,,,,,,,,,,,,,,1445.4686683006585,,,1456.6240282002836,1456.6240282002836,1456.6240282002836,4,2.9938209000974894,1459.6466057002544,1459.6466057002544,1459.6466057002544,1459.6466057002544,1459.6466057002544,1459.6466057002544,1459.6466057002544,1459.6466057002544,None,None,None,,,,1447.5395731003955,,,,,,,,1445.4686683006585,1445.4686683006585,None,,1454.4032132001594,1456.6240282002836,1445.4686683006585,1445.4686683006585,,22,001,2024-09-25_16h37.28.159,robot_cogshifting_sign,2022.2.5,59.87317641086729,
"['blue_right_S_0', 'blue_top_V_45', 'red_top_Z_0', 'blue_top_G_0']","{'color': 'red_top_Z_0', 'position': 'blue_right_S_0', 'orientation': 'blue_top_V_45'}",color,"['color', 'position']",red_top_Z_0,2,2,letter,3,False,False,"['robot_stimuli\\\\filler.mp4', 'robot_stimuli\\\\filler.mp4', 'robot_stimuli\\\\filler.mp4', 'robot_stimuli\\\\filler.mp4']",robot_stimuli\\filler.mp4,22,,,,,,,,,,,,,0,56,56,56,,,,,,,,,,,,,,,,,,1459.6466057002544,,,1470.3843765007332,1470.3843765007332,1470.3843765007332,1,4.521597700193524,1474.9266966003925,1474.9266966003925,1474.9266966003925,1474.9266966003925,1474.9266966003925,1474.9266966003925,1474.9266966003925,1474.9266966003925,None,None,None,,,,1461.7035877006128,,,,,,,,1459.6466057002544,1459.6466057002544,None,,1468.363766300492,1470.3843765007332,1459.6466057002544,1459.6466057002544,,22,001,2024-09-25_16h37.28.159,robot_cogshifting_sign,2022.2.5,59.87317641086729,
"['red_left_X_0', 'blue_left_L_45', 'red_left_G_45', 'red_top_L_45']","{'color': 'blue_left_L_45', 'position': 'red_top_L_45', 'orientation': 'red_left_X_0'}",color,"['color', 'position']",blue_left_L_45,1,2,letter,3,False,False,"['robot_stimuli\\\\filler.mp4', 'robot_stimuli\\\\filler.mp4', 'robot_stimuli\\\\filler.mp4', 'robot_stimuli\\\\filler.mp4']",robot_stimuli\\filler.mp4,22,,,,,,,,,,,,,0,57,57,57,,,,,,,,,,,,,,,,,,1474.9266966003925,,,1485.864896800369,1485.864896800369,1485.864896800369,2,2.8332618987187743,1488.7205068999901,1488.7205068999901,1488.7205068999901,1488.7205068999901,1488.7205068999901,1488.7205068999901,1488.7205068999901,1488.7205068999901,None,None,None,,,,1476.9975204998627,,,,,,,,1474.9266966003925,1474.9266966003925,None,,1483.6438981005922,1485.864896800369,1474.9266966003925,1474.9266966003925,,22,001,2024-09-25_16h37.28.159,robot_cogshifting_sign,2022.2.5,59.87317641086729,
"['blue_right_H_0', 'blue_bottom_N_45', 'red_right_R_45', 'blue_right_F_45']","{'color': 'red_right_R_45', 'position': 'blue_bottom_N_45', 'orientation': 'blue_right_H_0'}",orientation,"['color', 'orientation']",blue_right_H_0,0,2,letter,3,False,False,"['robot_stimuli\\\\filler.mp4', 'robot_stimuli\\\\filler.mp4', 'robot_stimuli\\\\filler.mp4', 'robot_stimuli\\\\filler.mp4']",robot_stimuli\\filler.mp4,22,,,,,,,,,,,,,0,58,58,58,,,,,,,,,,,,,,,,,,1488.7205068999901,,,1499.4583048000932,1499.4583048000932,1499.4583048000932,2,3.5204639993608,1502.9986140001565,1502.9986140001565,1502.9986140001565,1502.9986140001565,1502.9986140001565,1502.9986140001565,1502.9986140001565,1502.9986140001565,None,None,None,,,,1490.7913068998605,,,,,,,,1488.7205068999901,1488.7205068999901,None,,1497.4377310005948,1499.4583048000932,1488.7205068999901,1488.7205068999901,,22,001,2024-09-25_16h37.28.159,robot_cogshifting_sign,2022.2.5,59.87317641086729,
"['blue_left_K_0', 'red_left_L_45', 'red_left_P_0', 'red_top_Q_0']","{'color': 'blue_left_K_0', 'position': 'red_top_Q_0', 'orientation': 'red_left_L_45'}",position,"['orientation', 'position']",red_top_Q_0,3,2,letter,3,False,False,"['robot_stimuli\\\\filler.mp4', 'robot_stimuli\\\\filler.mp4', 'robot_stimuli\\\\filler.mp4', 'robot_stimuli\\\\filler.mp4']",robot_stimuli\\filler.mp4,22,,,,,,,,,,,,,0,59,59,59,,,,,,,,,,,,,,,,,,1502.9986140001565,,,1513.7197364000604,1513.7197364000604,1513.7197364000604,3,6.458103799261153,1520.1991584002972,1520.1991584002972,1520.1991584002972,1520.1991584002972,1520.1991584002972,1520.1991584002972,1520.1991584002972,1520.1991584002972,None,None,None,,,,1505.069407700561,,,,,,,,1502.9986140001565,1502.9986140001565,None,,1511.5154633000493,1513.7197364000604,1502.9986140001565,1502.9986140001565,,22,001,2024-09-25_16h37.28.159,robot_cogshifting_sign,2022.2.5,59.87317641086729,
"['red_top_T_0', 'blue_right_K_0', 'red_right_F_45', 'red_right_S_0']","{'color': 'blue_right_K_0', 'position': 'red_top_T_0', 'orientation': 'red_right_F_45'}",position,"['color', 'position']",red_top_T_0,0,2,letter,3,False,False,"['robot_stimuli\\\\filler.mp4', 'robot_stimuli\\\\filler.mp4', 'robot_stimuli\\\\filler.mp4', 'robot_stimuli\\\\filler.mp4']",robot_stimuli\\filler.mp4,22,,,,,,,,,,,,,0,60,60,60,,,,,,,,,,,,,,,,,,1520.1991584002972,,,1531.3544567003846,1531.3544567003846,1531.3544567003846,1,3.464355199597776,1534.8446347005665,1534.8446347005665,1534.8446347005665,1534.8446347005665,1534.8446347005665,1534.8446347005665,1534.8446347005665,1534.8446347005665,None,None,None,,,,1522.269945899956,,,,,,,,1520.1991584002972,1520.1991584002972,None,,1529.1335059003904,1531.3544567003846,1520.1991584002972,1520.1991584002972,,22,001,2024-09-25_16h37.28.159,robot_cogshifting_sign,2022.2.5,59.87317641086729,
"['red_bottom_T_0', 'red_right_G_45', 'blue_right_M_0', 'red_right_G_0']","{'color': 'blue_right_M_0', 'position': 'red_bottom_T_0', 'orientation': 'red_right_G_45'}",orientation,"['orientation', 'position']",red_right_G_45,1,2,letter,3,False,False,"['robot_stimuli\\\\filler.mp4', 'robot_stimuli\\\\filler.mp4', 'robot_stimuli\\\\filler.mp4', 'robot_stimuli\\\\filler.mp4']",robot_stimuli\\filler.mp4,22,,,,,,,,,,,,,0,61,61,61,,,,,,,,,,,,,,,,,,1534.8446347005665,,,1545.1983436001465,1545.1983436001465,1545.1983436001465,3,11.260025799274445,1556.4872305002064,1556.4872305002064,1556.4872305002064,1556.4872305002064,1556.4872305002064,1556.4872305002064,1556.4872305002064,1556.4872305002064,None,None,None,,,,1536.8986688004807,,,,,,,,1534.8446347005665,1534.8446347005665,None,,1543.1778767006472,1545.1983436001465,1534.8446347005665,1534.8446347005665,,22,001,2024-09-25_16h37.28.159,robot_cogshifting_sign,2022.2.5,59.87317641086729,
"['red_top_C_0', 'red_top_D_45', 'red_bottom_C_0', 'blue_top_N_0']","{'color': 'blue_top_N_0', 'position': 'red_bottom_C_0', 'orientation': 'red_top_D_45'}",color,"['color', 'position']",blue_top_N_0,3,2,letter,3,False,True,"['robot_stimuli\\\\filler.mp4', 'robot_stimuli\\\\filler.mp4', 'robot_stimuli\\\\filler.mp4', 'robot_stimuli\\\\filler.mp4']",robot_stimuli\\filler.mp4,22,,,,,,,,,,,,,0,62,62,62,,,,,,,,,,,,,,,,,,1556.4872305002064,,,1567.22503890004,1567.22503890004,1567.22503890004,1,6.161507299169898,1573.4372828006744,1577.9461461007595,1573.4372828006744,1577.9461461007595,1573.4372828006744,1577.9461461007595,1573.4372828006744,1577.9461461007595,98.17460317460316,3.115474500693381,space,,,,1558.5580885000527,4.4451939994469285,,,,,,,1556.4872305002064,1556.4872305002064,None,,1565.004134000279,1567.22503890004,1556.4872305002064,1556.4872305002064,,22,001,2024-09-25_16h37.28.159,robot_cogshifting_sign,2022.2.5,59.87317641086729,
"['red_bottom_B_45', 'blue_bottom_C_0', 'blue_right_T_45', 'blue_bottom_J_45']","{'color': 'red_bottom_B_45', 'position': 'blue_right_T_45', 'orientation': 'blue_bottom_C_0'}",color,"['color', 'orientation', 'position']",red_bottom_B_45,0,3,letter,3,True,False,"['robot_stimuli\\\\filler.mp4', 'robot_stimuli\\\\filler.mp4', 'robot_stimuli\\\\filler.mp4', 'robot_stimuli\\\\filler.mp4']",robot_stimuli\\filler.mp4,22,,,,,,,,,,,,,0,63,63,63,,,,,,,,,,,,,,,,,,1720.3097240002826,,,1730.847089100629,1730.847089100629,1730.847089100629,1,2.0273305997252464,1732.9011344006285,1732.9011344006285,1732.9011344006285,1732.9011344006285,1732.9011344006285,1732.9011344006285,1732.9011344006285,1732.9011344006285,None,None,None,,,,,,,,,,,,1577.9461461007595,1577.9461461007595,space,142.335541899316,1728.8264967007563,1730.847089100629,,,,22,001,2024-09-25_16h37.28.159,robot_cogshifting_sign,2022.2.5,59.87317641086729,
"['blue_top_D_0', 'blue_top_D_45', 'blue_bottom_N_45', 'red_top_N_45']","{'color': 'red_top_N_45', 'position': 'blue_bottom_N_45', 'orientation': 'blue_top_D_0'}",orientation,"['color', 'orientation', 'position']",blue_top_D_0,0,3,letter,3,False,False,"['robot_stimuli\\\\filler.mp4', 'robot_stimuli\\\\filler.mp4', 'robot_stimuli\\\\filler.mp4', 'robot_stimuli\\\\filler.mp4']",robot_stimuli\\filler.mp4,22,,,,,,,,,,,,,0,64,64,64,,,,,,,,,,,,,,,,,,1732.9011344006285,,,1743.4385819006711,1743.4385819006711,1743.4385819006711,1,2.7472934992983937,1746.210689900443,1746.210689900443,1746.210689900443,1746.210689900443,1746.210689900443,1746.210689900443,1746.210689900443,1746.210689900443,None,None,None,,,,1734.9719063006341,,,,,,,,1732.9011344006285,1732.9011344006285,None,,1741.4178998004645,1743.4385819006711,1732.9011344006285,1732.9011344006285,,22,001,2024-09-25_16h37.28.159,robot_cogshifting_sign,2022.2.5,59.87317641086729,
"['red_right_K_0', 'blue_right_L_45', 'blue_bottom_V_0', 'blue_right_Z_0']","{'color': 'red_right_K_0', 'position': 'blue_bottom_V_0', 'orientation': 'blue_right_L_45'}",position,"['color', 'orientation', 'position']",blue_bottom_V_0,2,3,letter,3,False,False,"['robot_stimuli\\\\filler.mp4', 'robot_stimuli\\\\filler.mp4', 'robot_stimuli\\\\filler.mp4', 'robot_stimuli\\\\filler.mp4']",robot_stimuli\\filler.mp4,22,,,,,,,,,,,,,0,65,65,65,,,,,,,,,,,,,,,,,,1746.210689900443,,,1756.5477025005966,1756.5477025005966,1756.5477025005966,3,2.3021284993737936,1758.868950500153,1758.868950500153,1758.868950500153,1758.868950500153,1758.868950500153,1758.868950500153,1758.868950500153,1758.868950500153,None,None,None,,,,1748.2647736007348,,,,,,,,1746.210689900443,1746.210689900443,None,,1754.5271354001015,1756.5477025005966,1746.210689900443,1746.210689900443,,22,001,2024-09-25_16h37.28.159,robot_cogshifting_sign,2022.2.5,59.87317641086729,
"['red_left_K_45', 'red_left_N_0', 'blue_left_D_0', 'red_top_P_0']","{'color': 'blue_left_D_0', 'position': 'red_top_P_0', 'orientation': 'red_left_K_45'}",orientation,"['color', 'orientation', 'position']",red_left_K_45,0,3,letter,3,False,False,"['robot_stimuli\\\\filler.mp4', 'robot_stimuli\\\\filler.mp4', 'robot_stimuli\\\\filler.mp4', 'robot_stimuli\\\\filler.mp4']",robot_stimuli\\filler.mp4,22,,,,,,,,,,,,,0,66,66,66,,,,,,,,,,,,,,,,,,1758.868950500153,,,1769.6067422004417,1769.6067422004417,1769.6067422004417,4,2.7066586995497346,1772.34547950048,1772.34547950048,1772.34547950048,1772.34547950048,1772.34547950048,1772.34547950048,1772.34547950048,1772.34547950048,None,None,None,,,,1760.9397499999031,,,,,,,,1758.868950500153,1758.868950500153,None,,1767.3857279000804,1769.6067422004417,1758.868950500153,1758.868950500153,,22,001,2024-09-25_16h37.28.159,robot_cogshifting_sign,2022.2.5,59.87317641086729,
"['blue_right_M_0', 'red_right_K_45', 'blue_left_Q_45', 'blue_right_V_45']","{'color': 'red_right_K_45', 'position': 'blue_left_Q_45', 'orientation': 'blue_right_M_0'}",color,"['color', 'orientation', 'position']",red_right_K_45,1,3,letter,3,False,False,"['robot_stimuli\\\\filler.mp4', 'robot_stimuli\\\\filler.mp4', 'robot_stimuli\\\\filler.mp4', 'robot_stimuli\\\\filler.mp4']",robot_stimuli\\filler.mp4,22,,,,,,,,,,,,,0,67,67,67,,,,,,,,,,,,,,,,,,1772.34547950048,,,1783.283666100353,1783.283666100353,1783.283666100353,2,5.885633299127221,1789.1952805006877,1789.1952805006877,1789.1952805006877,1789.1952805006877,1789.1952805006877,1789.1952805006877,1789.1952805006877,1789.1952805006877,None,None,None,,,,1774.4163492005318,,,,,,,,1772.34547950048,1772.34547950048,None,,1781.2643865998834,1783.283666100353,1772.34547950048,1772.34547950048,,22,001,2024-09-25_16h37.28.159,robot_cogshifting_sign,2022.2.5,59.87317641086729,
"['red_bottom_Q_0', 'blue_bottom_C_45', 'blue_right_J_0', 'blue_bottom_C_0']","{'color': 'red_bottom_Q_0', 'position': 'blue_right_J_0', 'orientation': 'blue_bottom_C_45'}",position,"['color', 'orientation', 'position']",blue_right_J_0,2,3,letter,3,False,False,"['robot_stimuli\\\\filler.mp4', 'robot_stimuli\\\\filler.mp4', 'robot_stimuli\\\\filler.mp4', 'robot_stimuli\\\\filler.mp4']",robot_stimuli\\filler.mp4,22,,,,,,,,,,,,,0,68,68,68,,,,,,,,,,,,,,,,,,1789.1952805006877,,,1799.9498044000939,1799.9498044000939,1799.9498044000939,4,2.652393899857998,1802.6217277003452,1802.6217277003452,1802.6217277003452,1802.6217277003452,1802.6217277003452,1802.6217277003452,1802.6217277003452,1802.6217277003452,None,None,None,,,,1791.2660763002932,,,,,,,,1789.1952805006877,1789.1952805006877,None,,1797.7288727005944,1799.9498044000939,1789.1952805006877,1789.1952805006877,,22,001,2024-09-25_16h37.28.159,robot_cogshifting_sign,2022.2.5,59.87317641086729,
"['red_right_L_45', 'red_top_V_0', 'red_top_X_45', 'blue_top_D_45']","{'color': 'blue_top_D_45', 'position': 'red_right_L_45', 'orientation': 'red_top_V_0'}",position,"['color', 'orientation', 'position']",red_right_L_45,0,3,letter,3,False,False,"['robot_stimuli\\\\filler.mp4', 'robot_stimuli\\\\filler.mp4', 'robot_stimuli\\\\filler.mp4', 'robot_stimuli\\\\filler.mp4']",robot_stimuli\\filler.mp4,22,,,,,,,,,,,,,0,69,69,69,,,,,,,,,,,,,,,,,,1802.6217277003452,,,1812.9587508998811,1812.9587508998811,1812.9587508998811,1,2.843095898628235,1815.8310631001368,1815.8310631001368,1815.8310631001368,1815.8310631001368,1815.8310631001368,1815.8310631001368,1815.8310631001368,1815.8310631001368,None,None,None,,,,1804.6758299004287,,,,,,,,1802.6217277003452,1802.6217277003452,None,,1810.9381007002667,1812.9587508998811,1802.6217277003452,1802.6217277003452,,22,001,2024-09-25_16h37.28.159,robot_cogshifting_sign,2022.2.5,59.87317641086729,
"['red_right_Z_45', 'red_right_R_0', 'red_bottom_T_0', 'blue_right_W_0']","{'color': 'blue_right_W_0', 'position': 'red_bottom_T_0', 'orientation': 'red_right_Z_45'}",orientation,"['color', 'orientation', 'position']",red_right_Z_45,0,3,letter,3,False,False,"['robot_stimuli\\\\filler.mp4', 'robot_stimuli\\\\filler.mp4', 'robot_stimuli\\\\filler.mp4', 'robot_stimuli\\\\filler.mp4']",robot_stimuli\\filler.mp4,22,,,,,,,,,,,,,0,70,70,70,,,,,,,,,,,,,,,,,,1815.8310631001368,,,1826.9696470005438,1826.9696470005438,1826.9696470005438,1,4.568168799392879,1831.5620041005313,1831.5620041005313,1831.5620041005313,1831.5620041005313,1831.5620041005313,1831.5620041005313,1831.5620041005313,1831.5620041005313,None,None,None,,,,1817.9019370004535,,,,,,,,1815.8310631001368,1815.8310631001368,None,,1824.7653308007866,1826.9696470005438,1815.8310631001368,1815.8310631001368,,22,001,2024-09-25_16h37.28.159,robot_cogshifting_sign,2022.2.5,59.87317641086729,
"['red_right_M_45', 'red_right_R_0', 'blue_right_W_45', 'red_top_R_45']","{'color': 'blue_right_W_45', 'position': 'red_top_R_45', 'orientation': 'red_right_R_0'}",color,"['color', 'orientation', 'position']",blue_right_W_45,2,3,letter,3,False,True,"['robot_stimuli\\\\filler.mp4', 'robot_stimuli\\\\filler.mp4', 'robot_stimuli\\\\filler.mp4', 'robot_stimuli\\\\filler.mp4']",robot_stimuli\\filler.mp4,22,,,,,,,,,,,,,0,71,71,71,,,,,,,,,,,,,,,,,,1831.5620041005313,,,1842.5169295007363,1842.5169295007363,1842.5169295007363,2,1.9164302991703153,1844.4874742003158,1851.0336613003165,1844.4874742003158,1851.0336613003165,1844.4874742003158,1851.0336613003165,1844.4874742003158,1851.0336613003165,98.4920634920635,5.4202233999967575,space,,,,1833.6328225005418,6.491357599385083,,,,,,,1831.5620041005313,1831.5620041005313,None,,1840.2959417002276,1842.5169295007363,1831.5620041005313,1831.5620041005313,,22,001,2024-09-25_16h37.28.159,robot_cogshifting_sign,2022.2.5,59.87317641086729,
"['red_left_L_0', 'blue_top_C_0', 'red_top_Z_0', 'red_top_L_45']","{'color': 'blue_top_C_0', 'position': 'red_left_L_0', 'orientation': 'red_top_L_45'}",position,['position'],red_left_L_0,0,1,letter,3,True,False,"['robot_stimuli\\\\filler.mp4', 'robot_stimuli\\\\filler.mp4', 'robot_stimuli\\\\filler.mp4', 'robot_stimuli\\\\filler.mp4']",robot_stimuli\\filler.mp4,22,,,,,,,,,,,,,0,72,72,72,,,,,,,,,,,,,,,,,,1934.0303776999936,,,1944.5677837003022,1944.5677837003022,1944.5677837003022,1,0.17777339927852154,1944.7681565005332,1944.7681565005332,1944.7681565005332,1944.7681565005332,1944.7681565005332,1944.7681565005332,1944.7681565005332,1944.7681565005332,None,None,None,,,,,,,,,,,,1851.0336613003165,1851.0336613003165,space,82.96927889902145,1942.5473388005048,1944.5677837003022,,,,22,001,2024-09-25_16h37.28.159,robot_cogshifting_sign,2022.2.5,59.87317641086729,
"['blue_top_L_45', 'red_bottom_S_45', 'blue_bottom_D_45', 'blue_bottom_B_0']","{'color': 'red_bottom_S_45', 'position': 'blue_top_L_45', 'orientation': 'blue_bottom_B_0'}",position,['position'],blue_top_L_45,0,1,letter,3,False,False,"['robot_stimuli\\\\filler.mp4', 'robot_stimuli\\\\filler.mp4', 'robot_stimuli\\\\filler.mp4', 'robot_stimuli\\\\filler.mp4']",robot_stimuli\\filler.mp4,22,,,,,,,,,,,,,0,73,73,73,,,,,,,,,,,,,,,,,,1944.7681565005332,,,1955.5393791003153,1955.5393791003153,1955.5393791003153,1,0.462284198962152,1956.0236427001655,1956.0236427001655,1956.0236427001655,1956.0236427001655,1956.0236427001655,1956.0236427001655,1956.0236427001655,1956.0236427001655,None,None,None,,,,1946.838899800554,,,,,,,,1944.7681565005332,1944.7681565005332,None,,1953.3351316004992,1955.5393791003153,1944.7681565005332,1944.7681565005332,,22,001,2024-09-25_16h37.28.159,robot_cogshifting_sign,2022.2.5,59.87317641086729,
"['red_left_W_45', 'red_top_K_45', 'red_top_S_0', 'blue_top_F_45']","{'color': 'blue_top_F_45', 'position': 'red_left_W_45', 'orientation': 'red_top_S_0'}",position,['position'],red_left_W_45,0,1,letter,3,False,False,"['robot_stimuli\\\\filler.mp4', 'robot_stimuli\\\\filler.mp4', 'robot_stimuli\\\\filler.mp4', 'robot_stimuli\\\\filler.mp4']",robot_stimuli\\filler.mp4,22,,,,,,,,,,,,,0,74,74,74,,,,,,,,,,,,,,,,,,1956.0236427001655,,,1966.7614639000967,1966.7614639000967,1966.7614639000967,1,0.32757699955254793,1967.1121922004968,1967.1121922004968,1967.1121922004968,1967.1121922004968,1967.1121922004968,1967.1121922004968,1967.1121922004968,1967.1121922004968,None,None,None,,,,1958.0944795999676,,,,,,,,1956.0236427001655,1956.0236427001655,None,,1964.7408881001174,1966.7614639000967,1956.0236427001655,1956.0236427001655,,22,001,2024-09-25_16h37.28.159,robot_cogshifting_sign,2022.2.5,59.87317641086729,
"['blue_top_N_45', 'blue_right_H_45', 'blue_right_T_0', 'red_right_B_45']","{'color': 'red_right_B_45', 'position': 'blue_top_N_45', 'orientation': 'blue_right_T_0'}",color,['color'],red_right_B_45,3,1,letter,3,False,False,"['robot_stimuli\\\\filler.mp4', 'robot_stimuli\\\\filler.mp4', 'robot_stimuli\\\\filler.mp4', 'robot_stimuli\\\\filler.mp4']",robot_stimuli\\filler.mp4,22,,,,,,,,,,,,,0,75,75,75,,,,,,,,,,,,,,,,,,1967.1121922004968,,,1977.8499529007822,1977.8499529007822,1977.8499529007822,4,0.23167269863188267,1978.1004362003878,1978.1004362003878,1978.1004362003878,1978.1004362003878,1978.1004362003878,1978.1004362003878,1978.1004362003878,1978.1004362003878,None,None,None,,,,1969.18294060044,,,,,,,,1967.1121922004968,1967.1121922004968,None,,1975.829424300231,1977.8499529007822,1967.1121922004968,1967.1121922004968,,22,001,2024-09-25_16h37.28.159,robot_cogshifting_sign,2022.2.5,59.87317641086729,
"['blue_left_M_45', 'blue_right_Q_45', 'blue_right_S_0', 'red_right_Q_45']","{'color': 'red_right_Q_45', 'position': 'blue_left_M_45', 'orientation': 'blue_right_S_0'}",color,['color'],red_right_Q_45,3,1,letter,3,False,False,"['robot_stimuli\\\\filler.mp4', 'robot_stimuli\\\\filler.mp4', 'robot_stimuli\\\\filler.mp4', 'robot_stimuli\\\\filler.mp4']",robot_stimuli\\filler.mp4,22,,,,,,,,,,,,,0,76,76,76,,,,,,,,,,,,,,,,,,1978.1004362003878,,,1988.6378688002005,1988.6378688002005,1988.6378688002005,4,0.3239541994407773,1988.9885598002002,1988.9885598002002,1988.9885598002002,1988.9885598002002,1988.9885598002002,1988.9885598002002,1988.9885598002002,1988.9885598002002,None,None,None,,,,1980.1545834001154,,,,,,,,1978.1004362003878,1978.1004362003878,None,,1986.4169511999935,1988.6378688002005,1978.1004362003878,1978.1004362003878,,22,001,2024-09-25_16h37.28.159,robot_cogshifting_sign,2022.2.5,59.87317641086729,
"['blue_bottom_L_45', 'red_top_L_45', 'red_bottom_C_0', 'red_bottom_R_45']","{'color': 'blue_bottom_L_45', 'position': 'red_top_L_45', 'orientation': 'red_bottom_C_0'}",color,['color'],blue_bottom_L_45,0,1,letter,3,False,False,"['robot_stimuli\\\\filler.mp4', 'robot_stimuli\\\\filler.mp4', 'robot_stimuli\\\\filler.mp4', 'robot_stimuli\\\\filler.mp4']",robot_stimuli\\filler.mp4,22,,,,,,,,,,,,,0,77,77,77,,,,,,,,,,,,,,,,,,1988.9885598002002,,,1999.9434258006513,1999.9434258006513,1999.9434258006513,1,0.2669181991368532,2000.2273614006117,2000.2273614006117,2000.2273614006117,2000.2273614006117,2000.2273614006117,2000.2273614006117,2000.2273614006117,2000.2273614006117,None,None,None,,,,1991.0593600003049,,,,,,,,1988.9885598002002,1988.9885598002002,None,,1997.7224385999143,1999.9434258006513,1988.9885598002002,1988.9885598002002,,22,001,2024-09-25_16h37.28.159,robot_cogshifting_sign,2022.2.5,59.87317641086729,
"['blue_bottom_K_45', 'blue_bottom_X_0', 'red_bottom_L_0', 'blue_top_H_0']","{'color': 'red_bottom_L_0', 'position': 'blue_top_H_0', 'orientation': 'blue_bottom_K_45'}",orientation,['orientation'],blue_bottom_K_45,0,1,letter,3,False,False,"['robot_stimuli\\\\filler.mp4', 'robot_stimuli\\\\filler.mp4', 'robot_stimuli\\\\filler.mp4', 'robot_stimuli\\\\filler.mp4']",robot_stimuli\\filler.mp4,22,,,,,,,,,,,,,0,78,78,78,,,,,,,,,,,,,,,,,,2000.2273614006117,,,2010.9818776007742,2010.9818776007742,2010.9818776007742,1,0.43563919980078936,2011.4494274007156,2011.4494274007156,2011.4494274007156,2011.4494274007156,2011.4494274007156,2011.4494274007156,2011.4494274007156,2011.4494274007156,None,None,None,,,,2002.2981561999768,,,,,,,,2000.2273614006117,2000.2273614006117,None,,2008.9613582007587,2010.9818776007742,2000.2273614006117,2000.2273614006117,,22,001,2024-09-25_16h37.28.159,robot_cogshifting_sign,2022.2.5,59.87317641086729,
"['blue_left_T_45', 'red_left_P_0', 'blue_left_L_0', 'blue_bottom_R_0']","{'color': 'red_left_P_0', 'position': 'blue_bottom_R_0', 'orientation': 'blue_left_T_45'}",orientation,['orientation'],blue_left_T_45,0,1,letter,3,False,False,"['robot_stimuli\\\\filler.mp4', 'robot_stimuli\\\\filler.mp4', 'robot_stimuli\\\\filler.mp4', 'robot_stimuli\\\\filler.mp4']",robot_stimuli\\filler.mp4,22,,,,,,,,,,,,,0,79,79,79,,,,,,,,,,,,,,,,,,2011.4494274007156,,,2022.1872233003378,2022.1872233003378,2022.1872233003378,1,0.48612949904054403,2022.7048851000145,2022.7048851000145,2022.7048851000145,2022.7048851000145,2022.7048851000145,2022.7048851000145,2022.7048851000145,2022.7048851000145,None,None,None,,,,2013.503474100493,,,,,,,,2011.4494274007156,2011.4494274007156,None,,2019.9662565002218,2022.1872233003378,2011.4494274007156,2011.4494274007156,,22,001,2024-09-25_16h37.28.159,robot_cogshifting_sign,2022.2.5,59.87317641086729,
"['blue_right_T_45', 'red_right_H_45', 'red_right_H_0', 'red_left_K_45']","{'color': 'blue_right_T_45', 'position': 'red_left_K_45', 'orientation': 'red_right_H_0'}",orientation,['orientation'],red_right_H_0,2,1,letter,3,False,True,"['robot_stimuli\\\\filler.mp4', 'robot_stimuli\\\\filler.mp4', 'robot_stimuli\\\\filler.mp4', 'robot_stimuli\\\\filler.mp4']",robot_stimuli\\filler.mp4,22,,,,,,,,,,,,,0,80,80,80,,,,,,,,,,,,,,,,,,2022.7048851000145,,,2033.2423537001014,2033.2423537001014,2033.2423537001014,3,0.1188936997205019,2033.4427172001451,2037.116639200598,2033.4427172001451,2037.116639200598,2033.4427172001451,2037.116639200598,2033.4427172001451,2037.116639200598,55.00000000000001,2.4311231998726726,space,,,,2024.7589388005435,3.6225837990641594,,,,,,,2022.7048851000145,2022.7048851000145,None,,2031.0213438998908,2033.2423537001014,2022.7048851000145,2022.7048851000145,,22,001,2024-09-25_16h37.28.159,robot_cogshifting_sign,2022.2.5,59.87317641086729,
"['R_Arm_Y_Back', 'R_Arm_X_For', 'L_Arm_X_Back', 'R_Torso_X_Back']","{'laterality': 'L_Arm_X_Back', 'localisation': 'R_Torso_X_Back', 'movement': 'R_Arm_Y_Back'}",movement,"['laterality', 'movement']",R_Arm_Y_Back,0,2,robot,4,True,False,"['robot_stimuli\\R_Arm_Y_Back.mp4', 'robot_stimuli\\R_Arm_X_For.mp4', 'robot_stimuli\\L_Arm_X_Back.mp4', 'robot_stimuli\\R_Torso_X_Back.mp4']",robot_stimuli\R_Arm_Y_Back.mp4,22,,,,,,,,,,,,,0,81,81,81,,,,,,,,,,,,,,,,,,2161.0104131000116,,,2177.927095600404,2177.927095600404,2177.927095600404,4,2.3944804994389415,2180.3484957003966,2180.3484957003966,2180.3484957003966,2180.3484957003966,2180.3484957003966,2180.3484957003966,2180.3484957003966,2180.3484957003966,None,None,None,,,,,,,,,,,,2037.116639200598,2037.116639200598,space,123.87726179882884,,,,,2174.286666800268,22,001,2024-09-25_16h37.28.159,robot_cogshifting_sign,2022.2.5,59.87317641086729,
"['R_Head_Y_Back', 'R_Base_Y_For', 'L_Base_Y_Back', 'R_Base_Z_For']","{'laterality': 'L_Base_Y_Back', 'localisation': 'R_Head_Y_Back', 'movement': 'R_Base_Z_For'}",laterality,"['laterality', 'movement']",L_Base_Y_Back,2,2,robot,4,False,False,"['robot_stimuli\\R_Head_Y_Back.mp4', 'robot_stimuli\\R_Base_Y_For.mp4', 'robot_stimuli\\L_Base_Y_Back.mp4', 'robot_stimuli\\R_Base_Z_For.mp4']",robot_stimuli\L_Base_Y_Back.mp4,22,,,,,,,,,,,,,0,82,82,82,,,,,,,,,,,,,,,,,,2180.3484957003966,,,2197.1649666000158,2197.1649666000158,2197.1649666000158,3,4.772674999199808,2201.957718900405,2201.957718900405,2201.957718900405,2201.957718900405,2201.957718900405,2201.957718900405,2201.957718900405,2201.957718900405,None,None,None,,,,2182.4359755003825,,,,,,,,2180.3484957003966,2180.3484957003966,None,,,,2180.3484957003966,2180.3484957003966,2193.524499900639,22,001,2024-09-25_16h37.28.159,robot_cogshifting_sign,2022.2.5,59.87317641086729,
"['L_Base_X_Back', 'L_Torso_Y_For', 'R_Torso_X_For', 'L_Torso_X_Back']","{'laterality': 'R_Torso_X_For', 'localisation': 'L_Base_X_Back', 'movement': 'L_Torso_Y_For'}",movement,"['localisation', 'movement']",L_Torso_Y_For,1,2,robot,4,False,False,"['robot_stimuli\\L_Base_X_Back.mp4', 'robot_stimuli\\L_Torso_Y_For.mp4', 'robot_stimuli\\R_Torso_X_For.mp4', 'robot_stimuli\\L_Torso_X_Back.mp4']",robot_stimuli\L_Torso_Y_For.mp4,22,,,,,,,,,,,,,0,83,83,83,,,,,,,,,,,,,,,,,,2201.957718900405,,,2218.824240400456,2218.824240400456,2218.824240400456,3,3.3377396995201707,2222.1808523004875,2222.1808523004875,2222.1808523004875,2222.1808523004875,2222.1808523004875,2222.1808523004875,2222.1808523004875,2222.1808523004875,None,None,None,,,,2204.0451677003875,,,,,,,,2201.957718900405,2201.957718900405,None,,,,2201.957718900405,2201.957718900405,2215.1838033003733,22,001,2024-09-25_16h37.28.159,robot_cogshifting_sign,2022.2.5,59.87317641086729,
"['R_Base_Y_For', 'R_Torso_Z_For', 'R_Torso_Y_For', 'L_Torso_Y_Back']","{'laterality': 'L_Torso_Y_Back', 'localisation': 'R_Base_Y_For', 'movement': 'R_Torso_Z_For'}",laterality,"['laterality', 'movement']",L_Torso_Y_Back,3,2,robot,4,False,False,"['robot_stimuli\\R_Base_Y_For.mp4', 'robot_stimuli\\R_Torso_Z_For.mp4', 'robot_stimuli\\R_Torso_Y_For.mp4', 'robot_stimuli\\L_Torso_Y_Back.mp4']",robot_stimuli\L_Torso_Y_Back.mp4,22,,,,,,,,,,,,,0,84,84,84,,,,,,,,,,,,,,,,,,2222.1808523004875,,,2238.913783200085,2238.913783200085,2238.913783200085,4,1.9191785994917154,2240.8509595999494,2240.8509595999494,2240.8509595999494,2240.8509595999494,2240.8509595999494,2240.8509595999494,2240.8509595999494,2240.8509595999494,None,None,None,,,,2224.2682926999405,,,,,,,,2222.1808523004875,2222.1808523004875,None,,,,2222.1808523004875,2222.1808523004875,2235.4236272005364,22,001,2024-09-25_16h37.28.159,robot_cogshifting_sign,2022.2.5,59.87317641086729,
"['R_Arm_X_For', 'L_Arm_Z_For', 'R_Torso_Z_Back', 'R_Arm_Z_Back']","{'laterality': 'L_Arm_Z_For', 'localisation': 'R_Torso_Z_Back', 'movement': 'R_Arm_X_For'}",localisation,"['localisation', 'movement']",R_Torso_Z_Back,2,2,robot,4,False,False,"['robot_stimuli\\R_Arm_X_For.mp4', 'robot_stimuli\\L_Arm_Z_For.mp4', 'robot_stimuli\\R_Torso_Z_Back.mp4', 'robot_stimuli\\R_Arm_Z_Back.mp4']",robot_stimuli\R_Torso_Z_Back.mp4,22,,,,,,,,,,,,,0,85,85,85,,,,,,,,,,,,,,,,,,2240.8509595999494,,,2257.750967300497,2257.750967300497,2257.750967300497,3,2.1225363994017243,2259.9051173999906,2259.9051173999906,2259.9051173999906,2259.9051173999906,2259.9051173999906,2259.9051173999906,2259.9051173999906,2259.9051173999906,None,None,None,,,,2242.9384193001315,,,,,,,,2240.8509595999494,2240.8509595999494,None,,,,2240.8509595999494,2240.8509595999494,2254.0936729004607,22,001,2024-09-25_16h37.28.159,robot_cogshifting_sign,2022.2.5,59.87317641086729,
