sequence,is_true,target,condition,stimuli,block,is_block_beginning,is_block_ending,sequence_fnames,target_fname,subject,retraining.thisRepN,retraining.thisTrialN,retraining.thisN,retraining.thisIndex,training.thisRepN,training.thisTrialN,training.thisN,training.thisIndex,training_sequence_loop.thisRepN,training_sequence_loop.thisTrialN,training_sequence_loop.thisN,training_sequence_loop.thisIndex,trials.thisRepN,trials.thisTrialN,trials.thisN,trials.thisIndex,sequence_loop.thisRepN,sequence_loop.thisTrialN,sequence_loop.thisN,sequence_loop.thisIndex,langage_text.started,langage_key.started,langage_key.keys,langage_key.rt,intro_text.started,intro_key.started,intro_key.keys,intro_key.rt,training_intro_text.started,training_intro_key.started,training_intro_key.keys,training_intro_key.rt,polygon.started,polygon.stopped,training_presentation_letter.started,training_presentation_letter.stopped,training_recall_letter.started,training_recall_key.started,training_recall_question.started,training_recall_answer.started,training_recall_key.keys,training_recall_key.rt,RSME_labels.started,RSME_labels.stopped,RSME_ticks.started,RSME_ticks.stopped,RSME_text.started,RSME_text.stopped,RSME_key.started,RSME_key.stopped,RSME_ticks.response,RSME_ticks.rt,RSME_key.keys,training_intro_text.stopped,training_intro_key.stopped,RSME_key.rt,training_presentation_movie.started,training_recall_movie.started,experiment_beginning_text.started,experiment_beginning_keys.started,experiment_beginning_key.started,experiment_beginning_key.keys,experiment_beginning_key.rt,block_intro_text.started,block_intro_key.started,block_intro_key.keys,block_intro_key.rt,presentation_letter.started,presentation_letter.stopped,recall_letter.started,recall_key.started,recall_question.started,recall_answer.started,recall_key.keys,recall_key.rt,block_intro_text.stopped,block_intro_key.stopped,presentation_movie.started,recall_movie.started,participant,session,date,expName,psychopyVersion,frameRate,
,,,,,,,,,,,,,,,,,,,,,,,,,,,,,,,25.495622500000536,25.495622500000536,e,1.8169720000005327,,,,,,,,,,,,,,,,,,,,,,,,,,,,,,,,,,,,,,,,,,,,,,,,,,,,,,,,8,001,2024-06-28_15h55.54.757,robot_sternberg_sign,2022.2.5,60.023361092271934,
,,,,,,,,,,,,,,,,,,,,,,,,,,,,,,,,,,,27.36397009999928,27.36397009999928,space,51.436152199999924,,,,,,,,,,,,,,,,,,,,,,,,,,,,,,,,,,,,,,,,,,,,,,,,,,,,8,001,2024-06-28_15h55.54.757,robot_sternberg_sign,2022.2.5,60.023361092271934,
"['M', 'N']",True,M,2,letter,1,True,False,"['robot_stimuli\\\\filler.mp4', 'robot_stimuli\\\\filler.mp4']",robot_stimuli\\filler.mp4,8,0,0,0,0,0,0,0,0,,,,,,,,,,,,,,,,,,,,,78.84719919999952,78.84719919999952,space,2.2170242999982293,86.53017249999903,87.62201490000007,84.5150966000001,86.53017249999903,87.62201490000007,87.62201490000007,87.62201490000007,87.62201490000007,c,1.9381204999990587,89.63891549999971,89.63891549999971,89.63891549999971,89.63891549999971,89.63891549999971,89.63891549999971,89.63891549999971,89.63891549999971,None,None,None,,,,,,,,,,,,,,,,,,,,,,,,,,,8,001,2024-06-28_15h55.54.757,robot_sternberg_sign,2022.2.5,60.023361092271934,
"['M', 'K']",True,K,2,letter,1,False,False,"['robot_stimuli\\\\filler.mp4', 'robot_stimuli\\\\filler.mp4']",robot_stimuli\\filler.mp4,8,0,0,0,0,0,1,1,1,,,,,,,,,,,,,,,,,,,,,89.63891549999971,89.63891549999971,None,,95.2394349999995,96.31330329999946,93.02234300000055,95.2394349999995,96.31330329999946,96.31330329999946,96.31330329999946,96.31330329999946,c,0.7904548000005889,97.34114529999897,97.34114529999897,97.34114529999897,97.34114529999897,97.34114529999897,97.34114529999897,97.34114529999897,97.34114529999897,None,None,None,89.63891549999971,89.63891549999971,,,,,,,,,,,,,,,,,,,,,,,,,8,001,2024-06-28_15h55.54.757,robot_sternberg_sign,2022.2.5,60.023361092271934,
"['H', 'M']",False,N,2,letter,1,False,True,"['robot_stimuli\\\\filler.mp4', 'robot_stimuli\\\\filler.mp4']",robot_stimuli\\filler.mp4,8,0,0,0,0,0,2,2,2,,,,,,,,,,,,,,,,,,,,,97.34114529999897,97.34114529999897,None,,102.52659409999978,103.59572099999968,100.50831649999964,102.52659409999978,103.59572099999968,103.59572099999968,103.59572099999968,103.59572099999968,n,1.500368699998944,105.2906280999996,116.0850876000004,105.2906280999996,116.0850876000004,105.2906280999996,116.0850876000004,105.2906280999996,116.0850876000004,24.598765432098762,2.8486690999998245,space,97.34114529999897,97.34114529999897,10.725353100000575,,,,,,,,,,,,,,,,,,,,,,,,8,001,2024-06-28_15h55.54.757,robot_sternberg_sign,2022.2.5,60.023361092271934,
"['J', 'D', 'G', 'M']",True,J,4,letter,1,True,False,"['robot_stimuli\\\\filler.mp4', 'robot_stimuli\\\\filler.mp4', 'robot_stimuli\\\\filler.mp4', 'robot_stimuli\\\\filler.mp4']",robot_stimuli\\filler.mp4,8,0,0,0,0,0,3,3,3,,,,,,,,,,,,,,,,,,,,,116.0850876000004,116.0850876000004,space,1.3872247999988758,127.08152599999994,128.150432299999,125.0614999999998,127.08152599999994,128.150432299999,128.150432299999,128.150432299999,128.150432299999,c,0.6573601000000053,128.9788537000004,128.9788537000004,128.9788537000004,128.9788537000004,128.9788537000004,128.9788537000004,128.9788537000004,128.9788537000004,None,None,None,,,,,,,,,,,,,,,,,,,,,,,,,,,8,001,2024-06-28_15h55.54.757,robot_sternberg_sign,2022.2.5,60.023361092271934,
"['H', 'S', 'B', 'T']",True,S,4,letter,1,False,False,"['robot_stimuli\\\\filler.mp4', 'robot_stimuli\\\\filler.mp4', 'robot_stimuli\\\\filler.mp4', 'robot_stimuli\\\\filler.mp4']",robot_stimuli\\filler.mp4,8,0,0,0,0,0,4,4,4,,,,,,,,,,,,,,,,,,,,,128.9788537000004,128.9788537000004,None,,138.96883479999997,140.04613260000042,136.74932939999962,138.96883479999997,140.04613260000042,140.04613260000042,140.04613260000042,140.04613260000042,c,0.6736004999984289,140.86979470000006,140.86979470000006,140.86979470000006,140.86979470000006,140.86979470000006,140.86979470000006,140.86979470000006,140.86979470000006,None,None,None,128.9788537000004,128.9788537000004,,,,,,,,,,,,,,,,,,,,,,,,,8,001,2024-06-28_15h55.54.757,robot_sternberg_sign,2022.2.5,60.023361092271934,
"['C', 'P', 'D', 'T']",False,Z,4,letter,1,False,True,"['robot_stimuli\\\\filler.mp4', 'robot_stimuli\\\\filler.mp4', 'robot_stimuli\\\\filler.mp4', 'robot_stimuli\\\\filler.mp4']",robot_stimuli\\filler.mp4,8,0,0,0,0,0,5,5,5,,,,,,,,,,,,,,,,,,,,,140.86979470000006,140.86979470000006,None,,150.4706186000003,151.54977080000026,148.44697629999973,150.4706186000003,151.54977080000026,151.54977080000026,151.54977080000026,151.54977080000026,n,0.8588003999993816,152.60557049999989,156.95679120000023,152.60557049999989,156.95679120000023,152.60557049999989,156.95679120000023,152.60557049999989,156.95679120000023,24.44444444444444,3.4963169999991806,space,140.86979470000006,140.86979470000006,4.2894507000000885,,,,,,,,,,,,,,,,,,,,,,,,8,001,2024-06-28_15h55.54.757,robot_sternberg_sign,2022.2.5,60.023361092271934,
"['C', 'J', 'R', 'K', 'M', 'F']",False,Q,6,letter,1,True,False,"['robot_stimuli\\\\filler.mp4', 'robot_stimuli\\\\filler.mp4', 'robot_stimuli\\\\filler.mp4', 'robot_stimuli\\\\filler.mp4', 'robot_stimuli\\\\filler.mp4', 'robot_stimuli\\\\filler.mp4']",robot_stimuli\\filler.mp4,8,0,0,0,0,0,6,6,6,,,,,,,,,,,,,,,,,,,,,156.95679120000023,156.95679120000023,space,1.2662396999985503,172.42056749999938,173.48734820000027,170.2005895000002,172.42056749999938,173.48734820000027,173.48734820000027,173.48734820000027,173.48734820000027,n,0.5762816000005841,174.11641710000004,174.11641710000004,174.11641710000004,174.11641710000004,174.11641710000004,174.11641710000004,174.11641710000004,174.11641710000004,None,None,None,,,,,,,,,,,,,,,,,,,,,,,,,,,8,001,2024-06-28_15h55.54.757,robot_sternberg_sign,2022.2.5,60.023361092271934,
"['F', 'P', 'Z', 'H', 'S', 'B']",True,B,6,letter,1,False,False,"['robot_stimuli\\\\filler.mp4', 'robot_stimuli\\\\filler.mp4', 'robot_stimuli\\\\filler.mp4', 'robot_stimuli\\\\filler.mp4', 'robot_stimuli\\\\filler.mp4', 'robot_stimuli\\\\filler.mp4']",robot_stimuli\\filler.mp4,8,0,0,0,0,0,7,7,7,,,,,,,,,,,,,,,,,,,,,174.11641710000004,174.11641710000004,None,,188.26221429999896,189.31927759999962,186.24281940000037,188.26221429999896,189.31927759999962,189.31927759999962,189.31927759999962,189.31927759999962,c,1.2800877999998193,190.7531880000006,190.7531880000006,190.7531880000006,190.7531880000006,190.7531880000006,190.7531880000006,190.7531880000006,190.7531880000006,None,None,None,174.11641710000004,174.11641710000004,,,,,,,,,,,,,,,,,,,,,,,,,8,001,2024-06-28_15h55.54.757,robot_sternberg_sign,2022.2.5,60.023361092271934,
"['L', 'Z', 'B', 'G', 'H', 'C']",True,Z,6,letter,1,False,True,"['robot_stimuli\\\\filler.mp4', 'robot_stimuli\\\\filler.mp4', 'robot_stimuli\\\\filler.mp4', 'robot_stimuli\\\\filler.mp4', 'robot_stimuli\\\\filler.mp4', 'robot_stimuli\\\\filler.mp4']",robot_stimuli\\filler.mp4,8,0,0,0,0,0,8,8,8,,,,,,,,,,,,,,,,,,,,,190.7531880000006,190.7531880000006,None,,204.7158402999994,205.77861049999956,202.69598059999953,204.7158402999994,205.77861049999956,205.77861049999956,205.77861049999956,205.77861049999956,c,1.1582452000002377,207.03263829999923,211.01145759999963,207.03263829999923,211.01145759999963,207.03263829999923,211.01145759999963,207.03263829999923,211.01145759999963,32.77777777777778,3.1510803000001033,space,190.7531880000006,190.7531880000006,3.9344731000001048,,,,,,,,,,,,,,,,,,,,,,,,8,001,2024-06-28_15h55.54.757,robot_sternberg_sign,2022.2.5,60.023361092271934,
"['L_Base_Z_For', 'R_Arm_Z_For']",False,L_Head_Z_For,2,robot,2,True,False,"['robot_stimuli\\L_Base_Z_For.mp4', 'robot_stimuli\\R_Arm_Z_For.mp4']",robot_stimuli\L_Head_Z_For.mp4,8,0,0,0,0,0,9,9,9,,,,,,,,,,,,,,,,,,,,,211.01145759999963,211.01145759999963,space,1.756327200000669,221.25646589999997,222.35322069999893,,,,222.35322069999893,222.35322069999893,222.35322069999893,n,1.9030764999988605,225.99360479999996,225.99360479999996,225.99360479999996,225.99360479999996,225.99360479999996,225.99360479999996,225.99360479999996,225.99360479999996,None,None,None,,,,217.6148893999998,222.35322069999893,,,,,,,,,,,,,,,,,,,,,,8,001,2024-06-28_15h55.54.757,robot_sternberg_sign,2022.2.5,60.023361092271934,
"['L_Base_X_For', 'R_Base_Z_For']",True,L_Base_X_For,2,robot,2,False,False,"['robot_stimuli\\L_Base_X_For.mp4', 'robot_stimuli\\R_Base_Z_For.mp4']",robot_stimuli\L_Base_X_For.mp4,8,0,0,0,0,0,10,10,10,,,,,,,,,,,,,,,,,,,,,225.99360479999996,225.99360479999996,None,,234.38846709999962,235.48145040000054,,,,235.48145040000054,235.48145040000054,235.48145040000054,c,2.4135874999992666,239.06487190000007,239.06487190000007,239.06487190000007,239.06487190000007,239.06487190000007,239.06487190000007,239.06487190000007,239.06487190000007,None,None,None,225.99360479999996,225.99360479999996,,230.74934949999988,235.48145040000054,,,,,,,,,,,,,,,,,,,,,,8,001,2024-06-28_15h55.54.757,robot_sternberg_sign,2022.2.5,60.023361092271934,
"['R_Torso_X_For', 'R_Head_X_For']",True,R_Head_X_For,2,robot,2,False,True,"['robot_stimuli\\R_Torso_X_For.mp4', 'robot_stimuli\\R_Head_X_For.mp4']",robot_stimuli\R_Head_X_For.mp4,8,0,0,0,0,0,11,11,11,,,,,,,,,,,,,,,,,,,,,239.06487190000007,239.06487190000007,None,,247.51494210000055,248.59053029999995,,,,248.59053029999995,248.59053029999995,248.59053029999995,c,1.7941315000007307,252.27807070000017,260.1268808999994,252.27807070000017,260.1268808999994,252.27807070000017,260.1268808999994,252.27807070000017,260.1268808999994,22.43827160493827,3.5116443000006257,space,239.06487190000007,239.06487190000007,7.784999800000151,243.8837958999993,248.59053029999995,,,,,,,,,,,,,,,,,,,,,,8,001,2024-06-28_15h55.54.757,robot_sternberg_sign,2022.2.5,60.023361092271934,
"['L_Torso_Z_For', 'L_Arm_Z_Back', 'R_Arm_Z_Back', 'R_Head_Z_Back']",False,L_Arm_X_For,4,robot,2,True,False,"['robot_stimuli\\L_Torso_Z_For.mp4', 'robot_stimuli\\L_Arm_Z_Back.mp4', 'robot_stimuli\\R_Arm_Z_Back.mp4', 'robot_stimuli\\R_Head_Z_Back.mp4']",robot_stimuli\L_Arm_X_For.mp4,8,0,0,0,0,0,12,12,12,,,,,,,,,,,,,,,,,,,,,260.1268808999994,260.1268808999994,space,8.096724600000016,284.15600090000044,285.2423213000002,,,,285.2423213000002,285.2423213000002,285.2423213000002,n,3.157520899998417,288.8720229999999,288.8720229999999,288.8720229999999,288.8720229999999,288.8720229999999,288.8720229999999,288.8720229999999,288.8720229999999,None,None,None,,,,280.5095397999994,285.2423213000002,,,,,,,,,,,,,,,,,,,,,,8,001,2024-06-28_15h55.54.757,robot_sternberg_sign,2022.2.5,60.023361092271934,
"['R_Base_Z_For', 'R_Base_Y_Back', 'L_Head_Z_For', 'R_Arm_Y_Back']",True,L_Head_Z_For,4,robot,2,False,False,"['robot_stimuli\\R_Base_Z_For.mp4', 'robot_stimuli\\R_Base_Y_Back.mp4', 'robot_stimuli\\L_Head_Z_For.mp4', 'robot_stimuli\\R_Arm_Y_Back.mp4']",robot_stimuli\L_Head_Z_For.mp4,8,0,0,0,0,0,13,13,13,,,,,,,,,,,,,,,,,,,,,288.8720229999999,288.8720229999999,None,,304.7482146000002,305.82667240000046,,,,305.82667240000046,305.82667240000046,305.82667240000046,c,2.2450585999995383,309.45622449999973,309.45622449999973,309.45622449999973,309.45622449999973,309.45622449999973,309.45622449999973,309.45622449999973,309.45622449999973,None,None,None,288.8720229999999,288.8720229999999,,301.12475359999917,305.82667240000046,,,,,,,,,,,,,,,,,,,,,,8,001,2024-06-28_15h55.54.757,robot_sternberg_sign,2022.2.5,60.023361092271934,
"['R_Head_Z_Back', 'R_Head_Y_Back', 'L_Torso_Y_For', 'R_Head_X_Back']",True,R_Head_Z_Back,4,robot,2,False,True,"['robot_stimuli\\R_Head_Z_Back.mp4', 'robot_stimuli\\R_Head_Y_Back.mp4', 'robot_stimuli\\L_Torso_Y_For.mp4', 'robot_stimuli\\R_Head_X_Back.mp4']",robot_stimuli\R_Head_Z_Back.mp4,8,0,0,0,0,0,14,14,14,,,,,,,,,,,,,,,,,,,,,309.45622449999973,309.45622449999973,None,,325.35628279999946,326.4424538000003,,,,326.4424538000003,326.4424538000003,326.4424538000003,n,4.29448819999925,330.8107651999999,334.32393149999916,330.8107651999999,334.32393149999916,330.8107651999999,334.32393149999916,330.8107651999999,334.32393149999916,33.395061728395056,3.035547299999962,space,309.45622449999973,309.45622449999973,3.44442700000036,321.72448330000043,326.4424538000003,,,,,,,,,,,,,,,,,,,,,,8,001,2024-06-28_15h55.54.757,robot_sternberg_sign,2022.2.5,60.023361092271934,
"['L_Base_X_For', 'R_Torso_X_Back', 'R_Arm_Y_For', 'L_Base_Y_Back', 'R_Arm_X_For', 'R_Torso_X_For']",True,L_Base_X_For,6,robot,2,True,False,"['robot_stimuli\\L_Base_X_For.mp4', 'robot_stimuli\\R_Torso_X_Back.mp4', 'robot_stimuli\\R_Arm_Y_For.mp4', 'robot_stimuli\\L_Base_Y_Back.mp4', 'robot_stimuli\\R_Arm_X_For.mp4', 'robot_stimuli\\R_Torso_X_For.mp4']",robot_stimuli\L_Base_X_For.mp4,8,0,0,0,0,0,15,15,15,,,,,,,,,,,,,,,,,,,,,334.32393149999916,334.32393149999916,space,1.4040659000002051,358.8370907999997,359.92621449999933,,,,359.92621449999933,359.92621449999933,359.92621449999933,n,2.6574056999997993,363.48919269999897,363.48919269999897,363.48919269999897,363.48919269999897,363.48919269999897,363.48919269999897,363.48919269999897,363.48919269999897,None,None,None,,,,355.2061233000004,359.92621449999933,,,,,,,,,,,,,,,,,,,,,,8,001,2024-06-28_15h55.54.757,robot_sternberg_sign,2022.2.5,60.023361092271934,
"['R_Arm_X_Back', 'R_Arm_Y_For', 'R_Head_Y_Back', 'R_Head_Z_Back', 'R_Head_X_Back', 'L_Arm_X_Back']",True,L_Arm_X_Back,6,robot,2,False,False,"['robot_stimuli\\R_Arm_X_Back.mp4', 'robot_stimuli\\R_Arm_Y_For.mp4', 'robot_stimuli\\R_Head_Y_Back.mp4', 'robot_stimuli\\R_Head_Z_Back.mp4', 'robot_stimuli\\R_Head_X_Back.mp4', 'robot_stimuli\\L_Arm_X_Back.mp4']",robot_stimuli\L_Arm_X_Back.mp4,8,0,0,0,0,0,16,16,16,,,,,,,,,,,,,,,,,,,,,363.48919269999897,363.48919269999897,None,,386.7025168,387.7917161000005,,,,387.7917161000005,387.7917161000005,387.7917161000005,c,3.335883499999909,391.43059659999926,391.43059659999926,391.43059659999926,391.43059659999926,391.43059659999926,391.43059659999926,391.43059659999926,391.43059659999926,None,None,None,363.48919269999897,363.48919269999897,,383.0715524999996,387.7917161000005,,,,,,,,,,,,,,,,,,,,,,8,001,2024-06-28_15h55.54.757,robot_sternberg_sign,2022.2.5,60.023361092271934,
"['L_Arm_Y_For', 'R_Head_Z_Back', 'L_Head_Z_For', 'L_Arm_Y_Back', 'L_Torso_Y_Back', 'R_Base_Y_For']",False,R_Head_X_Back,6,robot,2,False,True,"['robot_stimuli\\L_Arm_Y_For.mp4', 'robot_stimuli\\R_Head_Z_Back.mp4', 'robot_stimuli\\L_Head_Z_For.mp4', 'robot_stimuli\\L_Arm_Y_Back.mp4', 'robot_stimuli\\L_Torso_Y_Back.mp4', 'robot_stimuli\\R_Base_Y_For.mp4']",robot_stimuli\R_Head_X_Back.mp4,8,0,0,0,0,0,17,17,17,,,,,,,,,,,,,,,,,,,,,391.43059659999926,391.43059659999926,None,,414.6234186999991,415.7269643999989,,,,415.7269643999989,415.7269643999989,415.7269643999989,n,4.905887099999745,420.69128029999956,424.80009939999945,420.69128029999956,424.80009939999945,420.69128029999956,424.80009939999945,420.69128029999956,424.80009939999945,55.15432098765432,2.3795757999996567,space,391.43059659999926,391.43059659999926,4.0443808999989415,410.9884330999994,415.7269643999989,,,,,,,,,,,,,,,,,,,,,,8,001,2024-06-28_15h55.54.757,robot_sternberg_sign,2022.2.5,60.023361092271934,
,,,,,,,,,,,0,0,0,0,,,,,,,,,,,,,,,,,,,,,,,,,,,,,,,,,,,,,,,,,,,,,,,,,,,,,,,424.80009939999945,424.80009939999945,424.80009939999945,c,2.0403112000003603,,,,,,,,,,,,,,,,,8,001,2024-06-28_15h55.54.757,robot_sternberg_sign,2022.2.5,60.023361092271934,
"['F', 'Q']",False,C,2,letter,1,True,False,"['robot_stimuli\\\\filler.mp4', 'robot_stimuli\\\\filler.mp4']",robot_stimuli\\filler.mp4,8,,,,,,,,,,,,,0,0,0,0,,,,,,,,,,,,,,,,,433.8239408999998,434.90859719999935,,,,,,,,,435.915092199999,435.915092199999,435.915092199999,435.915092199999,435.915092199999,435.915092199999,435.915092199999,435.915092199999,None,None,None,,,,,,,,,,,426.87993669999923,426.87993669999923,space,1.5673462000013387,431.8088276999988,433.8239408999998,434.90859719999935,434.90859719999935,434.90859719999935,434.90859719999935,n,0.9544545999997354,,,,,8,001,2024-06-28_15h55.54.757,robot_sternberg_sign,2022.2.5,60.023361092271934,
"['Q', 'P']",True,Q,2,letter,1,False,False,"['robot_stimuli\\\\filler.mp4', 'robot_stimuli\\\\filler.mp4']",robot_stimuli\\filler.mp4,8,,,,,,,,,,,,,0,1,1,1,,,,,,,,,,,,,,,,,441.4700051,442.5345603000005,,,,,,,,,443.7574614999994,443.7574614999994,443.7574614999994,443.7574614999994,443.7574614999994,443.7574614999994,443.7574614999994,443.7574614999994,None,None,None,,,,,,,,,,,435.915092199999,435.915092199999,None,,439.25348119999944,441.4700051,442.5345603000005,442.5345603000005,442.5345603000005,442.5345603000005,c,1.0328168000014557,435.915092199999,435.915092199999,,,8,001,2024-06-28_15h55.54.757,robot_sternberg_sign,2022.2.5,60.023361092271934,
"['T', 'R']",True,T,2,letter,1,False,False,"['robot_stimuli\\\\filler.mp4', 'robot_stimuli\\\\filler.mp4']",robot_stimuli\\filler.mp4,8,,,,,,,,,,,,,0,2,2,2,,,,,,,,,,,,,,,,,449.12168609999935,450.18937089999963,,,,,,,,,451.0135455999989,451.0135455999989,451.0135455999989,451.0135455999989,451.0135455999989,451.0135455999989,451.0135455999989,451.0135455999989,None,None,None,,,,,,,,,,,443.7574614999994,443.7574614999994,None,,447.11147229999915,449.12168609999935,450.18937089999963,450.18937089999963,450.18937089999963,450.18937089999963,c,0.6823349000005692,443.7574614999994,443.7574614999994,,,8,001,2024-06-28_15h55.54.757,robot_sternberg_sign,2022.2.5,60.023361092271934,
"['V', 'F']",True,V,2,letter,1,False,False,"['robot_stimuli\\\\filler.mp4', 'robot_stimuli\\\\filler.mp4']",robot_stimuli\\filler.mp4,8,,,,,,,,,,,,,0,3,3,3,,,,,,,,,,,,,,,,,456.3827108000005,457.43502199999966,,,,,,,,,458.2574038999992,458.2574038999992,458.2574038999992,458.2574038999992,458.2574038999992,458.2574038999992,458.2574038999992,458.2574038999992,None,None,None,,,,,,,,,,,451.0135455999989,451.0135455999989,None,,454.3620408000006,456.3827108000005,457.43502199999966,457.43502199999966,457.43502199999966,457.43502199999966,c,0.6200164999991102,451.0135455999989,451.0135455999989,,,8,001,2024-06-28_15h55.54.757,robot_sternberg_sign,2022.2.5,60.023361092271934,
"['W', 'B']",False,T,2,letter,1,False,False,"['robot_stimuli\\\\filler.mp4', 'robot_stimuli\\\\filler.mp4']",robot_stimuli\\filler.mp4,8,,,,,,,,,,,,,0,4,4,4,,,,,,,,,,,,,,,,,463.81800920000023,459.32672529999945,,,,,,,,,465.5117635000006,465.5117635000006,465.5117635000006,465.5117635000006,465.5117635000006,465.5117635000006,465.5117635000006,465.5117635000006,None,None,None,,,,,,,,,,,458.2574038999992,458.2574038999992,None,,461.6040147999993,463.81800920000023,464.8855017999995,464.8855017999995,464.8855017999995,464.8855017999995,n,0.5790811000006215,458.2574038999992,458.2574038999992,,,8,001,2024-06-28_15h55.54.757,robot_sternberg_sign,2022.2.5,60.023361092271934,
"['B', 'P']",False,G,2,letter,1,False,False,"['robot_stimuli\\\\filler.mp4', 'robot_stimuli\\\\filler.mp4']",robot_stimuli\\filler.mp4,8,,,,,,,,,,,,,0,5,5,5,,,,,,,,,,,,,,,,,470.8838190000006,466.5676000000003,,,,,,,,,472.5778974999994,472.5778974999994,472.5778974999994,472.5778974999994,472.5778974999994,472.5778974999994,472.5778974999994,472.5778974999994,None,None,None,,,,,,,,,,,465.5117635000006,465.5117635000006,None,,468.8612250999995,470.8838190000006,471.9528561999996,471.9528561999996,471.9528561999996,471.9528561999996,n,0.5751987000003282,465.5117635000006,465.5117635000006,,,8,001,2024-06-28_15h55.54.757,robot_sternberg_sign,2022.2.5,60.023361092271934,
"['T', 'N']",True,N,2,letter,1,False,False,"['robot_stimuli\\\\filler.mp4', 'robot_stimuli\\\\filler.mp4']",robot_stimuli\\filler.mp4,8,,,,,,,,,,,,,0,6,6,6,,,,,,,,,,,,,,,,,478.1394868999996,479.20154439999897,,,,,,,,,480.02994489999946,480.02994489999946,480.02994489999946,480.02994489999946,480.02994489999946,480.02994489999946,480.02994489999946,480.02994489999946,None,None,None,,,,,,,,,,,472.5778974999994,472.5778974999994,None,,475.9258769999997,478.1394868999996,479.20154439999897,479.20154439999897,479.20154439999897,479.20154439999897,c,0.7429771999995864,472.5778974999994,472.5778974999994,,,8,001,2024-06-28_15h55.54.757,robot_sternberg_sign,2022.2.5,60.023361092271934,
"['V', 'P']",False,R,2,letter,1,False,False,"['robot_stimuli\\\\filler.mp4', 'robot_stimuli\\\\filler.mp4']",robot_stimuli\\filler.mp4,8,,,,,,,,,,,,,0,7,7,7,,,,,,,,,,,,,,,,,485.5837922999999,481.0840642000003,,,,,,,,,487.4780780000001,487.4780780000001,487.4780780000001,487.4780780000001,487.4780780000001,487.4780780000001,487.4780780000001,487.4780780000001,None,None,None,,,,,,,,,,,480.02994489999946,480.02994489999946,None,,483.3733659999998,485.5837922999999,486.65172750000056,486.65172750000056,486.65172750000056,486.65172750000056,n,0.596096999999645,480.02994489999946,480.02994489999946,,,8,001,2024-06-28_15h55.54.757,robot_sternberg_sign,2022.2.5,60.023361092271934,
"['F', 'L']",True,L,2,letter,1,False,False,"['robot_stimuli\\\\filler.mp4', 'robot_stimuli\\\\filler.mp4']",robot_stimuli\\filler.mp4,8,,,,,,,,,,,,,0,8,8,8,,,,,,,,,,,,,,,,,492.6383542000003,493.7010012999999,,,,,,,,,494.5244161999999,494.5244161999999,494.5244161999999,494.5244161999999,494.5244161999999,494.5244161999999,494.5244161999999,494.5244161999999,None,None,None,,,,,,,,,,,487.4780780000001,487.4780780000001,None,,490.6281263000001,492.6383542000003,493.7010012999999,493.7010012999999,493.7010012999999,493.7010012999999,c,0.6752427999999782,487.4780780000001,487.4780780000001,,,8,001,2024-06-28_15h55.54.757,robot_sternberg_sign,2022.2.5,60.023361092271934,
"['F', 'Q']",False,V,2,letter,1,False,True,"['robot_stimuli\\\\filler.mp4', 'robot_stimuli\\\\filler.mp4']",robot_stimuli\\filler.mp4,8,,,,,,,,,,,,,0,9,9,9,,,,,,,,,,,,,,,,,499.89004919999934,500.9512372999998,,,,,,,,,501.6008861999999,507.26066419999916,501.6008861999999,507.26066419999916,501.6008861999999,507.26066419999916,501.6008861999999,507.26066419999916,21.358024691358025,5.240201000000525,space,,,5.606600299999627,,,,,,,,494.5244161999999,494.5244161999999,None,,497.87515650000023,499.89004919999934,500.9512372999998,500.9512372999998,500.9512372999998,500.9512372999998,n,0.5687379000009969,494.5244161999999,494.5244161999999,,,8,001,2024-06-28_15h55.54.757,robot_sternberg_sign,2022.2.5,60.023361092271934,
"['H', 'W', 'L', 'F']",True,L,4,letter,1,True,False,"['robot_stimuli\\\\filler.mp4', 'robot_stimuli\\\\filler.mp4', 'robot_stimuli\\\\filler.mp4', 'robot_stimuli\\\\filler.mp4']",robot_stimuli\\filler.mp4,8,,,,,,,,,,,,,0,10,10,10,,,,,,,,,,,,,,,,,519.8257837000001,520.8868351000001,,,,,,,,,521.7083495999996,521.7083495999996,521.7083495999996,521.7083495999996,521.7083495999996,521.7083495999996,521.7083495999996,521.7083495999996,None,None,None,,,,,,,,,,,507.26066419999916,507.26066419999916,space,3.0111323000000993,517.8109697,519.8257837000001,520.8868351000001,520.8868351000001,520.8868351000001,520.8868351000001,c,0.7214066999986244,,,,,8,001,2024-06-28_15h55.54.757,robot_sternberg_sign,2022.2.5,60.023361092271934,
"['W', 'G', 'L', 'H']",True,W,4,letter,1,False,False,"['robot_stimuli\\\\filler.mp4', 'robot_stimuli\\\\filler.mp4', 'robot_stimuli\\\\filler.mp4', 'robot_stimuli\\\\filler.mp4']",robot_stimuli\\filler.mp4,8,,,,,,,,,,,,,0,11,11,11,,,,,,,,,,,,,,,,,531.4560817000001,532.5184047999992,,,,,,,,,533.3422859000002,533.3422859000002,533.3422859000002,533.3422859000002,533.3422859000002,533.3422859000002,533.3422859000002,533.3422859000002,None,None,None,,,,,,,,,,,521.7083495999996,521.7083495999996,None,,529.4419070999993,531.4560817000001,532.5184047999992,532.5184047999992,532.5184047999992,532.5184047999992,c,0.6650309000015113,521.7083495999996,521.7083495999996,,,8,001,2024-06-28_15h55.54.757,robot_sternberg_sign,2022.2.5,60.023361092271934,
"['N', 'M', 'B', 'W']",False,K,4,letter,1,False,False,"['robot_stimuli\\\\filler.mp4', 'robot_stimuli\\\\filler.mp4', 'robot_stimuli\\\\filler.mp4', 'robot_stimuli\\\\filler.mp4']",robot_stimuli\\filler.mp4,8,,,,,,,,,,,,,0,12,12,12,,,,,,,,,,,,,,,,,542.8848581000002,534.4057563000006,,,,,,,,,544.7740104999993,544.7740104999993,544.7740104999993,544.7740104999993,544.7740104999993,544.7740104999993,544.7740104999993,544.7740104999993,None,None,None,,,,,,,,,,,533.3422859000002,533.3422859000002,None,,540.8623781000006,542.8848581000002,543.9527646000006,543.9527646000006,543.9527646000006,543.9527646000006,n,0.6308977999997296,533.3422859000002,533.3422859000002,,,8,001,2024-06-28_15h55.54.757,robot_sternberg_sign,2022.2.5,60.023361092271934,
"['Z', 'C', 'L', 'S']",True,Z,4,letter,1,False,False,"['robot_stimuli\\\\filler.mp4', 'robot_stimuli\\\\filler.mp4', 'robot_stimuli\\\\filler.mp4', 'robot_stimuli\\\\filler.mp4']",robot_stimuli\\filler.mp4,8,,,,,,,,,,,,,0,13,13,13,,,,,,,,,,,,,,,,,554.3276753999999,555.3896726999992,,,,,,,,,556.0129505999994,556.0129505999994,556.0129505999994,556.0129505999994,556.0129505999994,556.0129505999994,556.0129505999994,556.0129505999994,None,None,None,,,,,,,,,,,544.7740104999993,544.7740104999993,None,,552.3106521999998,554.3276753999999,555.3896726999992,555.3896726999992,555.3896726999992,555.3896726999992,c,0.5143803000009939,544.7740104999993,544.7740104999993,,,8,001,2024-06-28_15h55.54.757,robot_sternberg_sign,2022.2.5,60.023361092271934,
"['L', 'G', 'B', 'P']",False,X,4,letter,1,False,False,"['robot_stimuli\\\\filler.mp4', 'robot_stimuli\\\\filler.mp4', 'robot_stimuli\\\\filler.mp4', 'robot_stimuli\\\\filler.mp4']",robot_stimuli\\filler.mp4,8,,,,,,,,,,,,,0,14,14,14,,,,,,,,,,,,,,,,,565.9623568999996,567.0193063999996,,,,,,,,,567.6463827999996,567.6463827999996,567.6463827999996,567.6463827999996,567.6463827999996,567.6463827999996,567.6463827999996,567.6463827999996,None,None,None,,,,,,,,,,,556.0129505999994,556.0129505999994,None,,563.7609976999993,565.9623568999996,567.0193063999996,567.0193063999996,567.0193063999996,567.0193063999996,n,0.5411896000005072,556.0129505999994,556.0129505999994,,,8,001,2024-06-28_15h55.54.757,robot_sternberg_sign,2022.2.5,60.023361092271934,
"['G', 'M', 'N', 'Q']",False,B,4,letter,1,False,False,"['robot_stimuli\\\\filler.mp4', 'robot_stimuli\\\\filler.mp4', 'robot_stimuli\\\\filler.mp4', 'robot_stimuli\\\\filler.mp4']",robot_stimuli\\filler.mp4,8,,,,,,,,,,,,,0,15,15,15,,,,,,,,,,,,,,,,,577.172987599999,578.2362995999993,,,,,,,,,579.0668036999996,579.0668036999996,579.0668036999996,579.0668036999996,579.0668036999996,579.0668036999996,579.0668036999996,579.0668036999996,None,None,None,,,,,,,,,,,567.6463827999996,567.6463827999996,None,,575.1594024000005,577.172987599999,578.2362995999993,578.2362995999993,578.2362995999993,578.2362995999993,n,0.6357046000011906,567.6463827999996,567.6463827999996,,,8,001,2024-06-28_15h55.54.757,robot_sternberg_sign,2022.2.5,60.023361092271934,
"['D', 'V', 'K', 'B']",False,M,4,letter,1,False,False,"['robot_stimuli\\\\filler.mp4', 'robot_stimuli\\\\filler.mp4', 'robot_stimuli\\\\filler.mp4', 'robot_stimuli\\\\filler.mp4']",robot_stimuli\\filler.mp4,8,,,,,,,,,,,,,0,16,16,16,,,,,,,,,,,,,,,,,588.9975068000003,590.0542893999991,,,,,,,,,590.8818525999995,590.8818525999995,590.8818525999995,590.8818525999995,590.8818525999995,590.8818525999995,590.8818525999995,590.8818525999995,None,None,None,,,,,,,,,,,579.0668036999996,579.0668036999996,None,,586.7848357000003,588.9975068000003,590.0542893999991,590.0542893999991,590.0542893999991,590.0542893999991,n,0.777102099998956,579.0668036999996,579.0668036999996,,,8,001,2024-06-28_15h55.54.757,robot_sternberg_sign,2022.2.5,60.023361092271934,
"['C', 'P', 'J', 'R']",False,L,4,letter,1,False,False,"['robot_stimuli\\\\filler.mp4', 'robot_stimuli\\\\filler.mp4', 'robot_stimuli\\\\filler.mp4', 'robot_stimuli\\\\filler.mp4']",robot_stimuli\\filler.mp4,8,,,,,,,,,,,,,0,17,17,17,,,,,,,,,,,,,,,,,600.8269798999991,601.8853932999991,,,,,,,,,602.7078514000004,602.7078514000004,602.7078514000004,602.7078514000004,602.7078514000004,602.7078514000004,602.7078514000004,602.7078514000004,None,None,None,,,,,,,,,,,590.8818525999995,590.8818525999995,None,,598.813886599999,600.8269798999991,601.8853932999991,601.8853932999991,601.8853932999991,601.8853932999991,n,0.6272227999997995,590.8818525999995,590.8818525999995,,,8,001,2024-06-28_15h55.54.757,robot_sternberg_sign,2022.2.5,60.023361092271934,
"['M', 'W', 'D', 'S']",True,S,4,letter,1,False,False,"['robot_stimuli\\\\filler.mp4', 'robot_stimuli\\\\filler.mp4', 'robot_stimuli\\\\filler.mp4', 'robot_stimuli\\\\filler.mp4']",robot_stimuli\\filler.mp4,8,,,,,,,,,,,,,0,18,18,18,,,,,,,,,,,,,,,,,612.2459187000004,613.3031265999998,,,,,,,,,614.1327679999995,614.1327679999995,614.1327679999995,614.1327679999995,614.1327679999995,614.1327679999995,614.1327679999995,614.1327679999995,None,None,None,,,,,,,,,,,602.7078514000004,602.7078514000004,None,,610.2276636999995,612.2459187000004,613.3031265999998,613.3031265999998,613.3031265999998,613.3031265999998,c,0.6969048999999359,602.7078514000004,602.7078514000004,,,8,001,2024-06-28_15h55.54.757,robot_sternberg_sign,2022.2.5,60.023361092271934,
"['C', 'H', 'D', 'Z']",True,H,4,letter,1,False,True,"['robot_stimuli\\\\filler.mp4', 'robot_stimuli\\\\filler.mp4', 'robot_stimuli\\\\filler.mp4', 'robot_stimuli\\\\filler.mp4']",robot_stimuli\\filler.mp4,8,,,,,,,,,,,,,0,19,19,19,,,,,,,,,,,,,,,,,623.8711807,624.9403831,,,,,,,,,625.7863404999989,653.7372954999992,625.7863404999989,653.7372954999992,625.7863404999989,653.7372954999992,625.7863404999989,653.7372954999992,26.60493827160494,26.62574820000009,space,,,27.90121200000067,,,,,,,,614.1327679999995,614.1327679999995,None,,621.8570589999999,623.8711807,624.9403831,624.9403831,624.9403831,624.9403831,c,0.7625857999992149,614.1327679999995,614.1327679999995,,,8,001,2024-06-28_15h55.54.757,robot_sternberg_sign,2022.2.5,60.023361092271934,
"['F', 'N', 'W', 'K', 'D', 'C']",True,K,6,letter,1,True,False,"['robot_stimuli\\\\filler.mp4', 'robot_stimuli\\\\filler.mp4', 'robot_stimuli\\\\filler.mp4', 'robot_stimuli\\\\filler.mp4', 'robot_stimuli\\\\filler.mp4', 'robot_stimuli\\\\filler.mp4']",robot_stimuli\\filler.mp4,8,,,,,,,,,,,,,0,20,20,20,,,,,,,,,,,,,,,,,669.5975918999993,670.6634324000006,,,,,,,,,671.4846591000005,671.4846591000005,671.4846591000005,671.4846591000005,671.4846591000005,671.4846591000005,671.4846591000005,671.4846591000005,None,None,None,,,,,,,,,,,653.7372954999992,653.7372954999992,space,2.142454299999372,667.5744319000005,669.5975918999993,670.6634324000006,670.6634324000006,670.6634324000006,670.6634324000006,c,0.6884075999987544,,,,,8,001,2024-06-28_15h55.54.757,robot_sternberg_sign,2022.2.5,60.023361092271934,
"['W', 'D', 'S', 'J', 'M', 'Z']",False,V,6,letter,1,False,False,"['robot_stimuli\\\\filler.mp4', 'robot_stimuli\\\\filler.mp4', 'robot_stimuli\\\\filler.mp4', 'robot_stimuli\\\\filler.mp4', 'robot_stimuli\\\\filler.mp4', 'robot_stimuli\\\\filler.mp4']",robot_stimuli\\filler.mp4,8,,,,,,,,,,,,,0,21,21,21,,,,,,,,,,,,,,,,,685.8043631,686.8681483,,,,,,,,,687.8905116000005,687.8905116000005,687.8905116000005,687.8905116000005,687.8905116000005,687.8905116000005,687.8905116000005,687.8905116000005,None,None,None,,,,,,,,,,,671.4846591000005,671.4846591000005,None,,683.5880595999988,685.8043631,686.8681483,686.8681483,686.8681483,686.8681483,n,0.8522576000013942,671.4846591000005,671.4846591000005,,,8,001,2024-06-28_15h55.54.757,robot_sternberg_sign,2022.2.5,60.023361092271934,
"['P', 'F', 'K', 'Z', 'M', 'T']",True,M,6,letter,1,False,False,"['robot_stimuli\\\\filler.mp4', 'robot_stimuli\\\\filler.mp4', 'robot_stimuli\\\\filler.mp4', 'robot_stimuli\\\\filler.mp4', 'robot_stimuli\\\\filler.mp4', 'robot_stimuli\\\\filler.mp4']",robot_stimuli\\filler.mp4,8,,,,,,,,,,,,,0,22,22,22,,,,,,,,,,,,,,,,,702.0064316999997,703.0698081999999,,,,,,,,,704.0948014000005,704.0948014000005,704.0948014000005,704.0948014000005,704.0948014000005,704.0948014000005,704.0948014000005,704.0948014000005,None,None,None,,,,,,,,,,,687.8905116000005,687.8905116000005,None,,699.9942732999989,702.0064316999997,703.0698081999999,703.0698081999999,703.0698081999999,703.0698081999999,c,0.8266461999992316,687.8905116000005,687.8905116000005,,,8,001,2024-06-28_15h55.54.757,robot_sternberg_sign,2022.2.5,60.023361092271934,
"['J', 'F', 'Z', 'L', 'H', 'D']",True,Z,6,letter,1,False,False,"['robot_stimuli\\\\filler.mp4', 'robot_stimuli\\\\filler.mp4', 'robot_stimuli\\\\filler.mp4', 'robot_stimuli\\\\filler.mp4', 'robot_stimuli\\\\filler.mp4', 'robot_stimuli\\\\filler.mp4']",robot_stimuli\\filler.mp4,8,,,,,,,,,,,,,0,23,23,23,,,,,,,,,,,,,,,,,718.0205690000003,719.1071052999996,,,,,,,,,719.9209333999988,719.9209333999988,719.9209333999988,719.9209333999988,719.9209333999988,719.9209333999988,719.9209333999988,719.9209333999988,None,None,None,,,,,,,,,,,704.0948014000005,704.0948014000005,None,,715.8003546,718.0205690000003,719.1071052999996,719.1071052999996,719.1071052999996,719.1071052999996,c,0.5965519999990647,704.0948014000005,704.0948014000005,,,8,001,2024-06-28_15h55.54.757,robot_sternberg_sign,2022.2.5,60.023361092271934,
"['J', 'D', 'H', 'N', 'T', 'G']",True,N,6,letter,1,False,False,"['robot_stimuli\\\\filler.mp4', 'robot_stimuli\\\\filler.mp4', 'robot_stimuli\\\\filler.mp4', 'robot_stimuli\\\\filler.mp4', 'robot_stimuli\\\\filler.mp4', 'robot_stimuli\\\\filler.mp4']",robot_stimuli\\filler.mp4,8,,,,,,,,,,,,,0,24,24,24,,,,,,,,,,,,,,,,,734.4192583999993,735.4851605000003,,,,,,,,,736.3094296999989,736.3094296999989,736.3094296999989,736.3094296999989,736.3094296999989,736.3094296999989,736.3094296999989,736.3094296999989,None,None,None,,,,,,,,,,,719.9209333999988,719.9209333999988,None,,732.4095278999994,734.4192583999993,735.4851605000003,735.4851605000003,735.4851605000003,735.4851605000003,c,0.5870997999991232,719.9209333999988,719.9209333999988,,,8,001,2024-06-28_15h55.54.757,robot_sternberg_sign,2022.2.5,60.023361092271934,
"['B', 'N', 'G', 'J', 'Q', 'Z']",False,T,6,letter,1,False,False,"['robot_stimuli\\\\filler.mp4', 'robot_stimuli\\\\filler.mp4', 'robot_stimuli\\\\filler.mp4', 'robot_stimuli\\\\filler.mp4', 'robot_stimuli\\\\filler.mp4', 'robot_stimuli\\\\filler.mp4']",robot_stimuli\\filler.mp4,8,,,,,,,,,,,,,0,25,25,25,,,,,,,,,,,,,,,,,750.8478378999989,751.9029434999993,,,,,,,,,753.1253190999996,753.1253190999996,753.1253190999996,753.1253190999996,753.1253190999996,753.1253190999996,753.1253190999996,753.1253190999996,None,None,None,,,,,,,,,,,736.3094296999989,736.3094296999989,None,,748.6335184999989,750.8478378999989,751.9029434999993,751.9029434999993,751.9029434999993,751.9029434999993,n,1.057381999999052,736.3094296999989,736.3094296999989,,,8,001,2024-06-28_15h55.54.757,robot_sternberg_sign,2022.2.5,60.023361092271934,
"['L', 'G', 'V', 'X', 'J', 'D']",False,F,6,letter,1,False,False,"['robot_stimuli\\\\filler.mp4', 'robot_stimuli\\\\filler.mp4', 'robot_stimuli\\\\filler.mp4', 'robot_stimuli\\\\filler.mp4', 'robot_stimuli\\\\filler.mp4', 'robot_stimuli\\\\filler.mp4']",robot_stimuli\\filler.mp4,8,,,,,,,,,,,,,0,26,26,26,,,,,,,,,,,,,,,,,767.6515789000005,754.1853355000003,,,,,,,,,769.7412449999993,769.7412449999993,769.7412449999993,769.7412449999993,769.7412449999993,769.7412449999993,769.7412449999993,769.7412449999993,None,None,None,,,,,,,,,,,753.1253190999996,753.1253190999996,None,,765.4383104999997,767.6515789000005,768.7195943999996,768.7195943999996,768.7195943999996,768.7195943999996,n,0.8159935000003316,753.1253190999996,753.1253190999996,,,8,001,2024-06-28_15h55.54.757,robot_sternberg_sign,2022.2.5,60.023361092271934,
"['P', 'Q', 'B', 'W', 'F', 'J']",True,F,6,letter,1,False,False,"['robot_stimuli\\\\filler.mp4', 'robot_stimuli\\\\filler.mp4', 'robot_stimuli\\\\filler.mp4', 'robot_stimuli\\\\filler.mp4', 'robot_stimuli\\\\filler.mp4', 'robot_stimuli\\\\filler.mp4']",robot_stimuli\\filler.mp4,8,,,,,,,,,,,,,0,27,27,27,,,,,,,,,,,,,,,,,784.2650555,785.3181977000004,,,,,,,,,786.7413410999998,786.7413410999998,786.7413410999998,786.7413410999998,786.7413410999998,786.7413410999998,786.7413410999998,786.7413410999998,None,None,None,,,,,,,,,,,769.7412449999993,769.7412449999993,None,,782.0539317999992,784.2650555,785.3181977000004,785.3181977000004,785.3181977000004,785.3181977000004,n,1.2169690999999148,769.7412449999993,769.7412449999993,,,8,001,2024-06-28_15h55.54.757,robot_sternberg_sign,2022.2.5,60.023361092271934,
"['R', 'Z', 'L', 'K', 'N', 'Q']",False,D,6,letter,1,False,False,"['robot_stimuli\\\\filler.mp4', 'robot_stimuli\\\\filler.mp4', 'robot_stimuli\\\\filler.mp4', 'robot_stimuli\\\\filler.mp4', 'robot_stimuli\\\\filler.mp4', 'robot_stimuli\\\\filler.mp4']",robot_stimuli\\filler.mp4,8,,,,,,,,,,,,,0,28,28,28,,,,,,,,,,,,,,,,,801.3014452999996,787.8014131,,,,,,,,,803.7910001,803.7910001,803.7910001,803.7910001,803.7910001,803.7910001,803.7910001,803.7910001,None,None,None,,,,,,,,,,,786.7413410999998,786.7413410999998,None,,799.085100799999,801.3014452999996,802.3730212999999,802.3730212999999,802.3730212999999,802.3730212999999,n,1.1866912999994383,786.7413410999998,786.7413410999998,,,8,001,2024-06-28_15h55.54.757,robot_sternberg_sign,2022.2.5,60.023361092271934,
"['D', 'S', 'W', 'Z', 'M', 'C']",False,K,6,letter,1,False,True,"['robot_stimuli\\\\filler.mp4', 'robot_stimuli\\\\filler.mp4', 'robot_stimuli\\\\filler.mp4', 'robot_stimuli\\\\filler.mp4', 'robot_stimuli\\\\filler.mp4', 'robot_stimuli\\\\filler.mp4']",robot_stimuli\\filler.mp4,8,,,,,,,,,,,,,0,29,29,29,,,,,,,,,,,,,,,,,817.7131217999995,818.7699429000004,,,,,,,,,820.4251244999996,829.2124583000004,820.4251244999996,829.2124583000004,820.4251244999996,829.2124583000004,820.4251244999996,829.2124583000004,42.65432098765432,8.037287399998604,space,,,8.71872219999932,,,,,,,,803.7910001,803.7910001,None,,815.6927711999997,817.7131217999995,818.7699429000004,818.7699429000004,818.7699429000004,818.7699429000004,n,1.4294953999997233,803.7910001,803.7910001,,,8,001,2024-06-28_15h55.54.757,robot_sternberg_sign,2022.2.5,60.023361092271934,
"['L_Head_X_Back', 'R_Torso_X_For']",False,L_Head_Y_Back,2,robot,2,True,False,"['robot_stimuli\\L_Head_X_Back.mp4', 'robot_stimuli\\R_Torso_X_For.mp4']",robot_stimuli\L_Head_Y_Back.mp4,8,,,,,,,,,,,,,0,30,30,30,,,,,,,,,,,,,,,,,841.7880260999991,842.8917275000003,,,,,,,,,846.5301643000003,846.5301643000003,846.5301643000003,846.5301643000003,846.5301643000003,846.5301643000003,846.5301643000003,846.5301643000003,None,None,None,,,,,,,,,,,829.2124583000004,829.2124583000004,space,4.099506399999882,,,,842.8917275000003,842.8917275000003,842.8917275000003,n,1.3883965999993961,,,838.1455580000002,842.8917275000003,8,001,2024-06-28_15h55.54.757,robot_sternberg_sign,2022.2.5,60.023361092271934,
"['L_Base_Y_For', 'L_Head_Z_Back']",False,L_Arm_X_Back,2,robot,2,False,False,"['robot_stimuli\\L_Base_Y_For.mp4', 'robot_stimuli\\L_Head_Z_Back.mp4']",robot_stimuli\L_Arm_X_Back.mp4,8,,,,,,,,,,,,,0,31,31,31,,,,,,,,,,,,,,,,,854.870068799999,855.9604581999993,,,,,,,,,859.5991331000005,859.5991331000005,859.5991331000005,859.5991331000005,859.5991331000005,859.5991331000005,859.5991331000005,859.5991331000005,None,None,None,,,,,,,,,,,846.5301643000003,846.5301643000003,None,,,,,855.9604581999993,855.9604581999993,855.9604581999993,n,1.455019799999718,846.5301643000003,846.5301643000003,851.230048899999,855.9604581999993,8,001,2024-06-28_15h55.54.757,robot_sternberg_sign,2022.2.5,60.023361092271934,
"['R_Torso_X_Back', 'L_Arm_Z_Back']",False,R_Head_Y_For,2,robot,2,False,False,"['robot_stimuli\\R_Torso_X_Back.mp4', 'robot_stimuli\\L_Arm_Z_Back.mp4']",robot_stimuli\R_Head_Y_For.mp4,8,,,,,,,,,,,,,0,32,32,32,,,,,,,,,,,,,,,,,868.0230656000003,869.1122880000003,,,,,,,,,872.7606436000005,872.7606436000005,872.7606436000005,872.7606436000005,872.7606436000005,872.7606436000005,872.7606436000005,872.7606436000005,None,None,None,,,,,,,,,,,859.5991331000005,859.5991331000005,None,,,,,869.1122880000003,869.1122880000003,869.1122880000003,n,1.471801099998629,859.5991331000005,859.5991331000005,864.3934114999993,869.1122880000003,8,001,2024-06-28_15h55.54.757,robot_sternberg_sign,2022.2.5,60.023361092271934,
"['L_Arm_X_For', 'R_Torso_Y_For']",True,L_Arm_X_For,2,robot,2,False,False,"['robot_stimuli\\L_Arm_X_For.mp4', 'robot_stimuli\\R_Torso_Y_For.mp4']",robot_stimuli\L_Arm_X_For.mp4,8,,,,,,,,,,,,,0,33,33,33,,,,,,,,,,,,,,,,,881.188941299999,882.2775486999999,,,,,,,,,885.9263405999991,885.9263405999991,885.9263405999991,885.9263405999991,885.9263405999991,885.9263405999991,885.9263405999991,885.9263405999991,None,None,None,,,,,,,,,,,872.7606436000005,872.7606436000005,None,,,,,882.2775486999999,882.2775486999999,882.2775486999999,c,2.378086300001087,872.7606436000005,872.7606436000005,877.5591034999998,882.2775486999999,8,001,2024-06-28_15h55.54.757,robot_sternberg_sign,2022.2.5,60.023361092271934,
"['R_Arm_Z_For', 'L_Arm_Z_Back']",False,L_Head_X_Back,2,robot,2,False,False,"['robot_stimuli\\R_Arm_Z_For.mp4', 'robot_stimuli\\L_Arm_Z_Back.mp4']",robot_stimuli\L_Head_X_Back.mp4,8,,,,,,,,,,,,,0,34,34,34,,,,,,,,,,,,,,,,,894.3557576999992,895.4443632999992,,,,,,,,,899.0941072000005,899.0941072000005,899.0941072000005,899.0941072000005,899.0941072000005,899.0941072000005,899.0941072000005,899.0941072000005,None,None,None,,,,,,,,,,,885.9263405999991,885.9263405999991,None,,,,,895.4443632999992,895.4443632999992,895.4443632999992,n,0.867890499999703,885.9263405999991,885.9263405999991,890.7268710999997,895.4443632999992,8,001,2024-06-28_15h55.54.757,robot_sternberg_sign,2022.2.5,60.023361092271934,
"['L_Base_Y_Back', 'L_Arm_Y_Back']",True,L_Base_Y_Back,2,robot,2,False,False,"['robot_stimuli\\L_Base_Y_Back.mp4', 'robot_stimuli\\L_Arm_Y_Back.mp4']",robot_stimuli\L_Base_Y_Back.mp4,8,,,,,,,,,,,,,0,35,35,35,,,,,,,,,,,,,,,,,907.451117999999,900.1748508000001,,,,,,,,,912.1277517999988,912.1277517999988,912.1277517999988,912.1277517999988,912.1277517999988,912.1277517999988,912.1277517999988,912.1277517999988,None,None,None,,,,,,,,,,,899.0941072000005,899.0941072000005,None,,,,,908.5442992999997,908.5442992999997,908.5442992999997,c,3.143700300001001,899.0941072000005,899.0941072000005,903.8216121999994,908.5442992999997,8,001,2024-06-28_15h55.54.757,robot_sternberg_sign,2022.2.5,60.023361092271934,
"['R_Base_X_Back', 'R_Head_Y_For']",True,R_Base_X_Back,2,robot,2,False,False,"['robot_stimuli\\R_Base_X_Back.mp4', 'robot_stimuli\\R_Head_Y_For.mp4']",robot_stimuli\R_Base_X_Back.mp4,8,,,,,,,,,,,,,0,36,36,36,,,,,,,,,,,,,,,,,920.5572598999988,921.6451607999988,,,,,,,,,925.2941805999999,925.2941805999999,925.2941805999999,925.2941805999999,925.2941805999999,925.2941805999999,925.2941805999999,925.2941805999999,None,None,None,,,,,,,,,,,912.1277517999988,912.1277517999988,None,,,,,921.6451607999988,921.6451607999988,921.6451607999988,c,2.5228538000010303,912.1277517999988,912.1277517999988,916.9270933999996,921.6451607999988,8,001,2024-06-28_15h55.54.757,robot_sternberg_sign,2022.2.5,60.023361092271934,
"['L_Torso_X_For', 'L_Head_X_For']",True,L_Head_X_For,2,robot,2,False,False,"['robot_stimuli\\L_Torso_X_For.mp4', 'robot_stimuli\\L_Head_X_For.mp4']",robot_stimuli\L_Head_X_For.mp4,8,,,,,,,,,,,,,0,37,37,37,,,,,,,,,,,,,,,,,933.6569944999992,934.7434154999992,,,,,,,,,938.3054283000001,938.3054283000001,938.3054283000001,938.3054283000001,938.3054283000001,938.3054283000001,938.3054283000001,938.3054283000001,None,None,None,,,,,,,,,,,925.2941805999999,925.2941805999999,None,,,,,934.7434154999992,934.7434154999992,934.7434154999992,c,2.01663919999919,925.2941805999999,925.2941805999999,930.0923342000006,934.7434154999992,8,001,2024-06-28_15h55.54.757,robot_sternberg_sign,2022.2.5,60.023361092271934,
"['L_Torso_X_Back', 'L_Head_Z_For']",True,L_Torso_X_Back,2,robot,2,False,False,"['robot_stimuli\\L_Torso_X_Back.mp4', 'robot_stimuli\\L_Head_Z_For.mp4']",robot_stimuli\L_Torso_X_Back.mp4,8,,,,,,,,,,,,,0,38,38,38,,,,,,,,,,,,,,,,,946.7545291999995,947.8404505999988,,,,,,,,,954.6631942999993,954.6631942999993,954.6631942999993,954.6631942999993,954.6631942999993,954.6631942999993,954.6631942999993,954.6631942999993,None,None,None,,,,,,,,,,,938.3054283000001,938.3054283000001,None,,,,,947.8404505999988,947.8404505999988,947.8404505999988,c,6.7910138000006555,938.3054283000001,938.3054283000001,943.1122044000003,947.8404505999988,8,001,2024-06-28_15h55.54.757,robot_sternberg_sign,2022.2.5,60.023361092271934,
"['L_Base_Y_Back', 'R_Torso_X_Back']",False,L_Torso_Y_Back,2,robot,2,False,True,"['robot_stimuli\\L_Base_Y_Back.mp4', 'robot_stimuli\\R_Torso_X_Back.mp4']",robot_stimuli\L_Torso_Y_Back.mp4,8,,,,,,,,,,,,,0,39,39,39,,,,,,,,,,,,,,,,,963.0234808000005,964.108323299999,,,,,,,,,967.645614699999,971.481458799999,967.645614699999,971.481458799999,967.645614699999,971.481458799999,967.645614699999,971.481458799999,38.64197530864198,2.4289404999999533,space,,,3.7776260000009643,,,,,,,,954.6631942999993,954.6631942999993,None,,,,,964.108323299999,964.108323299999,964.108323299999,c,1.9318044999999984,954.6631942999993,954.6631942999993,959.3946264000006,964.108323299999,8,001,2024-06-28_15h55.54.757,robot_sternberg_sign,2022.2.5,60.023361092271934,
"['L_Torso_X_For', 'R_Base_X_For', 'R_Torso_Z_Back', 'L_Head_X_For']",True,L_Torso_X_For,4,robot,2,True,False,"['robot_stimuli\\L_Torso_X_For.mp4', 'robot_stimuli\\R_Base_X_For.mp4', 'robot_stimuli\\R_Torso_Z_Back.mp4', 'robot_stimuli\\L_Head_X_For.mp4']",robot_stimuli\L_Torso_X_For.mp4,8,,,,,,,,,,,,,0,40,40,40,,,,,,,,,,,,,,,,,994.4705570000006,995.5604127999995,,,,,,,,,999.1987850999994,999.1987850999994,999.1987850999994,999.1987850999994,999.1987850999994,999.1987850999994,999.1987850999994,999.1987850999994,None,None,None,,,,,,,,,,,971.481458799999,971.481458799999,space,7.25361410000005,,,,995.5604127999995,995.5604127999995,995.5604127999995,c,2.5840388999986317,,,990.8954689999991,995.5604127999995,8,001,2024-06-28_15h55.54.757,robot_sternberg_sign,2022.2.5,60.023361092271934,
"['L_Torso_Y_Back', 'L_Arm_X_For', 'L_Arm_Y_For', 'L_Arm_Z_For']",False,L_Head_Y_For,4,robot,2,False,False,"['robot_stimuli\\L_Torso_Y_Back.mp4', 'robot_stimuli\\L_Arm_X_For.mp4', 'robot_stimuli\\L_Arm_Y_For.mp4', 'robot_stimuli\\L_Arm_Z_For.mp4']",robot_stimuli\L_Head_Y_For.mp4,8,,,,,,,,,,,,,0,41,41,41,,,,,,,,,,,,,,,,,1014.9877044000004,1016.0781573999993,,,,,,,,,1019.7344644999994,1019.7344644999994,1019.7344644999994,1019.7344644999994,1019.7344644999994,1019.7344644999994,1019.7344644999994,1019.7344644999994,None,None,None,,,,,,,,,,,999.1987850999994,999.1987850999994,None,,,,,1016.0781573999993,1016.0781573999993,1016.0781573999993,n,1.4336149000009755,999.1987850999994,999.1987850999994,1011.3434299,1016.0781573999993,8,001,2024-06-28_15h55.54.757,robot_sternberg_sign,2022.2.5,60.023361092271934,
"['R_Arm_X_Back', 'R_Torso_X_Back', 'R_Head_X_Back', 'L_Base_Y_Back']",True,R_Torso_X_Back,4,robot,2,False,False,"['robot_stimuli\\R_Arm_X_Back.mp4', 'robot_stimuli\\R_Torso_X_Back.mp4', 'robot_stimuli\\R_Head_X_Back.mp4', 'robot_stimuli\\L_Base_Y_Back.mp4']",robot_stimuli\R_Torso_X_Back.mp4,8,,,,,,,,,,,,,0,42,42,42,,,,,,,,,,,,,,,,,1035.5860219000006,1036.6787738000003,,,,,,,,,1040.3271621999993,1040.3271621999993,1040.3271621999993,1040.3271621999993,1040.3271621999993,1040.3271621999993,1040.3271621999993,1040.3271621999993,None,None,None,,,,,,,,,,,1019.7344644999994,1019.7344644999994,None,,,,,1036.6787738000003,1036.6787738000003,1036.6787738000003,c,2.408667699999569,1019.7344644999994,1019.7344644999994,1032.0061895,1036.6787738000003,8,001,2024-06-28_15h55.54.757,robot_sternberg_sign,2022.2.5,60.023361092271934,
"['L_Torso_Y_Back', 'R_Arm_X_For', 'L_Head_X_Back', 'L_Torso_X_Back']",True,L_Head_X_Back,4,robot,2,False,False,"['robot_stimuli\\L_Torso_Y_Back.mp4', 'robot_stimuli\\R_Arm_X_For.mp4', 'robot_stimuli\\L_Head_X_Back.mp4', 'robot_stimuli\\L_Torso_X_Back.mp4']",robot_stimuli\L_Head_X_Back.mp4,8,,,,,,,,,,,,,0,43,43,43,,,,,,,,,,,,,,,,,1056.0499937999994,1057.1275014000003,,,,,,,,,1060.7567880000006,1060.7567880000006,1060.7567880000006,1060.7567880000006,1060.7567880000006,1060.7567880000006,1060.7567880000006,1060.7567880000006,None,None,None,,,,,,,,,,,1040.3271621999993,1040.3271621999993,None,,,,,1057.1275014000003,1057.1275014000003,1057.1275014000003,c,2.1121883999985585,1040.3271621999993,1040.3271621999993,1052.418483899999,1057.1275014000003,8,001,2024-06-28_15h55.54.757,robot_sternberg_sign,2022.2.5,60.023361092271934,
"['L_Arm_X_Back', 'L_Arm_Y_Back', 'R_Arm_Y_For', 'R_Arm_Z_Back']",False,L_Base_Z_Back,4,robot,2,False,False,"['robot_stimuli\\L_Arm_X_Back.mp4', 'robot_stimuli\\L_Arm_Y_Back.mp4', 'robot_stimuli\\R_Arm_Y_For.mp4', 'robot_stimuli\\R_Arm_Z_Back.mp4']",robot_stimuli\L_Base_Z_Back.mp4,8,,,,,,,,,,,,,0,44,44,44,,,,,,,,,,,,,,,,,1076.4900271000006,1077.5776910000004,,,,,,,,,1081.206896399999,1081.206896399999,1081.206896399999,1081.206896399999,1081.206896399999,1081.206896399999,1081.206896399999,1081.206896399999,None,None,None,,,,,,,,,,,1060.7567880000006,1060.7567880000006,None,,,,,1077.5776910000004,1077.5776910000004,1077.5776910000004,n,1.2773042999997415,1060.7567880000006,1060.7567880000006,1072.8578519000002,1077.5776910000004,8,001,2024-06-28_15h55.54.757,robot_sternberg_sign,2022.2.5,60.023361092271934,
"['R_Head_Z_Back', 'L_Head_Y_For', 'R_Head_Y_For', 'R_Base_Y_Back']",True,L_Head_Y_For,4,robot,2,False,False,"['robot_stimuli\\R_Head_Z_Back.mp4', 'robot_stimuli\\L_Head_Y_For.mp4', 'robot_stimuli\\R_Head_Y_For.mp4', 'robot_stimuli\\R_Base_Y_Back.mp4']",robot_stimuli\L_Head_Y_For.mp4,8,,,,,,,,,,,,,0,45,45,45,,,,,,,,,,,,,,,,,1097.0884714000003,1098.1765723999997,,,,,,,,,1101.8158153000004,1101.8158153000004,1101.8158153000004,1101.8158153000004,1101.8158153000004,1101.8158153000004,1101.8158153000004,1101.8158153000004,None,None,None,,,,,,,,,,,1081.206896399999,1081.206896399999,None,,,,,1098.1765723999997,1098.1765723999997,1098.1765723999997,c,2.2228582999996434,1081.206896399999,1081.206896399999,1093.4564823,1098.1765723999997,8,001,2024-06-28_15h55.54.757,robot_sternberg_sign,2022.2.5,60.023361092271934,
"['L_Head_X_Back', 'L_Head_Z_For', 'L_Torso_Z_Back', 'R_Base_X_Back']",False,L_Arm_Y_Back,4,robot,2,False,False,"['robot_stimuli\\L_Head_X_Back.mp4', 'robot_stimuli\\L_Head_Z_For.mp4', 'robot_stimuli\\L_Torso_Z_Back.mp4', 'robot_stimuli\\R_Base_X_Back.mp4']",robot_stimuli\L_Arm_Y_Back.mp4,8,,,,,,,,,,,,,0,46,46,46,,,,,,,,,,,,,,,,,1117.5496094999999,1118.631338199999,,,,,,,,,1122.2799510000004,1122.2799510000004,1122.2799510000004,1122.2799510000004,1122.2799510000004,1122.2799510000004,1122.2799510000004,1122.2799510000004,None,None,None,,,,,,,,,,,1101.8158153000004,1101.8158153000004,None,,,,,1118.631338199999,1118.631338199999,1118.631338199999,n,1.3208603999992192,1101.8158153000004,1101.8158153000004,1113.9266367,1118.631338199999,8,001,2024-06-28_15h55.54.757,robot_sternberg_sign,2022.2.5,60.023361092271934,
"['R_Torso_Y_Back', 'L_Torso_Z_For', 'R_Base_Z_For', 'R_Base_Y_For']",False,L_Arm_Y_Back,4,robot,2,False,False,"['robot_stimuli\\R_Torso_Y_Back.mp4', 'robot_stimuli\\L_Torso_Z_For.mp4', 'robot_stimuli\\R_Base_Z_For.mp4', 'robot_stimuli\\R_Base_Y_For.mp4']",robot_stimuli\L_Arm_Y_Back.mp4,8,,,,,,,,,,,,,0,47,47,47,,,,,,,,,,,,,,,,,1138.1493243999994,1139.221345599999,,,,,,,,,1142.8642523999988,1142.8642523999988,1142.8642523999988,1142.8642523999988,1142.8642523999988,1142.8642523999988,1142.8642523999988,1142.8642523999988,None,None,None,,,,,,,,,,,1122.2799510000004,1122.2799510000004,None,,,,,1139.221345599999,1139.221345599999,1139.221345599999,n,1.4353131000007124,1122.2799510000004,1122.2799510000004,1134.5246802000001,1139.221345599999,8,001,2024-06-28_15h55.54.757,robot_sternberg_sign,2022.2.5,60.023361092271934,
"['L_Base_Y_For', 'L_Torso_Y_For', 'R_Base_Y_Back', 'R_Head_Y_For']",True,L_Torso_Y_For,4,robot,2,False,False,"['robot_stimuli\\L_Base_Y_For.mp4', 'robot_stimuli\\L_Torso_Y_For.mp4', 'robot_stimuli\\R_Base_Y_Back.mp4', 'robot_stimuli\\R_Head_Y_For.mp4']",robot_stimuli\L_Torso_Y_For.mp4,8,,,,,,,,,,,,,0,48,48,48,,,,,,,,,,,,,,,,,1158.6539616999999,1159.7405030999998,,,,,,,,,1163.3729815999995,1163.3729815999995,1163.3729815999995,1163.3729815999995,1163.3729815999995,1163.3729815999995,1163.3729815999995,1163.3729815999995,None,None,None,,,,,,,,,,,1142.8642523999988,1142.8642523999988,None,,,,,1159.7405030999998,1159.7405030999998,1159.7405030999998,c,2.2199887999995553,1142.8642523999988,1142.8642523999988,1155.0097301999995,1159.7405030999998,8,001,2024-06-28_15h55.54.757,robot_sternberg_sign,2022.2.5,60.023361092271934,
"['R_Head_Y_For', 'L_Base_Z_Back', 'L_Arm_Y_Back', 'R_Head_X_For']",False,R_Arm_X_For,4,robot,2,False,True,"['robot_stimuli\\R_Head_Y_For.mp4', 'robot_stimuli\\L_Base_Z_Back.mp4', 'robot_stimuli\\L_Arm_Y_Back.mp4', 'robot_stimuli\\R_Head_X_For.mp4']",robot_stimuli\R_Arm_X_For.mp4,8,,,,,,,,,,,,,0,49,49,49,,,,,,,,,,,,,,,,,1179.2358564999995,1180.3296649000004,,,,,,,,,1184.0119581,1191.0099155999997,1184.0119581,1191.0099155999997,1184.0119581,1191.0099155999997,1184.0119581,1191.0099155999997,55.30864197530864,6.373472299999776,space,,,6.9553823999995075,,,,,,,,1163.3729815999995,1163.3729815999995,None,,,,,1180.3296649000004,1180.3296649000004,1180.3296649000004,n,2.5736468999984936,1163.3729815999995,1163.3729815999995,1175.6044598999997,1180.3296649000004,8,001,2024-06-28_15h55.54.757,robot_sternberg_sign,2022.2.5,60.023361092271934,
"['R_Base_X_Back', 'L_Base_Z_For', 'R_Arm_Y_For', 'L_Head_Y_Back', 'R_Torso_Y_For', 'L_Torso_Y_For']",False,R_Torso_Z_For,6,robot,2,True,False,"['robot_stimuli\\R_Base_X_Back.mp4', 'robot_stimuli\\L_Base_Z_For.mp4', 'robot_stimuli\\R_Arm_Y_For.mp4', 'robot_stimuli\\L_Head_Y_Back.mp4', 'robot_stimuli\\R_Torso_Y_For.mp4', 'robot_stimuli\\L_Torso_Y_For.mp4']",robot_stimuli\R_Torso_Z_For.mp4,8,,,,,,,,,,,,,0,50,50,50,,,,,,,,,,,,,,,,,1224.1859609000003,1202.0584990999996,,,,,,,,,1230.674870499999,1230.674870499999,1230.674870499999,1230.674870499999,1230.674870499999,1230.674870499999,1230.674870499999,1230.674870499999,None,None,None,,,,,,,,,,,1191.0099155999997,1191.0099155999997,space,9.950266499999998,,,,1225.2773412999995,1225.2773412999995,1225.2773412999995,n,5.363577699999951,,,1220.5441114000005,1225.2773412999995,8,001,2024-06-28_15h55.54.757,robot_sternberg_sign,2022.2.5,60.023361092271934,
"['L_Arm_X_For', 'R_Base_X_Back', 'L_Base_X_For', 'L_Head_X_Back', 'R_Head_Y_Back', 'L_Arm_X_Back']",False,L_Arm_Y_Back,6,robot,2,False,False,"['robot_stimuli\\L_Arm_X_For.mp4', 'robot_stimuli\\R_Base_X_Back.mp4', 'robot_stimuli\\L_Base_X_For.mp4', 'robot_stimuli\\L_Head_X_Back.mp4', 'robot_stimuli\\R_Head_Y_Back.mp4', 'robot_stimuli\\L_Arm_X_Back.mp4']",robot_stimuli\L_Arm_Y_Back.mp4,8,,,,,,,,,,,,,0,51,51,51,,,,,,,,,,,,,,,,,1253.9186934999998,1231.7576454999999,,,,,,,,,1260.1974114000004,1260.1974114000004,1260.1974114000004,1260.1974114000004,1260.1974114000004,1260.1974114000004,1260.1974114000004,1260.1974114000004,None,None,None,,,,,,,,,,,1230.674870499999,1230.674870499999,None,,,,,1255.0108222999988,1255.0108222999988,1255.0108222999988,n,5.156838999999309,1230.674870499999,1230.674870499999,1250.2873168999995,1255.0108222999988,8,001,2024-06-28_15h55.54.757,robot_sternberg_sign,2022.2.5,60.023361092271934,
"['R_Head_Y_Back', 'R_Torso_X_Back', 'R_Torso_Z_Back', 'R_Head_Z_For', 'R_Head_Y_For', 'L_Arm_Z_For']",True,R_Head_Y_Back,6,robot,2,False,False,"['robot_stimuli\\R_Head_Y_Back.mp4', 'robot_stimuli\\R_Torso_X_Back.mp4', 'robot_stimuli\\R_Torso_Z_Back.mp4', 'robot_stimuli\\R_Head_Z_For.mp4', 'robot_stimuli\\R_Head_Y_For.mp4', 'robot_stimuli\\L_Arm_Z_For.mp4']",robot_stimuli\R_Head_Y_Back.mp4,8,,,,,,,,,,,,,0,52,52,52,,,,,,,,,,,,,,,,,1283.5211037999998,1284.6110812999996,,,,,,,,,1288.2612809000002,1288.2612809000002,1288.2612809000002,1288.2612809000002,1288.2612809000002,1288.2612809000002,1288.2612809000002,1288.2612809000002,None,None,None,,,,,,,,,,,1260.1974114000004,1260.1974114000004,None,,,,,1284.6110812999996,1284.6110812999996,1284.6110812999996,c,2.779947999999422,1260.1974114000004,1260.1974114000004,1279.8779899,1284.6110812999996,8,001,2024-06-28_15h55.54.757,robot_sternberg_sign,2022.2.5,60.023361092271934,
"['R_Base_Y_For', 'L_Arm_X_Back', 'L_Arm_Z_Back', 'R_Base_Z_Back', 'L_Torso_Z_Back', 'R_Head_Y_Back']",True,L_Arm_X_Back,6,robot,2,False,False,"['robot_stimuli\\R_Base_Y_For.mp4', 'robot_stimuli\\L_Arm_X_Back.mp4', 'robot_stimuli\\L_Arm_Z_Back.mp4', 'robot_stimuli\\R_Base_Z_Back.mp4', 'robot_stimuli\\L_Torso_Z_Back.mp4', 'robot_stimuli\\R_Head_Y_Back.mp4']",robot_stimuli\L_Arm_X_Back.mp4,8,,,,,,,,,,,,,0,53,53,53,,,,,,,,,,,,,,,,,1311.3697398999993,1289.3371834999998,,,,,,,,,1316.2139244999998,1316.2139244999998,1316.2139244999998,1316.2139244999998,1316.2139244999998,1316.2139244999998,1316.2139244999998,1316.2139244999998,None,None,None,,,,,,,,,,,1288.2612809000002,1288.2612809000002,None,,,,,1312.4595307,1312.4595307,1312.4595307,c,3.7166187000002537,1288.2612809000002,1288.2612809000002,1307.726764699999,1312.4595307,8,001,2024-06-28_15h55.54.757,robot_sternberg_sign,2022.2.5,60.023361092271934,
"['L_Torso_X_For', 'L_Base_Y_Back', 'L_Head_X_For', 'R_Torso_Y_For', 'L_Arm_Z_Back', 'L_Torso_Y_Back']",False,L_Base_X_Back,6,robot,2,False,False,"['robot_stimuli\\L_Torso_X_For.mp4', 'robot_stimuli\\L_Base_Y_Back.mp4', 'robot_stimuli\\L_Head_X_For.mp4', 'robot_stimuli\\R_Torso_Y_For.mp4', 'robot_stimuli\\L_Arm_Z_Back.mp4', 'robot_stimuli\\L_Torso_Y_Back.mp4']",robot_stimuli\L_Base_X_Back.mp4,8,,,,,,,,,,,,,0,54,54,54,,,,,,,,,,,,,,,,,1339.2703495999995,1340.3606400999997,,,,,,,,,1343.9568805999988,1343.9568805999988,1343.9568805999988,1343.9568805999988,1343.9568805999988,1343.9568805999988,1343.9568805999988,1343.9568805999988,None,None,None,,,,,,,,,,,1316.2139244999998,1316.2139244999998,None,,,,,1340.3606400999997,1340.3606400999997,1340.3606400999997,n,3.351415499999348,1316.2139244999998,1316.2139244999998,1335.760182099999,1340.3606400999997,8,001,2024-06-28_15h55.54.757,robot_sternberg_sign,2022.2.5,60.023361092271934,
"['R_Arm_X_Back', 'L_Head_X_For', 'R_Arm_Y_Back', 'L_Arm_X_For', 'L_Head_Y_Back', 'R_Head_Y_Back']",True,L_Arm_X_For,6,robot,2,False,False,"['robot_stimuli\\R_Arm_X_Back.mp4', 'robot_stimuli\\L_Head_X_For.mp4', 'robot_stimuli\\R_Arm_Y_Back.mp4', 'robot_stimuli\\L_Arm_X_For.mp4', 'robot_stimuli\\L_Head_Y_Back.mp4', 'robot_stimuli\\R_Head_Y_Back.mp4']",robot_stimuli\L_Arm_X_For.mp4,8,,,,,,,,,,,,,0,55,55,55,,,,,,,,,,,,,,,,,1367.2054683999995,1368.2927915,,,,,,,,,1374.2586814000006,1374.2586814000006,1374.2586814000006,1374.2586814000006,1374.2586814000006,1374.2586814000006,1374.2586814000006,1374.2586814000006,None,None,None,,,,,,,,,,,1343.9568805999988,1343.9568805999988,None,,,,,1368.2927915,1368.2927915,1368.2927915,n,5.9388974999983475,1343.9568805999988,1343.9568805999988,1363.5746366999992,1368.2927915,8,001,2024-06-28_15h55.54.757,robot_sternberg_sign,2022.2.5,60.023361092271934,
"['R_Head_X_Back', 'L_Arm_X_Back', 'R_Base_Y_Back', 'L_Base_Z_Back', 'L_Head_Z_For', 'L_Arm_X_For']",False,L_Torso_Z_For,6,robot,2,False,False,"['robot_stimuli\\R_Head_X_Back.mp4', 'robot_stimuli\\L_Arm_X_Back.mp4', 'robot_stimuli\\R_Base_Y_Back.mp4', 'robot_stimuli\\L_Base_Z_Back.mp4', 'robot_stimuli\\L_Head_Z_For.mp4', 'robot_stimuli\\L_Arm_X_For.mp4']",robot_stimuli\L_Torso_Z_For.mp4,8,,,,,,,,,,,,,0,56,56,56,,,,,,,,,,,,,,,,,1397.5740487000003,1398.6627202,,,,,,,,,1405.5653005000004,1405.5653005000004,1405.5653005000004,1405.5653005000004,1405.5653005000004,1405.5653005000004,1405.5653005000004,1405.5653005000004,None,None,None,,,,,,,,,,,1374.2586814000006,1374.2586814000006,None,,,,,1398.6627202,1398.6627202,1398.6627202,n,6.8643991999997525,1374.2586814000006,1374.2586814000006,1393.9422434999997,1398.6627202,8,001,2024-06-28_15h55.54.757,robot_sternberg_sign,2022.2.5,60.023361092271934,
"['R_Torso_X_For', 'L_Base_Z_Back', 'L_Base_Y_For', 'L_Base_Y_Back', 'R_Torso_Z_For', 'R_Base_X_Back']",True,L_Base_Z_Back,6,robot,2,False,False,"['robot_stimuli\\R_Torso_X_For.mp4', 'robot_stimuli\\L_Base_Z_Back.mp4', 'robot_stimuli\\L_Base_Y_For.mp4', 'robot_stimuli\\L_Base_Y_Back.mp4', 'robot_stimuli\\R_Torso_Z_For.mp4', 'robot_stimuli\\R_Base_X_Back.mp4']",robot_stimuli\L_Base_Z_Back.mp4,8,,,,,,,,,,,,,0,57,57,57,,,,,,,,,,,,,,,,,1428.732943699999,1429.8107154999998,,,,,,,,,1434.9112643999997,1434.9112643999997,1434.9112643999997,1434.9112643999997,1434.9112643999997,1434.9112643999997,1434.9112643999997,1434.9112643999997,None,None,None,,,,,,,,,,,1405.5653005000004,1405.5653005000004,None,,,,,1429.8107154999998,1429.8107154999998,1429.8107154999998,c,5.060411000000386,1405.5653005000004,1405.5653005000004,1425.1098077000006,1429.8107154999998,8,001,2024-06-28_15h55.54.757,robot_sternberg_sign,2022.2.5,60.023361092271934,
"['L_Torso_X_Back', 'R_Base_Z_Back', 'L_Arm_X_Back', 'L_Base_X_For', 'L_Torso_Y_Back', 'R_Arm_Z_For']",False,R_Head_Z_For,6,robot,2,False,False,"['robot_stimuli\\L_Torso_X_Back.mp4', 'robot_stimuli\\R_Base_Z_Back.mp4', 'robot_stimuli\\L_Arm_X_Back.mp4', 'robot_stimuli\\L_Base_X_For.mp4', 'robot_stimuli\\L_Torso_Y_Back.mp4', 'robot_stimuli\\R_Arm_Z_For.mp4']",robot_stimuli\R_Head_Z_For.mp4,8,,,,,,,,,,,,,0,58,58,58,,,,,,,,,,,,,,,,,1457.9523338,1435.9917425999993,,,,,,,,,1462.6820449999996,1462.6820449999996,1462.6820449999996,1462.6820449999996,1462.6820449999996,1462.6820449999996,1462.6820449999996,1462.6820449999996,None,None,None,,,,,,,,,,,1434.9112643999997,1434.9112643999997,None,,,,,1459.0440075999995,1459.0440075999995,1459.0440075999995,n,2.59527960000014,1434.9112643999997,1434.9112643999997,1454.3102010000002,1459.0440075999995,8,001,2024-06-28_15h55.54.757,robot_sternberg_sign,2022.2.5,60.023361092271934,
"['R_Arm_Y_For', 'R_Head_X_For', 'L_Base_X_Back', 'R_Head_X_Back', 'L_Base_Z_Back', 'R_Arm_X_For']",True,R_Arm_Y_For,6,robot,2,False,True,"['robot_stimuli\\R_Arm_Y_For.mp4', 'robot_stimuli\\R_Head_X_For.mp4', 'robot_stimuli\\L_Base_X_Back.mp4', 'robot_stimuli\\R_Head_X_Back.mp4', 'robot_stimuli\\L_Base_Z_Back.mp4', 'robot_stimuli\\R_Arm_X_For.mp4']",robot_stimuli\R_Arm_Y_For.mp4,8,,,,,,,,,,,,,0,59,59,59,,,,,,,,,,,,,,,,,1485.8908852999994,1486.9773170999997,,,,,,,,,1490.5069222999991,1494.9127931000003,1490.5069222999991,1494.9127931000003,1490.5069222999991,1494.9127931000003,1490.5069222999991,1494.9127931000003,79.69135802469135,3.4607622000003175,space,,,4.340051099999982,,,,,,,,1462.6820449999996,1462.6820449999996,None,,,,,1486.9773170999997,1486.9773170999997,1486.9773170999997,c,2.661866000000373,1462.6820449999996,1462.6820449999996,1482.2539266999993,1486.9773170999997,8,001,2024-06-28_15h55.54.757,robot_sternberg_sign,2022.2.5,60.023361092271934,
"['T', 'K', 'G', 'W']",False,R,4,letter,3,True,False,"['robot_stimuli\\\\filler.mp4', 'robot_stimuli\\\\filler.mp4', 'robot_stimuli\\\\filler.mp4', 'robot_stimuli\\\\filler.mp4']",robot_stimuli\\filler.mp4,8,,,,,,,,,,,,,0,60,60,60,,,,,,,,,,,,,,,,,1514.7520007000003,1506.0722583000006,,,,,,,,,1516.4411125000006,1516.4411125000006,1516.4411125000006,1516.4411125000006,1516.4411125000006,1516.4411125000006,1516.4411125000006,1516.4411125000006,None,None,None,,,,,,,,,,,1494.9127931000003,1494.9127931000003,space,10.086662499999875,1512.7311797999992,1514.7520007000003,1515.8193475999997,1515.8193475999997,1515.8193475999997,1515.8193475999997,n,0.56461119999949,,,,,8,001,2024-06-28_15h55.54.757,robot_sternberg_sign,2022.2.5,60.023361092271934,
"['L', 'T', 'N', 'D']",True,L,4,letter,3,False,False,"['robot_stimuli\\\\filler.mp4', 'robot_stimuli\\\\filler.mp4', 'robot_stimuli\\\\filler.mp4', 'robot_stimuli\\\\filler.mp4']",robot_stimuli\\filler.mp4,8,,,,,,,,,,,,,0,61,61,61,,,,,,,,,,,,,,,,,1525.9863956999998,1527.0533125999991,,,,,,,,,1527.8749976999989,1527.8749976999989,1527.8749976999989,1527.8749976999989,1527.8749976999989,1527.8749976999989,1527.8749976999989,1527.8749976999989,None,None,None,,,,,,,,,,,1516.4411125000006,1516.4411125000006,None,,1523.9647365,1525.9863956999998,1527.0533125999991,1527.0533125999991,1527.0533125999991,1527.0533125999991,c,0.6271535999985645,1516.4411125000006,1516.4411125000006,,,8,001,2024-06-28_15h55.54.757,robot_sternberg_sign,2022.2.5,60.023361092271934,
"['Q', 'R', 'J', 'T']",False,N,4,letter,3,False,False,"['robot_stimuli\\\\filler.mp4', 'robot_stimuli\\\\filler.mp4', 'robot_stimuli\\\\filler.mp4', 'robot_stimuli\\\\filler.mp4']",robot_stimuli\\filler.mp4,8,,,,,,,,,,,,,0,62,62,62,,,,,,,,,,,,,,,,,1537.8134338,1538.8698810999995,,,,,,,,,1539.6930465999994,1539.6930465999994,1539.6930465999994,1539.6930465999994,1539.6930465999994,1539.6930465999994,1539.6930465999994,1539.6930465999994,None,None,None,,,,,,,,,,,1527.8749976999989,1527.8749976999989,None,,1535.7904538999992,1537.8134338,1538.8698810999995,1538.8698810999995,1538.8698810999995,1538.8698810999995,n,0.6491338999985601,1527.8749976999989,1527.8749976999989,,,8,001,2024-06-28_15h55.54.757,robot_sternberg_sign,2022.2.5,60.023361092271934,
"['L', 'D', 'N', 'K']",True,N,4,letter,3,False,False,"['robot_stimuli\\\\filler.mp4', 'robot_stimuli\\\\filler.mp4', 'robot_stimuli\\\\filler.mp4', 'robot_stimuli\\\\filler.mp4']",robot_stimuli\\filler.mp4,8,,,,,,,,,,,,,0,63,63,63,,,,,,,,,,,,,,,,,1549.2359785999997,1540.7543604000002,,,,,,,,,1551.1323059999995,1551.1323059999995,1551.1323059999995,1551.1323059999995,1551.1323059999995,1551.1323059999995,1551.1323059999995,1551.1323059999995,None,None,None,,,,,,,,,,,1539.6930465999994,1539.6930465999994,None,,1547.2171798,1549.2359785999997,1550.3038252000006,1550.3038252000006,1550.3038252000006,1550.3038252000006,c,0.6474161999994976,1539.6930465999994,1539.6930465999994,,,8,001,2024-06-28_15h55.54.757,robot_sternberg_sign,2022.2.5,60.023361092271934,
"['M', 'N', 'C', 'S']",False,D,4,letter,3,False,False,"['robot_stimuli\\\\filler.mp4', 'robot_stimuli\\\\filler.mp4', 'robot_stimuli\\\\filler.mp4', 'robot_stimuli\\\\filler.mp4']",robot_stimuli\\filler.mp4,8,,,,,,,,,,,,,0,64,64,64,,,,,,,,,,,,,,,,,1561.0561058999992,1562.120740799999,,,,,,,,,1562.9419861000006,1562.9419861000006,1562.9419861000006,1562.9419861000006,1562.9419861000006,1562.9419861000006,1562.9419861000006,1562.9419861000006,None,None,None,,,,,,,,,,,1551.1323059999995,1551.1323059999995,None,,1559.0454936999995,1561.0561058999992,1562.120740799999,1562.120740799999,1562.120740799999,1562.120740799999,n,0.6140584999993735,1551.1323059999995,1551.1323059999995,,,8,001,2024-06-28_15h55.54.757,robot_sternberg_sign,2022.2.5,60.023361092271934,
"['K', 'M', 'G', 'Z']",True,M,4,letter,3,False,False,"['robot_stimuli\\\\filler.mp4', 'robot_stimuli\\\\filler.mp4', 'robot_stimuli\\\\filler.mp4', 'robot_stimuli\\\\filler.mp4']",robot_stimuli\\filler.mp4,8,,,,,,,,,,,,,0,65,65,65,,,,,,,,,,,,,,,,,1572.4964191,1573.5530698999992,,,,,,,,,1574.3817770999995,1574.3817770999995,1574.3817770999995,1574.3817770999995,1574.3817770999995,1574.3817770999995,1574.3817770999995,1574.3817770999995,None,None,None,,,,,,,,,,,1562.9419861000006,1562.9419861000006,None,,1570.4716229000005,1572.4964191,1573.5530698999992,1573.5530698999992,1573.5530698999992,1573.5530698999992,c,0.7019057999987126,1562.9419861000006,1562.9419861000006,,,8,001,2024-06-28_15h55.54.757,robot_sternberg_sign,2022.2.5,60.023361092271934,
"['X', 'K', 'R', 'H']",False,G,4,letter,3,False,False,"['robot_stimuli\\\\filler.mp4', 'robot_stimuli\\\\filler.mp4', 'robot_stimuli\\\\filler.mp4', 'robot_stimuli\\\\filler.mp4']",robot_stimuli\\filler.mp4,8,,,,,,,,,,,,,0,66,66,66,,,,,,,,,,,,,,,,,1584.5010901000005,1575.4367282999992,,,,,,,,,1586.1970478000003,1586.1970478000003,1586.1970478000003,1586.1970478000003,1586.1970478000003,1586.1970478000003,1586.1970478000003,1586.1970478000003,None,None,None,,,,,,,,,,,1574.3817770999995,1574.3817770999995,None,,1582.2856178000002,1584.5010901000005,1585.5726861000003,1585.5726861000003,1585.5726861000003,1585.5726861000003,n,0.5628973000002588,1574.3817770999995,1574.3817770999995,,,8,001,2024-06-28_15h55.54.757,robot_sternberg_sign,2022.2.5,60.023361092271934,
"['W', 'K', 'F', 'L']",True,W,4,letter,3,False,False,"['robot_stimuli\\\\filler.mp4', 'robot_stimuli\\\\filler.mp4', 'robot_stimuli\\\\filler.mp4', 'robot_stimuli\\\\filler.mp4']",robot_stimuli\\filler.mp4,8,,,,,,,,,,,,,0,67,67,67,,,,,,,,,,,,,,,,,1596.3230939000005,1597.3868311999995,,,,,,,,,1598.0141896000005,1598.0141896000005,1598.0141896000005,1598.0141896000005,1598.0141896000005,1598.0141896000005,1598.0141896000005,1598.0141896000005,None,None,None,,,,,,,,,,,1586.1970478000003,1586.1970478000003,None,,1594.1076553000003,1596.3230939000005,1597.3868311999995,1597.3868311999995,1597.3868311999995,1597.3868311999995,c,0.5161029000009876,1586.1970478000003,1586.1970478000003,,,8,001,2024-06-28_15h55.54.757,robot_sternberg_sign,2022.2.5,60.023361092271934,
"['B', 'H', 'R', 'C']",True,H,4,letter,3,False,False,"['robot_stimuli\\\\filler.mp4', 'robot_stimuli\\\\filler.mp4', 'robot_stimuli\\\\filler.mp4', 'robot_stimuli\\\\filler.mp4']",robot_stimuli\\filler.mp4,8,,,,,,,,,,,,,0,68,68,68,,,,,,,,,,,,,,,,,1607.7468196999998,1608.8020834,,,,,,,,,1609.6340048000002,1609.6340048000002,1609.6340048000002,1609.6340048000002,1609.6340048000002,1609.6340048000002,1609.6340048000002,1609.6340048000002,None,None,None,,,,,,,,,,,1598.0141896000005,1598.0141896000005,None,,1605.5392759000006,1607.7468196999998,1608.8020834,1608.8020834,1608.8020834,1608.8020834,c,0.605522399999245,1598.0141896000005,1598.0141896000005,,,8,001,2024-06-28_15h55.54.757,robot_sternberg_sign,2022.2.5,60.023361092271934,
"['W', 'X', 'Z', 'C']",False,Q,4,letter,3,False,True,"['robot_stimuli\\\\filler.mp4', 'robot_stimuli\\\\filler.mp4', 'robot_stimuli\\\\filler.mp4', 'robot_stimuli\\\\filler.mp4']",robot_stimuli\\filler.mp4,8,,,,,,,,,,,,,0,69,69,69,,,,,,,,,,,,,,,,,1619.1791395,1620.2492272,,,,,,,,,1621.1016789999994,1625.3957706,1621.1016789999994,1625.3957706,1621.1016789999994,1625.3957706,1621.1016789999994,1625.3957706,31.543209876543205,3.4460555000005115,space,,,4.23348950000036,,,,,,,,1609.6340048000002,1609.6340048000002,None,,1617.1668728000004,1619.1791395,1620.2492272,1620.2492272,1620.2492272,1620.2492272,n,0.6465496000000712,1609.6340048000002,1609.6340048000002,,,8,001,2024-06-28_15h55.54.757,robot_sternberg_sign,2022.2.5,60.023361092271934,
"['B', 'Q']",False,L,2,letter,3,True,False,"['robot_stimuli\\\\filler.mp4', 'robot_stimuli\\\\filler.mp4']",robot_stimuli\\filler.mp4,8,,,,,,,,,,,,,0,70,70,70,,,,,,,,,,,,,,,,,1632.9420243000004,1634.0147488000002,,,,,,,,,1635.0371004999997,1635.0371004999997,1635.0371004999997,1635.0371004999997,1635.0371004999997,1635.0371004999997,1635.0371004999997,1635.0371004999997,None,None,None,,,,,,,,,,,1625.3957706,1625.3957706,space,2.155316099999254,1630.9264189999994,1632.9420243000004,1634.0147488000002,1634.0147488000002,1634.0147488000002,1634.0147488000002,n,0.8092223000003287,,,,,8,001,2024-06-28_15h55.54.757,robot_sternberg_sign,2022.2.5,60.023361092271934,
"['B', 'Q']",True,Q,2,letter,3,False,False,"['robot_stimuli\\\\filler.mp4', 'robot_stimuli\\\\filler.mp4']",robot_stimuli\\filler.mp4,8,,,,,,,,,,,,,0,71,71,71,,,,,,,,,,,,,,,,,1640.4073551000001,1641.4704077000006,,,,,,,,,1642.2992794000002,1642.2992794000002,1642.2992794000002,1642.2992794000002,1642.2992794000002,1642.2992794000002,1642.2992794000002,1642.2992794000002,None,None,None,,,,,,,,,,,1635.0371004999997,1635.0371004999997,None,,1638.3933173000005,1640.4073551000001,1641.4704077000006,1641.4704077000006,1641.4704077000006,1641.4704077000006,c,0.7134355999987747,1635.0371004999997,1635.0371004999997,,,8,001,2024-06-28_15h55.54.757,robot_sternberg_sign,2022.2.5,60.023361092271934,
"['R', 'M']",False,X,2,letter,3,False,False,"['robot_stimuli\\\\filler.mp4', 'robot_stimuli\\\\filler.mp4']",robot_stimuli\\filler.mp4,8,,,,,,,,,,,,,0,72,72,72,,,,,,,,,,,,,,,,,1647.8605363999995,1648.9202731000005,,,,,,,,,1650.5437970000003,1650.5437970000003,1650.5437970000003,1650.5437970000003,1650.5437970000003,1650.5437970000003,1650.5437970000003,1650.5437970000003,None,None,None,,,,,,,,,,,1642.2992794000002,1642.2992794000002,None,,1645.6379318,1647.8605363999995,1648.9202731000005,1648.9202731000005,1648.9202731000005,1648.9202731000005,n,1.5765547000009974,1642.2992794000002,1642.2992794000002,,,8,001,2024-06-28_15h55.54.757,robot_sternberg_sign,2022.2.5,60.023361092271934,
"['P', 'X']",False,G,2,letter,3,False,False,"['robot_stimuli\\\\filler.mp4', 'robot_stimuli\\\\filler.mp4']",robot_stimuli\\filler.mp4,8,,,,,,,,,,,,,0,73,73,73,,,,,,,,,,,,,,,,,1655.9074154999998,1656.9706492000005,,,,,,,,,1657.5998094999995,1657.5998094999995,1657.5998094999995,1657.5998094999995,1657.5998094999995,1657.5998094999995,1657.5998094999995,1657.5998094999995,None,None,None,,,,,,,,,,,1650.5437970000003,1650.5437970000003,None,,1653.6881840000005,1655.9074154999998,1656.9706492000005,1656.9706492000005,1656.9706492000005,1656.9706492000005,n,0.4779971000007208,1650.5437970000003,1650.5437970000003,,,8,001,2024-06-28_15h55.54.757,robot_sternberg_sign,2022.2.5,60.023361092271934,
"['M', 'G']",False,H,2,letter,3,False,False,"['robot_stimuli\\\\filler.mp4', 'robot_stimuli\\\\filler.mp4']",robot_stimuli\\filler.mp4,8,,,,,,,,,,,,,0,74,74,74,,,,,,,,,,,,,,,,,1662.9590091999999,1664.0216027000006,,,,,,,,,1664.6487679000002,1664.6487679000002,1664.6487679000002,1664.6487679000002,1664.6487679000002,1664.6487679000002,1664.6487679000002,1664.6487679000002,None,None,None,,,,,,,,,,,1657.5998094999995,1657.5998094999995,None,,1660.9383581000002,1662.9590091999999,1664.0216027000006,1664.0216027000006,1664.0216027000006,1664.0216027000006,n,0.5073277999999846,1657.5998094999995,1657.5998094999995,,,8,001,2024-06-28_15h55.54.757,robot_sternberg_sign,2022.2.5,60.023361092271934,
"['X', 'V']",False,N,2,letter,3,False,False,"['robot_stimuli\\\\filler.mp4', 'robot_stimuli\\\\filler.mp4']",robot_stimuli\\filler.mp4,8,,,,,,,,,,,,,0,75,75,75,,,,,,,,,,,,,,,,,1670.003297199999,1671.0701565,,,,,,,,,1671.6989505000001,1671.6989505000001,1671.6989505000001,1671.6989505000001,1671.6989505000001,1671.6989505000001,1671.6989505000001,1671.6989505000001,None,None,None,,,,,,,,,,,1664.6487679000002,1664.6487679000002,None,,1667.9895376000004,1670.003297199999,1671.0701565,1671.0701565,1671.0701565,1671.0701565,n,0.4816055999999662,1664.6487679000002,1664.6487679000002,,,8,001,2024-06-28_15h55.54.757,robot_sternberg_sign,2022.2.5,60.023361092271934,
"['Q', 'W']",True,W,2,letter,3,False,False,"['robot_stimuli\\\\filler.mp4', 'robot_stimuli\\\\filler.mp4']",robot_stimuli\\filler.mp4,8,,,,,,,,,,,,,0,76,76,76,,,,,,,,,,,,,,,,,1676.8582647999992,1677.9203390000002,,,,,,,,,1678.744702,1678.744702,1678.744702,1678.744702,1678.744702,1678.744702,1678.744702,1678.744702,None,None,None,,,,,,,,,,,1671.6989505000001,1671.6989505000001,None,,1674.8393023999997,1676.8582647999992,1677.9203390000002,1677.9203390000002,1677.9203390000002,1677.9203390000002,c,0.712391299999581,1671.6989505000001,1671.6989505000001,,,8,001,2024-06-28_15h55.54.757,robot_sternberg_sign,2022.2.5,60.023361092271934,
"['W', 'C']",True,W,2,letter,3,False,False,"['robot_stimuli\\\\filler.mp4', 'robot_stimuli\\\\filler.mp4']",robot_stimuli\\filler.mp4,8,,,,,,,,,,,,,0,77,77,77,,,,,,,,,,,,,,,,,1684.1134323000006,1685.1675188999998,,,,,,,,,1685.787763799999,1685.787763799999,1685.787763799999,1685.787763799999,1685.787763799999,1685.787763799999,1685.787763799999,1685.787763799999,None,None,None,,,,,,,,,,,1678.744702,1678.744702,None,,1682.0898529999995,1684.1134323000006,1685.1675188999998,1685.1675188999998,1685.1675188999998,1685.1675188999998,c,0.5213850000000093,1678.744702,1678.744702,,,8,001,2024-06-28_15h55.54.757,robot_sternberg_sign,2022.2.5,60.023361092271934,
"['G', 'B']",True,B,2,letter,3,False,False,"['robot_stimuli\\\\filler.mp4', 'robot_stimuli\\\\filler.mp4']",robot_stimuli\\filler.mp4,8,,,,,,,,,,,,,0,78,78,78,,,,,,,,,,,,,,,,,1691.1643538999997,1692.220078799999,,,,,,,,,1693.0498589999988,1693.0498589999988,1693.0498589999988,1693.0498589999988,1693.0498589999988,1693.0498589999988,1693.0498589999988,1693.0498589999988,None,None,None,,,,,,,,,,,1685.787763799999,1685.787763799999,None,,1689.1479483000003,1691.1643538999997,1692.220078799999,1692.220078799999,1692.220078799999,1692.220078799999,c,0.7555222000009962,1685.787763799999,1685.787763799999,,,8,001,2024-06-28_15h55.54.757,robot_sternberg_sign,2022.2.5,60.023361092271934,
"['C', 'Q']",True,C,2,letter,3,False,True,"['robot_stimuli\\\\filler.mp4', 'robot_stimuli\\\\filler.mp4']",robot_stimuli\\filler.mp4,8,,,,,,,,,,,,,0,79,79,79,,,,,,,,,,,,,,,,,1698.6188227000002,1694.1042742999998,,,,,,,,,1700.338776999999,1704.2900470999994,1700.338776999999,1704.2900470999994,1700.338776999999,1704.2900470999994,1700.338776999999,1704.2900470999994,22.283950617283946,3.392956100000447,space,,,3.885406100000182,,,,,,,,1693.0498589999988,1693.0498589999988,None,,1696.403448699999,1698.6188227000002,1699.6876568999996,1699.6876568999996,1699.6876568999996,1699.6876568999996,c,0.44043669999882695,1693.0498589999988,1693.0498589999988,,,8,001,2024-06-28_15h55.54.757,robot_sternberg_sign,2022.2.5,60.023361092271934,
"['W', 'P', 'L', 'F', 'C', 'Z']",False,S,6,letter,3,True,False,"['robot_stimuli\\\\filler.mp4', 'robot_stimuli\\\\filler.mp4', 'robot_stimuli\\\\filler.mp4', 'robot_stimuli\\\\filler.mp4', 'robot_stimuli\\\\filler.mp4', 'robot_stimuli\\\\filler.mp4']",robot_stimuli\\filler.mp4,8,,,,,,,,,,,,,0,80,80,80,,,,,,,,,,,,,,,,,1719.4147295999992,1720.4708909,,,,,,,,,1721.2990948999995,1721.2990948999995,1721.2990948999995,1721.2990948999995,1721.2990948999995,1721.2990948999995,1721.2990948999995,1721.2990948999995,None,None,None,,,,,,,,,,,1704.2900470999994,1704.2900470999994,space,1.2063235999994504,1717.3966357999998,1719.4147295999992,1720.4708909,1720.4708909,1720.4708909,1720.4708909,n,0.7380778000006103,,,,,8,001,2024-06-28_15h55.54.757,robot_sternberg_sign,2022.2.5,60.023361092271934,
"['D', 'F', 'G', 'B', 'L', 'K']",True,F,6,letter,3,False,False,"['robot_stimuli\\\\filler.mp4', 'robot_stimuli\\\\filler.mp4', 'robot_stimuli\\\\filler.mp4', 'robot_stimuli\\\\filler.mp4', 'robot_stimuli\\\\filler.mp4', 'robot_stimuli\\\\filler.mp4']",robot_stimuli\\filler.mp4,8,,,,,,,,,,,,,0,81,81,81,,,,,,,,,,,,,,,,,1735.2127333999997,1736.272605799999,,,,,,,,,1737.1036688999993,1737.1036688999993,1737.1036688999993,1737.1036688999993,1737.1036688999993,1737.1036688999993,1737.1036688999993,1737.1036688999993,None,None,None,,,,,,,,,,,1721.2990948999995,1721.2990948999995,None,,1733.1963854999995,1735.2127333999997,1736.272605799999,1736.272605799999,1736.272605799999,1736.272605799999,c,0.5986197000001994,1721.2990948999995,1721.2990948999995,,,8,001,2024-06-28_15h55.54.757,robot_sternberg_sign,2022.2.5,60.023361092271934,
"['P', 'J', 'L', 'F', 'K', 'G']",True,K,6,letter,3,False,False,"['robot_stimuli\\\\filler.mp4', 'robot_stimuli\\\\filler.mp4', 'robot_stimuli\\\\filler.mp4', 'robot_stimuli\\\\filler.mp4', 'robot_stimuli\\\\filler.mp4', 'robot_stimuli\\\\filler.mp4']",robot_stimuli\\filler.mp4,8,,,,,,,,,,,,,0,82,82,82,,,,,,,,,,,,,,,,,1751.2376893,1752.3038531999991,,,,,,,,,1752.923891999999,1752.923891999999,1752.923891999999,1752.923891999999,1752.923891999999,1752.923891999999,1752.923891999999,1752.923891999999,None,None,None,,,,,,,,,,,1737.1036688999993,1737.1036688999993,None,,1749.0244110000003,1751.2376893,1752.3038531999991,1752.3038531999991,1752.3038531999991,1752.3038531999991,c,0.5444023000000016,1737.1036688999993,1737.1036688999993,,,8,001,2024-06-28_15h55.54.757,robot_sternberg_sign,2022.2.5,60.023361092271934,
"['M', 'D', 'C', 'S', 'N', 'R']",False,H,6,letter,3,False,False,"['robot_stimuli\\\\filler.mp4', 'robot_stimuli\\\\filler.mp4', 'robot_stimuli\\\\filler.mp4', 'robot_stimuli\\\\filler.mp4', 'robot_stimuli\\\\filler.mp4', 'robot_stimuli\\\\filler.mp4']",robot_stimuli\\filler.mp4,8,,,,,,,,,,,,,0,83,83,83,,,,,,,,,,,,,,,,,1767.6244783000002,1768.6872872999993,,,,,,,,,1769.5149708999998,1769.5149708999998,1769.5149708999998,1769.5149708999998,1769.5149708999998,1769.5149708999998,1769.5149708999998,1769.5149708999998,None,None,None,,,,,,,,,,,1752.923891999999,1752.923891999999,None,,1765.408747899999,1767.6244783000002,1768.6872872999993,1768.6872872999993,1768.6872872999993,1768.6872872999993,n,0.6809272999998939,1752.923891999999,1752.923891999999,,,8,001,2024-06-28_15h55.54.757,robot_sternberg_sign,2022.2.5,60.023361092271934,
"['F', 'Q', 'B', 'X', 'P', 'T']",False,M,6,letter,3,False,False,"['robot_stimuli\\\\filler.mp4', 'robot_stimuli\\\\filler.mp4', 'robot_stimuli\\\\filler.mp4', 'robot_stimuli\\\\filler.mp4', 'robot_stimuli\\\\filler.mp4', 'robot_stimuli\\\\filler.mp4']",robot_stimuli\\filler.mp4,8,,,,,,,,,,,,,0,84,84,84,,,,,,,,,,,,,,,,,1784.0144072000003,1785.0702612999994,,,,,,,,,1785.8987713000006,1785.8987713000006,1785.8987713000006,1785.8987713000006,1785.8987713000006,1785.8987713000006,1785.8987713000006,1785.8987713000006,None,None,None,,,,,,,,,,,1769.5149708999998,1769.5149708999998,None,,1781.8053664999989,1784.0144072000003,1785.0702612999994,1785.0702612999994,1785.0702612999994,1785.0702612999994,n,0.6254511999995884,1769.5149708999998,1769.5149708999998,,,8,001,2024-06-28_15h55.54.757,robot_sternberg_sign,2022.2.5,60.023361092271934,
"['J', 'S', 'C', 'Q', 'L', 'Z']",False,M,6,letter,3,False,False,"['robot_stimuli\\\\filler.mp4', 'robot_stimuli\\\\filler.mp4', 'robot_stimuli\\\\filler.mp4', 'robot_stimuli\\\\filler.mp4', 'robot_stimuli\\\\filler.mp4', 'robot_stimuli\\\\filler.mp4']",robot_stimuli\\filler.mp4,8,,,,,,,,,,,,,0,85,85,85,,,,,,,,,,,,,,,,,1799.804263,1800.8698112999991,,,,,,,,,1801.6988929,1801.6988929,1801.6988929,1801.6988929,1801.6988929,1801.6988929,1801.6988929,1801.6988929,None,None,None,,,,,,,,,,,1785.8987713000006,1785.8987713000006,None,,1797.588237599999,1799.804263,1800.8698112999991,1800.8698112999991,1800.8698112999991,1800.8698112999991,n,0.7139463999992586,1785.8987713000006,1785.8987713000006,,,8,001,2024-06-28_15h55.54.757,robot_sternberg_sign,2022.2.5,60.023361092271934,
"['S', 'C', 'G', 'N', 'D', 'M']",False,H,6,letter,3,False,False,"['robot_stimuli\\\\filler.mp4', 'robot_stimuli\\\\filler.mp4', 'robot_stimuli\\\\filler.mp4', 'robot_stimuli\\\\filler.mp4', 'robot_stimuli\\\\filler.mp4', 'robot_stimuli\\\\filler.mp4']",robot_stimuli\\filler.mp4,8,,,,,,,,,,,,,0,86,86,86,,,,,,,,,,,,,,,,,1815.6111187999995,1816.6737443000002,,,,,,,,,1817.4926861999993,1817.4926861999993,1817.4926861999993,1817.4926861999993,1817.4926861999993,1817.4926861999993,1817.4926861999993,1817.4926861999993,None,None,None,,,,,,,,,,,1801.6988929,1801.6988929,None,,1813.3879586000003,1815.6111187999995,1816.6737443000002,1816.6737443000002,1816.6737443000002,1816.6737443000002,n,0.5826292000001558,1801.6988929,1801.6988929,,,8,001,2024-06-28_15h55.54.757,robot_sternberg_sign,2022.2.5,60.023361092271934,
"['W', 'C', 'M', 'R', 'Q', 'D']",True,W,6,letter,3,False,False,"['robot_stimuli\\\\filler.mp4', 'robot_stimuli\\\\filler.mp4', 'robot_stimuli\\\\filler.mp4', 'robot_stimuli\\\\filler.mp4', 'robot_stimuli\\\\filler.mp4', 'robot_stimuli\\\\filler.mp4']",robot_stimuli\\filler.mp4,8,,,,,,,,,,,,,0,87,87,87,,,,,,,,,,,,,,,,,1831.8042444999992,1832.8699655,,,,,,,,,1833.4890804999995,1833.4890804999995,1833.4890804999995,1833.4890804999995,1833.4890804999995,1833.4890804999995,1833.4890804999995,1833.4890804999995,None,None,None,,,,,,,,,,,1817.4926861999993,1817.4926861999993,None,,1829.5939572999996,1831.8042444999992,1832.8699655,1832.8699655,1832.8699655,1832.8699655,c,0.47381660000064585,1817.4926861999993,1817.4926861999993,,,8,001,2024-06-28_15h55.54.757,robot_sternberg_sign,2022.2.5,60.023361092271934,
"['H', 'M', 'K', 'B', 'F', 'N']",True,M,6,letter,3,False,False,"['robot_stimuli\\\\filler.mp4', 'robot_stimuli\\\\filler.mp4', 'robot_stimuli\\\\filler.mp4', 'robot_stimuli\\\\filler.mp4', 'robot_stimuli\\\\filler.mp4', 'robot_stimuli\\\\filler.mp4']",robot_stimuli\\filler.mp4,8,,,,,,,,,,,,,0,88,88,88,,,,,,,,,,,,,,,,,1847.6068286999998,1848.6717881000004,,,,,,,,,1849.4938664000001,1849.4938664000001,1849.4938664000001,1849.4938664000001,1849.4938664000001,1849.4938664000001,1849.4938664000001,1849.4938664000001,None,None,None,,,,,,,,,,,1833.4890804999995,1833.4890804999995,None,,1845.5839008000003,1847.6068286999998,1848.6717881000004,1848.6717881000004,1848.6717881000004,1848.6717881000004,c,0.584550899999158,1833.4890804999995,1833.4890804999995,,,8,001,2024-06-28_15h55.54.757,robot_sternberg_sign,2022.2.5,60.023361092271934,
"['D', 'W', 'M', 'Z', 'S', 'B']",True,Z,6,letter,3,False,True,"['robot_stimuli\\\\filler.mp4', 'robot_stimuli\\\\filler.mp4', 'robot_stimuli\\\\filler.mp4', 'robot_stimuli\\\\filler.mp4', 'robot_stimuli\\\\filler.mp4', 'robot_stimuli\\\\filler.mp4']",robot_stimuli\\filler.mp4,8,,,,,,,,,,,,,0,89,89,89,,,,,,,,,,,,,,,,,1863.8230232000005,1864.8871607,,,,,,,,,1865.5462497999997,1869.1147674999993,1865.5462497999997,1869.1147674999993,1865.5462497999997,1869.1147674999993,1865.5462497999997,1869.1147674999993,35.55555555555556,2.8036205000007612,space,,,3.517515800000183,,,,,,,,1849.4938664000001,1849.4938664000001,None,,1861.6040377999998,1863.8230232000005,1864.8871607,1864.8871607,1864.8871607,1864.8871607,c,0.5285966000010376,1849.4938664000001,1849.4938664000001,,,8,001,2024-06-28_15h55.54.757,robot_sternberg_sign,2022.2.5,60.023361092271934,
"['R_Torso_X_Back', 'L_Torso_X_For']",False,R_Base_Y_Back,2,robot,4,True,False,"['robot_stimuli\\R_Torso_X_Back.mp4', 'robot_stimuli\\L_Torso_X_For.mp4']",robot_stimuli\R_Base_Y_Back.mp4,8,,,,,,,,,,,,,0,90,90,90,,,,,,,,,,,,,,,,,1882.0184200999993,1874.6489748000004,,,,,,,,,1886.7498928999994,1886.7498928999994,1886.7498928999994,1886.7498928999994,1886.7498928999994,1886.7498928999994,1886.7498928999994,1886.7498928999994,None,None,None,,,,,,,,,,,1869.1147674999993,1869.1147674999993,space,4.4210065999996,,,,1883.1110929999995,1883.1110929999995,1883.1110929999995,n,1.4090372000009665,,,1878.379982299999,1883.1110929999995,8,001,2024-06-28_15h55.54.757,robot_sternberg_sign,2022.2.5,60.023361092271934,
"['L_Torso_Z_Back', 'L_Arm_Y_For']",False,L_Head_X_For,2,robot,4,False,False,"['robot_stimuli\\L_Torso_Z_Back.mp4', 'robot_stimuli\\L_Arm_Y_For.mp4']",robot_stimuli\L_Head_X_For.mp4,8,,,,,,,,,,,,,0,91,91,91,,,,,,,,,,,,,,,,,1895.0431415000003,1896.1268113999995,,,,,,,,,1899.6994753999988,1899.6994753999988,1899.6994753999988,1899.6994753999988,1899.6994753999988,1899.6994753999988,1899.6994753999988,1899.6994753999988,None,None,None,,,,,,,,,,,1886.7498928999994,1886.7498928999994,None,,,,,1896.1268113999995,1896.1268113999995,1896.1268113999995,n,1.5367248999991716,1886.7498928999994,1886.7498928999994,1891.4075037999992,1896.1268113999995,8,001,2024-06-28_15h55.54.757,robot_sternberg_sign,2022.2.5,60.023361092271934,
"['L_Torso_Y_For', 'R_Base_Y_Back']",False,R_Arm_Y_For,2,robot,4,False,False,"['robot_stimuli\\L_Torso_Y_For.mp4', 'robot_stimuli\\R_Base_Y_Back.mp4']",robot_stimuli\R_Arm_Y_For.mp4,8,,,,,,,,,,,,,0,92,92,92,,,,,,,,,,,,,,,,,1908.139519799999,1909.2402846999994,,,,,,,,,1912.7499052000003,1912.7499052000003,1912.7499052000003,1912.7499052000003,1912.7499052000003,1912.7499052000003,1912.7499052000003,1912.7499052000003,None,None,None,,,,,,,,,,,1899.6994753999988,1899.6994753999988,None,,,,,1909.2402846999994,1909.2402846999994,1909.2402846999994,n,1.2796956000001956,1899.6994753999988,1899.6994753999988,1904.4978054000003,1909.2402846999994,8,001,2024-06-28_15h55.54.757,robot_sternberg_sign,2022.2.5,60.023361092271934,
"['R_Arm_Y_For', 'R_Torso_X_For']",True,R_Arm_Y_For,2,robot,4,False,False,"['robot_stimuli\\R_Arm_Y_For.mp4', 'robot_stimuli\\R_Torso_X_For.mp4']",robot_stimuli\R_Arm_Y_For.mp4,8,,,,,,,,,,,,,0,93,93,93,,,,,,,,,,,,,,,,,1921.071723699999,1922.1640508,,,,,,,,,1925.6783321999992,1925.6783321999992,1925.6783321999992,1925.6783321999992,1925.6783321999992,1925.6783321999992,1925.6783321999992,1925.6783321999992,None,None,None,,,,,,,,,,,1912.7499052000003,1912.7499052000003,None,,,,,1922.1640508,1922.1640508,1922.1640508,c,2.435750200000257,1912.7499052000003,1912.7499052000003,1917.4267089000004,1922.1640508,8,001,2024-06-28_15h55.54.757,robot_sternberg_sign,2022.2.5,60.023361092271934,
"['L_Head_Z_For', 'L_Head_Z_Back']",True,L_Head_Z_Back,2,robot,4,False,False,"['robot_stimuli\\L_Head_Z_For.mp4', 'robot_stimuli\\L_Head_Z_Back.mp4']",robot_stimuli\L_Head_Z_Back.mp4,8,,,,,,,,,,,,,0,94,94,94,,,,,,,,,,,,,,,,,1934.1198636999998,1926.7588636,,,,,,,,,1938.8603129999992,1938.8603129999992,1938.8603129999992,1938.8603129999992,1938.8603129999992,1938.8603129999992,1938.8603129999992,1938.8603129999992,None,None,None,,,,,,,,,,,1925.6783321999992,1925.6783321999992,None,,,,,1935.2131267999994,1935.2131267999994,1935.2131267999994,c,2.9310767999995733,1925.6783321999992,1925.6783321999992,1930.4783472,1935.2131267999994,8,001,2024-06-28_15h55.54.757,robot_sternberg_sign,2022.2.5,60.023361092271934,
"['R_Torso_Z_For', 'R_Head_X_Back']",True,R_Head_X_Back,2,robot,4,False,False,"['robot_stimuli\\R_Torso_Z_For.mp4', 'robot_stimuli\\R_Head_X_Back.mp4']",robot_stimuli\R_Head_X_Back.mp4,8,,,,,,,,,,,,,0,95,95,95,,,,,,,,,,,,,,,,,1947.303932499999,1948.3908308999999,,,,,,,,,1952.0345885999996,1952.0345885999996,1952.0345885999996,1952.0345885999996,1952.0345885999996,1952.0345885999996,1952.0345885999996,1952.0345885999996,None,None,None,,,,,,,,,,,1938.8603129999992,1938.8603129999992,None,,,,,1948.3908308999999,1948.3908308999999,1948.3908308999999,c,2.008968600001026,1938.8603129999992,1938.8603129999992,1943.6639333999992,1948.3908308999999,8,001,2024-06-28_15h55.54.757,robot_sternberg_sign,2022.2.5,60.023361092271934,
"['L_Head_X_Back', 'R_Arm_Y_For']",False,L_Head_Z_For,2,robot,4,False,False,"['robot_stimuli\\L_Head_X_Back.mp4', 'robot_stimuli\\R_Arm_Y_For.mp4']",robot_stimuli\L_Head_Z_For.mp4,8,,,,,,,,,,,,,0,96,96,96,,,,,,,,,,,,,,,,,1960.3388986999998,1961.431204299999,,,,,,,,,1965.0793665,1965.0793665,1965.0793665,1965.0793665,1965.0793665,1965.0793665,1965.0793665,1965.0793665,None,None,None,,,,,,,,,,,1952.0345885999996,1952.0345885999996,None,,,,,1961.431204299999,1961.431204299999,1961.431204299999,n,1.2968560999997862,1952.0345885999996,1952.0345885999996,1956.8324080000002,1961.431204299999,8,001,2024-06-28_15h55.54.757,robot_sternberg_sign,2022.2.5,60.023361092271934,
"['R_Torso_Z_For', 'L_Head_Y_Back']",True,R_Torso_Z_For,2,robot,4,False,False,"['robot_stimuli\\R_Torso_Z_For.mp4', 'robot_stimuli\\L_Head_Y_Back.mp4']",robot_stimuli\R_Torso_Z_For.mp4,8,,,,,,,,,,,,,0,97,97,97,,,,,,,,,,,,,,,,,1973.5361587999996,1966.1566258000003,,,,,,,,,1978.2655868000002,1978.2655868000002,1978.2655868000002,1978.2655868000002,1978.2655868000002,1978.2655868000002,1978.2655868000002,1978.2655868000002,None,None,None,,,,,,,,,,,1965.0793665,1965.0793665,None,,,,,1974.6281084000002,1974.6281084000002,1974.6281084000002,c,2.49219230000017,1965.0793665,1965.0793665,1969.8975040999994,1974.6281084000002,8,001,2024-06-28_15h55.54.757,robot_sternberg_sign,2022.2.5,60.023361092271934,
"['L_Arm_Z_Back', 'R_Base_X_For']",True,L_Arm_Z_Back,2,robot,4,False,False,"['robot_stimuli\\L_Arm_Z_Back.mp4', 'robot_stimuli\\R_Base_X_For.mp4']",robot_stimuli\L_Arm_Z_Back.mp4,8,,,,,,,,,,,,,0,98,98,98,,,,,,,,,,,,,,,,,1986.6043210999997,1987.6983022999993,,,,,,,,,1991.347555299999,1991.347555299999,1991.347555299999,1991.347555299999,1991.347555299999,1991.347555299999,1991.347555299999,1991.347555299999,None,None,None,,,,,,,,,,,1978.2655868000002,1978.2655868000002,None,,,,,1987.6983022999993,1987.6983022999993,1987.6983022999993,c,1.860825300000215,1978.2655868000002,1978.2655868000002,1983.0629128,1987.6983022999993,8,001,2024-06-28_15h55.54.757,robot_sternberg_sign,2022.2.5,60.023361092271934,
"['R_Torso_X_Back', 'R_Torso_X_For']",False,R_Base_X_For,2,robot,4,False,True,"['robot_stimuli\\R_Torso_X_Back.mp4', 'robot_stimuli\\R_Torso_X_For.mp4']",robot_stimuli\R_Base_X_For.mp4,8,,,,,,,,,,,,,0,99,99,99,,,,,,,,,,,,,,,,,1999.7753448000003,2000.8617494999999,,,,,,,,,2004.4260775000002,2007.7025056999992,2004.4260775000002,2007.7025056999992,2004.4260775000002,2007.7025056999992,2004.4260775000002,2007.7025056999992,34.01234567901235,2.936974000000191,space,,,3.2215696000002936,,,,,,,,1991.347555299999,1991.347555299999,None,,,,,2000.8617494999999,2000.8617494999999,2000.8617494999999,n,3.3297075999998924,1991.347555299999,1991.347555299999,1996.1426916,2000.8617494999999,8,001,2024-06-28_15h55.54.757,robot_sternberg_sign,2022.2.5,60.023361092271934,
"['R_Torso_Y_Back', 'L_Base_Y_Back', 'R_Arm_X_For', 'R_Head_Y_Back', 'L_Torso_Z_For', 'R_Base_Y_For']",True,R_Base_Y_For,6,robot,4,True,False,"['robot_stimuli\\R_Torso_Y_Back.mp4', 'robot_stimuli\\L_Base_Y_Back.mp4', 'robot_stimuli\\R_Arm_X_For.mp4', 'robot_stimuli\\R_Head_Y_Back.mp4', 'robot_stimuli\\L_Torso_Z_For.mp4', 'robot_stimuli\\R_Base_Y_For.mp4']",robot_stimuli\R_Base_Y_For.mp4,8,,,,,,,,,,,,,0,100,100,100,,,,,,,,,,,,,,,,,2049.8062922999998,2050.8970897,,,,,,,,,2054.549083099999,2054.549083099999,2054.549083099999,2054.549083099999,2054.549083099999,2054.549083099999,2054.549083099999,2054.549083099999,None,None,None,,,,,,,,,,,2007.7025056999992,2007.7025056999992,space,18.84093120000034,,,,2050.8970897,2050.8970897,2050.8970897,c,2.4457425000000512,,,2046.1593374000004,2050.8970897,8,001,2024-06-28_15h55.54.757,robot_sternberg_sign,2022.2.5,60.023361092271934,
"['L_Arm_Y_Back', 'R_Base_Y_For', 'L_Torso_X_For', 'L_Base_X_For', 'R_Base_Z_Back', 'L_Arm_Z_Back']",True,L_Arm_Y_Back,6,robot,4,False,False,"['robot_stimuli\\L_Arm_Y_Back.mp4', 'robot_stimuli\\R_Base_Y_For.mp4', 'robot_stimuli\\L_Torso_X_For.mp4', 'robot_stimuli\\L_Base_X_For.mp4', 'robot_stimuli\\R_Base_Z_Back.mp4', 'robot_stimuli\\L_Arm_Z_Back.mp4']",robot_stimuli\L_Arm_Y_Back.mp4,8,,,,,,,,,,,,,0,101,101,101,,,,,,,,,,,,,,,,,2077.708416399999,2078.795653699999,,,,,,,,,2082.4330176000003,2082.4330176000003,2082.4330176000003,2082.4330176000003,2082.4330176000003,2082.4330176000003,2082.4330176000003,2082.4330176000003,None,None,None,,,,,,,,,,,2054.549083099999,2054.549083099999,None,,,,,2078.795653699999,2078.795653699999,2078.795653699999,c,3.3012238000010257,2054.549083099999,2054.549083099999,2074.0768919,2078.795653699999,8,001,2024-06-28_15h55.54.757,robot_sternberg_sign,2022.2.5,60.023361092271934,
"['L_Base_Y_For', 'L_Arm_X_Back', 'R_Torso_Y_Back', 'R_Base_X_Back', 'L_Base_Y_Back', 'R_Head_Y_For']",True,L_Base_Y_Back,6,robot,4,False,False,"['robot_stimuli\\L_Base_Y_For.mp4', 'robot_stimuli\\L_Arm_X_Back.mp4', 'robot_stimuli\\R_Torso_Y_Back.mp4', 'robot_stimuli\\R_Base_X_Back.mp4', 'robot_stimuli\\L_Base_Y_Back.mp4', 'robot_stimuli\\R_Head_Y_For.mp4']",robot_stimuli\L_Base_Y_Back.mp4,8,,,,,,,,,,,,,0,102,102,102,,,,,,,,,,,,,,,,,2105.591647199999,2106.693362099999,,,,,,,,,2110.2663527000004,2110.2663527000004,2110.2663527000004,2110.2663527000004,2110.2663527000004,2110.2663527000004,2110.2663527000004,2110.2663527000004,None,None,None,,,,,,,,,,,2082.4330176000003,2082.4330176000003,None,,,,,2106.693362099999,2106.693362099999,2106.693362099999,c,2.9710752999999386,2082.4330176000003,2082.4330176000003,2101.954950199999,2106.693362099999,8,001,2024-06-28_15h55.54.757,robot_sternberg_sign,2022.2.5,60.023361092271934,
"['L_Base_Z_Back', 'R_Head_Y_Back', 'R_Torso_Z_Back', 'R_Base_Z_For', 'R_Base_Y_Back', 'L_Base_Y_Back']",False,R_Head_Z_Back,6,robot,4,False,False,"['robot_stimuli\\L_Base_Z_Back.mp4', 'robot_stimuli\\R_Head_Y_Back.mp4', 'robot_stimuli\\R_Torso_Z_Back.mp4', 'robot_stimuli\\R_Base_Z_For.mp4', 'robot_stimuli\\R_Base_Y_Back.mp4', 'robot_stimuli\\L_Base_Y_Back.mp4']",robot_stimuli\R_Head_Z_Back.mp4,8,,,,,,,,,,,,,0,103,103,103,,,,,,,,,,,,,,,,,2133.5238451999994,2134.6102568000006,,,,,,,,,2138.2622123,2138.2622123,2138.2622123,2138.2622123,2138.2622123,2138.2622123,2138.2622123,2138.2622123,None,None,None,,,,,,,,,,,2110.2663527000004,2110.2663527000004,None,,,,,2134.6102568000006,2134.6102568000006,2134.6102568000006,n,3.197379000001092,2110.2663527000004,2110.2663527000004,2129.9602956,2134.6102568000006,8,001,2024-06-28_15h55.54.757,robot_sternberg_sign,2022.2.5,60.023361092271934,
"['R_Torso_X_Back', 'L_Torso_Y_Back', 'R_Torso_Z_Back', 'R_Base_Z_Back', 'R_Arm_X_Back', 'R_Torso_X_For']",True,R_Torso_Z_Back,6,robot,4,False,False,"['robot_stimuli\\R_Torso_X_Back.mp4', 'robot_stimuli\\L_Torso_Y_Back.mp4', 'robot_stimuli\\R_Torso_Z_Back.mp4', 'robot_stimuli\\R_Base_Z_Back.mp4', 'robot_stimuli\\R_Arm_X_Back.mp4', 'robot_stimuli\\R_Torso_X_For.mp4']",robot_stimuli\R_Torso_Z_Back.mp4,8,,,,,,,,,,,,,0,104,104,104,,,,,,,,,,,,,,,,,2161.3711349000005,2162.462442,,,,,,,,,2166.7673472999995,2166.7673472999995,2166.7673472999995,2166.7673472999995,2166.7673472999995,2166.7673472999995,2166.7673472999995,2166.7673472999995,None,None,None,,,,,,,,,,,2138.2622123,2138.2622123,None,,,,,2162.462442,2162.462442,2162.462442,c,4.264702299999044,2138.2622123,2138.2622123,2157.7410306,2162.462442,8,001,2024-06-28_15h55.54.757,robot_sternberg_sign,2022.2.5,60.023361092271934,
"['R_Torso_X_For', 'R_Base_X_For', 'L_Base_X_Back', 'R_Head_Z_Back', 'R_Arm_Z_Back', 'L_Base_Z_Back']",True,R_Base_X_For,6,robot,4,False,False,"['robot_stimuli\\R_Torso_X_For.mp4', 'robot_stimuli\\R_Base_X_For.mp4', 'robot_stimuli\\L_Base_X_Back.mp4', 'robot_stimuli\\R_Head_Z_Back.mp4', 'robot_stimuli\\R_Arm_Z_Back.mp4', 'robot_stimuli\\L_Base_Z_Back.mp4']",robot_stimuli\R_Base_X_For.mp4,8,,,,,,,,,,,,,0,105,105,105,,,,,,,,,,,,,,,,,2189.9250759000006,2191.010815399999,,,,,,,,,2196.3128694999996,2196.3128694999996,2196.3128694999996,2196.3128694999996,2196.3128694999996,2196.3128694999996,2196.3128694999996,2196.3128694999996,None,None,None,,,,,,,,,,,2166.7673472999995,2166.7673472999995,None,,,,,2191.010815399999,2191.010815399999,2191.010815399999,c,5.269172599999365,2166.7673472999995,2166.7673472999995,2186.293296599999,2191.010815399999,8,001,2024-06-28_15h55.54.757,robot_sternberg_sign,2022.2.5,60.023361092271934,
