sequence,odd_ones,parameter,choices,target,target_idx,condition,stimuli,block,is_block_beginning,is_block_ending,sequence_fnames,target_fname,subject,retraining.thisRepN,retraining.thisTrialN,retraining.thisN,retraining.thisIndex,training.thisRepN,training.thisTrialN,training.thisN,training.thisIndex,training_sequence_loop.thisRepN,training_sequence_loop.thisTrialN,training_sequence_loop.thisN,training_sequence_loop.thisIndex,trials.thisRepN,trials.thisTrialN,trials.thisN,trials.thisIndex,sequence_loop.thisRepN,sequence_loop.thisTrialN,sequence_loop.thisN,sequence_loop.thisIndex,langage_text.started,langage_key.started,langage_key.keys,langage_key.rt,intro_text.started,intro_key.started,intro_key.keys,intro_key.rt,training_intro_text.started,training_intro_key.started,training_intro_key.keys,training_intro_key.rt,polygon.started,cue_before_text.started,training_presentation_letter.started,training_presentation_letter.stopped,recall_key.started,recall_question.started,recall_answer.started,recall_key.keys,recall_key.rt,RSME_labels.started,RSME_labels.stopped,RSME_ticks.started,RSME_ticks.stopped,RSME_text.started,RSME_text.stopped,RSME_key.started,RSME_key.stopped,RSME_ticks.response,RSME_ticks.rt,RSME_key.keys,training_intro_text.stopped,training_intro_key.stopped,polygon.stopped,cue_before_text.stopped,RSME_key.rt,training_presentation_movie.started,experiment_beginning_text.started,experiment_beginning_keys.started,experiment_beginning_key.started,experiment_beginning_key.keys,experiment_beginning_key.rt,block_intro_text.started,block_intro_key.started,block_intro_key.keys,block_intro_key.rt,presentation_letter.started,presentation_letter.stopped,block_intro_text.stopped,block_intro_key.stopped,presentation_movie.started,participant,session,date,expName,psychopyVersion,frameRate,
,,,,,,,,,,,,,,,,,,,,,,,,,,,,,,,,,,26.303401899989694,26.303401899989694,e,10.600762799847871,,,,,,,,,,,,,,,,,,,,,,,,,,,,,,,,,,,,,,,,,,,,,,,,,20,001,2024-09-19_15h05.44.769,robot_cogshifting_sign,2022.2.5,59.867477291026624,
,,,,,,,,,,,,,,,,,,,,,,,,,,,,,,,,,,,,,,36.95651810010895,36.95651810010895,space,17.002958299592137,,,,,,,,,,,,,,,,,,,,,,,,,,,,,,,,,,,,,,,,,,,,,20,001,2024-09-19_15h05.44.769,robot_cogshifting_sign,2022.2.5,59.867477291026624,
"['red_bottom_V_0', 'red_bottom_R_45', 'blue_bottom_N_45', 'red_left_P_45']","{'color': 'blue_bottom_N_45', 'position': 'red_left_P_45', 'orientation': 'red_bottom_V_0'}",orientation,['orientation'],red_bottom_V_0,0,1,letter,1,True,False,"['robot_stimuli\\\\filler.mp4', 'robot_stimuli\\\\filler.mp4', 'robot_stimuli\\\\filler.mp4', 'robot_stimuli\\\\filler.mp4']",robot_stimuli\\filler.mp4,20,0,0,0,0,0,0,0,0,,,,,,,,,,,,,,,,,,,,,54.023456499911845,54.023456499911845,space,2.935051499865949,56.97925510024652,57.98120599985123,67.91748399985954,69.95476840017363,69.95476840017363,69.95476840017363,69.95476840017363,1,0.6213552998378873,70.62273829989135,70.62273829989135,70.62273829989135,70.62273829989135,70.62273829989135,70.62273829989135,70.62273829989135,70.62273829989135,None,None,None,,,,,,,,,,,,,,,,,,,,,20,001,2024-09-19_15h05.44.769,robot_cogshifting_sign,2022.2.5,59.867477291026624,
"['red_top_S_45', 'red_left_K_45', 'blue_top_Q_45', 'red_top_Z_0']","{'color': 'blue_top_Q_45', 'position': 'red_left_K_45', 'orientation': 'red_top_Z_0'}",position,['position'],red_left_K_45,1,1,letter,1,False,False,"['robot_stimuli\\\\filler.mp4', 'robot_stimuli\\\\filler.mp4', 'robot_stimuli\\\\filler.mp4', 'robot_stimuli\\\\filler.mp4']",robot_stimuli\\filler.mp4,20,0,0,0,0,0,1,1,1,,,,,,,,,,,,,,,,,,,,,70.62273829989135,70.62273829989135,None,,70.62273829989135,71.62469050008804,80.00804409990087,82.2289150999859,82.2289150999859,82.2289150999859,82.2289150999859,2,0.7793218996375799,83.03047280013561,83.03047280013561,83.03047280013561,83.03047280013561,83.03047280013561,83.03047280013561,83.03047280013561,83.03047280013561,None,None,None,70.62273829989135,70.62273829989135,71.62469050008804,,,,,,,,,,,,,,,,,,20,001,2024-09-19_15h05.44.769,robot_cogshifting_sign,2022.2.5,59.867477291026624,
"['blue_left_B_45', 'blue_bottom_T_0', 'red_bottom_H_45', 'blue_bottom_L_45']","{'color': 'red_bottom_H_45', 'position': 'blue_left_B_45', 'orientation': 'blue_bottom_T_0'}",color,['color'],red_bottom_H_45,2,1,letter,1,False,True,"['robot_stimuli\\\\filler.mp4', 'robot_stimuli\\\\filler.mp4', 'robot_stimuli\\\\filler.mp4', 'robot_stimuli\\\\filler.mp4']",robot_stimuli\\filler.mp4,20,0,0,0,0,0,2,2,2,,,,,,,,,,,,,,,,,,,,,83.03047280013561,83.03047280013561,None,,83.03047280013561,84.03246300015599,92.61609440017492,94.83709859987721,94.83709859987721,94.83709859987721,94.83709859987721,3,1.3706399998627603,96.28988859988749,105.74180860025808,96.28988859988749,105.74180860025808,96.28988859988749,105.74180860025808,96.28988859988749,105.74180860025808,10.238095238095235,8.142584099899977,space,83.03047280013561,83.03047280013561,84.03246300015599,86.10318630002439,9.38886719988659,,,,,,,,,,,,,,,,20,001,2024-09-19_15h05.44.769,robot_cogshifting_sign,2022.2.5,59.867477291026624,
"['red_right_C_45', 'red_top_L_45', 'blue_top_W_45', 'red_top_R_0']","{'color': 'blue_top_W_45', 'position': 'red_right_C_45', 'orientation': 'red_top_R_0'}",orientation,"['color', 'orientation']",red_top_R_0,3,2,letter,1,True,False,"['robot_stimuli\\\\filler.mp4', 'robot_stimuli\\\\filler.mp4', 'robot_stimuli\\\\filler.mp4', 'robot_stimuli\\\\filler.mp4']",robot_stimuli\\filler.mp4,20,0,0,0,0,0,3,3,3,,,,,,,,,,,,,,,,,,,,,105.74180860025808,105.74180860025808,space,2.9847926003858447,108.74777680030093,109.74972560023889,118.11625860026106,120.15353220002726,120.15353220002726,120.15353220002726,120.15353220002726,4,3.5896441000513732,123.76059650024399,123.76059650024399,123.76059650024399,123.76059650024399,123.76059650024399,123.76059650024399,123.76059650024399,123.76059650024399,None,None,None,,,,,,,,,,,,,,,,,,,,,20,001,2024-09-19_15h05.44.769,robot_cogshifting_sign,2022.2.5,59.867477291026624,
"['red_right_X_45', 'red_right_X_0', 'red_top_V_0', 'blue_right_T_0']","{'color': 'blue_right_T_0', 'position': 'red_top_V_0', 'orientation': 'red_right_X_45'}",position,"['color', 'position']",red_top_V_0,2,2,letter,1,False,False,"['robot_stimuli\\\\filler.mp4', 'robot_stimuli\\\\filler.mp4', 'robot_stimuli\\\\filler.mp4', 'robot_stimuli\\\\filler.mp4']",robot_stimuli\\filler.mp4,20,0,0,0,0,0,4,4,4,,,,,,,,,,,,,,,,,,,,,123.76059650024399,123.76059650024399,None,,123.76059650024399,124.76257590018213,133.32945400010794,135.36677760025486,135.36677760025486,135.36677760025486,135.36677760025486,3,2.83259110013023,138.22243960015476,138.22243960015476,138.22243960015476,138.22243960015476,138.22243960015476,138.22243960015476,138.22243960015476,138.22243960015476,None,None,None,123.76059650024399,123.76059650024399,124.76257590018213,126.83335740026087,,,,,,,,,,,,,,,,,20,001,2024-09-19_15h05.44.769,robot_cogshifting_sign,2022.2.5,59.867477291026624,
"['red_right_V_45', 'blue_right_B_0', 'red_top_G_0', 'red_right_K_0']","{'color': 'blue_right_B_0', 'position': 'red_top_G_0', 'orientation': 'red_right_V_45'}",color,"['color', 'position']",blue_right_B_0,1,2,letter,1,False,True,"['robot_stimuli\\\\filler.mp4', 'robot_stimuli\\\\filler.mp4', 'robot_stimuli\\\\filler.mp4', 'robot_stimuli\\\\filler.mp4']",robot_stimuli\\filler.mp4,20,0,0,0,0,0,5,5,5,,,,,,,,,,,,,,,,,,,,,138.22243960015476,138.22243960015476,None,,138.22243960015476,139.2243774002418,147.79142710007727,149.82858860027045,149.82858860027045,149.82858860027045,149.82858860027045,2,1.9717800999060273,151.86593780014664,155.6400383003056,151.86593780014664,155.6400383003056,151.86593780014664,155.6400383003056,151.86593780014664,155.6400383003056,40.71428571428572,2.782451399601996,space,138.22243960015476,138.22243960015476,139.2243774002418,141.2951020002365,3.6933377999812365,,,,,,,,,,,,,,,,20,001,2024-09-19_15h05.44.769,robot_cogshifting_sign,2022.2.5,59.867477291026624,
"['red_right_C_45', 'blue_right_W_45', 'blue_top_B_45', 'blue_right_B_0']","{'color': 'red_right_C_45', 'position': 'blue_top_B_45', 'orientation': 'blue_right_B_0'}",position,"['color', 'orientation', 'position']",blue_top_B_45,2,3,letter,1,True,False,"['robot_stimuli\\\\filler.mp4', 'robot_stimuli\\\\filler.mp4', 'robot_stimuli\\\\filler.mp4', 'robot_stimuli\\\\filler.mp4']",robot_stimuli\\filler.mp4,20,0,0,0,0,0,6,6,6,,,,,,,,,,,,,,,,,,,,,155.6400383003056,155.6400383003056,space,4.919886699877679,160.58308040024713,161.58500140020624,170.15190620021895,172.18928040005267,172.18928040005267,172.18928040005267,172.18928040005267,3,3.7146356999874115,175.9299794002436,175.9299794002436,175.9299794002436,175.9299794002436,175.9299794002436,175.9299794002436,175.9299794002436,175.9299794002436,None,None,None,,,,,,,,,,,,,,,,,,,,,20,001,2024-09-19_15h05.44.769,robot_cogshifting_sign,2022.2.5,59.867477291026624,
"['red_left_N_45', 'red_right_X_45', 'blue_left_R_45', 'red_left_P_0']","{'color': 'blue_left_R_45', 'position': 'red_right_X_45', 'orientation': 'red_left_P_0'}",color,"['color', 'orientation', 'position']",blue_left_R_45,2,3,letter,1,False,False,"['robot_stimuli\\\\filler.mp4', 'robot_stimuli\\\\filler.mp4', 'robot_stimuli\\\\filler.mp4', 'robot_stimuli\\\\filler.mp4']",robot_stimuli\\filler.mp4,20,0,0,0,0,0,7,7,7,,,,,,,,,,,,,,,,,,,,,175.9299794002436,175.9299794002436,None,,175.9299794002436,176.9319302001968,185.68250290025026,187.7198822000064,187.7198822000064,187.7198822000064,187.7198822000064,3,4.151326700113714,191.89468510029837,191.89468510029837,191.89468510029837,191.89468510029837,191.89468510029837,191.89468510029837,191.89468510029837,191.89468510029837,None,None,None,175.9299794002436,175.9299794002436,176.9319302001968,179.00314410030842,,,,,,,,,,,,,,,,,20,001,2024-09-19_15h05.44.769,robot_cogshifting_sign,2022.2.5,59.867477291026624,
"['red_right_Z_45', 'red_bottom_R_45', 'red_right_L_0', 'blue_right_Q_45']","{'color': 'blue_right_Q_45', 'position': 'red_bottom_R_45', 'orientation': 'red_right_L_0'}",orientation,"['color', 'orientation', 'position']",red_right_L_0,2,3,letter,1,False,True,"['robot_stimuli\\\\filler.mp4', 'robot_stimuli\\\\filler.mp4', 'robot_stimuli\\\\filler.mp4', 'robot_stimuli\\\\filler.mp4']",robot_stimuli\\filler.mp4,20,0,0,0,0,0,8,8,8,,,,,,,,,,,,,,,,,,,,,191.89468510029837,191.89468510029837,None,,191.89468510029837,192.89664949988946,201.44682110007852,203.46745290001854,203.46745290001854,203.46745290001854,203.46745290001854,2,4.42848900007084,207.95964200003073,215.77502549998462,207.95964200003073,215.77502549998462,207.95964200003073,215.77502549998462,207.95964200003073,215.77502549998462,80.23809523809524,4.852865299675614,space,191.89468510029837,191.89468510029837,192.89664949988946,194.96748170023784,7.760571999941021,,,,,,,,,,,,,,,,20,001,2024-09-19_15h05.44.769,robot_cogshifting_sign,2022.2.5,59.867477291026624,
"['L_Head_X_Back', 'L_Base_Z_Back', 'L_Base_X_Back', 'R_Base_X_Back']","{'laterality': 'R_Base_X_Back', 'localisation': 'L_Head_X_Back', 'movement': 'L_Base_Z_Back'}",localisation,['localisation'],L_Head_X_Back,0,1,robot,2,True,False,"['robot_stimuli\\L_Head_X_Back.mp4', 'robot_stimuli\\L_Base_Z_Back.mp4', 'robot_stimuli\\L_Base_X_Back.mp4', 'robot_stimuli\\R_Base_X_Back.mp4']",robot_stimuli\L_Head_X_Back.mp4,20,0,0,0,0,0,9,9,9,,,,,,,,,,,,,,,,,,,,,215.77502549998462,215.77502549998462,space,3.9036325002089143,219.69938250025734,220.70136630022898,,,237.56850979989395,237.56850979989395,237.56850979989395,1,2.4621905996464193,240.0561235002242,240.0561235002242,240.0561235002242,240.0561235002242,240.0561235002242,240.0561235002242,240.0561235002242,240.0561235002242,None,None,None,,,,,,233.92737910011783,,,,,,,,,,,,,,,20,001,2024-09-19_15h05.44.769,robot_cogshifting_sign,2022.2.5,59.867477291026624,
"['R_Base_Z_For', 'L_Base_Z_Back', 'R_Head_Z_For', 'R_Base_Y_Back']","{'laterality': 'L_Base_Z_Back', 'localisation': 'R_Head_Z_For', 'movement': 'R_Base_Y_Back'}",laterality,['laterality'],L_Base_Z_Back,1,1,robot,2,False,False,"['robot_stimuli\\R_Base_Z_For.mp4', 'robot_stimuli\\L_Base_Z_Back.mp4', 'robot_stimuli\\R_Head_Z_For.mp4', 'robot_stimuli\\R_Base_Y_Back.mp4']",robot_stimuli\L_Base_Z_Back.mp4,20,0,0,0,0,0,10,10,10,,,,,,,,,,,,,,,,,,,,,240.0561235002242,240.0561235002242,None,,240.0561235002242,241.05808940017596,,,257.97495960025117,257.97495960025117,257.97495960025117,2,1.2874724003486335,259.29396669985726,259.29396669985726,259.29396669985726,259.29396669985726,259.29396669985726,259.29396669985726,259.29396669985726,259.29396669985726,None,None,None,240.0561235002242,240.0561235002242,241.05808940017596,243.162270499859,,254.33418040024117,,,,,,,,,,,,,,,20,001,2024-09-19_15h05.44.769,robot_cogshifting_sign,2022.2.5,59.867477291026624,
"['L_Arm_Z_For', 'R_Arm_Y_For', 'L_Arm_Y_Back', 'L_Head_Y_Back']","{'laterality': 'R_Arm_Y_For', 'localisation': 'L_Head_Y_Back', 'movement': 'L_Arm_Z_For'}",movement,['movement'],L_Arm_Z_For,0,1,robot,2,False,True,"['robot_stimuli\\L_Arm_Z_For.mp4', 'robot_stimuli\\R_Arm_Y_For.mp4', 'robot_stimuli\\L_Arm_Y_Back.mp4', 'robot_stimuli\\L_Head_Y_Back.mp4']",robot_stimuli\L_Arm_Z_For.mp4,20,0,0,0,0,0,11,11,11,,,,,,,,,,,,,,,,,,,,,259.29396669985726,259.29396669985726,None,,259.29396669985726,260.29594939993694,,,277.0455753998831,277.0455753998831,277.0455753998831,4,4.953238400164992,282.0554658998735,287.0653138998896,282.0554658998735,287.0653138998896,282.0554658998735,287.0653138998896,282.0554658998735,287.0653138998896,40.238095238095234,2.9725329000502825,space,259.29396669985726,259.29396669985726,260.29594939993694,262.38344500027597,4.959910400211811,273.4051097999327,,,,,,,,,,,,,,,20,001,2024-09-19_15h05.44.769,robot_cogshifting_sign,2022.2.5,59.867477291026624,
"['L_Head_Z_For', 'R_Head_Z_For', 'L_Head_X_For', 'L_Torso_Z_Back']","{'laterality': 'R_Head_Z_For', 'localisation': 'L_Torso_Z_Back', 'movement': 'L_Head_X_For'}",movement,"['laterality', 'movement']",L_Head_X_For,2,2,robot,2,True,False,"['robot_stimuli\\L_Head_Z_For.mp4', 'robot_stimuli\\R_Head_Z_For.mp4', 'robot_stimuli\\L_Head_X_For.mp4', 'robot_stimuli\\L_Torso_Z_Back.mp4']",robot_stimuli\L_Head_X_For.mp4,20,0,0,0,0,0,12,12,12,,,,,,,,,,,,,,,,,,,,,287.0653138998896,287.0653138998896,space,2.445404199883342,289.5368411000818,290.5387927000411,,,307.221606799867,307.221606799867,307.221606799867,3,6.265296699944884,313.51735730003566,313.51735730003566,313.51735730003566,313.51735730003566,313.51735730003566,313.51735730003566,313.51735730003566,313.51735730003566,None,None,None,,,,,,303.7314658998512,,,,,,,,,,,,,,,20,001,2024-09-19_15h05.44.769,robot_cogshifting_sign,2022.2.5,59.867477291026624,
"['R_Head_Y_For', 'R_Head_X_Back', 'R_Base_Y_For', 'L_Head_Y_Back']","{'laterality': 'L_Head_Y_Back', 'localisation': 'R_Base_Y_For', 'movement': 'R_Head_X_Back'}",laterality,"['laterality', 'localisation']",L_Head_Y_Back,3,2,robot,2,False,False,"['robot_stimuli\\R_Head_Y_For.mp4', 'robot_stimuli\\R_Head_X_Back.mp4', 'robot_stimuli\\R_Base_Y_For.mp4', 'robot_stimuli\\L_Head_Y_Back.mp4']",robot_stimuli\L_Head_Y_Back.mp4,20,0,0,0,0,0,13,13,13,,,,,,,,,,,,,,,,,,,,,313.51735730003566,313.51735730003566,None,,313.51735730003566,314.5193290002644,,,331.40254830010235,331.40254830010235,331.40254830010235,3,3.9809268000535667,335.410493100062,335.410493100062,335.410493100062,335.410493100062,335.410493100062,335.410493100062,335.410493100062,335.410493100062,None,None,None,313.51735730003566,313.51735730003566,314.5193290002644,316.6067909002304,,327.76211029989645,,,,,,,,,,,,,,,20,001,2024-09-19_15h05.44.769,robot_cogshifting_sign,2022.2.5,59.867477291026624,
"['R_Head_X_For', 'R_Torso_Z_Back', 'L_Torso_X_Back', 'R_Torso_X_Back']","{'laterality': 'L_Torso_X_Back', 'localisation': 'R_Head_X_For', 'movement': 'R_Torso_Z_Back'}",localisation,"['laterality', 'localisation']",R_Head_X_For,0,2,robot,2,False,True,"['robot_stimuli\\R_Head_X_For.mp4', 'robot_stimuli\\R_Torso_Z_Back.mp4', 'robot_stimuli\\L_Torso_X_Back.mp4', 'robot_stimuli\\R_Torso_X_Back.mp4']",robot_stimuli\R_Head_X_For.mp4,20,0,0,0,0,0,14,14,14,,,,,,,,,,,,,,,,,,,,,335.410493100062,335.410493100062,None,,335.410493100062,336.41242110030726,,,353.3123225001618,353.3123225001618,353.3123225001618,1,4.478674599900842,357.8546247999184,362.3301150999032,357.8546247999184,362.3301150999032,357.8546247999184,362.3301150999032,357.8546247999184,362.3301150999032,91.1904761904762,2.71543120034039,space,335.410493100062,335.410493100062,336.41242110030726,338.4998878003098,4.42439080029726,349.67189380014315,,,,,,,,,,,,,,,20,001,2024-09-19_15h05.44.769,robot_cogshifting_sign,2022.2.5,59.867477291026624,
"['L_Base_Y_For', 'R_Base_X_Back', 'L_Arm_X_For', 'L_Base_X_Back']","{'laterality': 'R_Base_X_Back', 'localisation': 'L_Arm_X_For', 'movement': 'L_Base_Y_For'}",movement,"['laterality', 'localisation', 'movement']",L_Base_Y_For,0,3,robot,2,True,False,"['robot_stimuli\\L_Base_Y_For.mp4', 'robot_stimuli\\R_Base_X_Back.mp4', 'robot_stimuli\\L_Arm_X_For.mp4', 'robot_stimuli\\L_Base_X_Back.mp4']",robot_stimuli\L_Base_Y_For.mp4,20,0,0,0,0,0,15,15,15,,,,,,,,,,,,,,,,,,,,,362.3301150999032,362.3301150999032,space,3.3328637001104653,365.68667440023273,366.68863830016926,,,383.4717439999804,383.4717439999804,383.4717439999804,3,5.232140200212598,388.73202780028805,388.73202780028805,388.73202780028805,388.73202780028805,388.73202780028805,388.73202780028805,388.73202780028805,388.73202780028805,None,None,None,,,,,,379.8646829002537,,,,,,,,,,,,,,,20,001,2024-09-19_15h05.44.769,robot_cogshifting_sign,2022.2.5,59.867477291026624,
"['L_Head_Y_Back', 'L_Arm_X_For', 'L_Arm_Y_Back', 'R_Arm_Y_For']","{'laterality': 'R_Arm_Y_For', 'localisation': 'L_Head_Y_Back', 'movement': 'L_Arm_X_For'}",localisation,"['laterality', 'localisation', 'movement']",L_Head_Y_Back,0,3,robot,2,False,False,"['robot_stimuli\\L_Head_Y_Back.mp4', 'robot_stimuli\\L_Arm_X_For.mp4', 'robot_stimuli\\L_Arm_Y_Back.mp4', 'robot_stimuli\\R_Arm_Y_For.mp4']",robot_stimuli\L_Head_Y_Back.mp4,20,0,0,0,0,0,16,16,16,,,,,,,,,,,,,,,,,,,,,388.73202780028805,388.73202780028805,None,,388.73202780028805,389.73403279995546,,,406.5170486001298,406.5170486001298,406.5170486001298,1,3.937654100358486,410.4748816001229,410.4748816001229,410.4748816001229,410.4748816001229,410.4748816001229,410.4748816001229,410.4748816001229,410.4748816001229,None,None,None,388.73202780028805,388.73202780028805,389.73403279995546,391.82148930011317,,403.01014900021255,,,,,,,,,,,,,,,20,001,2024-09-19_15h05.44.769,robot_cogshifting_sign,2022.2.5,59.867477291026624,
"['L_Base_Y_For', 'R_Base_Y_Back', 'R_Base_Z_Back', 'R_Head_Y_For']","{'laterality': 'L_Base_Y_For', 'localisation': 'R_Head_Y_For', 'movement': 'R_Base_Z_Back'}",laterality,"['laterality', 'localisation', 'movement']",L_Base_Y_For,0,3,robot,2,False,True,"['robot_stimuli\\L_Base_Y_For.mp4', 'robot_stimuli\\R_Base_Y_Back.mp4', 'robot_stimuli\\R_Base_Z_Back.mp4', 'robot_stimuli\\R_Head_Y_For.mp4']",robot_stimuli\L_Base_Y_For.mp4,20,0,0,0,0,0,17,17,17,,,,,,,,,,,,,,,,,,,,,410.4748816001229,410.4748816001229,None,,410.4748816001229,411.47681639995426,,,428.1763368998654,428.1763368998654,428.1763368998654,2,10.302776399999857,438.5301206000149,441.50260430015624,438.5301206000149,441.50260430015624,438.5301206000149,441.50260430015624,438.5301206000149,441.50260430015624,99.28571428571428,2.1469171000644565,space,410.4748816001229,410.4748816001229,411.47681639995426,413.5642591002397,2.9003884000703692,424.51915210019797,,,,,,,,,,,,,,,20,001,2024-09-19_15h05.44.769,robot_cogshifting_sign,2022.2.5,59.867477291026624,
,,,,,,,,,,,,,,0,0,0,0,,,,,,,,,,,,,,,,,,,,,,,,,,,,,,,,,,,,,,,,,,,,,,,,,,,,,,,441.50260430015624,441.50260430015624,441.50260430015624,c,26.28832140006125,,,,,,,,,,20,001,2024-09-19_15h05.44.769,robot_cogshifting_sign,2022.2.5,59.867477291026624,
"['red_bottom_K_0', 'red_right_X_0', 'blue_right_M_0', 'red_right_H_45']","{'color': 'blue_right_M_0', 'position': 'red_bottom_K_0', 'orientation': 'red_right_H_45'}",position,['position'],red_bottom_K_0,0,1,letter,1,True,False,"['robot_stimuli\\\\filler.mp4', 'robot_stimuli\\\\filler.mp4', 'robot_stimuli\\\\filler.mp4', 'robot_stimuli\\\\filler.mp4']",robot_stimuli\\filler.mp4,20,,,,,,,,,,,,,0,0,0,0,,,,,,,,,,,,,,,,,,470.5764899998903,,,481.2976347999647,481.2976347999647,481.2976347999647,1,2.1411044001579285,483.4685136000626,483.4685136000626,483.4685136000626,483.4685136000626,483.4685136000626,483.4685136000626,483.4685136000626,483.4685136000626,None,None,None,,,,,,,,,,,,467.8544970001094,467.8544970001094,space,2.7051399000920355,479.09325780021027,481.2976347999647,,,,20,001,2024-09-19_15h05.44.769,robot_cogshifting_sign,2022.2.5,59.867477291026624,
"['red_left_V_45', 'red_bottom_H_45', 'blue_left_N_45', 'red_left_F_0']","{'color': 'blue_left_N_45', 'position': 'red_bottom_H_45', 'orientation': 'red_left_F_0'}",orientation,['orientation'],red_left_F_0,3,1,letter,1,False,False,"['robot_stimuli\\\\filler.mp4', 'robot_stimuli\\\\filler.mp4', 'robot_stimuli\\\\filler.mp4', 'robot_stimuli\\\\filler.mp4']",robot_stimuli\\filler.mp4,20,,,,,,,,,,,,,0,1,1,1,,,,,,,,,,,,,,,,,,483.4685136000626,,,494.22305000014603,494.22305000014603,494.22305000014603,4,0.935901700053364,495.19159370008856,495.19159370008856,495.19159370008856,495.19159370008856,495.19159370008856,495.19159370008856,495.19159370008856,495.19159370008856,None,None,None,,,,485.5392966000363,,,,,,,,483.4685136000626,483.4685136000626,None,,492.2024547001347,494.22305000014603,483.4685136000626,483.4685136000626,,20,001,2024-09-19_15h05.44.769,robot_cogshifting_sign,2022.2.5,59.867477291026624,
"['red_bottom_M_45', 'blue_top_W_45', 'red_top_Z_45', 'red_top_B_0']","{'color': 'blue_top_W_45', 'position': 'red_bottom_M_45', 'orientation': 'red_top_B_0'}",orientation,['orientation'],red_top_B_0,3,1,letter,1,False,False,"['robot_stimuli\\\\filler.mp4', 'robot_stimuli\\\\filler.mp4', 'robot_stimuli\\\\filler.mp4', 'robot_stimuli\\\\filler.mp4']",robot_stimuli\\filler.mp4,20,,,,,,,,,,,,,0,2,2,2,,,,,,,,,,,,,,,,,,495.19159370008856,,,505.9460733998567,505.9460733998567,505.9460733998567,4,0.6126577001996338,506.5806942000054,506.5806942000054,506.5806942000054,506.5806942000054,506.5806942000054,506.5806942000054,506.5806942000054,506.5806942000054,None,None,None,,,,497.2623701002449,,,,,,,,495.19159370008856,495.19159370008856,None,,503.9254864002578,505.9460733998567,495.19159370008856,495.19159370008856,,20,001,2024-09-19_15h05.44.769,robot_cogshifting_sign,2022.2.5,59.867477291026624,
"['blue_left_M_0', 'blue_top_V_0', 'red_left_H_0', 'blue_left_Q_45']","{'color': 'red_left_H_0', 'position': 'blue_top_V_0', 'orientation': 'blue_left_Q_45'}",color,['color'],red_left_H_0,2,1,letter,1,False,False,"['robot_stimuli\\\\filler.mp4', 'robot_stimuli\\\\filler.mp4', 'robot_stimuli\\\\filler.mp4', 'robot_stimuli\\\\filler.mp4']",robot_stimuli\\filler.mp4,20,,,,,,,,,,,,,0,3,3,3,,,,,,,,,,,,,,,,,,506.5806942000054,,,517.3518961002119,517.3518961002119,517.3518961002119,3,0.5192048996686935,517.9029811001383,517.9029811001383,517.9029811001383,517.9029811001383,517.9029811001383,517.9029811001383,517.9029811001383,517.9029811001383,None,None,None,,,,508.65153559995815,,,,,,,,506.5806942000054,506.5806942000054,None,,515.1308666002005,517.3518961002119,506.5806942000054,506.5806942000054,,20,001,2024-09-19_15h05.44.769,robot_cogshifting_sign,2022.2.5,59.867477291026624,
"['red_left_K_45', 'red_left_B_0', 'blue_left_S_45', 'red_bottom_J_45']","{'color': 'blue_left_S_45', 'position': 'red_bottom_J_45', 'orientation': 'red_left_B_0'}",color,['color'],blue_left_S_45,2,1,letter,1,False,False,"['robot_stimuli\\\\filler.mp4', 'robot_stimuli\\\\filler.mp4', 'robot_stimuli\\\\filler.mp4', 'robot_stimuli\\\\filler.mp4']",robot_stimuli\\filler.mp4,20,,,,,,,,,,,,,0,4,4,4,,,,,,,,,,,,,,,,,,517.9029811001383,,,528.8244453999214,528.8244453999214,528.8244453999214,3,0.9352784999646246,529.7930764001794,529.7930764001794,529.7930764001794,529.7930764001794,529.7930764001794,529.7930764001794,529.7930764001794,529.7930764001794,None,None,None,,,,519.9570595002733,,,,,,,,517.9029811001383,517.9029811001383,None,,526.6201585000381,528.8244453999214,517.9029811001383,517.9029811001383,,20,001,2024-09-19_15h05.44.769,robot_cogshifting_sign,2022.2.5,59.867477291026624,
"['red_left_C_45', 'red_bottom_S_45', 'red_left_Q_0', 'blue_left_K_45']","{'color': 'blue_left_K_45', 'position': 'red_bottom_S_45', 'orientation': 'red_left_Q_0'}",position,['position'],red_bottom_S_45,1,1,letter,1,False,False,"['robot_stimuli\\\\filler.mp4', 'robot_stimuli\\\\filler.mp4', 'robot_stimuli\\\\filler.mp4', 'robot_stimuli\\\\filler.mp4']",robot_stimuli\\filler.mp4,20,,,,,,,,,,,,,0,5,5,5,,,,,,,,,,,,,,,,,,529.7930764001794,,,540.3306415001862,540.3306415001862,540.3306415001862,2,0.4605653998441994,540.814747700002,540.814747700002,540.814747700002,540.814747700002,540.814747700002,540.814747700002,540.814747700002,540.814747700002,None,None,None,,,,,,,,,,,,529.7930764001794,529.7930764001794,None,,538.309893600177,540.3306415001862,529.7930764001794,529.7930764001794,,20,001,2024-09-19_15h05.44.769,robot_cogshifting_sign,2022.2.5,59.867477291026624,
"['red_top_Q_0', 'blue_top_H_45', 'red_top_F_45', 'red_bottom_X_45']","{'color': 'blue_top_H_45', 'position': 'red_bottom_X_45', 'orientation': 'red_top_Q_0'}",color,['color'],blue_top_H_45,1,1,letter,1,False,False,"['robot_stimuli\\\\filler.mp4', 'robot_stimuli\\\\filler.mp4', 'robot_stimuli\\\\filler.mp4', 'robot_stimuli\\\\filler.mp4']",robot_stimuli\\filler.mp4,20,,,,,,,,,,,,,0,6,6,6,,,,,,,,,,,,,,,,,,540.814747700002,,,551.5525118000805,551.5525118000805,551.5525118000805,2,0.6315776999108493,552.2038270998746,552.2038270998746,552.2038270998746,552.2038270998746,552.2038270998746,552.2038270998746,552.2038270998746,552.2038270998746,None,None,None,,,,542.8855713000521,,,,,,,,540.814747700002,540.814747700002,None,,549.5334769999608,551.5525118000805,540.814747700002,540.814747700002,,20,001,2024-09-19_15h05.44.769,robot_cogshifting_sign,2022.2.5,59.867477291026624,
"['blue_bottom_L_45', 'red_bottom_L_45', 'red_bottom_W_0', 'red_right_N_45']","{'color': 'blue_bottom_L_45', 'position': 'red_right_N_45', 'orientation': 'red_bottom_W_0'}",position,['position'],red_right_N_45,3,1,letter,1,False,False,"['robot_stimuli\\\\filler.mp4', 'robot_stimuli\\\\filler.mp4', 'robot_stimuli\\\\filler.mp4', 'robot_stimuli\\\\filler.mp4']",robot_stimuli\\filler.mp4,20,,,,,,,,,,,,,0,7,7,7,,,,,,,,,,,,,,,,,,552.2038270998746,,,563.3591054002754,563.3591054002754,563.3591054002754,4,0.7845713002607226,564.1607103999704,564.1607103999704,564.1607103999704,564.1607103999704,564.1607103999704,564.1607103999704,564.1607103999704,564.1607103999704,None,None,None,,,,554.2746103000827,,,,,,,,552.2038270998746,552.2038270998746,None,,561.138099399861,563.3591054002754,552.2038270998746,552.2038270998746,,20,001,2024-09-19_15h05.44.769,robot_cogshifting_sign,2022.2.5,59.867477291026624,
"['red_bottom_P_0', 'blue_right_D_0', 'blue_bottom_M_45', 'blue_bottom_F_0']","{'color': 'red_bottom_P_0', 'position': 'blue_right_D_0', 'orientation': 'blue_bottom_M_45'}",orientation,['orientation'],blue_bottom_M_45,2,1,letter,1,False,True,"['robot_stimuli\\\\filler.mp4', 'robot_stimuli\\\\filler.mp4', 'robot_stimuli\\\\filler.mp4', 'robot_stimuli\\\\filler.mp4']",robot_stimuli\\filler.mp4,20,,,,,,,,,,,,,0,8,8,8,,,,,,,,,,,,,,,,,,564.1607103999704,,,574.7148143001832,574.7148143001832,574.7148143001832,3,0.4517650003544986,575.2324863001704,581.6952189998701,575.2324863001704,581.6952189998701,575.2324863001704,581.6952189998701,575.2324863001704,581.6952189998701,13.095238095238098,5.603988099843264,space,,,,566.23151780013,6.38284259987995,,,,,,,564.1607103999704,564.1607103999704,None,,572.6942572998814,574.7148143001832,564.1607103999704,564.1607103999704,,20,001,2024-09-19_15h05.44.769,robot_cogshifting_sign,2022.2.5,59.867477291026624,
"['blue_top_S_0', 'red_left_Z_0', 'blue_left_D_45', 'blue_left_W_0']","{'color': 'red_left_Z_0', 'position': 'blue_top_S_0', 'orientation': 'blue_left_D_45'}",position,"['color', 'orientation', 'position']",blue_top_S_0,0,3,letter,1,True,False,"['robot_stimuli\\\\filler.mp4', 'robot_stimuli\\\\filler.mp4', 'robot_stimuli\\\\filler.mp4', 'robot_stimuli\\\\filler.mp4']",robot_stimuli\\filler.mp4,20,,,,,,,,,,,,,0,9,9,9,,,,,,,,,,,,,,,,,,585.0684642000124,,,595.8062833999284,595.8062833999284,595.8062833999284,1,3.456098500173539,599.2797922003083,599.2797922003083,599.2797922003083,599.2797922003083,599.2797922003083,599.2797922003083,599.2797922003083,599.2797922003083,None,None,None,,,,,,,,,,,,581.6952189998701,581.6952189998701,space,3.3509157998487353,593.5852375002578,595.8062833999284,,,,20,001,2024-09-19_15h05.44.769,robot_cogshifting_sign,2022.2.5,59.867477291026624,
"['red_right_Q_0', 'red_right_M_45', 'blue_right_B_45', 'red_top_X_45']","{'color': 'blue_right_B_45', 'position': 'red_top_X_45', 'orientation': 'red_right_Q_0'}",position,"['color', 'orientation', 'position']",red_top_X_45,3,3,letter,1,False,False,"['robot_stimuli\\\\filler.mp4', 'robot_stimuli\\\\filler.mp4', 'robot_stimuli\\\\filler.mp4', 'robot_stimuli\\\\filler.mp4']",robot_stimuli\\filler.mp4,20,,,,,,,,,,,,,0,10,10,10,,,,,,,,,,,,,,,,,,599.2797922003083,,,610.2179698999971,610.2179698999971,610.2179698999971,4,4.501485100015998,614.743605799973,614.743605799973,614.743605799973,614.743605799973,614.743605799973,614.743605799973,614.743605799973,614.743605799973,None,None,None,,,,601.3505480000749,,,,,,,,599.2797922003083,599.2797922003083,None,,607.9970271000639,610.2179698999971,599.2797922003083,599.2797922003083,,20,001,2024-09-19_15h05.44.769,robot_cogshifting_sign,2022.2.5,59.867477291026624,
"['red_bottom_C_45', 'blue_right_W_45', 'blue_bottom_W_45', 'blue_bottom_Q_0']","{'color': 'red_bottom_C_45', 'position': 'blue_right_W_45', 'orientation': 'blue_bottom_Q_0'}",color,"['color', 'orientation', 'position']",red_bottom_C_45,0,3,letter,1,False,False,"['robot_stimuli\\\\filler.mp4', 'robot_stimuli\\\\filler.mp4', 'robot_stimuli\\\\filler.mp4', 'robot_stimuli\\\\filler.mp4']",robot_stimuli\\filler.mp4,20,,,,,,,,,,,,,0,11,11,11,,,,,,,,,,,,,,,,,,614.743605799973,,,625.4813919998705,625.4813919998705,625.4813919998705,1,3.862002800218761,629.3723607999273,629.3723607999273,629.3723607999273,629.3723607999273,629.3723607999273,629.3723607999273,629.3723607999273,629.3723607999273,None,None,None,,,,616.8143988000229,,,,,,,,614.743605799973,614.743605799973,None,,623.4441936998628,625.4813919998705,614.743605799973,614.743605799973,,20,001,2024-09-19_15h05.44.769,robot_cogshifting_sign,2022.2.5,59.867477291026624,
"['red_top_K_45', 'red_bottom_N_0', 'red_bottom_T_45', 'blue_bottom_H_45']","{'color': 'blue_bottom_H_45', 'position': 'red_top_K_45', 'orientation': 'red_bottom_N_0'}",position,"['color', 'orientation', 'position']",red_top_K_45,0,3,letter,1,False,False,"['robot_stimuli\\\\filler.mp4', 'robot_stimuli\\\\filler.mp4', 'robot_stimuli\\\\filler.mp4', 'robot_stimuli\\\\filler.mp4']",robot_stimuli\\filler.mp4,20,,,,,,,,,,,,,0,12,12,12,,,,,,,,,,,,,,,,,,629.3723607999273,,,640.2944171000272,640.2944171000272,640.2944171000272,1,4.1924080001190305,644.5188515000045,644.5188515000045,644.5188515000045,644.5188515000045,644.5188515000045,644.5188515000045,644.5188515000045,644.5188515000045,None,None,None,,,,631.4432128001936,,,,,,,,629.3723607999273,629.3723607999273,None,,638.0896010999568,640.2944171000272,629.3723607999273,629.3723607999273,,20,001,2024-09-19_15h05.44.769,robot_cogshifting_sign,2022.2.5,59.867477291026624,
"['blue_left_R_45', 'blue_left_T_0', 'blue_right_M_45', 'red_left_N_45']","{'color': 'red_left_N_45', 'position': 'blue_right_M_45', 'orientation': 'blue_left_T_0'}",orientation,"['color', 'orientation', 'position']",blue_left_T_0,1,3,letter,1,False,False,"['robot_stimuli\\\\filler.mp4', 'robot_stimuli\\\\filler.mp4', 'robot_stimuli\\\\filler.mp4', 'robot_stimuli\\\\filler.mp4']",robot_stimuli\\filler.mp4,20,,,,,,,,,,,,,0,13,13,13,,,,,,,,,,,,,,,,,,644.5188515000045,,,655.440325200092,655.440325200092,655.440325200092,2,4.582375499885529,660.0494190999307,660.0494190999307,660.0494190999307,660.0494190999307,660.0494190999307,660.0494190999307,660.0494190999307,660.0494190999307,None,None,None,,,,646.5896263001487,,,,,,,,644.5188515000045,644.5188515000045,None,,653.2360088001005,655.440325200092,644.5188515000045,644.5188515000045,,20,001,2024-09-19_15h05.44.769,robot_cogshifting_sign,2022.2.5,59.867477291026624,
"['red_top_D_45', 'blue_top_S_45', 'blue_left_C_45', 'blue_top_T_0']","{'color': 'red_top_D_45', 'position': 'blue_left_C_45', 'orientation': 'blue_top_T_0'}",orientation,"['color', 'orientation', 'position']",blue_top_T_0,3,3,letter,1,False,False,"['robot_stimuli\\\\filler.mp4', 'robot_stimuli\\\\filler.mp4', 'robot_stimuli\\\\filler.mp4', 'robot_stimuli\\\\filler.mp4']",robot_stimuli\\filler.mp4,20,,,,,,,,,,,,,0,14,14,14,,,,,,,,,,,,,,,,,,660.0494190999307,,,670.8039027000777,670.8039027000777,670.8039027000777,4,5.354991499800235,676.181162700057,676.181162700057,676.181162700057,676.181162700057,676.181162700057,676.181162700057,676.181162700057,676.181162700057,None,None,None,,,,662.1034198999405,,,,,,,,660.0494190999307,660.0494190999307,None,,668.5995497000404,670.8039027000777,660.0494190999307,660.0494190999307,,20,001,2024-09-19_15h05.44.769,robot_cogshifting_sign,2022.2.5,59.867477291026624,
"['red_right_W_0', 'blue_bottom_W_0', 'blue_right_B_0', 'blue_right_Z_45']","{'color': 'red_right_W_0', 'position': 'blue_bottom_W_0', 'orientation': 'blue_right_Z_45'}",color,"['color', 'orientation', 'position']",red_right_W_0,0,3,letter,1,False,False,"['robot_stimuli\\\\filler.mp4', 'robot_stimuli\\\\filler.mp4', 'robot_stimuli\\\\filler.mp4', 'robot_stimuli\\\\filler.mp4']",robot_stimuli\\filler.mp4,20,,,,,,,,,,,,,0,15,15,15,,,,,,,,,,,,,,,,,,676.181162700057,,,686.9189949003048,686.9189949003048,686.9189949003048,1,3.4246857999823987,690.3757616998628,690.3757616998628,690.3757616998628,690.3757616998628,690.3757616998628,690.3757616998628,690.3757616998628,690.3757616998628,None,None,None,,,,678.2519338000566,,,,,,,,676.181162700057,676.181162700057,None,,684.7146843001246,686.9189949003048,676.181162700057,676.181162700057,,20,001,2024-09-19_15h05.44.769,robot_cogshifting_sign,2022.2.5,59.867477291026624,
"['blue_top_M_0', 'blue_left_H_45', 'red_left_K_0', 'blue_left_D_0']","{'color': 'red_left_K_0', 'position': 'blue_top_M_0', 'orientation': 'blue_left_H_45'}",orientation,"['color', 'orientation', 'position']",blue_left_H_45,1,3,letter,1,False,False,"['robot_stimuli\\\\filler.mp4', 'robot_stimuli\\\\filler.mp4', 'robot_stimuli\\\\filler.mp4', 'robot_stimuli\\\\filler.mp4']",robot_stimuli\\filler.mp4,20,,,,,,,,,,,,,0,16,16,16,,,,,,,,,,,,,,,,,,690.3757616998628,,,700.913151900284,700.913151900284,700.913151900284,4,3.1412053001113236,704.086090200115,704.086090200115,704.086090200115,704.086090200115,704.086090200115,704.086090200115,704.086090200115,704.086090200115,None,None,None,,,,692.4464932000265,,,,,,,,690.3757616998628,690.3757616998628,None,,698.8926086998545,700.913151900284,690.3757616998628,690.3757616998628,,20,001,2024-09-19_15h05.44.769,robot_cogshifting_sign,2022.2.5,59.867477291026624,
"['red_left_C_0', 'red_left_D_45', 'blue_left_X_45', 'red_top_G_45']","{'color': 'blue_left_X_45', 'position': 'red_top_G_45', 'orientation': 'red_left_C_0'}",color,"['color', 'orientation', 'position']",blue_left_X_45,2,3,letter,1,False,True,"['robot_stimuli\\\\filler.mp4', 'robot_stimuli\\\\filler.mp4', 'robot_stimuli\\\\filler.mp4', 'robot_stimuli\\\\filler.mp4']",robot_stimuli\\filler.mp4,20,,,,,,,,,,,,,0,17,17,17,,,,,,,,,,,,,,,,,,704.086090200115,,,714.4063980001956,714.4063980001956,714.4063980001956,3,5.27979960013181,719.7502812002786,723.0233411001973,719.7502812002786,723.0233411001973,719.7502812002786,723.0233411001973,719.7502812002786,723.0233411001973,90.39682539682539,2.0815088995732367,space,,,,706.1401356998831,3.2081969999708235,,,,,,,704.086090200115,704.086090200115,None,,712.3858944000676,714.4063980001956,704.086090200115,704.086090200115,,20,001,2024-09-19_15h05.44.769,robot_cogshifting_sign,2022.2.5,59.867477291026624,
"['red_left_F_45', 'blue_top_X_45', 'red_top_B_45', 'red_top_P_0']","{'color': 'blue_top_X_45', 'position': 'red_left_F_45', 'orientation': 'red_top_P_0'}",position,"['color', 'position']",red_left_F_45,0,2,letter,1,True,False,"['robot_stimuli\\\\filler.mp4', 'robot_stimuli\\\\filler.mp4', 'robot_stimuli\\\\filler.mp4', 'robot_stimuli\\\\filler.mp4']",robot_stimuli\\filler.mp4,20,,,,,,,,,,,,,0,18,18,18,,,,,,,,,,,,,,,,,,726.1628741002642,,,736.700240300037,736.700240300037,736.700240300037,1,4.601979199796915,741.3260356001556,741.3260356001556,741.3260356001556,741.3260356001556,741.3260356001556,741.3260356001556,741.3260356001556,741.3260356001556,None,None,None,,,,,,,,,,,,723.0233411001973,723.0233411001973,space,3.118676600046456,734.6796025000513,736.700240300037,,,,20,001,2024-09-19_15h05.44.769,robot_cogshifting_sign,2022.2.5,59.867477291026624,
"['red_left_R_0', 'blue_left_N_0', 'blue_left_F_45', 'blue_top_P_0']","{'color': 'red_left_R_0', 'position': 'blue_top_P_0', 'orientation': 'blue_left_F_45'}",color,"['color', 'orientation']",red_left_R_0,0,2,letter,1,False,False,"['robot_stimuli\\\\filler.mp4', 'robot_stimuli\\\\filler.mp4', 'robot_stimuli\\\\filler.mp4', 'robot_stimuli\\\\filler.mp4']",robot_stimuli\\filler.mp4,20,,,,,,,,,,,,,0,19,19,19,,,,,,,,,,,,,,,,,,741.3260356001556,,,751.863452500198,751.863452500198,751.863452500198,1,3.9591188998892903,755.8546537999064,755.8546537999064,755.8546537999064,755.8546537999064,755.8546537999064,755.8546537999064,755.8546537999064,755.8546537999064,None,None,None,,,,743.3968001999892,,,,,,,,741.3260356001556,741.3260356001556,None,,749.8428581999615,751.863452500198,741.3260356001556,741.3260356001556,,20,001,2024-09-19_15h05.44.769,robot_cogshifting_sign,2022.2.5,59.867477291026624,
"['blue_right_C_45', 'red_bottom_B_45', 'blue_bottom_Z_45', 'blue_bottom_R_0']","{'color': 'red_bottom_B_45', 'position': 'blue_right_C_45', 'orientation': 'blue_bottom_R_0'}",position,"['orientation', 'position']",blue_right_C_45,0,2,letter,1,False,False,"['robot_stimuli\\\\filler.mp4', 'robot_stimuli\\\\filler.mp4', 'robot_stimuli\\\\filler.mp4', 'robot_stimuli\\\\filler.mp4']",robot_stimuli\\filler.mp4,20,,,,,,,,,,,,,0,20,20,20,,,,,,,,,,,,,,,,,,755.8546537999064,,,766.5924301999621,766.5924301999621,766.5924301999621,1,4.261815499980003,770.8842167002149,770.8842167002149,770.8842167002149,770.8842167002149,770.8842167002149,770.8842167002149,770.8842167002149,770.8842167002149,None,None,None,,,,757.9254577001557,,,,,,,,755.8546537999064,755.8546537999064,None,,764.5718280002475,766.5924301999621,755.8546537999064,755.8546537999064,,20,001,2024-09-19_15h05.44.769,robot_cogshifting_sign,2022.2.5,59.867477291026624,
"['blue_bottom_P_45', 'blue_bottom_D_0', 'blue_top_H_0', 'red_bottom_M_0']","{'color': 'red_bottom_M_0', 'position': 'blue_top_H_0', 'orientation': 'blue_bottom_P_45'}",orientation,"['color', 'orientation']",blue_bottom_P_45,0,2,letter,1,False,False,"['robot_stimuli\\\\filler.mp4', 'robot_stimuli\\\\filler.mp4', 'robot_stimuli\\\\filler.mp4', 'robot_stimuli\\\\filler.mp4']",robot_stimuli\\filler.mp4,20,,,,,,,,,,,,,0,21,21,21,,,,,,,,,,,,,,,,,,770.8842167002149,,,781.421595999971,781.421595999971,781.421595999971,1,3.3524889000691473,784.7949418001808,784.7949418001808,784.7949418001808,784.7949418001808,784.7949418001808,784.7949418001808,784.7949418001808,784.7949418001808,None,None,None,,,,772.9549467000179,,,,,,,,770.8842167002149,770.8842167002149,None,,779.4010606002994,781.421595999971,770.8842167002149,770.8842167002149,,20,001,2024-09-19_15h05.44.769,robot_cogshifting_sign,2022.2.5,59.867477291026624,
"['red_bottom_V_45', 'red_top_R_0', 'red_top_V_45', 'blue_top_T_45']","{'color': 'blue_top_T_45', 'position': 'red_bottom_V_45', 'orientation': 'red_top_R_0'}",position,"['color', 'position']",red_bottom_V_45,0,2,letter,1,False,False,"['robot_stimuli\\\\filler.mp4', 'robot_stimuli\\\\filler.mp4', 'robot_stimuli\\\\filler.mp4', 'robot_stimuli\\\\filler.mp4']",robot_stimuli\\filler.mp4,20,,,,,,,,,,,,,0,22,22,22,,,,,,,,,,,,,,,,,,784.7949418001808,,,795.7498230999336,795.7498230999336,795.7498230999336,1,4.1682850997895,799.9414035999216,799.9414035999216,799.9414035999216,799.9414035999216,799.9414035999216,799.9414035999216,799.9414035999216,799.9414035999216,None,None,None,,,,786.8657292001881,,,,,,,,784.7949418001808,784.7949418001808,None,,793.5287938001566,795.7498230999336,784.7949418001808,784.7949418001808,,20,001,2024-09-19_15h05.44.769,robot_cogshifting_sign,2022.2.5,59.867477291026624,
"['red_top_L_0', 'red_left_N_45', 'red_left_J_0', 'blue_left_K_0']","{'color': 'blue_left_K_0', 'position': 'red_top_L_0', 'orientation': 'red_left_N_45'}",color,"['color', 'position']",blue_left_K_0,3,2,letter,1,False,False,"['robot_stimuli\\\\filler.mp4', 'robot_stimuli\\\\filler.mp4', 'robot_stimuli\\\\filler.mp4', 'robot_stimuli\\\\filler.mp4']",robot_stimuli\\filler.mp4,20,,,,,,,,,,,,,0,23,23,23,,,,,,,,,,,,,,,,,,799.9414035999216,,,810.6792015000246,810.6792015000246,810.6792015000246,4,3.078891800250858,813.7853161999956,813.7853161999956,813.7853161999956,813.7853161999956,813.7853161999956,813.7853161999956,813.7853161999956,813.7853161999956,None,None,None,,,,802.0122468001209,,,,,,,,799.9414035999216,799.9414035999216,None,,808.6587351001799,810.6792015000246,799.9414035999216,799.9414035999216,,20,001,2024-09-19_15h05.44.769,robot_cogshifting_sign,2022.2.5,59.867477291026624,
"['blue_left_G_0', 'red_left_G_45', 'blue_right_L_45', 'blue_left_F_45']","{'color': 'red_left_G_45', 'position': 'blue_right_L_45', 'orientation': 'blue_left_G_0'}",orientation,"['orientation', 'position']",blue_left_G_0,0,2,letter,1,False,False,"['robot_stimuli\\\\filler.mp4', 'robot_stimuli\\\\filler.mp4', 'robot_stimuli\\\\filler.mp4', 'robot_stimuli\\\\filler.mp4']",robot_stimuli\\filler.mp4,20,,,,,,,,,,,,,0,24,24,24,,,,,,,,,,,,,,,,,,813.7853161999956,,,824.3226955002174,824.3226955002174,824.3226955002174,2,2.1873560999520123,826.5270572002046,826.5270572002046,826.5270572002046,826.5270572002046,826.5270572002046,826.5270572002046,826.5270572002046,826.5270572002046,None,None,None,,,,815.8560867998749,,,,,,,,813.7853161999956,813.7853161999956,None,,822.3022417002358,824.3226955002174,813.7853161999956,813.7853161999956,,20,001,2024-09-19_15h05.44.769,robot_cogshifting_sign,2022.2.5,59.867477291026624,
"['blue_bottom_H_0', 'blue_bottom_L_45', 'red_bottom_V_0', 'blue_top_B_0']","{'color': 'red_bottom_V_0', 'position': 'blue_top_B_0', 'orientation': 'blue_bottom_L_45'}",color,"['color', 'position']",red_bottom_V_0,2,2,letter,1,False,False,"['robot_stimuli\\\\filler.mp4', 'robot_stimuli\\\\filler.mp4', 'robot_stimuli\\\\filler.mp4', 'robot_stimuli\\\\filler.mp4']",robot_stimuli\\filler.mp4,20,,,,,,,,,,,,,0,25,25,25,,,,,,,,,,,,,,,,,,826.5270572002046,,,837.4485623002984,837.4485623002984,837.4485623002984,3,1.9898852002806962,839.4692167001776,839.4692167001776,839.4692167001776,839.4692167001776,839.4692167001776,839.4692167001776,839.4692167001776,839.4692167001776,None,None,None,,,,828.5978494002484,,,,,,,,826.5270572002046,826.5270572002046,None,,835.4279999001883,837.4485623002984,826.5270572002046,826.5270572002046,,20,001,2024-09-19_15h05.44.769,robot_cogshifting_sign,2022.2.5,59.867477291026624,
"['blue_right_C_45', 'red_right_F_0', 'blue_left_T_0', 'blue_right_N_0']","{'color': 'red_right_F_0', 'position': 'blue_left_T_0', 'orientation': 'blue_right_C_45'}",orientation,"['color', 'orientation']",blue_right_C_45,0,2,letter,1,False,True,"['robot_stimuli\\\\filler.mp4', 'robot_stimuli\\\\filler.mp4', 'robot_stimuli\\\\filler.mp4', 'robot_stimuli\\\\filler.mp4']",robot_stimuli\\filler.mp4,20,,,,,,,,,,,,,0,26,26,26,,,,,,,,,,,,,,,,,,839.4692167001776,,,850.6244617002085,850.6244617002085,850.6244617002085,2,2.303291999734938,852.9791426002048,857.0371377998963,852.9791426002048,857.0371377998963,852.9791426002048,857.0371377998963,852.9791426002048,857.0371377998963,98.80952380952381,2.59844519989565,space,,,,841.5399882001802,3.9788097999989986,,,,,,,839.4692167001776,839.4692167001776,None,,848.4201604002155,850.6244617002085,839.4692167001776,839.4692167001776,,20,001,2024-09-19_15h05.44.769,robot_cogshifting_sign,2022.2.5,59.867477291026624,
"['R_Torso_Y_Back', 'R_Base_Y_Back', 'L_Base_Y_Back', 'R_Base_X_Back']","{'laterality': 'L_Base_Y_Back', 'localisation': 'R_Torso_Y_Back', 'movement': 'R_Base_X_Back'}",laterality,['laterality'],L_Base_Y_Back,2,1,robot,2,True,False,"['robot_stimuli\\R_Torso_Y_Back.mp4', 'robot_stimuli\\R_Base_Y_Back.mp4', 'robot_stimuli\\L_Base_Y_Back.mp4', 'robot_stimuli\\R_Base_X_Back.mp4']",robot_stimuli\L_Base_Y_Back.mp4,20,,,,,,,,,,,,,0,27,27,27,,,,,,,,,,,,,,,,,,862.648167999927,,,879.4979576002806,879.4979576002806,879.4979576002806,3,1.7577125998213887,881.2848316002637,881.2848316002637,881.2848316002637,881.2848316002637,881.2848316002637,881.2848316002637,881.2848316002637,881.2848316002637,None,None,None,,,,,,,,,,,,857.0371377998963,857.0371377998963,space,5.593597900122404,,,,,875.8574789999984,20,001,2024-09-19_15h05.44.769,robot_cogshifting_sign,2022.2.5,59.867477291026624,
"['R_Base_Z_Back', 'R_Head_Z_Back', 'L_Head_Z_Back', 'R_Head_Y_For']","{'laterality': 'L_Head_Z_Back', 'localisation': 'R_Base_Z_Back', 'movement': 'R_Head_Y_For'}",laterality,['laterality'],L_Head_Z_Back,2,1,robot,2,False,False,"['robot_stimuli\\R_Base_Z_Back.mp4', 'robot_stimuli\\R_Head_Z_Back.mp4', 'robot_stimuli\\L_Head_Z_Back.mp4', 'robot_stimuli\\R_Head_Y_For.mp4']",robot_stimuli\L_Head_Z_Back.mp4,20,,,,,,,,,,,,,0,28,28,28,,,,,,,,,,,,,,,,,,881.2848316002637,,,898.0678487000987,898.0678487000987,898.0678487000987,3,0.6106764003634453,898.702459000051,898.702459000051,898.702459000051,898.702459000051,898.702459000051,898.702459000051,898.702459000051,898.702459000051,None,None,None,,,,883.3722597002052,,,,,,,,881.2848316002637,881.2848316002637,None,,,,881.2848316002637,881.2848316002637,894.4273195001297,20,001,2024-09-19_15h05.44.769,robot_cogshifting_sign,2022.2.5,59.867477291026624,
"['R_Torso_Y_For', 'R_Torso_X_For', 'L_Torso_X_Back', 'R_Arm_X_Back']","{'laterality': 'L_Torso_X_Back', 'localisation': 'R_Arm_X_Back', 'movement': 'R_Torso_Y_For'}",localisation,['localisation'],R_Arm_X_Back,3,1,robot,2,False,False,"['robot_stimuli\\R_Torso_Y_For.mp4', 'robot_stimuli\\R_Torso_X_For.mp4', 'robot_stimuli\\L_Torso_X_Back.mp4', 'robot_stimuli\\R_Arm_X_Back.mp4']",robot_stimuli\R_Arm_X_Back.mp4,20,,,,,,,,,,,,,0,29,29,29,,,,,,,,,,,,,,,,,,898.702459000051,,,915.6023409999907,915.6023409999907,915.6023409999907,4,1.508375299628824,917.1387569000944,917.1387569000944,917.1387569000944,917.1387569000944,917.1387569000944,917.1387569000944,917.1387569000944,917.1387569000944,None,None,None,,,,900.7899617999792,,,,,,,,898.702459000051,898.702459000051,None,,,,898.702459000051,898.702459000051,911.9619094999507,20,001,2024-09-19_15h05.44.769,robot_cogshifting_sign,2022.2.5,59.867477291026624,
"['L_Base_Z_For', 'R_Arm_Z_For', 'L_Arm_Z_Back', 'L_Arm_X_Back']","{'laterality': 'R_Arm_Z_For', 'localisation': 'L_Base_Z_For', 'movement': 'L_Arm_X_Back'}",laterality,['laterality'],R_Arm_Z_For,1,1,robot,2,False,False,"['robot_stimuli\\L_Base_Z_For.mp4', 'robot_stimuli\\R_Arm_Z_For.mp4', 'robot_stimuli\\L_Arm_Z_Back.mp4', 'robot_stimuli\\L_Arm_X_Back.mp4']",robot_stimuli\R_Arm_Z_For.mp4,20,,,,,,,,,,,,,0,30,30,30,,,,,,,,,,,,,,,,,,917.1387569000944,,,934.0386676001363,934.0386676001363,934.0386676001363,2,0.8714267001487315,934.940434299875,934.940434299875,934.940434299875,934.940434299875,934.940434299875,934.940434299875,934.940434299875,934.940434299875,None,None,None,,,,919.2262118998915,,,,,,,,917.1387569000944,917.1387569000944,None,,,,917.1387569000944,917.1387569000944,930.3815065003,20,001,2024-09-19_15h05.44.769,robot_cogshifting_sign,2022.2.5,59.867477291026624,
"['L_Arm_X_Back', 'L_Base_Y_Back', 'L_Arm_Y_Back', 'R_Arm_Y_Back']","{'laterality': 'R_Arm_Y_Back', 'localisation': 'L_Base_Y_Back', 'movement': 'L_Arm_X_Back'}",movement,['movement'],L_Arm_X_Back,0,1,robot,2,False,False,"['robot_stimuli\\L_Arm_X_Back.mp4', 'robot_stimuli\\L_Base_Y_Back.mp4', 'robot_stimuli\\L_Arm_Y_Back.mp4', 'robot_stimuli\\R_Arm_Y_Back.mp4']",robot_stimuli\L_Arm_X_Back.mp4,20,,,,,,,,,,,,,0,31,31,31,,,,,,,,,,,,,,,,,,934.940434299875,,,951.7735899002291,951.7735899002291,951.7735899002291,1,1.4009101996198297,953.193017099984,953.193017099984,953.193017099984,953.193017099984,953.193017099984,953.193017099984,953.193017099984,953.193017099984,None,None,None,,,,937.0278803999536,,,,,,,,934.940434299875,934.940434299875,None,,,,934.940434299875,934.940434299875,948.1163456998765,20,001,2024-09-19_15h05.44.769,robot_cogshifting_sign,2022.2.5,59.867477291026624,
"['L_Arm_Z_Back', 'L_Base_Z_Back', 'L_Arm_Y_For', 'R_Arm_Z_Back']","{'laterality': 'R_Arm_Z_Back', 'localisation': 'L_Base_Z_Back', 'movement': 'L_Arm_Y_For'}",movement,['movement'],L_Arm_Y_For,2,1,robot,2,False,False,"['robot_stimuli\\L_Arm_Z_Back.mp4', 'robot_stimuli\\L_Base_Z_Back.mp4', 'robot_stimuli\\L_Arm_Y_For.mp4', 'robot_stimuli\\R_Arm_Z_Back.mp4']",robot_stimuli\L_Arm_Y_For.mp4,20,,,,,,,,,,,,,0,32,32,32,,,,,,,,,,,,,,,,,,953.193017099984,,,970.0929614999332,970.0929614999332,970.0929614999332,3,1.3937796000391245,971.5124157001264,971.5124157001264,971.5124157001264,971.5124157001264,971.5124157001264,971.5124157001264,971.5124157001264,971.5124157001264,None,None,None,,,,955.2804645001888,,,,,,,,953.193017099984,953.193017099984,None,,,,953.193017099984,953.193017099984,966.435811500065,20,001,2024-09-19_15h05.44.769,robot_cogshifting_sign,2022.2.5,59.867477291026624,
"['L_Base_Z_Back', 'L_Torso_Z_Back', 'R_Base_Z_For', 'L_Base_X_For']","{'laterality': 'R_Base_Z_For', 'localisation': 'L_Torso_Z_Back', 'movement': 'L_Base_X_For'}",localisation,['localisation'],L_Torso_Z_Back,1,1,robot,2,False,False,"['robot_stimuli\\L_Base_Z_Back.mp4', 'robot_stimuli\\L_Torso_Z_Back.mp4', 'robot_stimuli\\R_Base_Z_For.mp4', 'robot_stimuli\\L_Base_X_For.mp4']",robot_stimuli\L_Torso_Z_Back.mp4,20,,,,,,,,,,,,,0,33,33,33,,,,,,,,,,,,,,,,,,971.5124157001264,,,988.1952271000482,988.1952271000482,988.1952271000482,2,2.515506799798459,990.733581900131,990.733581900131,990.733581900131,990.733581900131,990.733581900131,990.733581900131,990.733581900131,990.733581900131,None,None,None,,,,973.5998805998825,,,,,,,,971.5124157001264,971.5124157001264,None,,,,971.5124157001264,971.5124157001264,984.6215224000625,20,001,2024-09-19_15h05.44.769,robot_cogshifting_sign,2022.2.5,59.867477291026624,
"['R_Base_Y_For', 'R_Base_X_For', 'L_Base_X_For', 'R_Arm_X_Back']","{'laterality': 'L_Base_X_For', 'localisation': 'R_Arm_X_Back', 'movement': 'R_Base_Y_For'}",movement,['movement'],R_Base_Y_For,0,1,robot,2,False,False,"['robot_stimuli\\R_Base_Y_For.mp4', 'robot_stimuli\\R_Base_X_For.mp4', 'robot_stimuli\\L_Base_X_For.mp4', 'robot_stimuli\\R_Arm_X_Back.mp4']",robot_stimuli\R_Base_Y_For.mp4,20,,,,,,,,,,,,,0,34,34,34,,,,,,,,,,,,,,,,,,990.733581900131,,,1007.4497870001942,1007.4497870001942,1007.4497870001942,1,0.5244192997924984,1008.0008892999031,1008.0008892999031,1008.0008892999031,1008.0008892999031,1008.0008892999031,1008.0008892999031,1008.0008892999031,1008.0008892999031,None,None,None,,,,992.8210233002901,,,,,,,,990.733581900131,990.733581900131,None,,,,990.733581900131,990.733581900131,1003.8260176000185,20,001,2024-09-19_15h05.44.769,robot_cogshifting_sign,2022.2.5,59.867477291026624,
"['R_Torso_X_For', 'L_Arm_X_Back', 'R_Arm_X_Back', 'R_Arm_Z_Back']","{'laterality': 'L_Arm_X_Back', 'localisation': 'R_Torso_X_For', 'movement': 'R_Arm_Z_Back'}",localisation,['localisation'],R_Torso_X_For,0,1,robot,2,False,True,"['robot_stimuli\\R_Torso_X_For.mp4', 'robot_stimuli\\L_Arm_X_Back.mp4', 'robot_stimuli\\R_Arm_X_Back.mp4', 'robot_stimuli\\R_Arm_Z_Back.mp4']",robot_stimuli\R_Torso_X_For.mp4,20,,,,,,,,,,,,,0,35,35,35,,,,,,,,,,,,,,,,,,1008.0008892999031,,,1024.8841079999693,1024.8841079999693,1024.8841079999693,1,1.3537077000364661,1026.303598599974,1031.0128583000042,1026.303598599974,1031.0128583000042,1026.303598599974,1031.0128583000042,1026.303598599974,1031.0128583000042,37.857142857142854,3.18271980015561,space,,,,1010.0883575002663,4.63065560022369,,,,,,,1008.0008892999031,1008.0008892999031,None,,,,1008.0008892999031,1008.0008892999031,1021.2436466999352,20,001,2024-09-19_15h05.44.769,robot_cogshifting_sign,2022.2.5,59.867477291026624,
"['L_Torso_X_Back', 'R_Torso_X_For', 'L_Torso_Y_Back', 'L_Head_X_Back']","{'laterality': 'R_Torso_X_For', 'localisation': 'L_Head_X_Back', 'movement': 'L_Torso_Y_Back'}",laterality,"['laterality', 'localisation', 'movement']",R_Torso_X_For,1,3,robot,2,True,False,"['robot_stimuli\\L_Torso_X_Back.mp4', 'robot_stimuli\\R_Torso_X_For.mp4', 'robot_stimuli\\L_Torso_Y_Back.mp4', 'robot_stimuli\\L_Head_X_Back.mp4']",robot_stimuli\R_Torso_X_For.mp4,20,,,,,,,,,,,,,0,36,36,36,,,,,,,,,,,,,,,,,,1036.5070005999878,,,1053.27331040008,1053.27331040008,1053.27331040008,2,4.837611599825323,1058.1329474998638,1058.1329474998638,1058.1329474998638,1058.1329474998638,1058.1329474998638,1058.1329474998638,1058.1329474998638,1058.1329474998638,None,None,None,,,,,,,,,,,,1031.0128583000042,1031.0128583000042,space,5.473510900046676,,,,,1049.616175999865,20,001,2024-09-19_15h05.44.769,robot_cogshifting_sign,2022.2.5,59.867477291026624,
"['L_Base_X_For', 'R_Base_X_For', 'R_Head_X_For', 'R_Base_Y_Back']","{'laterality': 'L_Base_X_For', 'localisation': 'R_Head_X_For', 'movement': 'R_Base_Y_Back'}",movement,"['laterality', 'localisation', 'movement']",R_Base_Y_Back,3,3,robot,2,False,False,"['robot_stimuli\\L_Base_X_For.mp4', 'robot_stimuli\\R_Base_X_For.mp4', 'robot_stimuli\\R_Head_X_For.mp4', 'robot_stimuli\\R_Base_Y_Back.mp4']",robot_stimuli\R_Base_Y_Back.mp4,20,,,,,,,,,,,,,0,37,37,37,,,,,,,,,,,,,,,,,,1058.1329474998638,,,1074.8491215999238,1074.8491215999238,1074.8491215999238,4,9.63712040008977,1084.5181650002487,1084.5181650002487,1084.5181650002487,1084.5181650002487,1084.5181650002487,1084.5181650002487,1084.5181650002487,1084.5181650002487,None,None,None,,,,1060.22034620028,,,,,,,,1058.1329474998638,1058.1329474998638,None,,,,1058.1329474998638,1058.1329474998638,1071.2253518998623,20,001,2024-09-19_15h05.44.769,robot_cogshifting_sign,2022.2.5,59.867477291026624,
"['R_Base_Y_For', 'R_Arm_X_For', 'R_Base_X_For', 'L_Base_X_For']","{'laterality': 'L_Base_X_For', 'localisation': 'R_Arm_X_For', 'movement': 'R_Base_Y_For'}",localisation,"['laterality', 'localisation', 'movement']",R_Arm_X_For,1,3,robot,2,False,False,"['robot_stimuli\\R_Base_Y_For.mp4', 'robot_stimuli\\R_Arm_X_For.mp4', 'robot_stimuli\\R_Base_X_For.mp4', 'robot_stimuli\\L_Base_X_For.mp4']",robot_stimuli\R_Arm_X_For.mp4,20,,,,,,,,,,,,,0,38,38,38,,,,,,,,,,,,,,,,,,1084.5181650002487,,,1101.2678272998892,1101.2678272998892,1101.2678272998892,1,6.393923599738628,1107.6803951999173,1107.6803951999173,1107.6803951999173,1107.6803951999173,1107.6803951999173,1107.6803951999173,1107.6803951999173,1107.6803951999173,None,None,None,,,,1086.6056166999042,,,,,,,,1084.5181650002487,1084.5181650002487,None,,,,1084.5181650002487,1084.5181650002487,1097.6940931999125,20,001,2024-09-19_15h05.44.769,robot_cogshifting_sign,2022.2.5,59.867477291026624,
"['R_Head_Z_For', 'L_Head_Z_Back', 'L_Head_X_Back', 'L_Torso_Z_For']","{'laterality': 'R_Head_Z_For', 'localisation': 'L_Torso_Z_For', 'movement': 'L_Head_X_Back'}",localisation,"['laterality', 'localisation', 'movement']",L_Torso_Z_For,3,3,robot,2,False,False,"['robot_stimuli\\R_Head_Z_For.mp4', 'robot_stimuli\\L_Head_Z_Back.mp4', 'robot_stimuli\\L_Head_X_Back.mp4', 'robot_stimuli\\L_Torso_Z_For.mp4']",robot_stimuli\L_Torso_Z_For.mp4,20,,,,,,,,,,,,,0,39,39,39,,,,,,,,,,,,,,,,,,1107.6803951999173,,,1124.5803243000992,1124.5803243000992,1124.5803243000992,4,5.0032818000763655,1129.6069098999724,1129.6069098999724,1129.6069098999724,1129.6069098999724,1129.6069098999724,1129.6069098999724,1129.6069098999724,1129.6069098999724,None,None,None,,,,1109.767881100066,,,,,,,,1107.6803951999173,1107.6803951999173,None,,,,1107.6803951999173,1107.6803951999173,1120.9231815002859,20,001,2024-09-19_15h05.44.769,robot_cogshifting_sign,2022.2.5,59.867477291026624,
"['R_Torso_Z_For', 'L_Arm_Z_For', 'R_Arm_Z_Back', 'R_Arm_X_Back']","{'laterality': 'L_Arm_Z_For', 'localisation': 'R_Torso_Z_For', 'movement': 'R_Arm_X_Back'}",movement,"['laterality', 'localisation', 'movement']",R_Arm_X_Back,3,3,robot,2,False,False,"['robot_stimuli\\R_Torso_Z_For.mp4', 'robot_stimuli\\L_Arm_Z_For.mp4', 'robot_stimuli\\R_Arm_Z_Back.mp4', 'robot_stimuli\\R_Arm_X_Back.mp4']",robot_stimuli\R_Arm_X_Back.mp4,20,,,,,,,,,,,,,0,40,40,40,,,,,,,,,,,,,,,,,,1129.6069098999724,,,1146.523515299894,1146.523515299894,1146.523515299894,3,3.9228856000117958,1150.46461690031,1150.46461690031,1150.46461690031,1150.46461690031,1150.46461690031,1150.46461690031,1150.46461690031,1150.46461690031,None,None,None,,,,1131.694343500305,,,,,,,,1129.6069098999724,1129.6069098999724,None,,,,1129.6069098999724,1129.6069098999724,1142.866367599927,20,001,2024-09-19_15h05.44.769,robot_cogshifting_sign,2022.2.5,59.867477291026624,
"['R_Torso_Z_Back', 'R_Head_Y_Back', 'R_Torso_Y_Back', 'L_Torso_Y_Back']","{'laterality': 'L_Torso_Y_Back', 'localisation': 'R_Head_Y_Back', 'movement': 'R_Torso_Z_Back'}",localisation,"['laterality', 'localisation', 'movement']",R_Head_Y_Back,1,3,robot,2,False,False,"['robot_stimuli\\R_Torso_Z_Back.mp4', 'robot_stimuli\\R_Head_Y_Back.mp4', 'robot_stimuli\\R_Torso_Y_Back.mp4', 'robot_stimuli\\L_Torso_Y_Back.mp4']",robot_stimuli\R_Head_Y_Back.mp4,20,,,,,,,,,,,,,0,41,41,41,,,,,,,,,,,,,,,,,,1150.46461690031,,,1167.214235499967,1167.214235499967,1167.214235499967,2,6.472248000092804,1173.7104430003092,1173.7104430003092,1173.7104430003092,1173.7104430003092,1173.7104430003092,1173.7104430003092,1173.7104430003092,1173.7104430003092,None,None,None,,,,1152.5521293999627,,,,,,,,1150.46461690031,1150.46461690031,None,,,,1150.46461690031,1150.46461690031,1163.7073375000618,20,001,2024-09-19_15h05.44.769,robot_cogshifting_sign,2022.2.5,59.867477291026624,
"['L_Arm_Z_Back', 'L_Arm_X_For', 'L_Head_X_For', 'R_Arm_X_Back']","{'laterality': 'R_Arm_X_Back', 'localisation': 'L_Head_X_For', 'movement': 'L_Arm_Z_Back'}",laterality,"['laterality', 'localisation', 'movement']",R_Arm_X_Back,3,3,robot,2,False,False,"['robot_stimuli\\L_Arm_Z_Back.mp4', 'robot_stimuli\\L_Arm_X_For.mp4', 'robot_stimuli\\L_Head_X_For.mp4', 'robot_stimuli\\R_Arm_X_Back.mp4']",robot_stimuli\R_Arm_X_Back.mp4,20,,,,,,,,,,,,,0,42,42,42,,,,,,,,,,,,,,,,,,1173.7104430003092,,,1190.5268174000084,1190.5268174000084,1190.5268174000084,3,4.231603899970651,1194.7851833999157,1194.7851833999157,1194.7851833999157,1194.7851833999157,1194.7851833999157,1194.7851833999157,1194.7851833999157,1194.7851833999157,None,None,None,,,,1175.7978456001729,,,,,,,,1173.7104430003092,1173.7104430003092,None,,,,1173.7104430003092,1173.7104430003092,1186.8863038001582,20,001,2024-09-19_15h05.44.769,robot_cogshifting_sign,2022.2.5,59.867477291026624,
"['R_Base_Y_For', 'L_Base_X_Back', 'R_Base_X_Back', 'R_Torso_X_For']","{'laterality': 'L_Base_X_Back', 'localisation': 'R_Torso_X_For', 'movement': 'R_Base_Y_For'}",movement,"['laterality', 'localisation', 'movement']",R_Base_Y_For,0,3,robot,2,False,False,"['robot_stimuli\\R_Base_Y_For.mp4', 'robot_stimuli\\L_Base_X_Back.mp4', 'robot_stimuli\\R_Base_X_Back.mp4', 'robot_stimuli\\R_Torso_X_For.mp4']",robot_stimuli\R_Base_Y_For.mp4,20,,,,,,,,,,,,,0,43,43,43,,,,,,,,,,,,,,,,,,1194.7851833999157,,,1211.6350040999241,1211.6350040999241,1211.6350040999241,1,4.124631999991834,1215.7764941002242,1215.7764941002242,1215.7764941002242,1215.7764941002242,1215.7764941002242,1215.7764941002242,1215.7764941002242,1215.7764941002242,None,None,None,,,,1196.8726691999473,,,,,,,,1194.7851833999157,1194.7851833999157,None,,,,1194.7851833999157,1194.7851833999157,1207.9945463999175,20,001,2024-09-19_15h05.44.769,robot_cogshifting_sign,2022.2.5,59.867477291026624,
"['L_Head_X_Back', 'R_Arm_X_For', 'R_Head_X_For', 'R_Head_Z_For']","{'laterality': 'L_Head_X_Back', 'localisation': 'R_Arm_X_For', 'movement': 'R_Head_Z_For'}",laterality,"['laterality', 'localisation', 'movement']",L_Head_X_Back,0,3,robot,2,False,True,"['robot_stimuli\\L_Head_X_Back.mp4', 'robot_stimuli\\R_Arm_X_For.mp4', 'robot_stimuli\\R_Head_X_For.mp4', 'robot_stimuli\\R_Head_Z_For.mp4']",robot_stimuli\L_Head_X_Back.mp4,20,,,,,,,,,,,,,0,44,44,44,,,,,,,,,,,,,,,,,,1215.7764941002242,,,1232.6597291999497,1232.6597291999497,1232.6597291999497,1,2.7867077998816967,1235.4986699,1238.5880869999528,1235.4986699,1238.5880869999528,1235.4986699,1238.5880869999528,1235.4986699,1238.5880869999528,102.93650793650794,2.3643581001088023,space,,,,1217.8639847999439,3.0275222999043763,,,,,,,1215.7764941002242,1215.7764941002242,None,,,,1215.7764941002242,1215.7764941002242,1229.0192478001118,20,001,2024-09-19_15h05.44.769,robot_cogshifting_sign,2022.2.5,59.867477291026624,
"['R_Torso_Z_Back', 'R_Base_Z_Back', 'L_Torso_Z_For', 'R_Torso_X_For']","{'laterality': 'L_Torso_Z_For', 'localisation': 'R_Base_Z_Back', 'movement': 'R_Torso_X_For'}",localisation,"['localisation', 'movement']",R_Base_Z_Back,1,2,robot,2,True,False,"['robot_stimuli\\R_Torso_Z_Back.mp4', 'robot_stimuli\\R_Base_Z_Back.mp4', 'robot_stimuli\\L_Torso_Z_For.mp4', 'robot_stimuli\\R_Torso_X_For.mp4']",robot_stimuli\R_Base_Z_Back.mp4,20,,,,,,,,,,,,,0,45,45,45,,,,,,,,,,,,,,,,,,1243.3641579002142,,,1260.1471492000856,1260.1471492000856,1260.1471492000856,2,3.4346479000523686,1263.6039976002648,1263.6039976002648,1263.6039976002648,1263.6039976002648,1263.6039976002648,1263.6039976002648,1263.6039976002648,1263.6039976002648,None,None,None,,,,,,,,,,,,1238.5880869999528,1238.5880869999528,space,4.754270900040865,,,,,1256.5066591002978,20,001,2024-09-19_15h05.44.769,robot_cogshifting_sign,2022.2.5,59.867477291026624,
"['L_Arm_X_Back', 'R_Arm_X_For', 'R_Base_X_Back', 'R_Arm_Z_Back']","{'laterality': 'L_Arm_X_Back', 'localisation': 'R_Base_X_Back', 'movement': 'R_Arm_Z_Back'}",movement,"['laterality', 'movement']",R_Arm_Z_Back,3,2,robot,2,False,False,"['robot_stimuli\\L_Arm_X_Back.mp4', 'robot_stimuli\\R_Arm_X_For.mp4', 'robot_stimuli\\R_Base_X_Back.mp4', 'robot_stimuli\\R_Arm_Z_Back.mp4']",robot_stimuli\R_Arm_Z_Back.mp4,20,,,,,,,,,,,,,0,46,46,46,,,,,,,,,,,,,,,,,,1263.6039976002648,,,1280.503914500121,1280.503914500121,1280.503914500121,4,2.871229200158268,1283.3929192000069,1283.3929192000069,1283.3929192000069,1283.3929192000069,1283.3929192000069,1283.3929192000069,1283.3929192000069,1283.3929192000069,None,None,None,,,,1265.6914369002916,,,,,,,,1263.6039976002648,1263.6039976002648,None,,,,1263.6039976002648,1263.6039976002648,1276.8634438998997,20,001,2024-09-19_15h05.44.769,robot_cogshifting_sign,2022.2.5,59.867477291026624,
"['L_Base_X_Back', 'L_Torso_X_Back', 'L_Torso_Y_For', 'R_Torso_X_Back']","{'laterality': 'R_Torso_X_Back', 'localisation': 'L_Base_X_Back', 'movement': 'L_Torso_Y_For'}",laterality,"['laterality', 'localisation']",R_Torso_X_Back,3,2,robot,2,False,False,"['robot_stimuli\\L_Base_X_Back.mp4', 'robot_stimuli\\L_Torso_X_Back.mp4', 'robot_stimuli\\L_Torso_Y_For.mp4', 'robot_stimuli\\R_Torso_X_Back.mp4']",robot_stimuli\R_Torso_X_Back.mp4,20,,,,,,,,,,,,,0,47,47,47,,,,,,,,,,,,,,,,,,1283.3929192000069,,,1300.2594699999318,1300.2594699999318,1300.2594699999318,4,1.426404200028628,1301.7123782001436,1301.7123782001436,1301.7123782001436,1301.7123782001436,1301.7123782001436,1301.7123782001436,1301.7123782001436,1301.7123782001436,None,None,None,,,,1285.4803933999501,,,,,,,,1283.3929192000069,1283.3929192000069,None,,,,1283.3929192000069,1283.3929192000069,1296.6356345000677,20,001,2024-09-19_15h05.44.769,robot_cogshifting_sign,2022.2.5,59.867477291026624,
"['R_Torso_Z_For', 'R_Head_X_For', 'R_Head_Z_For', 'L_Head_Z_For']","{'laterality': 'L_Head_Z_For', 'localisation': 'R_Torso_Z_For', 'movement': 'R_Head_X_For'}",localisation,"['laterality', 'localisation']",R_Torso_Z_For,0,2,robot,2,False,False,"['robot_stimuli\\R_Torso_Z_For.mp4', 'robot_stimuli\\R_Head_X_For.mp4', 'robot_stimuli\\R_Head_Z_For.mp4', 'robot_stimuli\\L_Head_Z_For.mp4']",robot_stimuli\R_Torso_Z_For.mp4,20,,,,,,,,,,,,,0,48,48,48,,,,,,,,,,,,,,,,,,1301.7123782001436,,,1318.612250499893,1318.612250499893,1318.612250499893,1,6.929899000097066,1325.559284900315,1325.559284900315,1325.559284900315,1325.559284900315,1325.559284900315,1325.559284900315,1325.559284900315,1325.559284900315,None,None,None,,,,1303.7997834999114,,,,,,,,1301.7123782001436,1301.7123782001436,None,,,,1301.7123782001436,1301.7123782001436,1314.9717545001768,20,001,2024-09-19_15h05.44.769,robot_cogshifting_sign,2022.2.5,59.867477291026624,
"['L_Head_Z_Back', 'R_Head_X_For', 'L_Torso_X_Back', 'L_Head_X_For']","{'laterality': 'R_Head_X_For', 'localisation': 'L_Torso_X_Back', 'movement': 'L_Head_Z_Back'}",localisation,"['laterality', 'localisation']",L_Torso_X_Back,2,2,robot,2,False,False,"['robot_stimuli\\L_Head_Z_Back.mp4', 'robot_stimuli\\R_Head_X_For.mp4', 'robot_stimuli\\L_Torso_X_Back.mp4', 'robot_stimuli\\L_Head_X_For.mp4']",robot_stimuli\L_Torso_X_Back.mp4,20,,,,,,,,,,,,,0,49,49,49,,,,,,,,,,,,,,,,,,1325.559284900315,,,1342.3923849998973,1342.3923849998973,1342.3923849998973,3,3.0692993998527527,1345.4817924001254,1345.4817924001254,1345.4817924001254,1345.4817924001254,1345.4817924001254,1345.4817924001254,1345.4817924001254,1345.4817924001254,None,None,None,,,,1327.6466652001254,,,,,,,,1325.559284900315,1325.559284900315,None,,,,1325.559284900315,1325.559284900315,1338.818684299942,20,001,2024-09-19_15h05.44.769,robot_cogshifting_sign,2022.2.5,59.867477291026624,
"['L_Base_Y_For', 'R_Base_Y_Back', 'R_Head_Y_Back', 'R_Base_Z_Back']","{'laterality': 'L_Base_Y_For', 'localisation': 'R_Head_Y_Back', 'movement': 'R_Base_Z_Back'}",movement,"['laterality', 'movement']",R_Base_Z_Back,3,2,robot,2,False,False,"['robot_stimuli\\L_Base_Y_For.mp4', 'robot_stimuli\\R_Base_Y_Back.mp4', 'robot_stimuli\\R_Head_Y_Back.mp4', 'robot_stimuli\\R_Base_Z_Back.mp4']",robot_stimuli\R_Base_Z_Back.mp4,20,,,,,,,,,,,,,0,50,50,50,,,,,,,,,,,,,,,,,,1345.4817924001254,,,1362.1646384000778,1362.1646384000778,1362.1646384000778,4,3.5375140998512506,1365.721623999998,1365.721623999998,1365.721623999998,1365.721623999998,1365.721623999998,1365.721623999998,1365.721623999998,1365.721623999998,None,None,None,,,,1347.5692576998845,,,,,,,,1345.4817924001254,1345.4817924001254,None,,,,1345.4817924001254,1345.4817924001254,1358.6243484001607,20,001,2024-09-19_15h05.44.769,robot_cogshifting_sign,2022.2.5,59.867477291026624,
"['R_Torso_X_For', 'L_Torso_X_Back', 'L_Torso_Z_Back', 'L_Head_X_Back']","{'laterality': 'R_Torso_X_For', 'localisation': 'L_Head_X_Back', 'movement': 'L_Torso_Z_Back'}",laterality,"['laterality', 'movement']",R_Torso_X_For,0,2,robot,2,False,False,"['robot_stimuli\\R_Torso_X_For.mp4', 'robot_stimuli\\L_Torso_X_Back.mp4', 'robot_stimuli\\L_Torso_Z_Back.mp4', 'robot_stimuli\\L_Head_X_Back.mp4']",robot_stimuli\R_Torso_X_For.mp4,20,,,,,,,,,,,,,0,51,51,51,,,,,,,,,,,,,,,,,,1365.721623999998,,,1382.5046435999684,1382.5046435999684,1382.5046435999684,1,6.534059599973261,1389.067581600044,1389.067581600044,1389.067581600044,1389.067581600044,1389.067581600044,1389.067581600044,1389.067581600044,1389.067581600044,None,None,None,,,,1367.8090849001892,,,,,,,,1365.721623999998,1365.721623999998,None,,,,1365.721623999998,1365.721623999998,1378.8642001003027,20,001,2024-09-19_15h05.44.769,robot_cogshifting_sign,2022.2.5,59.867477291026624,
"['R_Head_Y_For', 'R_Head_Z_Back', 'L_Head_Y_Back', 'R_Torso_Y_Back']","{'laterality': 'L_Head_Y_Back', 'localisation': 'R_Torso_Y_Back', 'movement': 'R_Head_Z_Back'}",movement,"['laterality', 'movement']",R_Head_Z_Back,1,2,robot,2,False,False,"['robot_stimuli\\R_Head_Y_For.mp4', 'robot_stimuli\\R_Head_Z_Back.mp4', 'robot_stimuli\\L_Head_Y_Back.mp4', 'robot_stimuli\\R_Torso_Y_Back.mp4']",robot_stimuli\R_Head_Z_Back.mp4,20,,,,,,,,,,,,,0,52,52,52,,,,,,,,,,,,,,,,,,1389.067581600044,,,1405.9675055001862,1405.9675055001862,1405.9675055001862,3,4.294099300168455,1410.2927394001745,1410.2927394001745,1410.2927394001745,1410.2927394001745,1410.2927394001745,1410.2927394001745,1410.2927394001745,1410.2927394001745,None,None,None,,,,1391.1718092001975,,,,,,,,1389.067581600044,1389.067581600044,None,,,,1389.067581600044,1389.067581600044,1402.310337100178,20,001,2024-09-19_15h05.44.769,robot_cogshifting_sign,2022.2.5,59.867477291026624,
"['R_Torso_Y_For', 'L_Torso_Y_For', 'L_Torso_X_For', 'L_Arm_Y_Back']","{'laterality': 'R_Torso_Y_For', 'localisation': 'L_Arm_Y_Back', 'movement': 'L_Torso_X_For'}",laterality,"['laterality', 'movement']",R_Torso_Y_For,0,2,robot,2,False,True,"['robot_stimuli\\R_Torso_Y_For.mp4', 'robot_stimuli\\L_Torso_Y_For.mp4', 'robot_stimuli\\L_Torso_X_For.mp4', 'robot_stimuli\\L_Arm_Y_Back.mp4']",robot_stimuli\R_Torso_Y_For.mp4,20,,,,,,,,,,,,,0,53,53,53,,,,,,,,,,,,,,,,,,1410.2927394001745,,,1427.1759004001506,1427.1759004001506,1427.1759004001506,1,5.294964800123125,1432.5364709002897,1435.3085735999048,1432.5364709002897,1435.3085735999048,1432.5364709002897,1435.3085735999048,1432.5364709002897,1435.3085735999048,99.76190476190476,1.880200400017202,space,,,,1412.3801524001174,2.6939860000275075,,,,,,,1410.2927394001745,1410.2927394001745,None,,,,1410.2927394001745,1410.2927394001745,1423.5521080000326,20,001,2024-09-19_15h05.44.769,robot_cogshifting_sign,2022.2.5,59.867477291026624,
"['red_top_J_0', 'blue_top_R_45', 'red_top_N_45', 'red_right_J_45']","{'color': 'blue_top_R_45', 'position': 'red_right_J_45', 'orientation': 'red_top_J_0'}",color,"['color', 'orientation', 'position']",blue_top_R_45,1,3,letter,3,True,False,"['robot_stimuli\\\\filler.mp4', 'robot_stimuli\\\\filler.mp4', 'robot_stimuli\\\\filler.mp4', 'robot_stimuli\\\\filler.mp4']",robot_stimuli\\filler.mp4,20,,,,,,,,,,,,,0,54,54,54,,,,,,,,,,,,,,,,,,1454.1623613000847,,,1464.900161900092,1464.900161900092,1464.900161900092,2,2.7459428999572992,1467.6722742998973,1467.6722742998973,1467.6722742998973,1467.6722742998973,1467.6722742998973,1467.6722742998973,1467.6722742998973,1467.6722742998973,None,None,None,,,,,,,,,,,,1435.3085735999048,1435.3085735999048,space,18.82534600002691,1462.879513999913,1464.900161900092,,,,20,001,2024-09-19_15h05.44.769,robot_cogshifting_sign,2022.2.5,59.867477291026624,
"['red_bottom_Z_0', 'blue_bottom_P_45', 'blue_right_Q_0', 'blue_bottom_K_0']","{'color': 'red_bottom_Z_0', 'position': 'blue_right_Q_0', 'orientation': 'blue_bottom_P_45'}",position,"['color', 'orientation', 'position']",blue_right_Q_0,2,3,letter,3,False,False,"['robot_stimuli\\\\filler.mp4', 'robot_stimuli\\\\filler.mp4', 'robot_stimuli\\\\filler.mp4', 'robot_stimuli\\\\filler.mp4']",robot_stimuli\\filler.mp4,20,,,,,,,,,,,,,0,55,55,55,,,,,,,,,,,,,,,,,,1467.6722742998973,,,1478.593787000049,1478.593787000049,1478.593787000049,3,2.699821799993515,1481.3157553998753,1481.3157553998753,1481.3157553998753,1481.3157553998753,1481.3157553998753,1481.3157553998753,1481.3157553998753,1481.3157553998753,None,None,None,,,,1469.7430611001328,,,,,,,,1467.6722742998973,1467.6722742998973,None,,1476.3894485998899,1478.593787000049,1467.6722742998973,1467.6722742998973,,20,001,2024-09-19_15h05.44.769,robot_cogshifting_sign,2022.2.5,59.867477291026624,
"['blue_left_H_0', 'red_top_B_0', 'red_left_P_45', 'red_left_Z_0']","{'color': 'blue_left_H_0', 'position': 'red_top_B_0', 'orientation': 'red_left_P_45'}",orientation,"['color', 'orientation', 'position']",red_left_P_45,2,3,letter,3,False,False,"['robot_stimuli\\\\filler.mp4', 'robot_stimuli\\\\filler.mp4', 'robot_stimuli\\\\filler.mp4', 'robot_stimuli\\\\filler.mp4']",robot_stimuli\\filler.mp4,20,,,,,,,,,,,,,0,56,56,56,,,,,,,,,,,,,,,,,,1481.3157553998753,,,1492.0703189000487,1492.0703189000487,1492.0703189000487,3,1.6161617999896407,1493.7068898002617,1493.7068898002617,1493.7068898002617,1493.7068898002617,1493.7068898002617,1493.7068898002617,1493.7068898002617,1493.7068898002617,None,None,None,,,,1483.386609900277,,,,,,,,1481.3157553998753,1481.3157553998753,None,,1490.0330432001501,1492.0703189000487,1481.3157553998753,1481.3157553998753,,20,001,2024-09-19_15h05.44.769,robot_cogshifting_sign,2022.2.5,59.867477291026624,
"['red_bottom_Q_45', 'red_top_R_0', 'blue_top_H_45', 'red_top_D_45']","{'color': 'blue_top_H_45', 'position': 'red_bottom_Q_45', 'orientation': 'red_top_R_0'}",position,"['color', 'orientation', 'position']",red_bottom_Q_45,0,3,letter,3,False,False,"['robot_stimuli\\\\filler.mp4', 'robot_stimuli\\\\filler.mp4', 'robot_stimuli\\\\filler.mp4', 'robot_stimuli\\\\filler.mp4']",robot_stimuli\\filler.mp4,20,,,,,,,,,,,,,0,57,57,57,,,,,,,,,,,,,,,,,,1493.7068898002617,,,1504.645077300258,1504.645077300258,1504.645077300258,1,6.768866400234401,1511.4417662001215,1511.4417662001215,1511.4417662001215,1511.4417662001215,1511.4417662001215,1511.4417662001215,1511.4417662001215,1511.4417662001215,None,None,None,,,,1495.777681000065,,,,,,,,1493.7068898002617,1493.7068898002617,None,,1502.4240415999666,1504.645077300258,1493.7068898002617,1493.7068898002617,,20,001,2024-09-19_15h05.44.769,robot_cogshifting_sign,2022.2.5,59.867477291026624,
"['red_left_Q_0', 'blue_left_C_45', 'blue_left_B_0', 'blue_top_B_0']","{'color': 'red_left_Q_0', 'position': 'blue_top_B_0', 'orientation': 'blue_left_C_45'}",position,"['color', 'orientation', 'position']",blue_top_B_0,3,3,letter,3,False,False,"['robot_stimuli\\\\filler.mp4', 'robot_stimuli\\\\filler.mp4', 'robot_stimuli\\\\filler.mp4', 'robot_stimuli\\\\filler.mp4']",robot_stimuli\\filler.mp4,20,,,,,,,,,,,,,0,58,58,58,,,,,,,,,,,,,,,,,,1511.4417662001215,,,1521.795476499945,1521.795476499945,1521.795476499945,4,5.7784792999736965,1527.6069153998978,1527.6069153998978,1527.6069153998978,1527.6069153998978,1527.6069153998978,1527.6069153998978,1527.6069153998978,1527.6069153998978,None,None,None,,,,1513.4958397001028,,,,,,,,1511.4417662001215,1511.4417662001215,None,,1519.7582112001255,1521.795476499945,1511.4417662001215,1511.4417662001215,,20,001,2024-09-19_15h05.44.769,robot_cogshifting_sign,2022.2.5,59.867477291026624,
"['red_right_Q_0', 'red_right_K_45', 'red_bottom_Q_0', 'blue_right_J_0']","{'color': 'blue_right_J_0', 'position': 'red_bottom_Q_0', 'orientation': 'red_right_K_45'}",orientation,"['color', 'orientation', 'position']",red_right_K_45,1,3,letter,3,False,False,"['robot_stimuli\\\\filler.mp4', 'robot_stimuli\\\\filler.mp4', 'robot_stimuli\\\\filler.mp4', 'robot_stimuli\\\\filler.mp4']",robot_stimuli\\filler.mp4,20,,,,,,,,,,,,,0,59,59,59,,,,,,,,,,,,,,,,,,1527.6069153998978,,,1538.344700400252,1538.344700400252,1538.344700400252,1,3.028843800071627,1541.4007494999096,1541.4007494999096,1541.4007494999096,1541.4007494999096,1541.4007494999096,1541.4007494999096,1541.4007494999096,1541.4007494999096,None,None,None,,,,1529.6777623998933,,,,,,,,1527.6069153998978,1527.6069153998978,None,,1536.324237599969,1538.344700400252,1527.6069153998978,1527.6069153998978,,20,001,2024-09-19_15h05.44.769,robot_cogshifting_sign,2022.2.5,59.867477291026624,
"['blue_right_K_45', 'blue_left_B_45', 'red_right_F_45', 'blue_right_F_0']","{'color': 'red_right_F_45', 'position': 'blue_left_B_45', 'orientation': 'blue_right_F_0'}",color,"['color', 'orientation', 'position']",red_right_F_45,2,3,letter,3,False,False,"['robot_stimuli\\\\filler.mp4', 'robot_stimuli\\\\filler.mp4', 'robot_stimuli\\\\filler.mp4', 'robot_stimuli\\\\filler.mp4']",robot_stimuli\\filler.mp4,20,,,,,,,,,,,,,0,60,60,60,,,,,,,,,,,,,,,,,,1541.4007494999096,,,1552.1385448998772,1552.1385448998772,1552.1385448998772,1,7.2767298999242485,1559.4362492999062,1559.4362492999062,1559.4362492999062,1559.4362492999062,1559.4362492999062,1559.4362492999062,1559.4362492999062,1559.4362492999062,None,None,None,,,,1543.4714847002178,,,,,,,,1541.4007494999096,1541.4007494999096,None,,1550.1180219003,1552.1385448998772,1541.4007494999096,1541.4007494999096,,20,001,2024-09-19_15h05.44.769,robot_cogshifting_sign,2022.2.5,59.867477291026624,
"['red_top_F_0', 'red_top_J_45', 'red_right_F_0', 'blue_top_D_0']","{'color': 'blue_top_D_0', 'position': 'red_right_F_0', 'orientation': 'red_top_J_45'}",orientation,"['color', 'orientation', 'position']",red_top_J_45,1,3,letter,3,False,False,"['robot_stimuli\\\\filler.mp4', 'robot_stimuli\\\\filler.mp4', 'robot_stimuli\\\\filler.mp4', 'robot_stimuli\\\\filler.mp4']",robot_stimuli\\filler.mp4,20,,,,,,,,,,,,,0,61,61,61,,,,,,,,,,,,,,,,,,1559.4362492999062,,,1569.9903736002743,1569.9903736002743,1569.9903736002743,4,2.2552586998790503,1572.2781960000284,1572.2781960000284,1572.2781960000284,1572.2781960000284,1572.2781960000284,1572.2781960000284,1572.2781960000284,1572.2781960000284,None,None,None,,,,1561.5070340000093,,,,,,,,1559.4362492999062,1559.4362492999062,None,,1567.953025100287,1569.9903736002743,1559.4362492999062,1559.4362492999062,,20,001,2024-09-19_15h05.44.769,robot_cogshifting_sign,2022.2.5,59.867477291026624,
"['blue_right_N_0', 'blue_left_Z_45', 'blue_right_S_45', 'red_right_G_45']","{'color': 'red_right_G_45', 'position': 'blue_left_Z_45', 'orientation': 'blue_right_N_0'}",color,"['color', 'orientation', 'position']",red_right_G_45,3,3,letter,3,False,True,"['robot_stimuli\\\\filler.mp4', 'robot_stimuli\\\\filler.mp4', 'robot_stimuli\\\\filler.mp4', 'robot_stimuli\\\\filler.mp4']",robot_stimuli\\filler.mp4,20,,,,,,,,,,,,,0,62,62,62,,,,,,,,,,,,,,,,,,1572.2781960000284,,,1583.2163757001981,1583.2163757001981,1583.2163757001981,4,1.3971657999791205,1584.6692232000642,1587.6083734002896,1584.6692232000642,1587.6083734002896,1584.6692232000642,1587.6083734002896,1584.6692232000642,1587.6083734002896,85.0,2.0471042999997735,space,,,,1574.3322010999545,2.8725095000118017,,,,,,,1572.2781960000284,1572.2781960000284,None,,1580.9956672000699,1583.2163757001981,1572.2781960000284,1572.2781960000284,,20,001,2024-09-19_15h05.44.769,robot_cogshifting_sign,2022.2.5,59.867477291026624,
"['red_top_J_0', 'red_left_P_0', 'blue_top_P_0', 'red_top_W_45']","{'color': 'blue_top_P_0', 'position': 'red_left_P_0', 'orientation': 'red_top_W_45'}",color,['color'],blue_top_P_0,2,1,letter,3,True,False,"['robot_stimuli\\\\filler.mp4', 'robot_stimuli\\\\filler.mp4', 'robot_stimuli\\\\filler.mp4', 'robot_stimuli\\\\filler.mp4']",robot_stimuli\\filler.mp4,20,,,,,,,,,,,,,0,63,63,63,,,,,,,,,,,,,,,,,,1589.7960021998733,,,1600.3334033000283,1600.3334033000283,1600.3334033000283,3,1.153776700142771,1601.519036900252,1601.519036900252,1601.519036900252,1601.519036900252,1601.519036900252,1601.519036900252,1601.519036900252,1601.519036900252,None,None,None,,,,,,,,,,,,1587.6083734002896,1587.6083734002896,space,2.1573540000244975,1598.112374899909,1600.3334033000283,,,,20,001,2024-09-19_15h05.44.769,robot_cogshifting_sign,2022.2.5,59.867477291026624,
"['red_bottom_V_45', 'blue_top_G_45', 'red_top_D_45', 'red_top_R_0']","{'color': 'blue_top_G_45', 'position': 'red_bottom_V_45', 'orientation': 'red_top_R_0'}",position,['position'],red_bottom_V_45,0,1,letter,3,False,False,"['robot_stimuli\\\\filler.mp4', 'robot_stimuli\\\\filler.mp4', 'robot_stimuli\\\\filler.mp4', 'robot_stimuli\\\\filler.mp4']",robot_stimuli\\filler.mp4,20,,,,,,,,,,,,,0,64,64,64,,,,,,,,,,,,,,,,,,1601.519036900252,,,1612.0731782000512,1612.0731782000512,1612.0731782000512,1,0.5249469997361302,1612.6242156000808,1612.6242156000808,1612.6242156000808,1612.6242156000808,1612.6242156000808,1612.6242156000808,1612.6242156000808,1612.6242156000808,None,None,None,,,,1603.573110099882,,,,,,,,1601.519036900252,1601.519036900252,None,,1610.0528200999834,1612.0731782000512,1601.519036900252,1601.519036900252,,20,001,2024-09-19_15h05.44.769,robot_cogshifting_sign,2022.2.5,59.867477291026624,
"['blue_top_M_45', 'red_top_P_45', 'blue_top_B_0', 'blue_right_B_45']","{'color': 'red_top_P_45', 'position': 'blue_right_B_45', 'orientation': 'blue_top_B_0'}",orientation,['orientation'],blue_top_B_0,2,1,letter,3,False,False,"['robot_stimuli\\\\filler.mp4', 'robot_stimuli\\\\filler.mp4', 'robot_stimuli\\\\filler.mp4', 'robot_stimuli\\\\filler.mp4']",robot_stimuli\\filler.mp4,20,,,,,,,,,,,,,0,65,65,65,,,,,,,,,,,,,,,,,,1612.6242156000808,,,1623.5624406002462,1623.5624406002462,1623.5624406002462,3,1.036205899901688,1624.6312317000702,1624.6312317000702,1624.6312317000702,1624.6312317000702,1624.6312317000702,1624.6312317000702,1624.6312317000702,1624.6312317000702,None,None,None,,,,1614.6949682002887,,,,,,,,1612.6242156000808,1612.6242156000808,None,,1621.3414023001678,1623.5624406002462,1612.6242156000808,1612.6242156000808,,20,001,2024-09-19_15h05.44.769,robot_cogshifting_sign,2022.2.5,59.867477291026624,
"['blue_right_N_45', 'blue_right_F_0', 'red_right_J_45', 'blue_left_G_45']","{'color': 'red_right_J_45', 'position': 'blue_left_G_45', 'orientation': 'blue_right_F_0'}",position,['position'],blue_left_G_45,3,1,letter,3,False,False,"['robot_stimuli\\\\filler.mp4', 'robot_stimuli\\\\filler.mp4', 'robot_stimuli\\\\filler.mp4', 'robot_stimuli\\\\filler.mp4']",robot_stimuli\\filler.mp4,20,,,,,,,,,,,,,0,66,66,66,,,,,,,,,,,,,,,,,,1624.6312317000702,,,1635.3690133001655,1635.3690133001655,1635.3690133001655,4,3.125067400280386,1638.525172200054,1638.525172200054,1638.525172200054,1638.525172200054,1638.525172200054,1638.525172200054,1638.525172200054,1638.525172200054,None,None,None,,,,1626.7020160001703,,,,,,,,1624.6312317000702,1624.6312317000702,None,,1633.148024099879,1635.3690133001655,1624.6312317000702,1624.6312317000702,,20,001,2024-09-19_15h05.44.769,robot_cogshifting_sign,2022.2.5,59.867477291026624,
"['red_right_C_45', 'red_right_V_0', 'blue_right_P_45', 'red_bottom_J_45']","{'color': 'blue_right_P_45', 'position': 'red_bottom_J_45', 'orientation': 'red_right_V_0'}",position,['position'],red_bottom_J_45,3,1,letter,3,False,False,"['robot_stimuli\\\\filler.mp4', 'robot_stimuli\\\\filler.mp4', 'robot_stimuli\\\\filler.mp4', 'robot_stimuli\\\\filler.mp4']",robot_stimuli\\filler.mp4,20,,,,,,,,,,,,,0,67,67,67,,,,,,,,,,,,,,,,,,1638.525172200054,,,1649.246302800253,1649.246302800253,1649.246302800253,4,1.1434337999671698,1650.415303000249,1650.415303000249,1650.415303000249,1650.415303000249,1650.415303000249,1650.415303000249,1650.415303000249,1650.415303000249,None,None,None,,,,1640.595988899935,,,,,,,,1638.525172200054,1638.525172200054,None,,1647.2257094001397,1649.246302800253,1638.525172200054,1638.525172200054,,20,001,2024-09-19_15h05.44.769,robot_cogshifting_sign,2022.2.5,59.867477291026624,
"['blue_bottom_C_0', 'red_top_M_0', 'blue_top_J_45', 'blue_top_J_0']","{'color': 'red_top_M_0', 'position': 'blue_bottom_C_0', 'orientation': 'blue_top_J_45'}",color,['color'],red_top_M_0,1,1,letter,3,False,False,"['robot_stimuli\\\\filler.mp4', 'robot_stimuli\\\\filler.mp4', 'robot_stimuli\\\\filler.mp4', 'robot_stimuli\\\\filler.mp4']",robot_stimuli\\filler.mp4,20,,,,,,,,,,,,,0,68,68,68,,,,,,,,,,,,,,,,,,1650.415303000249,,,1660.935995500069,1660.935995500069,1660.935995500069,2,1.0224119001068175,1661.9880647999234,1661.9880647999234,1661.9880647999234,1661.9880647999234,1661.9880647999234,1661.9880647999234,1661.9880647999234,1661.9880647999234,None,None,None,,,,1652.469319500029,,,,,,,,1650.415303000249,1650.415303000249,None,,1658.915429700166,1660.935995500069,1650.415303000249,1650.415303000249,,20,001,2024-09-19_15h05.44.769,robot_cogshifting_sign,2022.2.5,59.867477291026624,
"['blue_right_Z_0', 'blue_bottom_N_45', 'red_bottom_Q_0', 'blue_bottom_K_0']","{'color': 'red_bottom_Q_0', 'position': 'blue_right_Z_0', 'orientation': 'blue_bottom_N_45'}",orientation,['orientation'],blue_bottom_N_45,1,1,letter,3,False,False,"['robot_stimuli\\\\filler.mp4', 'robot_stimuli\\\\filler.mp4', 'robot_stimuli\\\\filler.mp4', 'robot_stimuli\\\\filler.mp4']",robot_stimuli\\filler.mp4,20,,,,,,,,,,,,,0,69,69,69,,,,,,,,,,,,,,,,,,1661.9880647999234,,,1672.3251006002538,1672.3251006002538,1672.3251006002538,2,0.7452893001027405,1673.0932652000338,1673.0932652000338,1673.0932652000338,1673.0932652000338,1673.0932652000338,1673.0932652000338,1673.0932652000338,1673.0932652000338,None,None,None,,,,1664.0425169002265,,,,,,,,1661.9880647999234,1661.9880647999234,None,,1670.3044735002331,1672.3251006002538,1661.9880647999234,1661.9880647999234,,20,001,2024-09-19_15h05.44.769,robot_cogshifting_sign,2022.2.5,59.867477291026624,
"['red_top_F_45', 'red_left_B_0', 'red_top_C_0', 'blue_top_R_0']","{'color': 'blue_top_R_0', 'position': 'red_left_B_0', 'orientation': 'red_top_F_45'}",orientation,['orientation'],red_top_F_45,0,1,letter,3,False,False,"['robot_stimuli\\\\filler.mp4', 'robot_stimuli\\\\filler.mp4', 'robot_stimuli\\\\filler.mp4', 'robot_stimuli\\\\filler.mp4']",robot_stimuli\\filler.mp4,20,,,,,,,,,,,,,0,70,70,70,,,,,,,,,,,,,,,,,,1673.0932652000338,,,1683.6306932000443,1683.6306932000443,1683.6306932000443,1,1.0073867999017239,1684.666031199973,1684.666031199973,1684.666031199973,1684.666031199973,1684.666031199973,1684.666031199973,1684.666031199973,1684.666031199973,None,None,None,,,,1675.147673800122,,,,,,,,1673.0932652000338,1673.0932652000338,None,,1681.4097051001154,1683.6306932000443,1673.0932652000338,1673.0932652000338,,20,001,2024-09-19_15h05.44.769,robot_cogshifting_sign,2022.2.5,59.867477291026624,
"['red_right_J_0', 'red_left_P_0', 'red_left_W_45', 'blue_left_F_0']","{'color': 'blue_left_F_0', 'position': 'red_right_J_0', 'orientation': 'red_left_W_45'}",color,['color'],blue_left_F_0,3,1,letter,3,False,True,"['robot_stimuli\\\\filler.mp4', 'robot_stimuli\\\\filler.mp4', 'robot_stimuli\\\\filler.mp4', 'robot_stimuli\\\\filler.mp4']",robot_stimuli\\filler.mp4,20,,,,,,,,,,,,,0,71,71,71,,,,,,,,,,,,,,,,,,1684.666031199973,,,1695.403816500213,1695.403816500213,1695.403816500213,4,0.905887299682945,1696.372401200235,1699.845921,1696.372401200235,1699.845921,1696.372401200235,1699.845921,1696.372401200235,1699.845921,20.396825396825395,2.648070899769664,space,,,,1686.736851300113,3.3940007998608053,,,,,,,1684.666031199973,1684.666031199973,None,,1693.1828872002661,1695.403816500213,1684.666031199973,1684.666031199973,,20,001,2024-09-19_15h05.44.769,robot_cogshifting_sign,2022.2.5,59.867477291026624,
"['red_bottom_K_45', 'blue_top_N_45', 'red_top_T_0', 'red_top_G_45']","{'color': 'blue_top_N_45', 'position': 'red_bottom_K_45', 'orientation': 'red_top_T_0'}",color,"['color', 'position']",blue_top_N_45,1,2,letter,3,True,False,"['robot_stimuli\\\\filler.mp4', 'robot_stimuli\\\\filler.mp4', 'robot_stimuli\\\\filler.mp4', 'robot_stimuli\\\\filler.mp4']",robot_stimuli\\filler.mp4,20,,,,,,,,,,,,,0,72,72,72,,,,,,,,,,,,,,,,,,1717.6309401001781,,,1728.5691197998822,1728.5691197998822,1728.5691197998822,2,3.4129463001154363,1732.009295700118,1732.009295700118,1732.009295700118,1732.009295700118,1732.009295700118,1732.009295700118,1732.009295700118,1732.009295700118,None,None,None,,,,,,,,,,,,1699.845921,1699.845921,space,17.752808100078255,1726.348179699853,1728.5691197998822,,,,20,001,2024-09-19_15h05.44.769,robot_cogshifting_sign,2022.2.5,59.867477291026624,
"['blue_left_T_45', 'blue_left_J_0', 'red_left_Z_45', 'blue_bottom_V_45']","{'color': 'red_left_Z_45', 'position': 'blue_bottom_V_45', 'orientation': 'blue_left_J_0'}",color,"['color', 'orientation']",red_left_Z_45,2,2,letter,3,False,False,"['robot_stimuli\\\\filler.mp4', 'robot_stimuli\\\\filler.mp4', 'robot_stimuli\\\\filler.mp4', 'robot_stimuli\\\\filler.mp4']",robot_stimuli\\filler.mp4,20,,,,,,,,,,,,,0,73,73,73,,,,,,,,,,,,,,,,,,1732.009295700118,,,1742.9474105001427,1742.9474105001427,1742.9474105001427,3,4.146802399773151,1747.1223186003044,1747.1223186003044,1747.1223186003044,1747.1223186003044,1747.1223186003044,1747.1223186003044,1747.1223186003044,1747.1223186003044,None,None,None,,,,1734.0800109999254,,,,,,,,1732.009295700118,1732.009295700118,None,,1740.7264600000344,1742.9474105001427,1732.009295700118,1732.009295700118,,20,001,2024-09-19_15h05.44.769,robot_cogshifting_sign,2022.2.5,59.867477291026624,
"['blue_right_P_45', 'red_top_M_45', 'red_right_Q_45', 'red_right_R_0']","{'color': 'blue_right_P_45', 'position': 'red_top_M_45', 'orientation': 'red_right_R_0'}",position,"['orientation', 'position']",red_top_M_45,1,2,letter,3,False,False,"['robot_stimuli\\\\filler.mp4', 'robot_stimuli\\\\filler.mp4', 'robot_stimuli\\\\filler.mp4', 'robot_stimuli\\\\filler.mp4']",robot_stimuli\\filler.mp4,20,,,,,,,,,,,,,0,74,74,74,,,,,,,,,,,,,,,,,,1747.1223186003044,,,1758.2775953002274,1758.2775953002274,1758.2775953002274,2,4.360502099618316,1762.6695702001452,1762.6695702001452,1762.6695702001452,1762.6695702001452,1762.6695702001452,1762.6695702001452,1762.6695702001452,1762.6695702001452,None,None,None,,,,1749.1930990000255,,,,,,,,1747.1223186003044,1747.1223186003044,None,,1756.0565824001096,1758.2775953002274,1747.1223186003044,1747.1223186003044,,20,001,2024-09-19_15h05.44.769,robot_cogshifting_sign,2022.2.5,59.867477291026624,
"['blue_top_H_45', 'red_top_N_0', 'blue_top_X_0', 'blue_right_N_0']","{'color': 'red_top_N_0', 'position': 'blue_right_N_0', 'orientation': 'blue_top_H_45'}",orientation,"['color', 'orientation']",blue_top_H_45,0,2,letter,3,False,False,"['robot_stimuli\\\\filler.mp4', 'robot_stimuli\\\\filler.mp4', 'robot_stimuli\\\\filler.mp4', 'robot_stimuli\\\\filler.mp4']",robot_stimuli\\filler.mp4,20,,,,,,,,,,,,,0,75,75,75,,,,,,,,,,,,,,,,,,1762.6695702001452,,,1773.6077544,1773.6077544,1773.6077544,1,3.58207569969818,1777.214871400036,1777.214871400036,1777.214871400036,1777.214871400036,1777.214871400036,1777.214871400036,1777.214871400036,1777.214871400036,None,None,None,,,,1764.740327999927,,,,,,,,1762.6695702001452,1762.6695702001452,None,,1771.3867951002903,1773.6077544,1762.6695702001452,1762.6695702001452,,20,001,2024-09-19_15h05.44.769,robot_cogshifting_sign,2022.2.5,59.867477291026624,
"['blue_bottom_F_45', 'red_right_D_45', 'blue_right_D_45', 'blue_right_G_0']","{'color': 'red_right_D_45', 'position': 'blue_bottom_F_45', 'orientation': 'blue_right_G_0'}",position,"['orientation', 'position']",blue_bottom_F_45,0,2,letter,3,False,False,"['robot_stimuli\\\\filler.mp4', 'robot_stimuli\\\\filler.mp4', 'robot_stimuli\\\\filler.mp4', 'robot_stimuli\\\\filler.mp4']",robot_stimuli\\filler.mp4,20,,,,,,,,,,,,,0,76,76,76,,,,,,,,,,,,,,,,,,1777.214871400036,,,1788.1530718998984,1788.1530718998984,1788.1530718998984,1,2.148430500179529,1790.3239845000207,1790.3239845000207,1790.3239845000207,1790.3239845000207,1790.3239845000207,1790.3239845000207,1790.3239845000207,1790.3239845000207,None,None,None,,,,1779.2856719000265,,,,,,,,1777.214871400036,1777.214871400036,None,,1785.9487443999387,1788.1530718998984,1777.214871400036,1777.214871400036,,20,001,2024-09-19_15h05.44.769,robot_cogshifting_sign,2022.2.5,59.867477291026624,
"['red_top_M_0', 'blue_right_C_0', 'blue_top_K_0', 'blue_top_Q_45']","{'color': 'red_top_M_0', 'position': 'blue_right_C_0', 'orientation': 'blue_top_Q_45'}",orientation,"['color', 'orientation']",blue_top_Q_45,3,2,letter,3,False,False,"['robot_stimuli\\\\filler.mp4', 'robot_stimuli\\\\filler.mp4', 'robot_stimuli\\\\filler.mp4', 'robot_stimuli\\\\filler.mp4']",robot_stimuli\\filler.mp4,20,,,,,,,,,,,,,0,77,77,77,,,,,,,,,,,,,,,,,,1790.3239845000207,,,1801.2621917002834,1801.2621917002834,1801.2621917002834,4,3.840775900054723,1805.1197441001423,1805.1197441001423,1805.1197441001423,1805.1197441001423,1805.1197441001423,1805.1197441001423,1805.1197441001423,1805.1197441001423,None,None,None,,,,1792.3947747000493,,,,,,,,1790.3239845000207,1790.3239845000207,None,,1799.1079808999784,1801.2621917002834,1790.3239845000207,1790.3239845000207,,20,001,2024-09-19_15h05.44.769,robot_cogshifting_sign,2022.2.5,59.867477291026624,
"['red_left_R_0', 'red_right_H_0', 'red_right_B_45', 'blue_right_R_0']","{'color': 'blue_right_R_0', 'position': 'red_left_R_0', 'orientation': 'red_right_B_45'}",color,"['color', 'orientation']",blue_right_R_0,3,2,letter,3,False,False,"['robot_stimuli\\\\filler.mp4', 'robot_stimuli\\\\filler.mp4', 'robot_stimuli\\\\filler.mp4', 'robot_stimuli\\\\filler.mp4']",robot_stimuli\\filler.mp4,20,,,,,,,,,,,,,0,78,78,78,,,,,,,,,,,,,,,,,,1805.1197441001423,,,1815.8408989999443,1815.8408989999443,1815.8408989999443,4,4.213231999892741,1820.082570800092,1820.082570800092,1820.082570800092,1820.082570800092,1820.082570800092,1820.082570800092,1820.082570800092,1820.082570800092,None,None,None,,,,1807.1905228998512,,,,,,,,1805.1197441001423,1805.1197441001423,None,,1813.8204561001621,1815.8408989999443,1805.1197441001423,1805.1197441001423,,20,001,2024-09-19_15h05.44.769,robot_cogshifting_sign,2022.2.5,59.867477291026624,
"['blue_right_F_45', 'red_right_Q_45', 'red_bottom_K_45', 'red_right_N_0']","{'color': 'blue_right_F_45', 'position': 'red_bottom_K_45', 'orientation': 'red_right_N_0'}",position,"['color', 'position']",red_bottom_K_45,2,2,letter,3,False,False,"['robot_stimuli\\\\filler.mp4', 'robot_stimuli\\\\filler.mp4', 'robot_stimuli\\\\filler.mp4', 'robot_stimuli\\\\filler.mp4']",robot_stimuli\\filler.mp4,20,,,,,,,,,,,,,0,79,79,79,,,,,,,,,,,,,,,,,,1820.082570800092,,,1830.620001600124,1830.620001600124,1830.620001600124,3,5.73755869967863,1836.381293900311,1836.381293900311,1836.381293900311,1836.381293900311,1836.381293900311,1836.381293900311,1836.381293900311,1836.381293900311,None,None,None,,,,1822.1367405001074,,,,,,,,1820.082570800092,1820.082570800092,None,,1828.3990555000491,1830.620001600124,1820.082570800092,1820.082570800092,,20,001,2024-09-19_15h05.44.769,robot_cogshifting_sign,2022.2.5,59.867477291026624,
"['blue_left_H_45', 'red_top_Q_45', 'blue_top_S_0', 'blue_top_G_45']","{'color': 'red_top_Q_45', 'position': 'blue_left_H_45', 'orientation': 'blue_top_S_0'}",orientation,"['color', 'orientation']",blue_top_S_0,2,2,letter,3,False,True,"['robot_stimuli\\\\filler.mp4', 'robot_stimuli\\\\filler.mp4', 'robot_stimuli\\\\filler.mp4', 'robot_stimuli\\\\filler.mp4']",robot_stimuli\\filler.mp4,20,,,,,,,,,,,,,0,80,80,80,,,,,,,,,,,,,,,,,,1836.381293900311,,,1847.3194917002693,1847.3194917002693,1847.3194917002693,3,4.5659343004226685,1851.9452773001976,1854.2330879000947,1851.9452773001976,1854.2330879000947,1851.9452773001976,1854.2330879000947,1851.9452773001976,1854.2330879000947,90.23809523809524,1.8308778000064194,space,,,,1838.4521841001697,2.2120982999913394,,,,,,,1836.381293900311,1836.381293900311,None,,1845.0984960002825,1847.3194917002693,1836.381293900311,1836.381293900311,,20,001,2024-09-19_15h05.44.769,robot_cogshifting_sign,2022.2.5,59.867477291026624,
"['L_Base_X_Back', 'R_Base_X_Back', 'L_Base_Y_For', 'L_Torso_X_Back']","{'laterality': 'R_Base_X_Back', 'localisation': 'L_Torso_X_Back', 'movement': 'L_Base_Y_For'}",localisation,['localisation'],L_Torso_X_Back,3,1,robot,4,True,False,"['robot_stimuli\\L_Base_X_Back.mp4', 'robot_stimuli\\R_Base_X_Back.mp4', 'robot_stimuli\\L_Base_Y_For.mp4', 'robot_stimuli\\L_Torso_X_Back.mp4']",robot_stimuli\L_Torso_X_Back.mp4,20,,,,,,,,,,,,,0,81,81,81,,,,,,,,,,,,,,,,,,1857.3392297001556,,,1874.1222076001577,1874.1222076001577,1874.1222076001577,4,0.5556423999369144,1874.7067037001252,1874.7067037001252,1874.7067037001252,1874.7067037001252,1874.7067037001252,1874.7067037001252,1874.7067037001252,1874.7067037001252,None,None,None,,,,,,,,,,,,1854.2330879000947,1854.2330879000947,space,3.0847724000923336,,,,,1870.465075199958,20,001,2024-09-19_15h05.44.769,robot_cogshifting_sign,2022.2.5,59.867477291026624,
"['L_Arm_Z_Back', 'L_Base_Y_Back', 'L_Base_Z_For', 'R_Base_Z_For']","{'laterality': 'R_Base_Z_For', 'localisation': 'L_Arm_Z_Back', 'movement': 'L_Base_Y_Back'}",laterality,['laterality'],R_Base_Z_For,3,1,robot,4,False,False,"['robot_stimuli\\L_Arm_Z_Back.mp4', 'robot_stimuli\\L_Base_Y_Back.mp4', 'robot_stimuli\\L_Base_Z_For.mp4', 'robot_stimuli\\R_Base_Z_For.mp4']",robot_stimuli\R_Base_Z_For.mp4,20,,,,,,,,,,,,,0,82,82,82,,,,,,,,,,,,,,,,,,1874.7067037001252,,,1891.5398364001885,1891.5398364001885,1891.5398364001885,4,0.5218513999134302,1892.0909223002382,1892.0909223002382,1892.0909223002382,1892.0909223002382,1892.0909223002382,1892.0909223002382,1892.0909223002382,1892.0909223002382,None,None,None,,,,1876.7942373999394,,,,,,,,1874.7067037001252,1874.7067037001252,None,,,,1874.7067037001252,1874.7067037001252,1887.882677400019,20,001,2024-09-19_15h05.44.769,robot_cogshifting_sign,2022.2.5,59.867477291026624,
"['R_Base_X_For', 'R_Base_Z_For', 'L_Base_X_Back', 'R_Head_X_For']","{'laterality': 'L_Base_X_Back', 'localisation': 'R_Head_X_For', 'movement': 'R_Base_Z_For'}",movement,['movement'],R_Base_Z_For,1,1,robot,4,False,False,"['robot_stimuli\\R_Base_X_For.mp4', 'robot_stimuli\\R_Base_Z_For.mp4', 'robot_stimuli\\L_Base_X_Back.mp4', 'robot_stimuli\\R_Head_X_For.mp4']",robot_stimuli\R_Base_Z_For.mp4,20,,,,,,,,,,,,,0,83,83,83,,,,,,,,,,,,,,,,,,1892.0909223002382,,,1908.8572845002636,1908.8572845002636,1908.8572845002636,2,0.5966817000880837,1909.4751611999236,1909.4751611999236,1909.4751611999236,1909.4751611999236,1909.4751611999236,1909.4751611999236,1909.4751611999236,1909.4751611999236,None,None,None,,,,1894.1784251001664,,,,,,,,1892.0909223002382,1892.0909223002382,None,,,,1892.0909223002382,1892.0909223002382,1905.216743600089,20,001,2024-09-19_15h05.44.769,robot_cogshifting_sign,2022.2.5,59.867477291026624,
"['L_Base_X_Back', 'R_Arm_X_For', 'R_Base_X_For', 'R_Base_Y_Back']","{'laterality': 'L_Base_X_Back', 'localisation': 'R_Arm_X_For', 'movement': 'R_Base_Y_Back'}",laterality,['laterality'],L_Base_X_Back,0,1,robot,4,False,False,"['robot_stimuli\\L_Base_X_Back.mp4', 'robot_stimuli\\R_Arm_X_For.mp4', 'robot_stimuli\\R_Base_X_For.mp4', 'robot_stimuli\\R_Base_Y_Back.mp4']",robot_stimuli\L_Base_X_Back.mp4,20,,,,,,,,,,,,,0,84,84,84,,,,,,,,,,,,,,,,,,1909.4751611999236,,,1926.2414883002639,1926.2414883002639,1926.2414883002639,1,0.6686712000519037,1926.9428647002205,1926.9428647002205,1926.9428647002205,1926.9428647002205,1926.9428647002205,1926.9428647002205,1926.9428647002205,1926.9428647002205,None,None,None,,,,1911.5625908998773,,,,,,,,1909.4751611999236,1909.4751611999236,None,,,,1909.4751611999236,1909.4751611999236,1922.5842717001215,20,001,2024-09-19_15h05.44.769,robot_cogshifting_sign,2022.2.5,59.867477291026624,
"['R_Arm_X_Back', 'R_Arm_Z_Back', 'R_Torso_X_For', 'L_Arm_X_Back']","{'laterality': 'L_Arm_X_Back', 'localisation': 'R_Torso_X_For', 'movement': 'R_Arm_Z_Back'}",localisation,['localisation'],R_Torso_X_For,2,1,robot,4,False,False,"['robot_stimuli\\R_Arm_X_Back.mp4', 'robot_stimuli\\R_Arm_Z_Back.mp4', 'robot_stimuli\\R_Torso_X_For.mp4', 'robot_stimuli\\L_Arm_X_Back.mp4']",robot_stimuli\R_Torso_X_For.mp4,20,,,,,,,,,,,,,0,85,85,85,,,,,,,,,,,,,,,,,,1926.9428647002205,,,1943.8595107002184,1943.8595107002184,1943.8595107002184,3,0.585788699798286,1944.477389300242,1944.477389300242,1944.477389300242,1944.477389300242,1944.477389300242,1944.477389300242,1944.477389300242,1944.477389300242,None,None,None,,,,1929.0470543000847,,,,,,,,1926.9428647002205,1926.9428647002205,None,,,,1926.9428647002205,1926.9428647002205,1940.202353599947,20,001,2024-09-19_15h05.44.769,robot_cogshifting_sign,2022.2.5,59.867477291026624,
