sequence,is_true,target,condition,stimuli,block,is_block_beginning,is_block_ending,sequence_fnames,target_fname,subject,retraining.thisRepN,retraining.thisTrialN,retraining.thisN,retraining.thisIndex,training.thisRepN,training.thisTrialN,training.thisN,training.thisIndex,training_sequence_loop.thisRepN,training_sequence_loop.thisTrialN,training_sequence_loop.thisN,training_sequence_loop.thisIndex,trials.thisRepN,trials.thisTrialN,trials.thisN,trials.thisIndex,sequence_loop.thisRepN,sequence_loop.thisTrialN,sequence_loop.thisN,sequence_loop.thisIndex,langage_text.started,langage_key.started,langage_key.keys,langage_key.rt,intro_text.started,intro_key.started,intro_key.keys,intro_key.rt,training_intro_text.started,training_intro_key.started,training_intro_key.keys,training_intro_key.rt,polygon.started,polygon.stopped,training_presentation_letter.started,training_presentation_letter.stopped,training_recall_letter.started,training_recall_key.started,training_recall_question.started,training_recall_answer.started,training_recall_key.keys,training_recall_key.rt,RSME_labels.started,RSME_labels.stopped,RSME_ticks.started,RSME_ticks.stopped,RSME_text.started,RSME_text.stopped,RSME_key.started,RSME_key.stopped,RSME_ticks.response,RSME_ticks.rt,RSME_key.keys,training_intro_text.stopped,training_intro_key.stopped,RSME_key.rt,training_presentation_movie.started,training_recall_movie.started,experiment_beginning_text.started,experiment_beginning_keys.started,experiment_beginning_key.started,experiment_beginning_key.keys,experiment_beginning_key.rt,block_intro_text.started,block_intro_key.started,block_intro_key.keys,block_intro_key.rt,presentation_letter.started,presentation_letter.stopped,recall_letter.started,recall_key.started,recall_question.started,recall_answer.started,recall_key.keys,recall_key.rt,block_intro_text.stopped,block_intro_key.stopped,presentation_movie.started,recall_movie.started,participant,session,date,expName,psychopyVersion,frameRate,
,,,,,,,,,,,,,,,,,,,,,,,,,,,,,,,14.546064600000022,14.546064600000022,f,1.076885500000003,,,,,,,,,,,,,,,,,,,,,,,,,,,,,,,,,,,,,,,,,,,,,,,,,,,,,,,,6,001,2024-06-28_10h33.57.339,robot_sternberg_sign,2022.2.5,59.995200383995034,
,,,,,,,,,,,,,,,,,,,,,,,,,,,,,,,,,,,15.688232799999923,15.688232799999923,space,42.1194481,,,,,,,,,,,,,,,,,,,,,,,,,,,,,,,,,,,,,,,,,,,,,,,,,,,,6,001,2024-06-28_10h33.57.339,robot_sternberg_sign,2022.2.5,59.995200383995034,
"['Q', 'V']",True,Q,2,letter,1,True,False,"['robot_stimuli\\\\filler.mp4', 'robot_stimuli\\\\filler.mp4']",robot_stimuli\\filler.mp4,6,0,0,0,0,0,0,0,0,,,,,,,,,,,,,,,,,,,,,57.85164689999999,57.85164689999999,space,3.356018100000142,67.23953789999996,68.3427345,65.02781389999996,67.23953789999996,68.3427345,68.3427345,68.3427345,68.3427345,c,1.7831823000000213,70.46625589999996,70.46625589999996,70.46625589999996,70.46625589999996,70.46625589999996,70.46625589999996,70.46625589999996,70.46625589999996,None,None,None,,,,,,,,,,,,,,,,,,,,,,,,,,,6,001,2024-06-28_10h33.57.339,robot_sternberg_sign,2022.2.5,59.995200383995034,
"['H', 'D']",True,H,2,letter,1,False,False,"['robot_stimuli\\\\filler.mp4', 'robot_stimuli\\\\filler.mp4']",robot_stimuli\\filler.mp4,6,0,0,0,0,0,1,1,1,,,,,,,,,,,,,,,,,,,,,70.46625589999996,70.46625589999996,None,,75.86362889999998,76.93526999999995,73.65072769999995,75.86362889999998,76.93526999999995,76.93526999999995,76.93526999999995,76.93526999999995,c,0.6959468000000015,77.75961050000001,77.75961050000001,77.75961050000001,77.75961050000001,77.75961050000001,77.75961050000001,77.75961050000001,77.75961050000001,None,None,None,70.46625589999996,70.46625589999996,,,,,,,,,,,,,,,,,,,,,,,,,6,001,2024-06-28_10h33.57.339,robot_sternberg_sign,2022.2.5,59.995200383995034,
"['W', 'Z']",False,M,2,letter,1,False,True,"['robot_stimuli\\\\filler.mp4', 'robot_stimuli\\\\filler.mp4']",robot_stimuli\\filler.mp4,6,0,0,0,0,0,2,2,2,,,,,,,,,,,,,,,,,,,,,77.75961050000001,77.75961050000001,None,,82.96652569999992,84.03977079999993,80.94903799999997,82.96652569999992,84.03977079999993,84.03977079999993,84.03977079999993,84.03977079999993,n,0.7829665000001569,85.12728019999997,89.94756009999992,85.12728019999997,89.94756009999992,85.12728019999997,89.94756009999992,85.12728019999997,89.94756009999992,6.697530864197526,3.55033370000001,space,77.75961050000001,77.75961050000001,4.736287899999979,,,,,,,,,,,,,,,,,,,,,,,,6,001,2024-06-28_10h33.57.339,robot_sternberg_sign,2022.2.5,59.995200383995034,
"['P', 'M', 'H', 'K']",True,K,4,letter,1,True,False,"['robot_stimuli\\\\filler.mp4', 'robot_stimuli\\\\filler.mp4', 'robot_stimuli\\\\filler.mp4', 'robot_stimuli\\\\filler.mp4']",robot_stimuli\\filler.mp4,6,0,0,0,0,0,3,3,3,,,,,,,,,,,,,,,,,,,,,89.94756009999992,89.94756009999992,space,1.6679063999999926,101.81854669999996,102.88258489999998,99.60494099999994,101.81854669999996,102.88258489999998,102.88258489999998,102.88258489999998,102.88258489999998,c,0.8363921000000119,103.90993170000002,103.90993170000002,103.90993170000002,103.90993170000002,103.90993170000002,103.90993170000002,103.90993170000002,103.90993170000002,None,None,None,,,,,,,,,,,,,,,,,,,,,,,,,,,6,001,2024-06-28_10h33.57.339,robot_sternberg_sign,2022.2.5,59.995200383995034,
"['K', 'V', 'W', 'X']",True,V,4,letter,1,False,False,"['robot_stimuli\\\\filler.mp4', 'robot_stimuli\\\\filler.mp4', 'robot_stimuli\\\\filler.mp4', 'robot_stimuli\\\\filler.mp4']",robot_stimuli\\filler.mp4,6,0,0,0,0,0,4,4,4,,,,,,,,,,,,,,,,,,,,,103.90993170000002,103.90993170000002,None,,113.91939919999993,114.98492620000002,111.70592269999997,113.91939919999993,114.98492620000002,114.98492620000002,114.98492620000002,114.98492620000002,c,1.333768100000043,116.41077810000002,116.41077810000002,116.41077810000002,116.41077810000002,116.41077810000002,116.41077810000002,116.41077810000002,116.41077810000002,None,None,None,103.90993170000002,103.90993170000002,,,,,,,,,,,,,,,,,,,,,,,,,6,001,2024-06-28_10h33.57.339,robot_sternberg_sign,2022.2.5,59.995200383995034,
"['R', 'L', 'X', 'V']",False,P,4,letter,1,False,True,"['robot_stimuli\\\\filler.mp4', 'robot_stimuli\\\\filler.mp4', 'robot_stimuli\\\\filler.mp4', 'robot_stimuli\\\\filler.mp4']",robot_stimuli\\filler.mp4,6,0,0,0,0,0,5,5,5,,,,,,,,,,,,,,,,,,,,,116.41077810000002,116.41077810000002,None,,126.20827479999991,127.28491159999999,124.18700660000002,126.20827479999991,127.28491159999999,127.28491159999999,127.28491159999999,127.28491159999999,n,0.7701183000000356,128.14641529999994,136.619864,128.14641529999994,136.619864,128.14641529999994,136.619864,128.14641529999994,136.619864,14.722222222222223,6.729251500000032,space,116.41077810000002,116.41077810000002,8.412357300000053,,,,,,,,,,,,,,,,,,,,,,,,6,001,2024-06-28_10h33.57.339,robot_sternberg_sign,2022.2.5,59.995200383995034,
"['F', 'W', 'P', 'J', 'T', 'D']",True,W,6,letter,1,True,False,"['robot_stimuli\\\\filler.mp4', 'robot_stimuli\\\\filler.mp4', 'robot_stimuli\\\\filler.mp4', 'robot_stimuli\\\\filler.mp4', 'robot_stimuli\\\\filler.mp4', 'robot_stimuli\\\\filler.mp4']",robot_stimuli\\filler.mp4,6,0,0,0,0,0,6,6,6,,,,,,,,,,,,,,,,,,,,,136.619864,136.619864,space,2.0520106999999825,152.91316489999997,153.98755699999992,150.69395559999998,152.91316489999997,153.98755699999992,153.98755699999992,153.98755699999992,153.98755699999992,c,0.8671105000000807,155.0120425,155.0120425,155.0120425,155.0120425,155.0120425,155.0120425,155.0120425,155.0120425,None,None,None,,,,,,,,,,,,,,,,,,,,,,,,,,,6,001,2024-06-28_10h33.57.339,robot_sternberg_sign,2022.2.5,59.995200383995034,
"['V', 'J', 'X', 'R', 'P', 'D']",False,W,6,letter,1,False,False,"['robot_stimuli\\\\filler.mp4', 'robot_stimuli\\\\filler.mp4', 'robot_stimuli\\\\filler.mp4', 'robot_stimuli\\\\filler.mp4', 'robot_stimuli\\\\filler.mp4', 'robot_stimuli\\\\filler.mp4']",robot_stimuli\\filler.mp4,6,0,0,0,0,0,7,7,7,,,,,,,,,,,,,,,,,,,,,155.0120425,155.0120425,None,,169.15195440000002,170.21501379999995,167.13488129999996,169.15195440000002,170.21501379999995,170.21501379999995,170.21501379999995,170.21501379999995,n,1.472511200000099,171.84462359999998,171.84462359999998,171.84462359999998,171.84462359999998,171.84462359999998,171.84462359999998,171.84462359999998,171.84462359999998,None,None,None,155.0120425,155.0120425,,,,,,,,,,,,,,,,,,,,,,,,,6,001,2024-06-28_10h33.57.339,robot_sternberg_sign,2022.2.5,59.995200383995034,
"['N', 'K', 'W', 'X', 'F', 'D']",True,D,6,letter,1,False,True,"['robot_stimuli\\\\filler.mp4', 'robot_stimuli\\\\filler.mp4', 'robot_stimuli\\\\filler.mp4', 'robot_stimuli\\\\filler.mp4', 'robot_stimuli\\\\filler.mp4', 'robot_stimuli\\\\filler.mp4']",robot_stimuli\\filler.mp4,6,0,0,0,0,0,8,8,8,,,,,,,,,,,,,,,,,,,,,171.84462359999998,171.84462359999998,None,,186.20458309999992,172.9219645999999,184.18344119999995,186.20458309999992,187.2851025,187.2851025,187.2851025,187.2851025,c,1.057490400000006,188.54725729999996,195.06013269999994,188.54725729999996,195.06013269999994,188.54725729999996,195.06013269999994,188.54725729999996,195.06013269999994,25.524691358024683,3.345227399999999,space,171.84462359999998,171.84462359999998,6.459307100000046,,,,,,,,,,,,,,,,,,,,,,,,6,001,2024-06-28_10h33.57.339,robot_sternberg_sign,2022.2.5,59.995200383995034,
"['R_Head_X_For', 'R_Head_Z_For']",False,R_Torso_Y_Back,2,robot,2,True,False,"['robot_stimuli\\R_Head_X_For.mp4', 'robot_stimuli\\R_Head_Z_For.mp4']",robot_stimuli\R_Torso_Y_Back.mp4,6,0,0,0,0,0,9,9,9,,,,,,,,,,,,,,,,,,,,,195.06013269999994,195.06013269999994,space,0.8836152000001221,204.42971769999997,205.53681069999993,,,,205.53681069999993,205.53681069999993,205.53681069999993,n,2.2613554000000704,209.18802559999995,209.18802559999995,209.18802559999995,209.18802559999995,209.18802559999995,209.18802559999995,209.18802559999995,209.18802559999995,None,None,None,,,,200.78760979999993,205.53681069999993,,,,,,,,,,,,,,,,,,,,,,6,001,2024-06-28_10h33.57.339,robot_sternberg_sign,2022.2.5,59.995200383995034,
"['L_Arm_Z_Back', 'L_Arm_Y_Back']",True,L_Arm_Y_Back,2,robot,2,False,False,"['robot_stimuli\\L_Arm_Z_Back.mp4', 'robot_stimuli\\L_Arm_Y_Back.mp4']",robot_stimuli\L_Arm_Y_Back.mp4,6,0,0,0,0,0,10,10,10,,,,,,,,,,,,,,,,,,,,,209.18802559999995,209.18802559999995,None,,217.65608880000002,,,,,218.75288879999994,218.75288879999994,218.75288879999994,c,1.813139299999989,222.40204819999997,222.40204819999997,222.40204819999997,222.40204819999997,222.40204819999997,222.40204819999997,222.40204819999997,222.40204819999997,None,None,None,209.18802559999995,209.18802559999995,,214.02532459999998,218.75288879999994,,,,,,,,,,,,,,,,,,,,,,6,001,2024-06-28_10h33.57.339,robot_sternberg_sign,2022.2.5,59.995200383995034,
"['L_Head_Y_For', 'R_Torso_X_Back']",True,L_Head_Y_For,2,robot,2,False,True,"['robot_stimuli\\L_Head_Y_For.mp4', 'robot_stimuli\\R_Torso_X_Back.mp4']",robot_stimuli\L_Head_Y_For.mp4,6,0,0,0,0,0,11,11,11,,,,,,,,,,,,,,,,,,,,,222.40204819999997,222.40204819999997,None,,230.8562634,223.482487,,,,231.95347399999991,231.95347399999991,231.95347399999991,c,2.0861216000000695,235.6333376,241.05617180000002,235.6333376,241.05617180000002,235.6333376,241.05617180000002,235.6333376,241.05617180000002,6.5432098765432105,3.520412399999941,space,222.40204819999997,222.40204819999997,5.357692600000064,227.22323640000002,231.95347399999991,,,,,,,,,,,,,,,,,,,,,,6,001,2024-06-28_10h33.57.339,robot_sternberg_sign,2022.2.5,59.995200383995034,
"['L_Arm_Z_For', 'L_Base_X_For', 'R_Torso_Z_Back', 'R_Head_Y_Back']",True,L_Base_X_For,4,robot,2,True,False,"['robot_stimuli\\L_Arm_Z_For.mp4', 'robot_stimuli\\L_Base_X_For.mp4', 'robot_stimuli\\R_Torso_Z_Back.mp4', 'robot_stimuli\\R_Head_Y_Back.mp4']",robot_stimuli\L_Base_X_For.mp4,6,0,0,0,0,0,12,12,12,,,,,,,,,,,,,,,,,,,,,241.05617180000002,241.05617180000002,space,2.5911524000000554,259.5032405999999,260.58211629999994,,,,260.58211629999994,260.58211629999994,260.58211629999994,n,3.856088300000124,264.46400929999993,264.46400929999993,264.46400929999993,264.46400929999993,264.46400929999993,264.46400929999993,264.46400929999993,264.46400929999993,None,None,None,,,,255.87137380000001,260.58211629999994,,,,,,,,,,,,,,,,,,,,,,6,001,2024-06-28_10h33.57.339,robot_sternberg_sign,2022.2.5,59.995200383995034,
"['R_Arm_Y_Back', 'R_Torso_Z_Back', 'R_Head_Y_For', 'L_Arm_X_For']",False,R_Head_X_Back,4,robot,2,False,False,"['robot_stimuli\\R_Arm_Y_Back.mp4', 'robot_stimuli\\R_Torso_Z_Back.mp4', 'robot_stimuli\\R_Head_Y_For.mp4', 'robot_stimuli\\L_Arm_X_For.mp4']",robot_stimuli\R_Head_X_Back.mp4,6,0,0,0,0,0,13,13,13,,,,,,,,,,,,,,,,,,,,,264.46400929999993,264.46400929999993,None,,280.3281849,281.4178701999999,,,,281.4178701999999,281.4178701999999,281.4178701999999,n,3.085025200000132,285.0699351999999,285.0699351999999,285.0699351999999,285.0699351999999,285.0699351999999,285.0699351999999,285.0699351999999,285.0699351999999,None,None,None,264.46400929999993,264.46400929999993,,276.6938432999999,281.4178701999999,,,,,,,,,,,,,,,,,,,,,,6,001,2024-06-28_10h33.57.339,robot_sternberg_sign,2022.2.5,59.995200383995034,
"['L_Head_X_For', 'R_Arm_X_Back', 'R_Base_Z_Back', 'L_Torso_Z_Back']",True,R_Arm_X_Back,4,robot,2,False,True,"['robot_stimuli\\L_Head_X_For.mp4', 'robot_stimuli\\R_Arm_X_Back.mp4', 'robot_stimuli\\R_Base_Z_Back.mp4', 'robot_stimuli\\L_Torso_Z_Back.mp4']",robot_stimuli\R_Arm_X_Back.mp4,6,0,0,0,0,0,14,14,14,,,,,,,,,,,,,,,,,,,,,285.0699351999999,285.0699351999999,None,,300.6700244,301.7490849999999,,,,301.7490849999999,301.7490849999999,301.7490849999999,c,2.6347887000000583,305.4086515,321.4912336,305.4086515,321.4912336,305.4086515,321.4912336,305.4086515,321.4912336,25.370370370370367,15.077628699999991,space,285.0699351999999,285.0699351999999,16.038219700000127,297.17088219999994,301.7490849999999,,,,,,,,,,,,,,,,,,,,,,6,001,2024-06-28_10h33.57.339,robot_sternberg_sign,2022.2.5,59.995200383995034,
"['L_Base_Z_For', 'L_Base_Y_Back', 'R_Arm_Z_For', 'R_Torso_Y_Back', 'L_Base_X_For', 'R_Torso_Z_Back']",False,R_Torso_Z_For,6,robot,2,True,False,"['robot_stimuli\\L_Base_Z_For.mp4', 'robot_stimuli\\L_Base_Y_Back.mp4', 'robot_stimuli\\R_Arm_Z_For.mp4', 'robot_stimuli\\R_Torso_Y_Back.mp4', 'robot_stimuli\\L_Base_X_For.mp4', 'robot_stimuli\\R_Torso_Z_Back.mp4']",robot_stimuli\R_Torso_Z_For.mp4,6,0,0,0,0,0,15,15,15,,,,,,,,,,,,,,,,,,,,,321.4912336,321.4912336,space,1.2283008000000564,345.95891299999994,347.0496026999999,,,,347.0496026999999,347.0496026999999,347.0496026999999,n,4.508843600000091,351.6031669,351.6031669,351.6031669,351.6031669,351.6031669,351.6031669,351.6031669,351.6031669,None,None,None,,,,342.316105,347.0496026999999,,,,,,,,,,,,,,,,,,,,,,6,001,2024-06-28_10h33.57.339,robot_sternberg_sign,2022.2.5,59.995200383995034,
"['R_Torso_Y_Back', 'R_Base_Y_Back', 'L_Base_Z_Back', 'L_Torso_Z_For', 'L_Head_Z_For', 'R_Head_Z_Back']",True,L_Base_Z_Back,6,robot,2,False,False,"['robot_stimuli\\R_Torso_Y_Back.mp4', 'robot_stimuli\\R_Base_Y_Back.mp4', 'robot_stimuli\\L_Base_Z_Back.mp4', 'robot_stimuli\\L_Torso_Z_For.mp4', 'robot_stimuli\\L_Head_Z_For.mp4', 'robot_stimuli\\R_Head_Z_Back.mp4']",robot_stimuli\L_Base_Z_Back.mp4,6,0,0,0,0,0,16,16,16,,,,,,,,,,,,,,,,,,,,,351.6031669,351.6031669,None,,374.97560539999995,376.0660957,,,,376.0660957,376.0660957,376.0660957,n,5.533438900000078,381.6344672,381.6344672,381.6344672,381.6344672,381.6344672,381.6344672,381.6344672,381.6344672,None,None,None,351.6031669,351.6031669,,371.33516299999997,376.0660957,,,,,,,,,,,,,,,,,,,,,,6,001,2024-06-28_10h33.57.339,robot_sternberg_sign,2022.2.5,59.995200383995034,
"['L_Head_X_Back', 'R_Torso_Z_Back', 'R_Base_Z_For', 'L_Base_X_For', 'R_Head_X_For', 'L_Torso_Y_For']",True,R_Base_Z_For,6,robot,2,False,True,"['robot_stimuli\\L_Head_X_Back.mp4', 'robot_stimuli\\R_Torso_Z_Back.mp4', 'robot_stimuli\\R_Base_Z_For.mp4', 'robot_stimuli\\L_Base_X_For.mp4', 'robot_stimuli\\R_Head_X_For.mp4', 'robot_stimuli\\L_Torso_Y_For.mp4']",robot_stimuli\R_Base_Z_For.mp4,6,0,0,0,0,0,17,17,17,,,,,,,,,,,,,,,,,,,,,381.6344672,381.6344672,None,,404.96027129999993,406.0514258999999,,,,406.0514258999999,406.0514258999999,406.0514258999999,c,3.3472229000000198,409.73262409999995,416.8142613,409.73262409999995,416.8142613,409.73262409999995,416.8142613,409.73262409999995,416.8142613,36.172839506172835,4.333588999999961,space,381.6344672,381.6344672,7.01759590000006,401.3287816999999,406.0514258999999,,,,,,,,,,,,,,,,,,,,,,6,001,2024-06-28_10h33.57.339,robot_sternberg_sign,2022.2.5,59.995200383995034,
,,,,,,,,,,,0,0,0,0,,,,,,,,,,,,,,,,,,,,,,,,,,,,,,,,,,,,,,,,,,,,,,,,,,,,,,,416.8142613,416.8142613,416.8142613,c,1.3527470999999878,,,,,,,,,,,,,,,,,6,001,2024-06-28_10h33.57.339,robot_sternberg_sign,2022.2.5,59.995200383995034,
"['N', 'J', 'M', 'L', 'V', 'B']",True,V,6,letter,1,True,False,"['robot_stimuli\\\\filler.mp4', 'robot_stimuli\\\\filler.mp4', 'robot_stimuli\\\\filler.mp4', 'robot_stimuli\\\\filler.mp4', 'robot_stimuli\\\\filler.mp4', 'robot_stimuli\\\\filler.mp4']",robot_stimuli\\filler.mp4,6,,,,,,,,,,,,,0,0,0,0,,,,,,,,,,,,,,,,,435.07680949999997,436.1652591999999,,,,,,,,,437.16484979999996,437.16484979999996,437.16484979999996,437.16484979999996,437.16484979999996,437.16484979999996,437.16484979999996,437.16484979999996,None,None,None,,,,,,,,,,,418.2028746,418.2028746,space,2.7320978000000196,432.85944629999995,435.07680949999997,436.1652591999999,436.1652591999999,436.1652591999999,436.1652591999999,c,0.8349650000000111,,,,,6,001,2024-06-28_10h33.57.339,robot_sternberg_sign,2022.2.5,59.995200383995034,
"['S', 'L', 'K', 'Q', 'Z', 'T']",True,S,6,letter,1,False,False,"['robot_stimuli\\\\filler.mp4', 'robot_stimuli\\\\filler.mp4', 'robot_stimuli\\\\filler.mp4', 'robot_stimuli\\\\filler.mp4', 'robot_stimuli\\\\filler.mp4', 'robot_stimuli\\\\filler.mp4']",robot_stimuli\\filler.mp4,6,,,,,,,,,,,,,0,1,1,1,,,,,,,,,,,,,,,,,451.0910751,452.1605372,,,,,,,,,453.3817342,453.3817342,453.3817342,453.3817342,453.3817342,453.3817342,453.3817342,453.3817342,None,None,None,,,,,,,,,,,437.16484979999996,437.16484979999996,None,,448.8757856,451.0910751,452.1605372,452.1605372,452.1605372,452.1605372,c,1.0623179000001528,437.16484979999996,437.16484979999996,,,6,001,2024-06-28_10h33.57.339,robot_sternberg_sign,2022.2.5,59.995200383995034,
"['R', 'V', 'M', 'C', 'S', 'G']",False,J,6,letter,1,False,False,"['robot_stimuli\\\\filler.mp4', 'robot_stimuli\\\\filler.mp4', 'robot_stimuli\\\\filler.mp4', 'robot_stimuli\\\\filler.mp4', 'robot_stimuli\\\\filler.mp4', 'robot_stimuli\\\\filler.mp4']",robot_stimuli\\filler.mp4,6,,,,,,,,,,,,,0,2,2,2,,,,,,,,,,,,,,,,,467.70006319999993,468.75952540000003,,,,,,,,,478.60727099999986,478.60727099999986,478.60727099999986,478.60727099999986,478.60727099999986,478.60727099999986,478.60727099999986,478.60727099999986,None,None,None,,,,,,,,,,,453.3817342,453.3817342,None,,465.49434180000003,467.70006319999993,468.75952540000003,468.75952540000003,468.75952540000003,468.75952540000003,n,9.679830100000117,453.3817342,453.3817342,,,6,001,2024-06-28_10h33.57.339,robot_sternberg_sign,2022.2.5,59.995200383995034,
"['W', 'H', 'V', 'Z', 'G', 'X']",False,Q,6,letter,1,False,False,"['robot_stimuli\\\\filler.mp4', 'robot_stimuli\\\\filler.mp4', 'robot_stimuli\\\\filler.mp4', 'robot_stimuli\\\\filler.mp4', 'robot_stimuli\\\\filler.mp4', 'robot_stimuli\\\\filler.mp4']",robot_stimuli\\filler.mp4,6,,,,,,,,,,,,,0,3,3,3,,,,,,,,,,,,,,,,,493.14274649999993,494.2127266,,,,,,,,,495.03070479999997,495.03070479999997,495.03070479999997,495.03070479999997,495.03070479999997,495.03070479999997,495.03070479999997,495.03070479999997,None,None,None,,,,,,,,,,,478.60727099999986,478.60727099999986,None,,490.92577559999995,493.14274649999993,494.2127266,494.2127266,494.2127266,494.2127266,n,0.7712042000000565,478.60727099999986,478.60727099999986,,,6,001,2024-06-28_10h33.57.339,robot_sternberg_sign,2022.2.5,59.995200383995034,
"['D', 'L', 'X', 'N', 'Q', 'M']",False,P,6,letter,1,False,False,"['robot_stimuli\\\\filler.mp4', 'robot_stimuli\\\\filler.mp4', 'robot_stimuli\\\\filler.mp4', 'robot_stimuli\\\\filler.mp4', 'robot_stimuli\\\\filler.mp4', 'robot_stimuli\\\\filler.mp4']",robot_stimuli\\filler.mp4,6,,,,,,,,,,,,,0,4,4,4,,,,,,,,,,,,,,,,,508.7462945,509.8084698,,,,,,,,,510.63071620000005,510.63071620000005,510.63071620000005,510.63071620000005,510.63071620000005,510.63071620000005,510.63071620000005,510.63071620000005,None,None,None,,,,,,,,,,,495.03070479999997,495.03070479999997,None,,506.7317522000001,508.7462945,509.8084698,509.8084698,509.8084698,509.8084698,n,0.6554416000001311,495.03070479999997,495.03070479999997,,,6,001,2024-06-28_10h33.57.339,robot_sternberg_sign,2022.2.5,59.995200383995034,
"['H', 'X', 'C', 'S', 'W', 'P']",True,S,6,letter,1,False,False,"['robot_stimuli\\\\filler.mp4', 'robot_stimuli\\\\filler.mp4', 'robot_stimuli\\\\filler.mp4', 'robot_stimuli\\\\filler.mp4', 'robot_stimuli\\\\filler.mp4', 'robot_stimuli\\\\filler.mp4']",robot_stimuli\\filler.mp4,6,,,,,,,,,,,,,0,5,5,5,,,,,,,,,,,,,,,,,524.7438548999999,525.8123932999999,,,,,,,,,527.0393752,527.0393752,527.0393752,527.0393752,527.0393752,527.0393752,527.0393752,527.0393752,None,None,None,,,,,,,,,,,510.63071620000005,510.63071620000005,None,,522.7342469999999,524.7438548999999,525.8123932999999,525.8123932999999,525.8123932999999,525.8123932999999,c,1.0597158000002764,510.63071620000005,510.63071620000005,,,6,001,2024-06-28_10h33.57.339,robot_sternberg_sign,2022.2.5,59.995200383995034,
"['H', 'R', 'W', 'F', 'D', 'K']",True,D,6,letter,1,False,False,"['robot_stimuli\\\\filler.mp4', 'robot_stimuli\\\\filler.mp4', 'robot_stimuli\\\\filler.mp4', 'robot_stimuli\\\\filler.mp4', 'robot_stimuli\\\\filler.mp4', 'robot_stimuli\\\\filler.mp4']",robot_stimuli\\filler.mp4,6,,,,,,,,,,,,,0,6,6,6,,,,,,,,,,,,,,,,,541.1843862999999,542.2441360999999,,,,,,,,,543.4635885999999,543.4635885999999,543.4635885999999,543.4635885999999,543.4635885999999,543.4635885999999,543.4635885999999,543.4635885999999,None,None,None,,,,,,,,,,,527.0393752,527.0393752,None,,539.1713869,541.1843862999999,542.2441360999999,542.2441360999999,542.2441360999999,542.2441360999999,c,1.1152091999999811,527.0393752,527.0393752,,,6,001,2024-06-28_10h33.57.339,robot_sternberg_sign,2022.2.5,59.995200383995034,
"['K', 'G', 'N', 'M', 'T', 'S']",False,H,6,letter,1,False,False,"['robot_stimuli\\\\filler.mp4', 'robot_stimuli\\\\filler.mp4', 'robot_stimuli\\\\filler.mp4', 'robot_stimuli\\\\filler.mp4', 'robot_stimuli\\\\filler.mp4', 'robot_stimuli\\\\filler.mp4']",robot_stimuli\\filler.mp4,6,,,,,,,,,,,,,0,7,7,7,,,,,,,,,,,,,,,,,557.7850788000001,558.8433431999999,,,,,,,,,580.5180952000001,580.5180952000001,580.5180952000001,580.5180952000001,580.5180952000001,580.5180952000001,580.5180952000001,580.5180952000001,None,None,None,,,,,,,,,,,543.4635885999999,543.4635885999999,None,,555.5759926999999,557.7850788000001,558.8433431999999,558.8433431999999,558.8433431999999,558.8433431999999,n,21.532299100000046,543.4635885999999,543.4635885999999,,,6,001,2024-06-28_10h33.57.339,robot_sternberg_sign,2022.2.5,59.995200383995034,
"['H', 'N', 'J', 'L', 'V', 'W']",True,N,6,letter,1,False,False,"['robot_stimuli\\\\filler.mp4', 'robot_stimuli\\\\filler.mp4', 'robot_stimuli\\\\filler.mp4', 'robot_stimuli\\\\filler.mp4', 'robot_stimuli\\\\filler.mp4', 'robot_stimuli\\\\filler.mp4']",robot_stimuli\\filler.mp4,6,,,,,,,,,,,,,0,8,8,8,,,,,,,,,,,,,,,,,594.6462402,595.7076411999999,,,,,,,,,596.9310989999999,596.9310989999999,596.9310989999999,596.9310989999999,596.9310989999999,596.9310989999999,596.9310989999999,596.9310989999999,None,None,None,,,,,,,,,,,580.5180952000001,580.5180952000001,None,,592.628093,594.6462402,595.7076411999999,595.7076411999999,595.7076411999999,595.7076411999999,c,1.044461100000035,580.5180952000001,580.5180952000001,,,6,001,2024-06-28_10h33.57.339,robot_sternberg_sign,2022.2.5,59.995200383995034,
"['L', 'B', 'D', 'X', 'C', 'K']",False,V,6,letter,1,False,True,"['robot_stimuli\\\\filler.mp4', 'robot_stimuli\\\\filler.mp4', 'robot_stimuli\\\\filler.mp4', 'robot_stimuli\\\\filler.mp4', 'robot_stimuli\\\\filler.mp4', 'robot_stimuli\\\\filler.mp4']",robot_stimuli\\filler.mp4,6,,,,,,,,,,,,,0,9,9,9,,,,,,,,,,,,,,,,,610.6453379,611.7109247999999,,,,,,,,,613.3614293,625.9691398,613.3614293,625.9691398,613.3614293,625.9691398,613.3614293,625.9691398,26.29629629629629,11.02677460000018,space,,,12.549675100000059,,,,,,,,596.9310989999999,596.9310989999999,None,,608.6363764,610.6453379,611.7109247999999,611.7109247999999,611.7109247999999,611.7109247999999,n,1.4651931000000786,596.9310989999999,596.9310989999999,,,6,001,2024-06-28_10h33.57.339,robot_sternberg_sign,2022.2.5,59.995200383995034,
"['Z', 'H']",False,W,2,letter,1,True,False,"['robot_stimuli\\\\filler.mp4', 'robot_stimuli\\\\filler.mp4']",robot_stimuli\\filler.mp4,6,,,,,,,,,,,,,0,10,10,10,,,,,,,,,,,,,,,,,632.9841908999999,634.0421217999999,,,,,,,,,634.8694679,634.8694679,634.8694679,634.8694679,634.8694679,634.8694679,634.8694679,634.8694679,None,None,None,,,,,,,,,,,625.9691398,625.9691398,space,1.630505100000164,630.9718702,632.9841908999999,634.0421217999999,634.0421217999999,634.0421217999999,634.0421217999999,n,0.7335479999999279,,,,,6,001,2024-06-28_10h33.57.339,robot_sternberg_sign,2022.2.5,59.995200383995034,
"['K', 'C']",True,C,2,letter,1,False,False,"['robot_stimuli\\\\filler.mp4', 'robot_stimuli\\\\filler.mp4']",robot_stimuli\\filler.mp4,6,,,,,,,,,,,,,0,11,11,11,,,,,,,,,,,,,,,,,640.2289111,641.2920030999999,,,,,,,,,642.1118615999999,642.1118615999999,642.1118615999999,642.1118615999999,642.1118615999999,642.1118615999999,642.1118615999999,642.1118615999999,None,None,None,,,,,,,,,,,634.8694679,634.8694679,None,,638.219785,640.2289111,641.2920030999999,641.2920030999999,641.2920030999999,641.2920030999999,c,0.7079197000000477,634.8694679,634.8694679,,,6,001,2024-06-28_10h33.57.339,robot_sternberg_sign,2022.2.5,59.995200383995034,
"['M', 'S']",False,P,2,letter,1,False,False,"['robot_stimuli\\\\filler.mp4', 'robot_stimuli\\\\filler.mp4']",robot_stimuli\\filler.mp4,6,,,,,,,,,,,,,0,12,12,12,,,,,,,,,,,,,,,,,647.4791521,648.5431776999999,,,,,,,,,649.7637735000001,649.7637735000001,649.7637735000001,649.7637735000001,649.7637735000001,649.7637735000001,649.7637735000001,649.7637735000001,None,None,None,,,,,,,,,,,642.1118615999999,642.1118615999999,None,,645.4643151,647.4791521,648.5431776999999,648.5431776999999,648.5431776999999,648.5431776999999,n,0.9846095000000332,642.1118615999999,642.1118615999999,,,6,001,2024-06-28_10h33.57.339,robot_sternberg_sign,2022.2.5,59.995200383995034,
"['G', 'W']",True,W,2,letter,1,False,False,"['robot_stimuli\\\\filler.mp4', 'robot_stimuli\\\\filler.mp4']",robot_stimuli\\filler.mp4,6,,,,,,,,,,,,,0,13,13,13,,,,,,,,,,,,,,,,,655.1290885000001,656.1955204000001,,,,,,,,,656.8159284000001,656.8159284000001,656.8159284000001,656.8159284000001,656.8159284000001,656.8159284000001,656.8159284000001,656.8159284000001,None,None,None,,,,,,,,,,,649.7637735000001,649.7637735000001,None,,653.1141757999999,655.1290885000001,656.1955204000001,656.1955204000001,656.1955204000001,656.1955204000001,c,0.4608474000001479,649.7637735000001,649.7637735000001,,,6,001,2024-06-28_10h33.57.339,robot_sternberg_sign,2022.2.5,59.995200383995034,
"['M', 'Z']",False,L,2,letter,1,False,False,"['robot_stimuli\\\\filler.mp4', 'robot_stimuli\\\\filler.mp4']",robot_stimuli\\filler.mp4,6,,,,,,,,,,,,,0,14,14,14,,,,,,,,,,,,,,,,,661.983453,663.0431613999999,,,,,,,,,664.0652087999999,664.0652087999999,664.0652087999999,664.0652087999999,664.0652087999999,664.0652087999999,664.0652087999999,664.0652087999999,None,None,None,,,,,,,,,,,656.8159284000001,656.8159284000001,None,,659.9694,661.983453,663.0431613999999,663.0431613999999,663.0431613999999,663.0431613999999,n,0.796067100000073,656.8159284000001,656.8159284000001,,,6,001,2024-06-28_10h33.57.339,robot_sternberg_sign,2022.2.5,59.995200383995034,
"['T', 'F']",True,F,2,letter,1,False,False,"['robot_stimuli\\\\filler.mp4', 'robot_stimuli\\\\filler.mp4']",robot_stimuli\\filler.mp4,6,,,,,,,,,,,,,0,15,15,15,,,,,,,,,,,,,,,,,669.4353252000001,670.4938305999999,,,,,,,,,671.3108966,671.3108966,671.3108966,671.3108966,671.3108966,671.3108966,671.3108966,671.3108966,None,None,None,,,,,,,,,,,664.0652087999999,664.0652087999999,None,,667.4162802999999,669.4353252000001,670.4938305999999,670.4938305999999,670.4938305999999,670.4938305999999,c,0.6487271999999393,664.0652087999999,664.0652087999999,,,6,001,2024-06-28_10h33.57.339,robot_sternberg_sign,2022.2.5,59.995200383995034,
"['J', 'C']",False,F,2,letter,1,False,False,"['robot_stimuli\\\\filler.mp4', 'robot_stimuli\\\\filler.mp4']",robot_stimuli\\filler.mp4,6,,,,,,,,,,,,,0,16,16,16,,,,,,,,,,,,,,,,,676.6902647,672.3880168999999,,,,,,,,,678.5804496000001,678.5804496000001,678.5804496000001,678.5804496000001,678.5804496000001,678.5804496000001,678.5804496000001,678.5804496000001,None,None,None,,,,,,,,,,,671.3108966,671.3108966,None,,674.4779122,676.6902647,677.7561576,677.7561576,677.7561576,677.7561576,n,0.6750911000001452,671.3108966,671.3108966,,,6,001,2024-06-28_10h33.57.339,robot_sternberg_sign,2022.2.5,59.995200383995034,
"['D', 'C']",True,D,2,letter,1,False,False,"['robot_stimuli\\\\filler.mp4', 'robot_stimuli\\\\filler.mp4']",robot_stimuli\\filler.mp4,6,,,,,,,,,,,,,0,17,17,17,,,,,,,,,,,,,,,,,683.9458875,685.0099482999999,,,,,,,,,686.0288928,686.0288928,686.0288928,686.0288928,686.0288928,686.0288928,686.0288928,686.0288928,None,None,None,,,,,,,,,,,678.5804496000001,678.5804496000001,None,,681.9362054000001,683.9458875,685.0099482999999,685.0099482999999,685.0099482999999,685.0099482999999,c,0.940867100000105,678.5804496000001,678.5804496000001,,,6,001,2024-06-28_10h33.57.339,robot_sternberg_sign,2022.2.5,59.995200383995034,
"['W', 'M']",True,W,2,letter,1,False,False,"['robot_stimuli\\\\filler.mp4', 'robot_stimuli\\\\filler.mp4']",robot_stimuli\\filler.mp4,6,,,,,,,,,,,,,0,18,18,18,,,,,,,,,,,,,,,,,691.5865947,692.6419017999999,,,,,,,,,693.268149,693.268149,693.268149,693.268149,693.268149,693.268149,693.268149,693.268149,None,None,None,,,,,,,,,,,686.0288928,686.0288928,None,,689.3756877000001,691.5865947,692.6419017999999,692.6419017999999,692.6419017999999,692.6419017999999,c,0.46164950000002136,686.0288928,686.0288928,,,6,001,2024-06-28_10h33.57.339,robot_sternberg_sign,2022.2.5,59.995200383995034,
"['P', 'T']",False,K,2,letter,1,False,True,"['robot_stimuli\\\\filler.mp4', 'robot_stimuli\\\\filler.mp4']",robot_stimuli\\filler.mp4,6,,,,,,,,,,,,,0,19,19,19,,,,,,,,,,,,,,,,,698.6403177,694.3254532999999,,,,,,,,,700.5639937999999,705.3751027999999,700.5639937999999,705.3751027999999,700.5639937999999,705.3751027999999,700.5639937999999,705.3751027999999,2.3765432098765418,4.267041699999936,space,,,4.755918300000076,,,,,,,,693.268149,693.268149,None,,696.6190354,698.6403177,699.7092826,699.7092826,699.7092826,699.7092826,n,0.6103809999999612,693.268149,693.268149,,,6,001,2024-06-28_10h33.57.339,robot_sternberg_sign,2022.2.5,59.995200383995034,
"['J', 'Q', 'H', 'R']",False,P,4,letter,1,True,False,"['robot_stimuli\\\\filler.mp4', 'robot_stimuli\\\\filler.mp4', 'robot_stimuli\\\\filler.mp4', 'robot_stimuli\\\\filler.mp4']",robot_stimuli\\filler.mp4,6,,,,,,,,,,,,,0,20,20,20,,,,,,,,,,,,,,,,,717.2898834999999,708.4092395999999,,,,,,,,,721.9990645999999,721.9990645999999,721.9990645999999,721.9990645999999,721.9990645999999,721.9990645999999,721.9990645999999,721.9990645999999,None,None,None,,,,,,,,,,,705.3751027999999,705.3751027999999,space,1.952084799999966,715.0791067999999,717.2898834999999,718.3592322,718.3592322,718.3592322,718.3592322,n,3.432414599999902,,,,,6,001,2024-06-28_10h33.57.339,robot_sternberg_sign,2022.2.5,59.995200383995034,
"['L', 'Z', 'S', 'R']",False,N,4,letter,1,False,False,"['robot_stimuli\\\\filler.mp4', 'robot_stimuli\\\\filler.mp4', 'robot_stimuli\\\\filler.mp4', 'robot_stimuli\\\\filler.mp4']",robot_stimuli\\filler.mp4,6,,,,,,,,,,,,,0,21,21,21,,,,,,,,,,,,,,,,,731.5547847999999,732.6135058,,,,,,,,,733.8360197,733.8360197,733.8360197,733.8360197,733.8360197,733.8360197,733.8360197,733.8360197,None,None,None,,,,,,,,,,,721.9990645999999,721.9990645999999,None,,729.5367770999999,731.5547847999999,732.6135058,732.6135058,732.6135058,732.6135058,n,1.1053669000000355,721.9990645999999,721.9990645999999,,,6,001,2024-06-28_10h33.57.339,robot_sternberg_sign,2022.2.5,59.995200383995034,
"['W', 'F', 'K', 'Z']",True,W,4,letter,1,False,False,"['robot_stimuli\\\\filler.mp4', 'robot_stimuli\\\\filler.mp4', 'robot_stimuli\\\\filler.mp4', 'robot_stimuli\\\\filler.mp4']",robot_stimuli\\filler.mp4,6,,,,,,,,,,,,,0,22,22,22,,,,,,,,,,,,,,,,,743.5799827999999,744.6406185000001,,,,,,,,,745.671795,745.671795,745.671795,745.671795,745.671795,745.671795,745.671795,745.671795,None,None,None,,,,,,,,,,,733.8360197,733.8360197,None,,741.5620449999999,743.5799827999999,744.6406185000001,744.6406185000001,744.6406185000001,744.6406185000001,c,0.8077491000001373,733.8360197,733.8360197,,,6,001,2024-06-28_10h33.57.339,robot_sternberg_sign,2022.2.5,59.995200383995034,
"['M', 'W', 'X', 'Z']",False,D,4,letter,1,False,False,"['robot_stimuli\\\\filler.mp4', 'robot_stimuli\\\\filler.mp4', 'robot_stimuli\\\\filler.mp4', 'robot_stimuli\\\\filler.mp4']",robot_stimuli\\filler.mp4,6,,,,,,,,,,,,,0,23,23,23,,,,,,,,,,,,,,,,,755.6150064999999,756.6744196,,,,,,,,,757.5020936999999,757.5020936999999,757.5020936999999,757.5020936999999,757.5020936999999,757.5020936999999,757.5020936999999,757.5020936999999,None,None,None,,,,,,,,,,,745.671795,745.671795,None,,753.598391,755.6150064999999,756.6744196,756.6744196,756.6744196,756.6744196,n,0.6043394000000717,745.671795,745.671795,,,6,001,2024-06-28_10h33.57.339,robot_sternberg_sign,2022.2.5,59.995200383995034,
"['W', 'L', 'Z', 'N']",False,R,4,letter,1,False,False,"['robot_stimuli\\\\filler.mp4', 'robot_stimuli\\\\filler.mp4', 'robot_stimuli\\\\filler.mp4', 'robot_stimuli\\\\filler.mp4']",robot_stimuli\\filler.mp4,6,,,,,,,,,,,,,0,24,24,24,,,,,,,,,,,,,,,,,767.2338560000001,768.2965240999999,,,,,,,,,769.116409,769.116409,769.116409,769.116409,769.116409,769.116409,769.116409,769.116409,None,None,None,,,,,,,,,,,757.5020936999999,757.5020936999999,None,,765.2211646000001,767.2338560000001,768.2965240999999,768.2965240999999,768.2965240999999,768.2965240999999,n,0.583810000000085,757.5020936999999,757.5020936999999,,,6,001,2024-06-28_10h33.57.339,robot_sternberg_sign,2022.2.5,59.995200383995034,
"['D', 'T', 'M', 'B']",True,B,4,letter,1,False,False,"['robot_stimuli\\\\filler.mp4', 'robot_stimuli\\\\filler.mp4', 'robot_stimuli\\\\filler.mp4', 'robot_stimuli\\\\filler.mp4']",robot_stimuli\\filler.mp4,6,,,,,,,,,,,,,0,25,25,25,,,,,,,,,,,,,,,,,778.4639869,779.5247964999999,,,,,,,,,780.3493257,780.3493257,780.3493257,780.3493257,780.3493257,780.3493257,780.3493257,780.3493257,None,None,None,,,,,,,,,,,769.116409,769.116409,None,,776.4516236,778.4639869,779.5247964999999,779.5247964999999,779.5247964999999,779.5247964999999,c,0.7396750000002612,769.116409,769.116409,,,6,001,2024-06-28_10h33.57.339,robot_sternberg_sign,2022.2.5,59.995200383995034,
"['N', 'W', 'M', 'X']",True,W,4,letter,1,False,False,"['robot_stimuli\\\\filler.mp4', 'robot_stimuli\\\\filler.mp4', 'robot_stimuli\\\\filler.mp4', 'robot_stimuli\\\\filler.mp4']",robot_stimuli\\filler.mp4,6,,,,,,,,,,,,,0,26,26,26,,,,,,,,,,,,,,,,,790.0586346999999,791.1256579999999,,,,,,,,,791.9519433,791.9519433,791.9519433,791.9519433,791.9519433,791.9519433,791.9519433,791.9519433,None,None,None,,,,,,,,,,,780.3493257,780.3493257,None,,788.0482592999999,790.0586346999999,791.1256579999999,791.1256579999999,791.1256579999999,791.1256579999999,c,0.6972026999999343,780.3493257,780.3493257,,,6,001,2024-06-28_10h33.57.339,robot_sternberg_sign,2022.2.5,59.995200383995034,
"['N', 'T', 'Q', 'J']",False,L,4,letter,1,False,False,"['robot_stimuli\\\\filler.mp4', 'robot_stimuli\\\\filler.mp4', 'robot_stimuli\\\\filler.mp4', 'robot_stimuli\\\\filler.mp4']",robot_stimuli\\filler.mp4,6,,,,,,,,,,,,,0,27,27,27,,,,,,,,,,,,,,,,,801.9042367,802.9602568999999,,,,,,,,,804.7922334,804.7922334,804.7922334,804.7922334,804.7922334,804.7922334,804.7922334,804.7922334,None,None,None,,,,,,,,,,,791.9519433,791.9519433,None,,799.6962203,801.9042367,802.9602568999999,802.9602568999999,802.9602568999999,802.9602568999999,n,1.6318550000000869,791.9519433,791.9519433,,,6,001,2024-06-28_10h33.57.339,robot_sternberg_sign,2022.2.5,59.995200383995034,
"['J', 'L', 'N', 'V']",True,J,4,letter,1,False,False,"['robot_stimuli\\\\filler.mp4', 'robot_stimuli\\\\filler.mp4', 'robot_stimuli\\\\filler.mp4', 'robot_stimuli\\\\filler.mp4']",robot_stimuli\\filler.mp4,6,,,,,,,,,,,,,0,28,28,28,,,,,,,,,,,,,,,,,814.5736526000001,805.8560204999999,,,,,,,,,816.4685615999999,816.4685615999999,816.4685615999999,816.4685615999999,816.4685615999999,816.4685615999999,816.4685615999999,816.4685615999999,None,None,None,,,,,,,,,,,804.7922334,804.7922334,None,,812.5532771999999,814.5736526000001,815.6434360000001,815.6434360000001,815.6434360000001,815.6434360000001,c,0.5968000000000302,804.7922334,804.7922334,,,6,001,2024-06-28_10h33.57.339,robot_sternberg_sign,2022.2.5,59.995200383995034,
"['S', 'B', 'K', 'N']",True,B,4,letter,1,False,True,"['robot_stimuli\\\\filler.mp4', 'robot_stimuli\\\\filler.mp4', 'robot_stimuli\\\\filler.mp4', 'robot_stimuli\\\\filler.mp4']",robot_stimuli\\filler.mp4,6,,,,,,,,,,,,,0,29,29,29,,,,,,,,,,,,,,,,,826.2082912000001,827.2752407999999,,,,,,,,,828.1276215,833.4970876,828.1276215,833.4970876,828.1276215,833.4970876,828.1276215,833.4970876,9.78395061728395,4.425302500000043,space,,,5.3196812999999565,,,,,,,,816.4685615999999,816.4685615999999,None,,823.993874,826.2082912000001,827.2752407999999,827.2752407999999,827.2752407999999,827.2752407999999,c,0.7725004999999783,816.4685615999999,816.4685615999999,,,6,001,2024-06-28_10h33.57.339,robot_sternberg_sign,2022.2.5,59.995200383995034,
"['L_Base_Y_For', 'R_Arm_Z_Back']",True,R_Arm_Z_Back,2,robot,2,True,False,"['robot_stimuli\\L_Base_Y_For.mp4', 'robot_stimuli\\R_Arm_Z_Back.mp4']",robot_stimuli\R_Arm_Z_Back.mp4,6,,,,,,,,,,,,,0,30,30,30,,,,,,,,,,,,,,,,,843.329917,844.4149683999999,,,,,,,,,848.0539372000001,848.0539372000001,848.0539372000001,848.0539372000001,848.0539372000001,848.0539372000001,848.0539372000001,848.0539372000001,None,None,None,,,,,,,,,,,833.4970876,833.4970876,space,1.4623796000000766,,,,844.4149683999999,844.4149683999999,844.4149683999999,c,2.081115200000113,,,839.6982003999999,844.4149683999999,6,001,2024-06-28_10h33.57.339,robot_sternberg_sign,2022.2.5,59.995200383995034,
"['L_Torso_Z_Back', 'R_Base_X_For']",False,R_Head_X_For,2,robot,2,False,False,"['robot_stimuli\\L_Torso_Z_Back.mp4', 'robot_stimuli\\R_Base_X_For.mp4']",robot_stimuli\R_Head_X_For.mp4,6,,,,,,,,,,,,,0,31,31,31,,,,,,,,,,,,,,,,,856.2594558999999,857.350017,,,,,,,,,861.0003400999999,861.0003400999999,861.0003400999999,861.0003400999999,861.0003400999999,861.0003400999999,861.0003400999999,861.0003400999999,None,None,None,,,,,,,,,,,848.0539372000001,848.0539372000001,None,,,,,857.350017,857.350017,857.350017,n,1.4499368000001596,848.0539372000001,848.0539372000001,852.7188469,857.350017,6,001,2024-06-28_10h33.57.339,robot_sternberg_sign,2022.2.5,59.995200383995034,
"['R_Arm_X_Back', 'L_Head_Y_Back']",False,L_Base_Z_For,2,robot,2,False,False,"['robot_stimuli\\R_Arm_X_Back.mp4', 'robot_stimuli\\L_Head_Y_Back.mp4']",robot_stimuli\L_Base_Z_For.mp4,6,,,,,,,,,,,,,0,32,32,32,,,,,,,,,,,,,,,,,869.4468079999999,870.5286033,,,,,,,,,874.1612857,874.1612857,874.1612857,874.1612857,874.1612857,874.1612857,874.1612857,874.1612857,None,None,None,,,,,,,,,,,861.0003400999999,861.0003400999999,None,,,,,870.5286033,870.5286033,870.5286033,n,2.062981900000068,861.0003400999999,861.0003400999999,865.8046082000001,870.5286033,6,001,2024-06-28_10h33.57.339,robot_sternberg_sign,2022.2.5,59.995200383995034,
"['R_Torso_X_For', 'R_Arm_Z_Back']",True,R_Torso_X_For,2,robot,2,False,False,"['robot_stimuli\\R_Torso_X_For.mp4', 'robot_stimuli\\R_Arm_Z_Back.mp4']",robot_stimuli\R_Torso_X_For.mp4,6,,,,,,,,,,,,,0,33,33,33,,,,,,,,,,,,,,,,,882.6049252999999,883.6822116999999,,,,,,,,,887.3342943999999,887.3342943999999,887.3342943999999,887.3342943999999,887.3342943999999,887.3342943999999,887.3342943999999,887.3342943999999,None,None,None,,,,,,,,,,,874.1612857,874.1612857,None,,,,,883.6822116999999,883.6822116999999,883.6822116999999,c,2.1648048000001836,874.1612857,874.1612857,878.9837548,883.6822116999999,6,001,2024-06-28_10h33.57.339,robot_sternberg_sign,2022.2.5,59.995200383995034,
"['R_Head_Y_Back', 'L_Base_X_Back']",True,L_Base_X_Back,2,robot,2,False,False,"['robot_stimuli\\R_Head_Y_Back.mp4', 'robot_stimuli\\L_Base_X_Back.mp4']",robot_stimuli\L_Base_X_Back.mp4,6,,,,,,,,,,,,,0,34,34,34,,,,,,,,,,,,,,,,,895.7453149,896.8329282,,,,,,,,,900.4300246999999,900.4300246999999,900.4300246999999,900.4300246999999,900.4300246999999,900.4300246999999,900.4300246999999,900.4300246999999,None,None,None,,,,,,,,,,,887.3342943999999,887.3342943999999,None,,,,,896.8329282,896.8329282,896.8329282,c,2.046378700000105,887.3342943999999,887.3342943999999,892.1392670999999,896.8329282,6,001,2024-06-28_10h33.57.339,robot_sternberg_sign,2022.2.5,59.995200383995034,
"['R_Head_Z_Back', 'R_Base_X_Back']",False,L_Torso_Z_Back,2,robot,2,False,False,"['robot_stimuli\\R_Head_Z_Back.mp4', 'robot_stimuli\\R_Base_X_Back.mp4']",robot_stimuli\L_Torso_Z_Back.mp4,6,,,,,,,,,,,,,0,35,35,35,,,,,,,,,,,,,,,,,908.8715073000001,909.9494717,,,,,,,,,913.4570936999999,913.4570936999999,913.4570936999999,913.4570936999999,913.4570936999999,913.4570936999999,913.4570936999999,913.4570936999999,None,None,None,,,,,,,,,,,900.4300246999999,900.4300246999999,None,,,,,909.9494717,909.9494717,909.9494717,n,0.9538672000001043,900.4300246999999,900.4300246999999,905.2418825,909.9494717,6,001,2024-06-28_10h33.57.339,robot_sternberg_sign,2022.2.5,59.995200383995034,
"['L_Arm_Y_For', 'L_Head_Y_For']",True,L_Arm_Y_For,2,robot,2,False,False,"['robot_stimuli\\L_Arm_Y_For.mp4', 'robot_stimuli\\L_Head_Y_For.mp4']",robot_stimuli\L_Arm_Y_For.mp4,6,,,,,,,,,,,,,0,36,36,36,,,,,,,,,,,,,,,,,921.9430725,923.0327330999999,,,,,,,,,926.6707892,926.6707892,926.6707892,926.6707892,926.6707892,926.6707892,926.6707892,926.6707892,None,None,None,,,,,,,,,,,913.4570936999999,913.4570936999999,None,,,,,923.0327330999999,923.0327330999999,923.0327330999999,c,1.9918655000001309,913.4570936999999,913.4570936999999,918.3024728,923.0327330999999,6,001,2024-06-28_10h33.57.339,robot_sternberg_sign,2022.2.5,59.995200383995034,
"['R_Head_Y_For', 'R_Arm_X_Back']",False,R_Base_Z_Back,2,robot,2,False,False,"['robot_stimuli\\R_Head_Y_For.mp4', 'robot_stimuli\\R_Arm_X_Back.mp4']",robot_stimuli\R_Base_Z_Back.mp4,6,,,,,,,,,,,,,0,37,37,37,,,,,,,,,,,,,,,,,935.1133691,936.204056,,,,,,,,,939.7529061999999,939.7529061999999,939.7529061999999,939.7529061999999,939.7529061999999,939.7529061999999,939.7529061999999,939.7529061999999,None,None,None,,,,,,,,,,,926.6707892,926.6707892,None,,,,,936.204056,936.204056,936.204056,n,1.4761497000001782,926.6707892,926.6707892,931.471241,936.204056,6,001,2024-06-28_10h33.57.339,robot_sternberg_sign,2022.2.5,59.995200383995034,
"['R_Base_X_Back', 'R_Torso_Z_For']",True,R_Base_X_Back,2,robot,2,False,False,"['robot_stimuli\\R_Base_X_Back.mp4', 'robot_stimuli\\R_Torso_Z_For.mp4']",robot_stimuli\R_Base_X_Back.mp4,6,,,,,,,,,,,,,0,38,38,38,,,,,,,,,,,,,,,,,948.2422956999999,949.3306015000001,,,,,,,,,953.4309596,953.4309596,953.4309596,953.4309596,953.4309596,953.4309596,953.4309596,953.4309596,None,None,None,,,,,,,,,,,939.7529061999999,939.7529061999999,None,,,,,949.3306015000001,949.3306015000001,949.3306015000001,c,4.069932300000119,939.7529061999999,939.7529061999999,944.6127282,949.3306015000001,6,001,2024-06-28_10h33.57.339,robot_sternberg_sign,2022.2.5,59.995200383995034,
"['R_Head_Z_Back', 'L_Torso_Y_For']",False,R_Arm_Z_Back,2,robot,2,False,True,"['robot_stimuli\\R_Head_Z_Back.mp4', 'robot_stimuli\\L_Torso_Y_For.mp4']",robot_stimuli\R_Arm_Z_Back.mp4,6,,,,,,,,,,,,,0,39,39,39,,,,,,,,,,,,,,,,,961.8551123,962.9343592999999,,,,,,,,,966.6171285,974.3861864999999,966.6171285,974.3861864999999,966.6171285,974.3861864999999,966.6171285,974.3861864999999,9.78395061728395,7.005273299999999,space,,,7.70266010000023,,,,,,,,953.4309596,953.4309596,None,,,,,962.9343592999999,962.9343592999999,962.9343592999999,n,1.2252721000002111,953.4309596,953.4309596,958.2340947,962.9343592999999,6,001,2024-06-28_10h33.57.339,robot_sternberg_sign,2022.2.5,59.995200383995034,
"['L_Base_Z_Back', 'R_Torso_Z_Back', 'R_Torso_X_Back', 'R_Base_X_Back', 'L_Torso_Z_For', 'R_Base_Y_For']",False,L_Arm_X_Back,6,robot,2,True,False,"['robot_stimuli\\L_Base_Z_Back.mp4', 'robot_stimuli\\R_Torso_Z_Back.mp4', 'robot_stimuli\\R_Torso_X_Back.mp4', 'robot_stimuli\\R_Base_X_Back.mp4', 'robot_stimuli\\L_Torso_Z_For.mp4', 'robot_stimuli\\R_Base_Y_For.mp4']",robot_stimuli\L_Arm_X_Back.mp4,6,,,,,,,,,,,,,0,40,40,40,,,,,,,,,,,,,,,,,1000.5763136999999,1001.6678428999999,,,,,,,,,1005.3203759999999,1005.3203759999999,1005.3203759999999,1005.3203759999999,1005.3203759999999,1005.3203759999999,1005.3203759999999,1005.3203759999999,None,None,None,,,,,,,,,,,974.3861864999999,974.3861864999999,space,2.8782997999999225,,,,1001.6678428999999,1001.6678428999999,1001.6678428999999,n,3.189163100000087,,,996.9449474,1001.6678428999999,6,001,2024-06-28_10h33.57.339,robot_sternberg_sign,2022.2.5,59.995200383995034,
"['L_Head_Y_Back', 'R_Base_Y_Back', 'L_Head_Y_For', 'R_Base_X_Back', 'R_Torso_Y_For', 'R_Torso_Y_Back']",False,R_Arm_Z_For,6,robot,2,False,False,"['robot_stimuli\\L_Head_Y_Back.mp4', 'robot_stimuli\\R_Base_Y_Back.mp4', 'robot_stimuli\\L_Head_Y_For.mp4', 'robot_stimuli\\R_Base_X_Back.mp4', 'robot_stimuli\\R_Torso_Y_For.mp4', 'robot_stimuli\\R_Torso_Y_Back.mp4']",robot_stimuli\R_Arm_Z_For.mp4,6,,,,,,,,,,,,,0,41,41,41,,,,,,,,,,,,,,,,,1028.6719269999999,1029.7508318,,,,,,,,,1033.4005207,1033.4005207,1033.4005207,1033.4005207,1033.4005207,1033.4005207,1033.4005207,1033.4005207,None,None,None,,,,,,,,,,,1005.3203759999999,1005.3203759999999,None,,,,,1029.7508318,1029.7508318,1029.7508318,n,2.2009797999999137,1005.3203759999999,1005.3203759999999,1025.0487437,1029.7508318,6,001,2024-06-28_10h33.57.339,robot_sternberg_sign,2022.2.5,59.995200383995034,
"['L_Torso_X_Back', 'R_Head_X_For', 'L_Head_Y_Back', 'L_Arm_Y_Back', 'L_Torso_Y_Back', 'L_Head_X_For']",False,L_Base_X_Back,6,robot,2,False,False,"['robot_stimuli\\L_Torso_X_Back.mp4', 'robot_stimuli\\R_Head_X_For.mp4', 'robot_stimuli\\L_Head_Y_Back.mp4', 'robot_stimuli\\L_Arm_Y_Back.mp4', 'robot_stimuli\\L_Torso_Y_Back.mp4', 'robot_stimuli\\L_Head_X_For.mp4']",robot_stimuli\L_Base_X_Back.mp4,6,,,,,,,,,,,,,0,42,42,42,,,,,,,,,,,,,,,,,1056.51306,1057.6005956,,,,,,,,,1067.2684889,1067.2684889,1067.2684889,1067.2684889,1067.2684889,1067.2684889,1067.2684889,1067.2684889,None,None,None,,,,,,,,,,,1033.4005207,1033.4005207,None,,,,,1057.6005956,1057.6005956,1057.6005956,n,9.631637499999897,1033.4005207,1033.4005207,1052.9480343,1057.6005956,6,001,2024-06-28_10h33.57.339,robot_sternberg_sign,2022.2.5,59.995200383995034,
"['R_Torso_Z_For', 'L_Base_X_For', 'R_Head_Y_For', 'L_Base_Z_For', 'L_Arm_Y_Back', 'L_Arm_X_Back']",True,R_Torso_Z_For,6,robot,2,False,False,"['robot_stimuli\\R_Torso_Z_For.mp4', 'robot_stimuli\\L_Base_X_For.mp4', 'robot_stimuli\\R_Head_Y_For.mp4', 'robot_stimuli\\L_Base_Z_For.mp4', 'robot_stimuli\\L_Arm_Y_Back.mp4', 'robot_stimuli\\L_Arm_X_Back.mp4']",robot_stimuli\R_Torso_Z_For.mp4,6,,,,,,,,,,,,,0,43,43,43,,,,,,,,,,,,,,,,,1090.4914248999999,1068.3486406,,,,,,,,,1095.2207682,1095.2207682,1095.2207682,1095.2207682,1095.2207682,1095.2207682,1095.2207682,1095.2207682,None,None,None,,,,,,,,,,,1067.2684889,1067.2684889,None,,,,,1091.5819627,1091.5819627,1091.5819627,n,2.922010300000011,1067.2684889,1067.2684889,1086.8592595999999,1091.5819627,6,001,2024-06-28_10h33.57.339,robot_sternberg_sign,2022.2.5,59.995200383995034,
"['R_Head_X_For', 'L_Head_X_Back', 'R_Head_Z_For', 'L_Torso_Z_Back', 'L_Arm_Z_For', 'R_Base_X_Back']",True,R_Head_X_For,6,robot,2,False,False,"['robot_stimuli\\R_Head_X_For.mp4', 'robot_stimuli\\L_Head_X_Back.mp4', 'robot_stimuli\\R_Head_Z_For.mp4', 'robot_stimuli\\L_Torso_Z_Back.mp4', 'robot_stimuli\\L_Arm_Z_For.mp4', 'robot_stimuli\\R_Base_X_Back.mp4']",robot_stimuli\R_Head_X_For.mp4,6,,,,,,,,,,,,,0,44,44,44,,,,,,,,,,,,,,,,,1118.4299869,1119.5167526,,,,,,,,,1123.1551536,1123.1551536,1123.1551536,1123.1551536,1123.1551536,1123.1551536,1123.1551536,1123.1551536,None,None,None,,,,,,,,,,,1095.2207682,1095.2207682,None,,,,,1119.5167526,1119.5167526,1119.5167526,c,2.531654000000117,1095.2207682,1095.2207682,1114.7986409999999,1119.5167526,6,001,2024-06-28_10h33.57.339,robot_sternberg_sign,2022.2.5,59.995200383995034,
"['L_Torso_Y_For', 'R_Head_X_Back', 'R_Torso_X_Back', 'L_Base_X_For', 'L_Arm_Z_For', 'R_Torso_Y_For']",True,L_Base_X_For,6,robot,2,False,False,"['robot_stimuli\\L_Torso_Y_For.mp4', 'robot_stimuli\\R_Head_X_Back.mp4', 'robot_stimuli\\R_Torso_X_Back.mp4', 'robot_stimuli\\L_Base_X_For.mp4', 'robot_stimuli\\L_Arm_Z_For.mp4', 'robot_stimuli\\R_Torso_Y_For.mp4']",robot_stimuli\L_Base_X_For.mp4,6,,,,,,,,,,,,,0,45,45,45,,,,,,,,,,,,,,,,,1146.3889385,1147.4652848,,,,,,,,,1151.0383391999999,1151.0383391999999,1151.0383391999999,1151.0383391999999,1151.0383391999999,1151.0383391999999,1151.0383391999999,1151.0383391999999,None,None,None,,,,,,,,,,,1123.1551536,1123.1551536,None,,,,,1147.4652848,1147.4652848,1147.4652848,c,2.326074399999925,1123.1551536,1123.1551536,1142.7660397,1147.4652848,6,001,2024-06-28_10h33.57.339,robot_sternberg_sign,2022.2.5,59.995200383995034,
"['R_Torso_X_For', 'L_Arm_X_For', 'L_Torso_Z_Back', 'R_Base_Y_Back', 'L_Torso_X_Back', 'L_Head_Z_For']",True,L_Torso_Z_Back,6,robot,2,False,False,"['robot_stimuli\\R_Torso_X_For.mp4', 'robot_stimuli\\L_Arm_X_For.mp4', 'robot_stimuli\\L_Torso_Z_Back.mp4', 'robot_stimuli\\R_Base_Y_Back.mp4', 'robot_stimuli\\L_Torso_X_Back.mp4', 'robot_stimuli\\L_Head_Z_For.mp4']",robot_stimuli\L_Torso_Z_Back.mp4,6,,,,,,,,,,,,,0,46,46,46,,,,,,,,,,,,,,,,,1174.2089569,1152.1101033,,,,,,,,,1181.4632282999999,1181.4632282999999,1181.4632282999999,1181.4632282999999,1181.4632282999999,1181.4632282999999,1181.4632282999999,1181.4632282999999,None,None,None,,,,,,,,,,,1151.0383391999999,1151.0383391999999,None,,,,,1175.3017596,1175.3017596,1175.3017596,c,6.129637700000103,1151.0383391999999,1151.0383391999999,1170.5774331999999,1175.3017596,6,001,2024-06-28_10h33.57.339,robot_sternberg_sign,2022.2.5,59.995200383995034,
"['L_Arm_Y_For', 'R_Arm_Y_For', 'L_Head_X_Back', 'R_Base_Z_For', 'R_Torso_Y_Back', 'R_Head_Z_For']",False,L_Base_Z_Back,6,robot,2,False,False,"['robot_stimuli\\L_Arm_Y_For.mp4', 'robot_stimuli\\R_Arm_Y_For.mp4', 'robot_stimuli\\L_Head_X_Back.mp4', 'robot_stimuli\\R_Base_Z_For.mp4', 'robot_stimuli\\R_Torso_Y_Back.mp4', 'robot_stimuli\\R_Head_Z_For.mp4']",robot_stimuli\L_Base_Z_Back.mp4,6,,,,,,,,,,,,,0,47,47,47,,,,,,,,,,,,,,,,,1204.6603181,1205.74831,,,,,,,,,1209.5467429999999,1209.5467429999999,1209.5467429999999,1209.5467429999999,1209.5467429999999,1209.5467429999999,1209.5467429999999,1209.5467429999999,None,None,None,,,,,,,,,,,1181.4632282999999,1181.4632282999999,None,,,,,1205.74831,1205.74831,1205.74831,n,3.771842500000048,1181.4632282999999,1181.4632282999999,1201.0303816,1205.74831,6,001,2024-06-28_10h33.57.339,robot_sternberg_sign,2022.2.5,59.995200383995034,
"['L_Head_X_Back', 'L_Arm_Y_For', 'R_Head_Y_Back', 'L_Arm_Y_Back', 'L_Torso_Y_Back', 'L_Head_Y_For']",False,R_Torso_Y_For,6,robot,2,False,False,"['robot_stimuli\\L_Head_X_Back.mp4', 'robot_stimuli\\L_Arm_Y_For.mp4', 'robot_stimuli\\R_Head_Y_Back.mp4', 'robot_stimuli\\L_Arm_Y_Back.mp4', 'robot_stimuli\\L_Torso_Y_Back.mp4', 'robot_stimuli\\L_Head_Y_For.mp4']",robot_stimuli\R_Torso_Y_For.mp4,6,,,,,,,,,,,,,0,48,48,48,,,,,,,,,,,,,,,,,1232.7938817,1233.8800843,,,,,,,,,1243.1698509999999,1243.1698509999999,1243.1698509999999,1243.1698509999999,1243.1698509999999,1243.1698509999999,1243.1698509999999,1243.1698509999999,None,None,None,,,,,,,,,,,1209.5467429999999,1209.5467429999999,None,,,,,1233.8800843,1233.8800843,1233.8800843,n,9.256647000000157,1209.5467429999999,1209.5467429999999,1229.1499245,1233.8800843,6,001,2024-06-28_10h33.57.339,robot_sternberg_sign,2022.2.5,59.995200383995034,
"['L_Arm_Z_Back', 'L_Torso_X_Back', 'L_Base_Y_Back', 'L_Torso_X_For', 'R_Head_Z_Back', 'R_Head_X_Back']",True,L_Torso_X_For,6,robot,2,False,True,"['robot_stimuli\\L_Arm_Z_Back.mp4', 'robot_stimuli\\L_Torso_X_Back.mp4', 'robot_stimuli\\L_Base_Y_Back.mp4', 'robot_stimuli\\L_Torso_X_For.mp4', 'robot_stimuli\\R_Head_Z_Back.mp4', 'robot_stimuli\\R_Head_X_Back.mp4']",robot_stimuli\L_Torso_X_For.mp4,6,,,,,,,,,,,,,0,49,49,49,,,,,,,,,,,,,,,,,1266.3964999,1267.4828183,,,,,,,,,1271.1585943,1280.7683031,1271.1585943,1280.7683031,1271.1585943,1280.7683031,1271.1585943,1280.7683031,40.339506172839506,3.9973499000000174,space,,,9.537749700000177,,,,,,,,1243.1698509999999,1243.1698509999999,None,,,,,1267.4828183,1267.4828183,1267.4828183,c,2.1657125000001543,1243.1698509999999,1243.1698509999999,1262.7649245,1267.4828183,6,001,2024-06-28_10h33.57.339,robot_sternberg_sign,2022.2.5,59.995200383995034,
"['L_Head_Z_For', 'R_Head_Y_Back', 'R_Head_Y_For', 'R_Base_Y_For']",False,R_Base_Y_Back,4,robot,2,True,False,"['robot_stimuli\\L_Head_Z_For.mp4', 'robot_stimuli\\R_Head_Y_Back.mp4', 'robot_stimuli\\R_Head_Y_For.mp4', 'robot_stimuli\\R_Base_Y_For.mp4']",robot_stimuli\R_Base_Y_Back.mp4,6,,,,,,,,,,,,,0,50,50,50,,,,,,,,,,,,,,,,,1298.7482741,1299.8343835,,,,,,,,,1303.4634717,1303.4634717,1303.4634717,1303.4634717,1303.4634717,1303.4634717,1303.4634717,1303.4634717,None,None,None,,,,,,,,,,,1280.7683031,1280.7683031,space,2.055456999999933,,,,1299.8343835,1299.8343835,1299.8343835,n,3.3497878000002856,,,1295.102648,1299.8343835,6,001,2024-06-28_10h33.57.339,robot_sternberg_sign,2022.2.5,59.995200383995034,
"['L_Torso_Z_For', 'L_Base_Z_Back', 'L_Base_Y_Back', 'R_Head_X_For']",True,L_Base_Y_Back,4,robot,2,False,False,"['robot_stimuli\\L_Torso_Z_For.mp4', 'robot_stimuli\\L_Base_Z_Back.mp4', 'robot_stimuli\\L_Base_Y_Back.mp4', 'robot_stimuli\\R_Head_X_For.mp4']",robot_stimuli\L_Base_Y_Back.mp4,6,,,,,,,,,,,,,0,51,51,51,,,,,,,,,,,,,,,,,1319.3125095,1320.4048278999999,,,,,,,,,1323.9862584,1323.9862584,1323.9862584,1323.9862584,1323.9862584,1323.9862584,1323.9862584,1323.9862584,None,None,None,,,,,,,,,,,1303.4634717,1303.4634717,None,,,,,1320.4048278999999,1320.4048278999999,1320.4048278999999,c,2.8119424999999865,1303.4634717,1303.4634717,1315.6698491,1320.4048278999999,6,001,2024-06-28_10h33.57.339,robot_sternberg_sign,2022.2.5,59.995200383995034,
"['R_Torso_X_Back', 'L_Head_X_Back', 'R_Base_Z_Back', 'L_Arm_Y_For']",True,L_Arm_Y_For,4,robot,2,False,False,"['robot_stimuli\\R_Torso_X_Back.mp4', 'robot_stimuli\\L_Head_X_Back.mp4', 'robot_stimuli\\R_Base_Z_Back.mp4', 'robot_stimuli\\L_Arm_Y_For.mp4']",robot_stimuli\L_Arm_Y_For.mp4,6,,,,,,,,,,,,,0,52,52,52,,,,,,,,,,,,,,,,,1339.7451077,1340.8342754,,,,,,,,,1344.4634368,1344.4634368,1344.4634368,1344.4634368,1344.4634368,1344.4634368,1344.4634368,1344.4634368,None,None,None,,,,,,,,,,,1323.9862584,1323.9862584,None,,,,,1340.8342754,1340.8342754,1340.8342754,c,2.3494856000002073,1323.9862584,1323.9862584,1336.1102685,1340.8342754,6,001,2024-06-28_10h33.57.339,robot_sternberg_sign,2022.2.5,59.995200383995034,
"['R_Head_X_For', 'R_Arm_X_Back', 'R_Torso_Z_For', 'L_Head_Z_Back']",True,R_Torso_Z_For,4,robot,2,False,False,"['robot_stimuli\\R_Head_X_For.mp4', 'robot_stimuli\\R_Arm_X_Back.mp4', 'robot_stimuli\\R_Torso_Z_For.mp4', 'robot_stimuli\\L_Head_Z_Back.mp4']",robot_stimuli\R_Torso_Z_For.mp4,6,,,,,,,,,,,,,0,53,53,53,,,,,,,,,,,,,,,,,1360.3228104,1361.4010515,,,,,,,,,1368.7550044,1368.7550044,1368.7550044,1368.7550044,1368.7550044,1368.7550044,1368.7550044,1368.7550044,None,None,None,,,,,,,,,,,1344.4634368,1344.4634368,None,,,,,1361.4010515,1361.4010515,1361.4010515,n,7.311762399999907,1344.4634368,1344.4634368,1356.7003559,1361.4010515,6,001,2024-06-28_10h33.57.339,robot_sternberg_sign,2022.2.5,59.995200383995034,
"['L_Arm_X_For', 'R_Arm_Y_Back', 'R_Torso_Y_For', 'R_Head_Z_For']",False,R_Base_Y_Back,4,robot,2,False,False,"['robot_stimuli\\L_Arm_X_For.mp4', 'robot_stimuli\\R_Arm_Y_Back.mp4', 'robot_stimuli\\R_Torso_Y_For.mp4', 'robot_stimuli\\R_Head_Z_For.mp4']",robot_stimuli\R_Base_Y_Back.mp4,6,,,,,,,,,,,,,0,54,54,54,,,,,,,,,,,,,,,,,1384.6310124,1385.717985,,,,,,,,,1389.3683658,1389.3683658,1389.3683658,1389.3683658,1389.3683658,1389.3683658,1389.3683658,1389.3683658,None,None,None,,,,,,,,,,,1368.7550044,1368.7550044,None,,,,,1385.717985,1385.717985,1385.717985,n,1.8028822000001128,1368.7550044,1368.7550044,1380.9956539,1385.717985,6,001,2024-06-28_10h33.57.339,robot_sternberg_sign,2022.2.5,59.995200383995034,
"['L_Base_Z_For', 'L_Torso_Y_Back', 'R_Arm_X_Back', 'L_Head_Z_For']",False,R_Head_Z_Back,4,robot,2,False,False,"['robot_stimuli\\L_Base_Z_For.mp4', 'robot_stimuli\\L_Torso_Y_Back.mp4', 'robot_stimuli\\R_Arm_X_Back.mp4', 'robot_stimuli\\L_Head_Z_For.mp4']",robot_stimuli\R_Head_Z_Back.mp4,6,,,,,,,,,,,,,0,55,55,55,,,,,,,,,,,,,,,,,1405.1274772,1406.2148942,,,,,,,,,1409.8668272,1409.8668272,1409.8668272,1409.8668272,1409.8668272,1409.8668272,1409.8668272,1409.8668272,None,None,None,,,,,,,,,,,1389.3683658,1389.3683658,None,,,,,1406.2148942,1406.2148942,1406.2148942,n,2.602317200000016,1389.3683658,1389.3683658,1401.4815224,1406.2148942,6,001,2024-06-28_10h33.57.339,robot_sternberg_sign,2022.2.5,59.995200383995034,
"['R_Head_Y_Back', 'R_Head_Z_Back', 'R_Base_Y_For', 'R_Torso_Z_For']",False,L_Arm_X_Back,4,robot,2,False,False,"['robot_stimuli\\R_Head_Y_Back.mp4', 'robot_stimuli\\R_Head_Z_Back.mp4', 'robot_stimuli\\R_Base_Y_For.mp4', 'robot_stimuli\\R_Torso_Z_For.mp4']",robot_stimuli\L_Arm_X_Back.mp4,6,,,,,,,,,,,,,0,56,56,56,,,,,,,,,,,,,,,,,1425.7280723,1426.8176693999999,,,,,,,,,1430.4559491,1430.4559491,1430.4559491,1430.4559491,1430.4559491,1430.4559491,1430.4559491,1430.4559491,None,None,None,,,,,,,,,,,1409.8668272,1409.8668272,None,,,,,1426.8176693999999,1426.8176693999999,1426.8176693999999,n,1.4476643999998942,1409.8668272,1409.8668272,1422.0963042,1426.8176693999999,6,001,2024-06-28_10h33.57.339,robot_sternberg_sign,2022.2.5,59.995200383995034,
"['R_Base_Z_For', 'R_Base_Z_Back', 'R_Arm_X_For', 'L_Head_X_Back']",True,R_Arm_X_For,4,robot,2,False,False,"['robot_stimuli\\R_Base_Z_For.mp4', 'robot_stimuli\\R_Base_Z_Back.mp4', 'robot_stimuli\\R_Arm_X_For.mp4', 'robot_stimuli\\L_Head_X_Back.mp4']",robot_stimuli\R_Arm_X_For.mp4,6,,,,,,,,,,,,,0,57,57,57,,,,,,,,,,,,,,,,,1446.2292954,1447.3184054,,,,,,,,,1450.9681733,1450.9681733,1450.9681733,1450.9681733,1450.9681733,1450.9681733,1450.9681733,1450.9681733,None,None,None,,,,,,,,,,,1430.4559491,1430.4559491,None,,,,,1447.3184054,1447.3184054,1447.3184054,n,3.3863203000000794,1430.4559491,1430.4559491,1442.5982628,1447.3184054,6,001,2024-06-28_10h33.57.339,robot_sternberg_sign,2022.2.5,59.995200383995034,
"['R_Head_X_For', 'L_Arm_X_For', 'L_Arm_Y_For', 'R_Base_Z_For']",False,R_Arm_Z_Back,4,robot,2,False,False,"['robot_stimuli\\R_Head_X_For.mp4', 'robot_stimuli\\L_Arm_X_For.mp4', 'robot_stimuli\\L_Arm_Y_For.mp4', 'robot_stimuli\\R_Base_Z_For.mp4']",robot_stimuli\R_Arm_Z_Back.mp4,6,,,,,,,,,,,,,0,58,58,58,,,,,,,,,,,,,,,,,1466.8613917,1467.9536094,,,,,,,,,1471.6030582,1471.6030582,1471.6030582,1471.6030582,1471.6030582,1471.6030582,1471.6030582,1471.6030582,None,None,None,,,,,,,,,,,1450.9681733,1450.9681733,None,,,,,1467.9536094,1467.9536094,1467.9536094,n,1.406501400000252,1450.9681733,1450.9681733,1463.2306013,1467.9536094,6,001,2024-06-28_10h33.57.339,robot_sternberg_sign,2022.2.5,59.995200383995034,
"['L_Base_Y_Back', 'R_Base_Z_Back', 'R_Base_X_Back', 'L_Torso_X_Back']",True,L_Torso_X_Back,4,robot,2,False,True,"['robot_stimuli\\L_Base_Y_Back.mp4', 'robot_stimuli\\R_Base_Z_Back.mp4', 'robot_stimuli\\R_Base_X_Back.mp4', 'robot_stimuli\\L_Torso_X_Back.mp4']",robot_stimuli\L_Torso_X_Back.mp4,6,,,,,,,,,,,,,0,59,59,59,,,,,,,,,,,,,,,,,1487.3474238,1488.4346395,,,,,,,,,1492.0986701999998,1505.8445190999998,1492.0986701999998,1505.8445190999998,1492.0986701999998,1505.8445190999998,1492.0986701999998,1505.8445190999998,30.15432098765432,13.108109900000272,space,,,13.702151700000059,,,,,,,,1471.6030582,1471.6030582,None,,,,,1488.4346395,1488.4346395,1488.4346395,c,3.598330600000054,1471.6030582,1471.6030582,1483.7153817,1488.4346395,6,001,2024-06-28_10h33.57.339,robot_sternberg_sign,2022.2.5,59.995200383995034,
"['H', 'P', 'M', 'D']",True,H,4,letter,3,True,False,"['robot_stimuli\\\\filler.mp4', 'robot_stimuli\\\\filler.mp4', 'robot_stimuli\\\\filler.mp4', 'robot_stimuli\\\\filler.mp4']",robot_stimuli\\filler.mp4,6,,,,,,,,,,,,,0,60,60,60,,,,,,,,,,,,,,,,,1516.9206664,1517.9762011,,,,,,,,,1518.796424,1518.796424,1518.796424,1518.796424,1518.796424,1518.796424,1518.796424,1518.796424,None,None,None,,,,,,,,,,,1505.8445190999998,1505.8445190999998,space,1.3247403000002578,1514.7106495,1516.9206664,1517.9762011,1517.9762011,1517.9762011,1517.9762011,c,0.680364900000086,,,,,6,001,2024-06-28_10h33.57.339,robot_sternberg_sign,2022.2.5,59.995200383995034,
"['M', 'W', 'S', 'J']",True,M,4,letter,3,False,False,"['robot_stimuli\\\\filler.mp4', 'robot_stimuli\\\\filler.mp4', 'robot_stimuli\\\\filler.mp4', 'robot_stimuli\\\\filler.mp4']",robot_stimuli\\filler.mp4,6,,,,,,,,,,,,,0,61,61,61,,,,,,,,,,,,,,,,,1528.5462839999998,1529.6100795999998,,,,,,,,,1530.6313902999998,1530.6313902999998,1530.6313902999998,1530.6313902999998,1530.6313902999998,1530.6313902999998,1530.6313902999998,1530.6313902999998,None,None,None,,,,,,,,,,,1518.796424,1518.796424,None,,1526.3261295999998,1528.5462839999998,1529.6100795999998,1529.6100795999998,1529.6100795999998,1529.6100795999998,c,0.8792479000001094,1518.796424,1518.796424,,,6,001,2024-06-28_10h33.57.339,robot_sternberg_sign,2022.2.5,59.995200383995034,
"['D', 'X', 'F', 'Q']",False,G,4,letter,3,False,False,"['robot_stimuli\\\\filler.mp4', 'robot_stimuli\\\\filler.mp4', 'robot_stimuli\\\\filler.mp4', 'robot_stimuli\\\\filler.mp4']",robot_stimuli\\filler.mp4,6,,,,,,,,,,,,,0,62,62,62,,,,,,,,,,,,,,,,,1540.372412,1541.4283309999998,,,,,,,,,1542.2568742,1542.2568742,1542.2568742,1542.2568742,1542.2568742,1542.2568742,1542.2568742,1542.2568742,None,None,None,,,,,,,,,,,1530.6313902999998,1530.6313902999998,None,,1538.1581374999998,1540.372412,1541.4283309999998,1541.4283309999998,1541.4283309999998,1541.4283309999998,n,0.7644221000002744,1530.6313902999998,1530.6313902999998,,,6,001,2024-06-28_10h33.57.339,robot_sternberg_sign,2022.2.5,59.995200383995034,
"['P', 'H', 'B', 'K']",True,P,4,letter,3,False,False,"['robot_stimuli\\\\filler.mp4', 'robot_stimuli\\\\filler.mp4', 'robot_stimuli\\\\filler.mp4', 'robot_stimuli\\\\filler.mp4']",robot_stimuli\\filler.mp4,6,,,,,,,,,,,,,0,63,63,63,,,,,,,,,,,,,,,,,1551.9934246,1553.0597141,,,,,,,,,1554.0897945999998,1554.0897945999998,1554.0897945999998,1554.0897945999998,1554.0897945999998,1554.0897945999998,1554.0897945999998,1554.0897945999998,None,None,None,,,,,,,,,,,1542.2568742,1542.2568742,None,,1549.9861611,1551.9934246,1553.0597141,1553.0597141,1553.0597141,1553.0597141,c,0.878025000000207,1542.2568742,1542.2568742,,,6,001,2024-06-28_10h33.57.339,robot_sternberg_sign,2022.2.5,59.995200383995034,
"['W', 'K', 'S', 'Q']",True,Q,4,letter,3,False,False,"['robot_stimuli\\\\filler.mp4', 'robot_stimuli\\\\filler.mp4', 'robot_stimuli\\\\filler.mp4', 'robot_stimuli\\\\filler.mp4']",robot_stimuli\\filler.mp4,6,,,,,,,,,,,,,0,64,64,64,,,,,,,,,,,,,,,,,1564.0229120000001,1565.0803969,,,,,,,,,1566.0974546999998,1566.0974546999998,1566.0974546999998,1566.0974546999998,1566.0974546999998,1566.0974546999998,1566.0974546999998,1566.0974546999998,None,None,None,,,,,,,,,,,1554.0897945999998,1554.0897945999998,None,,1561.8176233000002,1564.0229120000001,1565.0803969,1565.0803969,1565.0803969,1565.0803969,c,0.8396100000002207,1554.0897945999998,1554.0897945999998,,,6,001,2024-06-28_10h33.57.339,robot_sternberg_sign,2022.2.5,59.995200383995034,
"['J', 'T', 'Q', 'N']",False,L,4,letter,3,False,False,"['robot_stimuli\\\\filler.mp4', 'robot_stimuli\\\\filler.mp4', 'robot_stimuli\\\\filler.mp4', 'robot_stimuli\\\\filler.mp4']",robot_stimuli\\filler.mp4,6,,,,,,,,,,,,,0,65,65,65,,,,,,,,,,,,,,,,,1575.8478044,1576.9160909,,,,,,,,,1578.1472029,1578.1472029,1578.1472029,1578.1472029,1578.1472029,1578.1472029,1578.1472029,1578.1472029,None,None,None,,,,,,,,,,,1566.0974546999998,1566.0974546999998,None,,1573.8356443999999,1575.8478044,1576.9160909,1576.9160909,1576.9160909,1576.9160909,n,1.0456833999999162,1566.0974546999998,1566.0974546999998,,,6,001,2024-06-28_10h33.57.339,robot_sternberg_sign,2022.2.5,59.995200383995034,
"['F', 'W', 'C', 'T']",False,Q,4,letter,3,False,False,"['robot_stimuli\\\\filler.mp4', 'robot_stimuli\\\\filler.mp4', 'robot_stimuli\\\\filler.mp4', 'robot_stimuli\\\\filler.mp4']",robot_stimuli\\filler.mp4,6,,,,,,,,,,,,,0,66,66,66,,,,,,,,,,,,,,,,,1587.8981622,1588.9613206000001,,,,,,,,,1590.1845716999999,1590.1845716999999,1590.1845716999999,1590.1845716999999,1590.1845716999999,1590.1845716999999,1590.1845716999999,1590.1845716999999,None,None,None,,,,,,,,,,,1578.1472029,1578.1472029,None,,1585.889899,1587.8981622,1588.9613206000001,1588.9613206000001,1588.9613206000001,1588.9613206000001,n,1.0322076999998444,1578.1472029,1578.1472029,,,6,001,2024-06-28_10h33.57.339,robot_sternberg_sign,2022.2.5,59.995200383995034,
"['S', 'J', 'H', 'F']",False,T,4,letter,3,False,False,"['robot_stimuli\\\\filler.mp4', 'robot_stimuli\\\\filler.mp4', 'robot_stimuli\\\\filler.mp4', 'robot_stimuli\\\\filler.mp4']",robot_stimuli\\filler.mp4,6,,,,,,,,,,,,,0,67,67,67,,,,,,,,,,,,,,,,,1600.1210807,1601.1761902,,,,,,,,,1601.9997759999999,1601.9997759999999,1601.9997759999999,1601.9997759999999,1601.9997759999999,1601.9997759999999,1601.9997759999999,1601.9997759999999,None,None,None,,,,,,,,,,,1590.1845716999999,1590.1845716999999,None,,1597.9093291000001,1600.1210807,1601.1761902,1601.1761902,1601.1761902,1601.1761902,n,0.6089073999999073,1590.1845716999999,1590.1845716999999,,,6,001,2024-06-28_10h33.57.339,robot_sternberg_sign,2022.2.5,59.995200383995034,
"['W', 'Q', 'Z', 'F']",True,W,4,letter,3,False,False,"['robot_stimuli\\\\filler.mp4', 'robot_stimuli\\\\filler.mp4', 'robot_stimuli\\\\filler.mp4', 'robot_stimuli\\\\filler.mp4']",robot_stimuli\\filler.mp4,6,,,,,,,,,,,,,0,68,68,68,,,,,,,,,,,,,,,,,1611.5370725999999,1612.5951635,,,,,,,,,1613.2227114999998,1613.2227114999998,1613.2227114999998,1613.2227114999998,1613.2227114999998,1613.2227114999998,1613.2227114999998,1613.2227114999998,None,None,None,,,,,,,,,,,1601.9997759999999,1601.9997759999999,None,,1609.5225023,1611.5370725999999,1612.5951635,1612.5951635,1612.5951635,1612.5951635,c,0.5575295000001006,1601.9997759999999,1601.9997759999999,,,6,001,2024-06-28_10h33.57.339,robot_sternberg_sign,2022.2.5,59.995200383995034,
"['R', 'J', 'L', 'X']",False,G,4,letter,3,False,True,"['robot_stimuli\\\\filler.mp4', 'robot_stimuli\\\\filler.mp4', 'robot_stimuli\\\\filler.mp4', 'robot_stimuli\\\\filler.mp4']",robot_stimuli\\filler.mp4,6,,,,,,,,,,,,,0,69,69,69,,,,,,,,,,,,,,,,,1622.768907,1623.8320821999998,,,,,,,,,1624.4969399,1631.5681217999997,1624.4969399,1631.5681217999997,1624.4969399,1631.5681217999997,1624.4969399,1631.5681217999997,6.388888888888886,5.744426700000076,space,,,6.999154699999735,,,,,,,,1613.2227114999998,1613.2227114999998,None,,1620.7572936999998,1622.768907,1623.8320821999998,1623.8320821999998,1623.8320821999998,1623.8320821999998,n,0.5520321000001331,1613.2227114999998,1613.2227114999998,,,6,001,2024-06-28_10h33.57.339,robot_sternberg_sign,2022.2.5,59.995200383995034,
"['V', 'T']",True,V,2,letter,3,True,False,"['robot_stimuli\\\\filler.mp4', 'robot_stimuli\\\\filler.mp4']",robot_stimuli\\filler.mp4,6,,,,,,,,,,,,,0,70,70,70,,,,,,,,,,,,,,,,,1640.2439564999997,1641.3148835,,,,,,,,,1642.1335949000002,1642.1335949000002,1642.1335949000002,1642.1335949000002,1642.1335949000002,1642.1335949000002,1642.1335949000002,1642.1335949000002,None,None,None,,,,,,,,,,,1631.5681217999997,1631.5681217999997,space,3.096550399999842,1638.032719,1640.2439564999997,1641.3148835,1641.3148835,1641.3148835,1641.3148835,c,0.7581357999999909,,,,,6,001,2024-06-28_10h33.57.339,robot_sternberg_sign,2022.2.5,59.995200383995034,
"['K', 'J']",False,N,2,letter,3,False,False,"['robot_stimuli\\\\filler.mp4', 'robot_stimuli\\\\filler.mp4']",robot_stimuli\\filler.mp4,6,,,,,,,,,,,,,0,71,71,71,,,,,,,,,,,,,,,,,1647.6968485999998,1648.7599223999998,,,,,,,,,1649.3888555,1649.3888555,1649.3888555,1649.3888555,1649.3888555,1649.3888555,1649.3888555,1649.3888555,None,None,None,,,,,,,,,,,1642.1335949000002,1642.1335949000002,None,,1645.4753523000002,1647.6968485999998,1648.7599223999998,1648.7599223999998,1648.7599223999998,1648.7599223999998,n,0.5373246000001473,1642.1335949000002,1642.1335949000002,,,6,001,2024-06-28_10h33.57.339,robot_sternberg_sign,2022.2.5,59.995200383995034,
"['D', 'G']",False,B,2,letter,3,False,False,"['robot_stimuli\\\\filler.mp4', 'robot_stimuli\\\\filler.mp4']",robot_stimuli\\filler.mp4,6,,,,,,,,,,,,,0,72,72,72,,,,,,,,,,,,,,,,,1654.7592785,1650.4438081,,,,,,,,,1656.6469487000002,1656.6469487000002,1656.6469487000002,1656.6469487000002,1656.6469487000002,1656.6469487000002,1656.6469487000002,1656.6469487000002,None,None,None,,,,,,,,,,,1649.3888555,1649.3888555,None,,1652.7359158000002,1654.7592785,1655.8269573,1655.8269573,1655.8269573,1655.8269573,n,0.589848899999879,1649.3888555,1649.3888555,,,6,001,2024-06-28_10h33.57.339,robot_sternberg_sign,2022.2.5,59.995200383995034,
"['R', 'S']",True,S,2,letter,3,False,False,"['robot_stimuli\\\\filler.mp4', 'robot_stimuli\\\\filler.mp4']",robot_stimuli\\filler.mp4,6,,,,,,,,,,,,,0,73,73,73,,,,,,,,,,,,,,,,,1662.2050557999999,1663.2606454,,,,,,,,,1664.281565,1664.281565,1664.281565,1664.281565,1664.281565,1664.281565,1664.281565,1664.281565,None,None,None,,,,,,,,,,,1656.6469487000002,1656.6469487000002,None,,1659.9955822999998,1662.2050557999999,1663.2606454,1663.2606454,1663.2606454,1663.2606454,c,0.8049109999999473,1656.6469487000002,1656.6469487000002,,,6,001,2024-06-28_10h33.57.339,robot_sternberg_sign,2022.2.5,59.995200383995034,
"['X', 'Z']",True,Z,2,letter,3,False,False,"['robot_stimuli\\\\filler.mp4', 'robot_stimuli\\\\filler.mp4']",robot_stimuli\\filler.mp4,6,,,,,,,,,,,,,0,74,74,74,,,,,,,,,,,,,,,,,1669.6641511,1670.7273684999998,,,,,,,,,1671.5499174,1671.5499174,1671.5499174,1671.5499174,1671.5499174,1671.5499174,1671.5499174,1671.5499174,None,None,None,,,,,,,,,,,1664.281565,1664.281565,None,,1667.6474191999998,1669.6641511,1670.7273684999998,1670.7273684999998,1670.7273684999998,1670.7273684999998,c,0.6495198000000073,1664.281565,1664.281565,,,6,001,2024-06-28_10h33.57.339,robot_sternberg_sign,2022.2.5,59.995200383995034,
"['F', 'P']",True,F,2,letter,3,False,False,"['robot_stimuli\\\\filler.mp4', 'robot_stimuli\\\\filler.mp4']",robot_stimuli\\filler.mp4,6,,,,,,,,,,,,,0,75,75,75,,,,,,,,,,,,,,,,,1676.9119010000002,1677.9770744,,,,,,,,,1678.7994029999998,1678.7994029999998,1678.7994029999998,1678.7994029999998,1678.7994029999998,1678.7994029999998,1678.7994029999998,1678.7994029999998,None,None,None,,,,,,,,,,,1671.5499174,1671.5499174,None,,1674.8972679,1676.9119010000002,1677.9770744,1677.9770744,1677.9770744,1677.9770744,c,0.5835977000003822,1671.5499174,1671.5499174,,,6,001,2024-06-28_10h33.57.339,robot_sternberg_sign,2022.2.5,59.995200383995034,
"['D', 'S']",False,R,2,letter,3,False,False,"['robot_stimuli\\\\filler.mp4', 'robot_stimuli\\\\filler.mp4']",robot_stimuli\\filler.mp4,6,,,,,,,,,,,,,0,76,76,76,,,,,,,,,,,,,,,,,1684.3653336999998,1685.4282703000001,,,,,,,,,1686.2569967000002,1686.2569967000002,1686.2569967000002,1686.2569967000002,1686.2569967000002,1686.2569967000002,1686.2569967000002,1686.2569967000002,None,None,None,,,,,,,,,,,1678.7994029999998,1678.7994029999998,None,,1682.1439914,1684.3653336999998,1685.4282703000001,1685.4282703000001,1685.4282703000001,1685.4282703000001,n,0.7085681000000932,1678.7994029999998,1678.7994029999998,,,6,001,2024-06-28_10h33.57.339,robot_sternberg_sign,2022.2.5,59.995200383995034,
"['Z', 'H']",False,K,2,letter,3,False,False,"['robot_stimuli\\\\filler.mp4', 'robot_stimuli\\\\filler.mp4']",robot_stimuli\\filler.mp4,6,,,,,,,,,,,,,0,77,77,77,,,,,,,,,,,,,,,,,1691.807524,1692.8601368000002,,,,,,,,,1693.6892006,1693.6892006,1693.6892006,1693.6892006,1693.6892006,1693.6892006,1693.6892006,1693.6892006,None,None,None,,,,,,,,,,,1686.2569967000002,1686.2569967000002,None,,1689.5980332000001,1691.807524,1692.8601368000002,1692.8601368000002,1692.8601368000002,1692.8601368000002,n,0.6129991999998765,1686.2569967000002,1686.2569967000002,,,6,001,2024-06-28_10h33.57.339,robot_sternberg_sign,2022.2.5,59.995200383995034,
"['Q', 'S']",True,Q,2,letter,3,False,False,"['robot_stimuli\\\\filler.mp4', 'robot_stimuli\\\\filler.mp4']",robot_stimuli\\filler.mp4,6,,,,,,,,,,,,,0,78,78,78,,,,,,,,,,,,,,,,,1699.0506853999998,1700.1108262,,,,,,,,,1700.9317238,1700.9317238,1700.9317238,1700.9317238,1700.9317238,1700.9317238,1700.9317238,1700.9317238,None,None,None,,,,,,,,,,,1693.6892006,1693.6892006,None,,1697.0367072000001,1699.0506853999998,1700.1108262,1700.1108262,1700.1108262,1700.1108262,c,0.6349917999998524,1693.6892006,1693.6892006,,,6,001,2024-06-28_10h33.57.339,robot_sternberg_sign,2022.2.5,59.995200383995034,
"['Q', 'Z']",False,D,2,letter,3,False,True,"['robot_stimuli\\\\filler.mp4', 'robot_stimuli\\\\filler.mp4']",robot_stimuli\\filler.mp4,6,,,,,,,,,,,,,0,79,79,79,,,,,,,,,,,,,,,,,1706.3001957999998,1707.3604287,,,,,,,,,1708.2218673,1712.2376898,1708.2218673,1712.2376898,1708.2218673,1712.2376898,1708.2218673,1712.2376898,2.222222222222217,2.5896606000001157,space,,,3.9629631000004792,,,,,,,,1700.9317238,1700.9317238,None,,1704.2874190999999,1706.3001957999998,1707.3604287,1707.3604287,1707.3604287,1707.3604287,n,0.5847792000001846,1700.9317238,1700.9317238,,,6,001,2024-06-28_10h33.57.339,robot_sternberg_sign,2022.2.5,59.995200383995034,
"['G', 'M', 'T', 'X', 'Q', 'V']",False,C,6,letter,3,True,False,"['robot_stimuli\\\\filler.mp4', 'robot_stimuli\\\\filler.mp4', 'robot_stimuli\\\\filler.mp4', 'robot_stimuli\\\\filler.mp4', 'robot_stimuli\\\\filler.mp4', 'robot_stimuli\\\\filler.mp4']",robot_stimuli\\filler.mp4,6,,,,,,,,,,,,,0,80,80,80,,,,,,,,,,,,,,,,,1737.1602821999998,1724.3121806000001,,,,,,,,,1742.2616175,1742.2616175,1742.2616175,1742.2616175,1742.2616175,1742.2616175,1742.2616175,1742.2616175,None,None,None,,,,,,,,,,,1712.2376898,1712.2376898,space,10.995558200000005,1735.1410302000002,1737.1602821999998,1738.2268667,1738.2268667,1738.2268667,1738.2268667,n,3.8625859999999648,,,,,6,001,2024-06-28_10h33.57.339,robot_sternberg_sign,2022.2.5,59.995200383995034,
"['H', 'M', 'B', 'K', 'W', 'T']",False,J,6,letter,3,False,False,"['robot_stimuli\\\\filler.mp4', 'robot_stimuli\\\\filler.mp4', 'robot_stimuli\\\\filler.mp4', 'robot_stimuli\\\\filler.mp4', 'robot_stimuli\\\\filler.mp4', 'robot_stimuli\\\\filler.mp4']",robot_stimuli\\filler.mp4,6,,,,,,,,,,,,,0,81,81,81,,,,,,,,,,,,,,,,,1756.3672887,1757.4293123,,,,,,,,,1758.2505024999998,1758.2505024999998,1758.2505024999998,1758.2505024999998,1758.2505024999998,1758.2505024999998,1758.2505024999998,1758.2505024999998,None,None,None,,,,,,,,,,,1742.2616175,1742.2616175,None,,1754.3536124,1756.3672887,1757.4293123,1757.4293123,1757.4293123,1757.4293123,n,0.7467226000001119,1742.2616175,1742.2616175,,,6,001,2024-06-28_10h33.57.339,robot_sternberg_sign,2022.2.5,59.995200383995034,
"['N', 'W', 'P', 'F', 'G', 'S']",True,G,6,letter,3,False,False,"['robot_stimuli\\\\filler.mp4', 'robot_stimuli\\\\filler.mp4', 'robot_stimuli\\\\filler.mp4', 'robot_stimuli\\\\filler.mp4', 'robot_stimuli\\\\filler.mp4', 'robot_stimuli\\\\filler.mp4']",robot_stimuli\\filler.mp4,6,,,,,,,,,,,,,0,82,82,82,,,,,,,,,,,,,,,,,1772.7797518999998,1773.8441301999999,,,,,,,,,1775.0718344999998,1775.0718344999998,1775.0718344999998,1775.0718344999998,1775.0718344999998,1775.0718344999998,1775.0718344999998,1775.0718344999998,None,None,None,,,,,,,,,,,1758.2505024999998,1758.2505024999998,None,,1770.5654332000001,1772.7797518999998,1773.8441301999999,1773.8441301999999,1773.8441301999999,1773.8441301999999,c,0.9879441999999017,1758.2505024999998,1758.2505024999998,,,6,001,2024-06-28_10h33.57.339,robot_sternberg_sign,2022.2.5,59.995200383995034,
"['N', 'J', 'Q', 'H', 'V', 'G']",True,N,6,letter,3,False,False,"['robot_stimuli\\\\filler.mp4', 'robot_stimuli\\\\filler.mp4', 'robot_stimuli\\\\filler.mp4', 'robot_stimuli\\\\filler.mp4', 'robot_stimuli\\\\filler.mp4', 'robot_stimuli\\\\filler.mp4']",robot_stimuli\\filler.mp4,6,,,,,,,,,,,,,0,83,83,83,,,,,,,,,,,,,,,,,1789.1796825,1790.2453303999998,,,,,,,,,1791.0763673999998,1791.0763673999998,1791.0763673999998,1791.0763673999998,1791.0763673999998,1791.0763673999998,1791.0763673999998,1791.0763673999998,None,None,None,,,,,,,,,,,1775.0718344999998,1775.0718344999998,None,,1787.1687386,1789.1796825,1790.2453303999998,1790.2453303999998,1790.2453303999998,1790.2453303999998,c,0.6921964000000571,1775.0718344999998,1775.0718344999998,,,6,001,2024-06-28_10h33.57.339,robot_sternberg_sign,2022.2.5,59.995200383995034,
"['L', 'T', 'Q', 'Z', 'P', 'J']",False,S,6,letter,3,False,False,"['robot_stimuli\\\\filler.mp4', 'robot_stimuli\\\\filler.mp4', 'robot_stimuli\\\\filler.mp4', 'robot_stimuli\\\\filler.mp4', 'robot_stimuli\\\\filler.mp4', 'robot_stimuli\\\\filler.mp4']",robot_stimuli\\filler.mp4,6,,,,,,,,,,,,,0,84,84,84,,,,,,,,,,,,,,,,,1805.5860578999998,1806.6445588999998,,,,,,,,,1807.6743666,1807.6743666,1807.6743666,1807.6743666,1807.6743666,1807.6743666,1807.6743666,1807.6743666,None,None,None,,,,,,,,,,,1791.0763673999998,1791.0763673999998,None,,1803.3751334,1805.5860578999998,1806.6445588999998,1806.6445588999998,1806.6445588999998,1806.6445588999998,n,0.8928017000000636,1791.0763673999998,1791.0763673999998,,,6,001,2024-06-28_10h33.57.339,robot_sternberg_sign,2022.2.5,59.995200383995034,
"['J', 'G', 'V', 'C', 'L', 'N']",False,F,6,letter,3,False,False,"['robot_stimuli\\\\filler.mp4', 'robot_stimuli\\\\filler.mp4', 'robot_stimuli\\\\filler.mp4', 'robot_stimuli\\\\filler.mp4', 'robot_stimuli\\\\filler.mp4', 'robot_stimuli\\\\filler.mp4']",robot_stimuli\\filler.mp4,6,,,,,,,,,,,,,0,85,85,85,,,,,,,,,,,,,,,,,1821.971316,1823.0280753,,,,,,,,,1824.6581307999998,1824.6581307999998,1824.6581307999998,1824.6581307999998,1824.6581307999998,1824.6581307999998,1824.6581307999998,1824.6581307999998,None,None,None,,,,,,,,,,,1807.6743666,1807.6743666,None,,1819.7601349999998,1821.971316,1823.0280753,1823.0280753,1823.0280753,1823.0280753,n,1.5015405000001465,1807.6743666,1807.6743666,,,6,001,2024-06-28_10h33.57.339,robot_sternberg_sign,2022.2.5,59.995200383995034,
"['Z', 'D', 'Q', 'R', 'X', 'F']",True,D,6,letter,3,False,False,"['robot_stimuli\\\\filler.mp4', 'robot_stimuli\\\\filler.mp4', 'robot_stimuli\\\\filler.mp4', 'robot_stimuli\\\\filler.mp4', 'robot_stimuli\\\\filler.mp4', 'robot_stimuli\\\\filler.mp4']",robot_stimuli\\filler.mp4,6,,,,,,,,,,,,,0,86,86,86,,,,,,,,,,,,,,,,,1838.5658686999998,1839.6292286,,,,,,,,,1845.0613169,1845.0613169,1845.0613169,1845.0613169,1845.0613169,1845.0613169,1845.0613169,1845.0613169,None,None,None,,,,,,,,,,,1824.6581307999998,1824.6581307999998,None,,1836.3446339,1838.5658686999998,1839.6292286,1839.6292286,1839.6292286,1839.6292286,c,5.356228500000043,1824.6581307999998,1824.6581307999998,,,6,001,2024-06-28_10h33.57.339,robot_sternberg_sign,2022.2.5,59.995200383995034,
"['K', 'S', 'C', 'V', 'M', 'R']",True,S,6,letter,3,False,False,"['robot_stimuli\\\\filler.mp4', 'robot_stimuli\\\\filler.mp4', 'robot_stimuli\\\\filler.mp4', 'robot_stimuli\\\\filler.mp4', 'robot_stimuli\\\\filler.mp4', 'robot_stimuli\\\\filler.mp4']",robot_stimuli\\filler.mp4,6,,,,,,,,,,,,,0,87,87,87,,,,,,,,,,,,,,,,,1859.1881621,1860.2447779000001,,,,,,,,,1869.2870790999998,1869.2870790999998,1869.2870790999998,1869.2870790999998,1869.2870790999998,1869.2870790999998,1869.2870790999998,1869.2870790999998,None,None,None,,,,,,,,,,,1845.0613169,1845.0613169,None,,1857.1690855999998,1859.1881621,1860.2447779000001,1860.2447779000001,1860.2447779000001,1860.2447779000001,c,8.92510789999983,1845.0613169,1845.0613169,,,6,001,2024-06-28_10h33.57.339,robot_sternberg_sign,2022.2.5,59.995200383995034,
"['X', 'V', 'C', 'L', 'T', 'F']",True,T,6,letter,3,False,False,"['robot_stimuli\\\\filler.mp4', 'robot_stimuli\\\\filler.mp4', 'robot_stimuli\\\\filler.mp4', 'robot_stimuli\\\\filler.mp4', 'robot_stimuli\\\\filler.mp4', 'robot_stimuli\\\\filler.mp4']",robot_stimuli\\filler.mp4,6,,,,,,,,,,,,,0,88,88,88,,,,,,,,,,,,,,,,,1883.2082776999998,1884.2633420999998,,,,,,,,,1885.2885731,1885.2885731,1885.2885731,1885.2885731,1885.2885731,1885.2885731,1885.2885731,1885.2885731,None,None,None,,,,,,,,,,,1869.2870790999998,1869.2870790999998,None,,1881.1871577,1883.2082776999998,1884.2633420999998,1884.2633420999998,1884.2633420999998,1884.2633420999998,c,0.7864732999998978,1869.2870790999998,1869.2870790999998,,,6,001,2024-06-28_10h33.57.339,robot_sternberg_sign,2022.2.5,59.995200383995034,
"['T', 'L', 'X', 'J', 'G', 'N']",False,M,6,letter,3,False,True,"['robot_stimuli\\\\filler.mp4', 'robot_stimuli\\\\filler.mp4', 'robot_stimuli\\\\filler.mp4', 'robot_stimuli\\\\filler.mp4', 'robot_stimuli\\\\filler.mp4', 'robot_stimuli\\\\filler.mp4']",robot_stimuli\\filler.mp4,6,,,,,,,,,,,,,0,89,89,89,,,,,,,,,,,,,,,,,1899.7933784,1886.3450945000002,,,,,,,,,1901.7183861,1911.5898461999998,1901.7183861,1911.5898461999998,1901.7183861,1911.5898461999998,1901.7183861,1911.5898461999998,29.074074074074073,6.990746499999659,space,,,9.826935300000287,,,,,,,,1885.2885731,1885.2885731,None,,1897.5784172,1899.7933784,1900.8625171,1900.8625171,1900.8625171,1900.8625171,n,0.7396735000004355,1885.2885731,1885.2885731,,,6,001,2024-06-28_10h33.57.339,robot_sternberg_sign,2022.2.5,59.995200383995034,
"['L_Head_Z_Back', 'L_Arm_Y_For', 'R_Arm_Z_Back', 'L_Torso_Y_Back', 'L_Torso_Z_Back', 'L_Base_Y_For']",False,L_Head_X_Back,6,robot,4,True,False,"['robot_stimuli\\L_Head_Z_Back.mp4', 'robot_stimuli\\L_Arm_Y_For.mp4', 'robot_stimuli\\R_Arm_Z_Back.mp4', 'robot_stimuli\\L_Torso_Y_Back.mp4', 'robot_stimuli\\L_Torso_Z_Back.mp4', 'robot_stimuli\\L_Base_Y_For.mp4']",robot_stimuli\L_Head_X_Back.mp4,6,,,,,,,,,,,,,0,90,90,90,,,,,,,,,,,,,,,,,1937.5296056999998,1938.6190466,,,,,,,,,1942.2572902999998,1942.2572902999998,1942.2572902999998,1942.2572902999998,1942.2572902999998,1942.2572902999998,1942.2572902999998,1942.2572902999998,None,None,None,,,,,,,,,,,1911.5898461999998,1911.5898461999998,space,2.94796139999994,,,,1938.6190466,1938.6190466,1938.6190466,n,2.030144699999937,,,1933.9813588999998,1938.6190466,6,001,2024-06-28_10h33.57.339,robot_sternberg_sign,2022.2.5,59.995200383995034,
"['R_Torso_X_For', 'R_Head_Y_For', 'R_Head_X_For', 'R_Base_X_For', 'L_Base_Z_For', 'R_Base_Y_Back']",True,R_Torso_X_For,6,robot,4,False,False,"['robot_stimuli\\R_Torso_X_For.mp4', 'robot_stimuli\\R_Head_Y_For.mp4', 'robot_stimuli\\R_Head_X_For.mp4', 'robot_stimuli\\R_Base_X_For.mp4', 'robot_stimuli\\L_Base_Z_For.mp4', 'robot_stimuli\\R_Base_Y_Back.mp4']",robot_stimuli\R_Torso_X_For.mp4,6,,,,,,,,,,,,,0,91,91,91,,,,,,,,,,,,,,,,,1965.4940668000002,1943.3323712,,,,,,,,,1970.2186389,1970.2186389,1970.2186389,1970.2186389,1970.2186389,1970.2186389,1970.2186389,1970.2186389,None,None,None,,,,,,,,,,,1942.2572902999998,1942.2572902999998,None,,,,,1966.5824824999997,1966.5824824999997,1966.5824824999997,c,2.5540799000002607,1942.2572902999998,1942.2572902999998,1961.8513741,1966.5824824999997,6,001,2024-06-28_10h33.57.339,robot_sternberg_sign,2022.2.5,59.995200383995034,
"['R_Torso_Z_For', 'L_Torso_X_Back', 'L_Head_Z_For', 'L_Torso_Z_Back', 'R_Head_Z_For', 'R_Head_X_Back']",True,R_Head_X_Back,6,robot,4,False,False,"['robot_stimuli\\R_Torso_Z_For.mp4', 'robot_stimuli\\L_Torso_X_Back.mp4', 'robot_stimuli\\L_Head_Z_For.mp4', 'robot_stimuli\\L_Torso_Z_Back.mp4', 'robot_stimuli\\R_Head_Z_For.mp4', 'robot_stimuli\\R_Head_X_Back.mp4']",robot_stimuli\R_Head_X_Back.mp4,6,,,,,,,,,,,,,0,92,92,92,,,,,,,,,,,,,,,,,1993.4301480000001,1994.5182856,,,,,,,,,1998.157634,1998.157634,1998.157634,1998.157634,1998.157634,1998.157634,1998.157634,1998.157634,None,None,None,,,,,,,,,,,1970.2186389,1970.2186389,None,,,,,1994.5182856,1994.5182856,1994.5182856,c,2.042412600000489,1970.2186389,1970.2186389,1989.7872914000002,1994.5182856,6,001,2024-06-28_10h33.57.339,robot_sternberg_sign,2022.2.5,59.995200383995034,
"['L_Torso_X_Back', 'R_Arm_X_For', 'R_Arm_Y_Back', 'R_Torso_Z_For', 'R_Head_Y_For', 'L_Arm_X_Back']",False,L_Base_Y_Back,6,robot,4,False,False,"['robot_stimuli\\L_Torso_X_Back.mp4', 'robot_stimuli\\R_Arm_X_For.mp4', 'robot_stimuli\\R_Arm_Y_Back.mp4', 'robot_stimuli\\R_Torso_Z_For.mp4', 'robot_stimuli\\R_Head_Y_For.mp4', 'robot_stimuli\\L_Arm_X_Back.mp4']",robot_stimuli\L_Base_Y_Back.mp4,6,,,,,,,,,,,,,0,93,93,93,,,,,,,,,,,,,,,,,2021.4804966,2022.568629,,,,,,,,,2026.1311835,2026.1311835,2026.1311835,2026.1311835,2026.1311835,2026.1311835,2026.1311835,2026.1311835,None,None,None,,,,,,,,,,,1998.157634,1998.157634,None,,,,,2022.568629,2022.568629,2022.568629,n,2.7357370000001993,1998.157634,1998.157634,2017.8376440999998,2022.568629,6,001,2024-06-28_10h33.57.339,robot_sternberg_sign,2022.2.5,59.995200383995034,
"['R_Arm_Z_Back', 'R_Arm_X_Back', 'L_Base_X_Back', 'L_Torso_X_For', 'R_Head_Z_Back', 'R_Torso_Z_For']",True,R_Arm_Z_Back,6,robot,4,False,False,"['robot_stimuli\\R_Arm_Z_Back.mp4', 'robot_stimuli\\R_Arm_X_Back.mp4', 'robot_stimuli\\L_Base_X_Back.mp4', 'robot_stimuli\\L_Torso_X_For.mp4', 'robot_stimuli\\R_Head_Z_Back.mp4', 'robot_stimuli\\R_Torso_Z_For.mp4']",robot_stimuli\R_Arm_Z_Back.mp4,6,,,,,,,,,,,,,0,94,94,94,,,,,,,,,,,,,,,,,2049.4281555999996,2050.5215299,,,,,,,,,2061.0888240000004,2061.0888240000004,2061.0888240000004,2061.0888240000004,2061.0888240000004,2061.0888240000004,2061.0888240000004,2061.0888240000004,None,None,None,,,,,,,,,,,2026.1311835,2026.1311835,None,,,,,2050.5215299,2050.5215299,2050.5215299,n,10.535931799999844,2026.1311835,2026.1311835,2045.7958268999998,2050.5215299,6,001,2024-06-28_10h33.57.339,robot_sternberg_sign,2022.2.5,59.995200383995034,
"['L_Torso_Z_For', 'R_Arm_Y_Back', 'R_Arm_Z_For', 'R_Torso_Y_For', 'L_Base_X_Back', 'R_Torso_X_For']",True,L_Base_X_Back,6,robot,4,False,False,"['robot_stimuli\\L_Torso_Z_For.mp4', 'robot_stimuli\\R_Arm_Y_Back.mp4', 'robot_stimuli\\R_Arm_Z_For.mp4', 'robot_stimuli\\R_Torso_Y_For.mp4', 'robot_stimuli\\L_Base_X_Back.mp4', 'robot_stimuli\\R_Torso_X_For.mp4']",robot_stimuli\L_Base_X_Back.mp4,6,,,,,,,,,,,,,0,95,95,95,,,,,,,,,,,,,,,,,2084.3746303,2085.4534161,,,,,,,,,2094.5653337000003,2094.5653337000003,2094.5653337000003,2094.5653337000003,2094.5653337000003,2094.5653337000003,2094.5653337000003,2094.5653337000003,None,None,None,,,,,,,,,,,2061.0888240000004,2061.0888240000004,None,,,,,2085.4534161,2085.4534161,2085.4534161,c,9.07601290000025,2061.0888240000004,2061.0888240000004,2080.7411684999997,2085.4534161,6,001,2024-06-28_10h33.57.339,robot_sternberg_sign,2022.2.5,59.995200383995034,
"['R_Arm_Z_Back', 'R_Base_Y_Back', 'L_Head_Z_Back', 'R_Base_X_Back', 'R_Head_Z_For', 'R_Torso_Y_For']",False,L_Base_Y_Back,6,robot,4,False,False,"['robot_stimuli\\R_Arm_Z_Back.mp4', 'robot_stimuli\\R_Base_Y_Back.mp4', 'robot_stimuli\\L_Head_Z_Back.mp4', 'robot_stimuli\\R_Base_X_Back.mp4', 'robot_stimuli\\R_Head_Z_For.mp4', 'robot_stimuli\\R_Torso_Y_For.mp4']",robot_stimuli\L_Base_Y_Back.mp4,6,,,,,,,,,,,,,0,96,96,96,,,,,,,,,,,,,,,,,2117.9112705,2095.6504059999997,,,,,,,,,2122.574582,2122.574582,2122.574582,2122.574582,2122.574582,2122.574582,2122.574582,2122.574582,None,None,None,,,,,,,,,,,2094.5653337000003,2094.5653337000003,None,,,,,2119.0032226000003,2119.0032226000003,2119.0032226000003,n,3.150527600000487,2094.5653337000003,2094.5653337000003,2114.2785523000002,2119.0032226000003,6,001,2024-06-28_10h33.57.339,robot_sternberg_sign,2022.2.5,59.995200383995034,
"['L_Base_X_For', 'L_Arm_Y_Back', 'R_Torso_Y_Back', 'R_Arm_X_For', 'L_Arm_Z_For', 'L_Base_Z_Back']",True,L_Arm_Z_For,6,robot,4,False,False,"['robot_stimuli\\L_Base_X_For.mp4', 'robot_stimuli\\L_Arm_Y_Back.mp4', 'robot_stimuli\\R_Torso_Y_Back.mp4', 'robot_stimuli\\R_Arm_X_For.mp4', 'robot_stimuli\\L_Arm_Z_For.mp4', 'robot_stimuli\\L_Base_Z_Back.mp4']",robot_stimuli\L_Arm_Z_For.mp4,6,,,,,,,,,,,,,0,97,97,97,,,,,,,,,,,,,,,,,2145.8298231,2146.9191644,,,,,,,,,2150.5580621,2150.5580621,2150.5580621,2150.5580621,2150.5580621,2150.5580621,2150.5580621,2150.5580621,None,None,None,,,,,,,,,,,2122.574582,2122.574582,None,,,,,2146.9191644,2146.9191644,2146.9191644,c,2.4820118000000093,2122.574582,2122.574582,2142.1980352,2146.9191644,6,001,2024-06-28_10h33.57.339,robot_sternberg_sign,2022.2.5,59.995200383995034,
"['R_Arm_Z_Back', 'L_Torso_Z_For', 'L_Arm_X_Back', 'L_Arm_Z_Back', 'L_Head_X_For', 'R_Torso_Z_Back']",False,L_Base_X_For,6,robot,4,False,False,"['robot_stimuli\\R_Arm_Z_Back.mp4', 'robot_stimuli\\L_Torso_Z_For.mp4', 'robot_stimuli\\L_Arm_X_Back.mp4', 'robot_stimuli\\L_Arm_Z_Back.mp4', 'robot_stimuli\\L_Head_X_For.mp4', 'robot_stimuli\\R_Torso_Z_Back.mp4']",robot_stimuli\L_Base_X_For.mp4,6,,,,,,,,,,,,,0,98,98,98,,,,,,,,,,,,,,,,,2173.8465189999997,2174.9353941,,,,,,,,,2178.5074458999998,2178.5074458999998,2178.5074458999998,2178.5074458999998,2178.5074458999998,2178.5074458999998,2178.5074458999998,2178.5074458999998,None,None,None,,,,,,,,,,,2150.5580621,2150.5580621,None,,,,,2174.9353941,2174.9353941,2174.9353941,n,3.0652285000003303,2150.5580621,2150.5580621,2170.2155741999995,2174.9353941,6,001,2024-06-28_10h33.57.339,robot_sternberg_sign,2022.2.5,59.995200383995034,
"['L_Arm_X_Back', 'R_Base_Z_Back', 'R_Arm_X_For', 'R_Torso_Y_Back', 'R_Base_X_Back', 'L_Head_Y_For']",False,L_Arm_Z_For,6,robot,4,False,True,"['robot_stimuli\\L_Arm_X_Back.mp4', 'robot_stimuli\\R_Base_Z_Back.mp4', 'robot_stimuli\\R_Arm_X_For.mp4', 'robot_stimuli\\R_Torso_Y_Back.mp4', 'robot_stimuli\\R_Base_X_Back.mp4', 'robot_stimuli\\L_Head_Y_For.mp4']",robot_stimuli\L_Arm_Z_For.mp4,6,,,,,,,,,,,,,0,99,99,99,,,,,,,,,,,,,,,,,2201.7299660999997,2202.8208268,,,,,,,,,2206.5074514999997,2212.2363707000004,2206.5074514999997,2212.2363707000004,2206.5074514999997,2212.2363707000004,2206.5074514999997,2212.2363707000004,40.956790123456784,3.135842700000012,space,,,5.661850700000059,,,,,,,,2178.5074458999998,2178.5074458999998,None,,,,,2202.8208268,2202.8208268,2202.8208268,n,2.284478100000115,2178.5074458999998,2178.5074458999998,2198.0879569,2202.8208268,6,001,2024-06-28_10h33.57.339,robot_sternberg_sign,2022.2.5,59.995200383995034,
"['R_Torso_Z_Back', 'L_Arm_X_For']",True,L_Arm_X_For,2,robot,4,True,False,"['robot_stimuli\\R_Torso_Z_Back.mp4', 'robot_stimuli\\L_Arm_X_For.mp4']",robot_stimuli\L_Arm_X_For.mp4,6,,,,,,,,,,,,,0,100,100,100,,,,,,,,,,,,,,,,,2222.4328343999996,2223.5215257,,,,,,,,,2227.1691775,2227.1691775,2227.1691775,2227.1691775,2227.1691775,2227.1691775,2227.1691775,2227.1691775,None,None,None,,,,,,,,,,,2212.2363707000004,2212.2363707000004,space,1.7339931000003617,,,,2223.5215257,2223.5215257,2223.5215257,c,2.8234868000001825,,,2218.8024004999997,2223.5215257,6,001,2024-06-28_10h33.57.339,robot_sternberg_sign,2022.2.5,59.995200383995034,
"['R_Head_Z_For', 'L_Arm_X_Back']",False,L_Torso_X_Back,2,robot,4,False,False,"['robot_stimuli\\R_Head_Z_For.mp4', 'robot_stimuli\\L_Arm_X_Back.mp4']",robot_stimuli\L_Torso_X_Back.mp4,6,,,,,,,,,,,,,0,101,101,101,,,,,,,,,,,,,,,,,2235.6123884999997,2236.7051592999997,,,,,,,,,2240.3532979,2240.3532979,2240.3532979,2240.3532979,2240.3532979,2240.3532979,2240.3532979,2240.3532979,None,None,None,,,,,,,,,,,2227.1691775,2227.1691775,None,,,,,2236.7051592999997,2236.7051592999997,2236.7051592999997,n,1.5054074000001947,2227.1691775,2227.1691775,2231.9724100000003,2236.7051592999997,6,001,2024-06-28_10h33.57.339,robot_sternberg_sign,2022.2.5,59.995200383995034,
"['R_Base_Z_Back', 'L_Base_X_For']",True,L_Base_X_For,2,robot,4,False,False,"['robot_stimuli\\R_Base_Z_Back.mp4', 'robot_stimuli\\L_Base_X_For.mp4']",robot_stimuli\L_Base_X_For.mp4,6,,,,,,,,,,,,,0,102,102,102,,,,,,,,,,,,,,,,,2248.6161389,2249.7005966999996,,,,,,,,,2253.2648584999997,2253.2648584999997,2253.2648584999997,2253.2648584999997,2253.2648584999997,2253.2648584999997,2253.2648584999997,2253.2648584999997,None,None,None,,,,,,,,,,,2240.3532979,2240.3532979,None,,,,,2249.7005966999996,2249.7005966999996,2249.7005966999996,c,2.2125100000000657,2240.3532979,2240.3532979,2245.0523064,2249.7005966999996,6,001,2024-06-28_10h33.57.339,robot_sternberg_sign,2022.2.5,59.995200383995034,
"['L_Torso_Y_For', 'R_Base_X_For']",False,R_Head_Z_Back,2,robot,4,False,False,"['robot_stimuli\\L_Torso_Y_For.mp4', 'robot_stimuli\\R_Base_X_For.mp4']",robot_stimuli\R_Head_Z_Back.mp4,6,,,,,,,,,,,,,0,103,103,103,,,,,,,,,,,,,,,,,2261.6107699000004,2254.3504267999997,,,,,,,,,2266.3314242999995,2266.3314242999995,2266.3314242999995,2266.3314242999995,2266.3314242999995,2266.3314242999995,2266.3314242999995,2266.3314242999995,None,None,None,,,,,,,,,,,2253.2648584999997,2253.2648584999997,None,,,,,2262.7017929000003,2262.7017929000003,2262.7017929000003,n,1.8114892000000964,2253.2648584999997,2253.2648584999997,2258.0715318000002,2262.7017929000003,6,001,2024-06-28_10h33.57.339,robot_sternberg_sign,2022.2.5,59.995200383995034,
"['L_Arm_Y_For', 'R_Base_Y_For']",False,L_Head_X_Back,2,robot,4,False,False,"['robot_stimuli\\L_Arm_Y_For.mp4', 'robot_stimuli\\R_Base_Y_For.mp4']",robot_stimuli\L_Head_X_Back.mp4,6,,,,,,,,,,,,,0,104,104,104,,,,,,,,,,,,,,,,,2274.7584269999998,2275.8328548,,,,,,,,,2279.4658222999997,2279.4658222999997,2279.4658222999997,2279.4658222999997,2279.4658222999997,2279.4658222999997,2279.4658222999997,2279.4658222999997,None,None,None,,,,,,,,,,,2266.3314242999995,2266.3314242999995,None,,,,,2275.8328548,2275.8328548,2275.8328548,n,0.849412600000278,2266.3314242999995,2266.3314242999995,2271.1372628,2275.8328548,6,001,2024-06-28_10h33.57.339,robot_sternberg_sign,2022.2.5,59.995200383995034,
"['R_Base_X_Back', 'R_Arm_Y_Back']",False,R_Base_Z_Back,2,robot,4,False,False,"['robot_stimuli\\R_Base_X_Back.mp4', 'robot_stimuli\\R_Arm_Y_Back.mp4']",robot_stimuli\R_Base_Z_Back.mp4,6,,,,,,,,,,,,,0,105,105,105,,,,,,,,,,,,,,,,,2287.8980455,2288.9869136999996,,,,,,,,,2292.5366578000003,2292.5366578000003,2292.5366578000003,2292.5366578000003,2292.5366578000003,2292.5366578000003,2292.5366578000003,2292.5366578000003,None,None,None,,,,,,,,,,,2279.4658222999997,2279.4658222999997,None,,,,,2288.9869136999996,2288.9869136999996,2288.9869136999996,n,2.551207799999929,2279.4658222999997,2279.4658222999997,2284.2641016,2288.9869136999996,6,001,2024-06-28_10h33.57.339,robot_sternberg_sign,2022.2.5,59.995200383995034,
"['R_Arm_X_Back', 'R_Torso_Y_Back']",True,R_Arm_X_Back,2,robot,4,False,False,"['robot_stimuli\\R_Arm_X_Back.mp4', 'robot_stimuli\\R_Torso_Y_Back.mp4']",robot_stimuli\R_Arm_X_Back.mp4,6,,,,,,,,,,,,,0,106,106,106,,,,,,,,,,,,,,,,,2300.9636712,2302.0508260999995,,,,,,,,,2305.6886505,2305.6886505,2305.6886505,2305.6886505,2305.6886505,2305.6886505,2305.6886505,2305.6886505,None,None,None,,,,,,,,,,,2292.5366578000003,2292.5366578000003,None,,,,,2302.0508260999995,2302.0508260999995,2302.0508260999995,c,3.1902127000000746,2292.5366578000003,2292.5366578000003,2297.3356083,2302.0508260999995,6,001,2024-06-28_10h33.57.339,robot_sternberg_sign,2022.2.5,59.995200383995034,
"['R_Arm_Y_For', 'L_Base_X_For']",False,R_Torso_Y_Back,2,robot,4,False,False,"['robot_stimuli\\R_Arm_Y_For.mp4', 'robot_stimuli\\L_Base_X_For.mp4']",robot_stimuli\R_Torso_Y_Back.mp4,6,,,,,,,,,,,,,0,107,107,107,,,,,,,,,,,,,,,,,2313.9115389999997,2306.7684572,,,,,,,,,2318.6417755,2318.6417755,2318.6417755,2318.6417755,2318.6417755,2318.6417755,2318.6417755,2318.6417755,None,None,None,,,,,,,,,,,2305.6886505,2305.6886505,None,,,,,2315.0023880999997,2315.0023880999997,2315.0023880999997,n,1.69471499999986,2305.6886505,2305.6886505,2310.3469993999997,2315.0023880999997,6,001,2024-06-28_10h33.57.339,robot_sternberg_sign,2022.2.5,59.995200383995034,
"['R_Arm_Y_Back', 'R_Arm_Z_For']",True,R_Arm_Z_For,2,robot,4,False,False,"['robot_stimuli\\R_Arm_Y_Back.mp4', 'robot_stimuli\\R_Arm_Z_For.mp4']",robot_stimuli\R_Arm_Z_For.mp4,6,,,,,,,,,,,,,0,108,108,108,,,,,,,,,,,,,,,,,2327.0652391000003,2328.1543381,,,,,,,,,2331.8037591,2331.8037591,2331.8037591,2331.8037591,2331.8037591,2331.8037591,2331.8037591,2331.8037591,None,None,None,,,,,,,,,,,2318.6417755,2318.6417755,None,,,,,2328.1543381,2328.1543381,2328.1543381,c,2.41644569999994,2318.6417755,2318.6417755,2323.4364551999997,2328.1543381,6,001,2024-06-28_10h33.57.339,robot_sternberg_sign,2022.2.5,59.995200383995034,
"['L_Base_Z_Back', 'L_Head_Y_Back']",True,L_Head_Y_Back,2,robot,4,False,True,"['robot_stimuli\\L_Base_Z_Back.mp4', 'robot_stimuli\\L_Head_Y_Back.mp4']",robot_stimuli\L_Head_Y_Back.mp4,6,,,,,,,,,,,,,0,109,109,109,,,,,,,,,,,,,,,,,2340.2793345,2341.3698498000003,,,,,,,,,2345.0300373,2350.0451393000003,2345.0300373,2350.0451393000003,2345.0300373,2350.0451393000003,2345.0300373,2350.0451393000003,8.703703703703702,3.7943720999996913,space,,,4.947437300000047,,,,,,,,2331.8037591,2331.8037591,None,,,,,2341.3698498000003,2341.3698498000003,2341.3698498000003,c,2.5031274000000394,2331.8037591,2331.8037591,2336.6393953999996,2341.3698498000003,6,001,2024-06-28_10h33.57.339,robot_sternberg_sign,2022.2.5,59.995200383995034,
"['R_Base_Z_For', 'L_Arm_Y_Back', 'R_Base_Z_Back', 'R_Base_Y_Back']",False,R_Head_Z_For,4,robot,4,True,False,"['robot_stimuli\\R_Base_Z_For.mp4', 'robot_stimuli\\L_Arm_Y_Back.mp4', 'robot_stimuli\\R_Base_Z_Back.mp4', 'robot_stimuli\\R_Base_Y_Back.mp4']",robot_stimuli\R_Head_Z_For.mp4,6,,,,,,,,,,,,,0,110,110,110,,,,,,,,,,,,,,,,,2368.5198711000003,2369.6189219999997,,,,,,,,,2373.2565056000003,2373.2565056000003,2373.2565056000003,2373.2565056000003,2373.2565056000003,2373.2565056000003,2373.2565056000003,2373.2565056000003,None,None,None,,,,,,,,,,,2350.0451393000003,2350.0451393000003,space,2.6687614000004487,,,,2369.6189219999997,2369.6189219999997,2369.6189219999997,n,1.4947401000001719,,,2364.8810376,2369.6189219999997,6,001,2024-06-28_10h33.57.339,robot_sternberg_sign,2022.2.5,59.995200383995034,
"['R_Head_X_For', 'L_Head_Y_For', 'R_Head_Y_For', 'L_Base_Y_Back']",True,L_Head_Y_For,4,robot,4,False,False,"['robot_stimuli\\R_Head_X_For.mp4', 'robot_stimuli\\L_Head_Y_For.mp4', 'robot_stimuli\\R_Head_Y_For.mp4', 'robot_stimuli\\L_Base_Y_Back.mp4']",robot_stimuli\L_Head_Y_For.mp4,6,,,,,,,,,,,,,0,111,111,111,,,,,,,,,,,,,,,,,2389.0475052,2390.1368977,,,,,,,,,2393.7667684,2393.7667684,2393.7667684,2393.7667684,2393.7667684,2393.7667684,2393.7667684,2393.7667684,None,None,None,,,,,,,,,,,2373.2565056000003,2373.2565056000003,None,,,,,2390.1368977,2390.1368977,2390.1368977,c,2.1458576000002267,2373.2565056000003,2373.2565056000003,2385.4796675,2390.1368977,6,001,2024-06-28_10h33.57.339,robot_sternberg_sign,2022.2.5,59.995200383995034,
"['L_Torso_Z_For', 'R_Arm_Z_For', 'R_Base_Y_For', 'R_Torso_Z_Back']",False,R_Head_X_Back,4,robot,4,False,False,"['robot_stimuli\\L_Torso_Z_For.mp4', 'robot_stimuli\\R_Arm_Z_For.mp4', 'robot_stimuli\\R_Base_Y_For.mp4', 'robot_stimuli\\R_Torso_Z_Back.mp4']",robot_stimuli\R_Head_X_Back.mp4,6,,,,,,,,,,,,,0,112,112,112,,,,,,,,,,,,,,,,,2409.6652708,2410.7529754999996,,,,,,,,,2414.3821693,2414.3821693,2414.3821693,2414.3821693,2414.3821693,2414.3821693,2414.3821693,2414.3821693,None,None,None,,,,,,,,,,,2393.7667684,2393.7667684,None,,,,,2410.7529754999996,2410.7529754999996,2410.7529754999996,n,2.328187300000309,2393.7667684,2393.7667684,2406.0229652999997,2410.7529754999996,6,001,2024-06-28_10h33.57.339,robot_sternberg_sign,2022.2.5,59.995200383995034,
