sequence,is_true,target,condition,stimuli,block,is_block_beginning,is_block_ending,sequence_fnames,target_fname,subject,retraining.thisRepN,retraining.thisTrialN,retraining.thisN,retraining.thisIndex,training.thisRepN,training.thisTrialN,training.thisN,training.thisIndex,training_sequence_loop.thisRepN,training_sequence_loop.thisTrialN,training_sequence_loop.thisN,training_sequence_loop.thisIndex,trials.thisRepN,trials.thisTrialN,trials.thisN,trials.thisIndex,sequence_loop.thisRepN,sequence_loop.thisTrialN,sequence_loop.thisN,sequence_loop.thisIndex,langage_text.started,langage_key.started,langage_key.keys,langage_key.rt,intro_text.started,intro_key.started,intro_key.keys,intro_key.rt,training_intro_text.started,training_intro_key.started,training_intro_key.keys,training_intro_key.rt,polygon.started,polygon.stopped,training_presentation_letter.started,training_presentation_letter.stopped,training_recall_letter.started,training_recall_key.started,training_recall_question.started,training_recall_answer.started,training_recall_key.keys,training_recall_key.rt,RSME_labels.started,RSME_labels.stopped,RSME_ticks.started,RSME_ticks.stopped,RSME_text.started,RSME_text.stopped,RSME_key.started,RSME_key.stopped,RSME_ticks.response,RSME_ticks.rt,RSME_key.keys,training_intro_text.stopped,training_intro_key.stopped,RSME_key.rt,training_presentation_movie.started,training_recall_movie.started,experiment_beginning_text.started,experiment_beginning_keys.started,experiment_beginning_key.started,experiment_beginning_key.keys,experiment_beginning_key.rt,block_intro_text.started,block_intro_key.started,block_intro_key.keys,block_intro_key.rt,presentation_movie.started,recall_movie.started,recall_key.started,recall_question.started,recall_answer.started,recall_key.keys,recall_key.rt,block_intro_text.stopped,block_intro_key.stopped,presentation_letter.started,presentation_letter.stopped,recall_letter.started,participant,session,date,expName,psychopyVersion,frameRate,
,,,,,,,,,,,,,,,,,,,,,,,,,,,,,,,16.6958975,16.6958975,f,2.0263140000000135,,,,,,,,,,,,,,,,,,,,,,,,,,,,,,,,,,,,,,,,,,,,,,,,,,,,,,,,7,001,2024-06-28_13h11.16.997,robot_sternberg_sign,2022.2.5,60.049204318022305,
,,,,,,,,,,,,,,,,,,,,,,,,,,,,,,,,,,,18.782753599999978,18.782753599999978,space,156.41948150000002,,,,,,,,,,,,,,,,,,,,,,,,,,,,,,,,,,,,,,,,,,,,,,,,,,,,7,001,2024-06-28_13h11.16.997,robot_sternberg_sign,2022.2.5,60.049204318022305,
"['N', 'C']",True,C,2,letter,2,True,False,"['robot_stimuli\\\\filler.mp4', 'robot_stimuli\\\\filler.mp4']",robot_stimuli\\filler.mp4,7,0,0,0,0,0,0,0,0,,,,,,,,,,,,,,,,,,,,,175.25087119999995,175.25087119999995,space,8.063752199999954,188.90937119999995,190.0033454,186.8947807,188.90937119999995,190.0033454,190.0033454,190.0033454,190.0033454,c,6.287160200000017,196.5209934,196.5209934,196.5209934,196.5209934,196.5209934,196.5209934,196.5209934,196.5209934,None,None,None,,,,,,,,,,,,,,,,,,,,,,,,,,,7,001,2024-06-28_13h11.16.997,robot_sternberg_sign,2022.2.5,60.049204318022305,
"['C', 'W']",False,M,2,letter,2,False,False,"['robot_stimuli\\\\filler.mp4', 'robot_stimuli\\\\filler.mp4']",robot_stimuli\\filler.mp4,7,0,0,0,0,0,1,1,1,,,,,,,,,,,,,,,,,,,,,196.5209934,196.5209934,None,,201.72536359999998,202.79836800000004,199.71213289999997,201.72536359999998,202.79836800000004,202.79836800000004,202.79836800000004,202.79836800000004,n,1.2600934999999254,204.23044650000003,204.23044650000003,204.23044650000003,204.23044650000003,204.23044650000003,204.23044650000003,204.23044650000003,204.23044650000003,None,None,None,196.5209934,196.5209934,,,,,,,,,,,,,,,,,,,,,,,,,7,001,2024-06-28_13h11.16.997,robot_sternberg_sign,2022.2.5,60.049204318022305,
"['Z', 'H']",True,H,2,letter,2,False,True,"['robot_stimuli\\\\filler.mp4', 'robot_stimuli\\\\filler.mp4']",robot_stimuli\\filler.mp4,7,0,0,0,0,0,2,2,2,,,,,,,,,,,,,,,,,,,,,204.23044650000003,204.23044650000003,None,,209.6132743,210.68116989999993,207.39961850000003,209.6132743,210.68116989999993,210.68116989999993,210.68116989999993,210.68116989999993,c,1.3931535000000395,212.36506679999997,228.19267129999997,212.36506679999997,228.19267129999997,212.36506679999997,228.19267129999997,212.36506679999997,228.19267129999997,19.814814814814813,15.550209600000017,space,204.23044650000003,204.23044650000003,15.77314160000003,,,,,,,,,,,,,,,,,,,,,,,,7,001,2024-06-28_13h11.16.997,robot_sternberg_sign,2022.2.5,60.049204318022305,
"['C', 'N', 'S', 'D']",True,S,4,letter,2,True,False,"['robot_stimuli\\\\filler.mp4', 'robot_stimuli\\\\filler.mp4', 'robot_stimuli\\\\filler.mp4', 'robot_stimuli\\\\filler.mp4']",robot_stimuli\\filler.mp4,7,0,0,0,0,0,3,3,3,,,,,,,,,,,,,,,,,,,,,228.19267129999997,228.19267129999997,space,3.5852413999999726,241.60938759999993,242.67947099999998,239.58848929999994,241.60938759999993,242.67947099999998,242.67947099999998,242.67947099999998,242.67947099999998,c,1.0912723000000142,243.90610069999997,243.90610069999997,243.90610069999997,243.90610069999997,243.90610069999997,243.90610069999997,243.90610069999997,243.90610069999997,None,None,None,,,,,,,,,,,,,,,,,,,,,,,,,,,7,001,2024-06-28_13h11.16.997,robot_sternberg_sign,2022.2.5,60.049204318022305,
"['D', 'T', 'K', 'R']",True,R,4,letter,2,False,False,"['robot_stimuli\\\\filler.mp4', 'robot_stimuli\\\\filler.mp4', 'robot_stimuli\\\\filler.mp4', 'robot_stimuli\\\\filler.mp4']",robot_stimuli\\filler.mp4,7,0,0,0,0,0,4,4,4,,,,,,,,,,,,,,,,,,,,,243.90610069999997,243.90610069999997,None,,253.71365739999993,254.77933230000002,251.69831089999997,253.71365739999993,254.77933230000002,254.77933230000002,254.77933230000002,254.77933230000002,c,1.2623160000000553,256.20373679999994,256.20373679999994,256.20373679999994,256.20373679999994,256.20373679999994,256.20373679999994,256.20373679999994,256.20373679999994,None,None,None,243.90610069999997,243.90610069999997,,,,,,,,,,,,,,,,,,,,,,,,,7,001,2024-06-28_13h11.16.997,robot_sternberg_sign,2022.2.5,60.049204318022305,
"['X', 'Z', 'B', 'M']",False,R,4,letter,2,False,True,"['robot_stimuli\\\\filler.mp4', 'robot_stimuli\\\\filler.mp4', 'robot_stimuli\\\\filler.mp4', 'robot_stimuli\\\\filler.mp4']",robot_stimuli\\filler.mp4,7,0,0,0,0,0,5,5,5,,,,,,,,,,,,,,,,,,,,,256.20373679999994,256.20373679999994,None,,265.80367829999994,266.8773815,263.5877042,265.80367829999994,266.8773815,266.8773815,266.8773815,266.8773815,n,0.7097294000000147,267.7394396,273.16517289999996,267.7394396,273.16517289999996,267.7394396,273.16517289999996,267.7394396,273.16517289999996,24.907407407407405,4.328366200000005,space,256.20373679999994,256.20373679999994,5.357900200000017,,,,,,,,,,,,,,,,,,,,,,,,7,001,2024-06-28_13h11.16.997,robot_sternberg_sign,2022.2.5,60.049204318022305,
"['R', 'Q', 'H', 'Z', 'K', 'M']",False,F,6,letter,2,True,False,"['robot_stimuli\\\\filler.mp4', 'robot_stimuli\\\\filler.mp4', 'robot_stimuli\\\\filler.mp4', 'robot_stimuli\\\\filler.mp4', 'robot_stimuli\\\\filler.mp4', 'robot_stimuli\\\\filler.mp4']",robot_stimuli\\filler.mp4,7,0,0,0,0,0,6,6,6,,,,,,,,,,,,,,,,,,,,,273.16517289999996,273.16517289999996,space,0.8773068000000421,288.0571633,289.1347282,286.0448019,288.0571633,289.1347282,289.1347282,289.1347282,289.1347282,n,0.6983521999999311,289.96121220000003,289.96121220000003,289.96121220000003,289.96121220000003,289.96121220000003,289.96121220000003,289.96121220000003,289.96121220000003,None,None,None,,,,,,,,,,,,,,,,,,,,,,,,,,,7,001,2024-06-28_13h11.16.997,robot_sternberg_sign,2022.2.5,60.049204318022305,
"['M', 'F', 'W', 'G', 'T', 'B']",True,F,6,letter,2,False,False,"['robot_stimuli\\\\filler.mp4', 'robot_stimuli\\\\filler.mp4', 'robot_stimuli\\\\filler.mp4', 'robot_stimuli\\\\filler.mp4', 'robot_stimuli\\\\filler.mp4', 'robot_stimuli\\\\filler.mp4']",robot_stimuli\\filler.mp4,7,0,0,0,0,0,7,7,7,,,,,,,,,,,,,,,,,,,,,289.96121220000003,289.96121220000003,None,,304.33991910000003,305.3998151,302.32397639999994,304.33991910000003,305.3998151,305.3998151,305.3998151,305.3998151,c,1.194652299999916,306.82878469999997,306.82878469999997,306.82878469999997,306.82878469999997,306.82878469999997,306.82878469999997,306.82878469999997,306.82878469999997,None,None,None,289.96121220000003,289.96121220000003,,,,,,,,,,,,,,,,,,,,,,,,,7,001,2024-06-28_13h11.16.997,robot_sternberg_sign,2022.2.5,60.049204318022305,
"['F', 'H', 'B', 'N', 'M', 'K']",True,K,6,letter,2,False,True,"['robot_stimuli\\\\filler.mp4', 'robot_stimuli\\\\filler.mp4', 'robot_stimuli\\\\filler.mp4', 'robot_stimuli\\\\filler.mp4', 'robot_stimuli\\\\filler.mp4', 'robot_stimuli\\\\filler.mp4']",robot_stimuli\\filler.mp4,7,0,0,0,0,0,8,8,8,,,,,,,,,,,,,,,,,,,,,306.82878469999997,306.82878469999997,None,,320.78395259999996,307.89701510000003,318.77337859999994,320.78395259999996,321.85799489999994,321.85799489999994,321.85799489999994,321.85799489999994,c,1.032509799999957,323.11374140000004,332.4330722,323.11374140000004,332.4330722,323.11374140000004,332.4330722,323.11374140000004,332.4330722,36.79012345679013,8.287023500000032,space,306.82878469999997,306.82878469999997,9.248877499999935,,,,,,,,,,,,,,,,,,,,,,,,7,001,2024-06-28_13h11.16.997,robot_sternberg_sign,2022.2.5,60.049204318022305,
"['R_Head_Y_Back', 'R_Torso_X_For']",True,R_Head_Y_Back,2,robot,1,True,False,"['robot_stimuli\\R_Head_Y_Back.mp4', 'robot_stimuli\\R_Torso_X_For.mp4']",robot_stimuli\R_Head_Y_Back.mp4,7,0,0,0,0,0,9,9,9,,,,,,,,,,,,,,,,,,,,,332.4330722,332.4330722,space,3.1447248000000627,344.0547724,345.1474632,,,,345.1474632,345.1474632,345.1474632,n,8.702737999999954,353.8772476,353.8772476,353.8772476,353.8772476,353.8772476,353.8772476,353.8772476,353.8772476,None,None,None,,,,340.41223299999996,345.1474632,,,,,,,,,,,,,,,,,,,,,,7,001,2024-06-28_13h11.16.997,robot_sternberg_sign,2022.2.5,60.049204318022305,
"['L_Arm_Y_Back', 'R_Arm_Z_For']",False,L_Arm_Z_For,2,robot,1,False,False,"['robot_stimuli\\L_Arm_Y_Back.mp4', 'robot_stimuli\\R_Arm_Z_For.mp4']",robot_stimuli\L_Arm_Z_For.mp4,7,0,0,0,0,0,10,10,10,,,,,,,,,,,,,,,,,,,,,353.8772476,353.8772476,None,,362.33207379999993,363.41431389999997,,,,363.41431389999997,363.41431389999997,363.41431389999997,c,11.170616499999937,374.6348976,374.6348976,374.6348976,374.6348976,374.6348976,374.6348976,374.6348976,374.6348976,None,None,None,353.8772476,353.8772476,,358.7019807,363.41431389999997,,,,,,,,,,,,,,,,,,,,,,7,001,2024-06-28_13h11.16.997,robot_sternberg_sign,2022.2.5,60.049204318022305,
"['L_Base_Y_Back', 'R_Base_Y_For']",True,R_Base_Y_For,2,robot,1,False,True,"['robot_stimuli\\L_Base_Y_Back.mp4', 'robot_stimuli\\R_Base_Y_For.mp4']",robot_stimuli\R_Base_Y_For.mp4,7,0,0,0,0,0,11,11,11,,,,,,,,,,,,,,,,,,,,,374.6348976,374.6348976,None,,383.03843950000004,384.12395179999993,,,,384.12395179999993,384.12395179999993,384.12395179999993,c,2.326315799999975,387.8056026,463.39707029999994,387.8056026,463.39707029999994,387.8056026,463.39707029999994,387.8056026,463.39707029999994,24.907407407407405,73.84476510000002,space,374.6348976,374.6348976,75.53952879999997,379.39874849999995,384.12395179999993,,,,,,,,,,,,,,,,,,,,,,7,001,2024-06-28_13h11.16.997,robot_sternberg_sign,2022.2.5,60.049204318022305,
"['L_Torso_Y_For', 'R_Arm_Y_For', 'L_Head_Y_Back', 'L_Arm_X_Back']",True,L_Head_Y_Back,4,robot,1,True,False,"['robot_stimuli\\L_Torso_Y_For.mp4', 'robot_stimuli\\R_Arm_Y_For.mp4', 'robot_stimuli\\L_Head_Y_Back.mp4', 'robot_stimuli\\L_Arm_X_Back.mp4']",robot_stimuli\L_Head_Y_Back.mp4,7,0,0,0,0,0,12,12,12,,,,,,,,,,,,,,,,,,,,,463.39707029999994,463.39707029999994,space,3.1260138000000097,482.305265,483.3934191,,,,483.3934191,483.3934191,483.3934191,c,3.936809499999981,487.3589006,487.3589006,487.3589006,487.3589006,487.3589006,487.3589006,487.3589006,487.3589006,None,None,None,,,,478.67401060000003,483.3934191,,,,,,,,,,,,,,,,,,,,,,7,001,2024-06-28_13h11.16.997,robot_sternberg_sign,2022.2.5,60.049204318022305,
"['R_Base_Z_Back', 'R_Torso_Y_For', 'R_Torso_Z_Back', 'R_Arm_Z_Back']",True,R_Base_Z_Back,4,robot,1,False,False,"['robot_stimuli\\R_Base_Z_Back.mp4', 'robot_stimuli\\R_Torso_Y_For.mp4', 'robot_stimuli\\R_Torso_Z_Back.mp4', 'robot_stimuli\\R_Arm_Z_Back.mp4']",robot_stimuli\R_Base_Z_Back.mp4,7,0,0,0,0,0,13,13,13,,,,,,,,,,,,,,,,,,,,,487.3589006,487.3589006,None,,503.1538351,504.2448529,,,,504.2448529,504.2448529,504.2448529,c,3.87736289999998,508.16412710000003,508.16412710000003,508.16412710000003,508.16412710000003,508.16412710000003,508.16412710000003,508.16412710000003,508.16412710000003,None,None,None,487.3589006,487.3589006,,499.523568,504.2448529,,,,,,,,,,,,,,,,,,,,,,7,001,2024-06-28_13h11.16.997,robot_sternberg_sign,2022.2.5,60.049204318022305,
"['R_Torso_Y_Back', 'L_Head_Y_Back', 'L_Arm_Y_Back', 'R_Torso_Z_For']",False,L_Base_Y_For,4,robot,1,False,True,"['robot_stimuli\\R_Torso_Y_Back.mp4', 'robot_stimuli\\L_Head_Y_Back.mp4', 'robot_stimuli\\L_Arm_Y_Back.mp4', 'robot_stimuli\\R_Torso_Z_For.mp4']",robot_stimuli\L_Base_Y_For.mp4,7,0,0,0,0,0,14,14,14,,,,,,,,,,,,,,,,,,,,,508.16412710000003,508.16412710000003,None,,524.0555413,525.1603325000001,,,,525.1603325000001,525.1603325000001,525.1603325000001,n,3.60208659999995,528.8240306,533.0809629999999,528.8240306,533.0809629999999,528.8240306,533.0809629999999,528.8240306,533.0809629999999,50.370370370370374,3.5012633999999707,space,508.16412710000003,508.16412710000003,4.201965100000109,520.4063252000001,525.1603325000001,,,,,,,,,,,,,,,,,,,,,,7,001,2024-06-28_13h11.16.997,robot_sternberg_sign,2022.2.5,60.049204318022305,
"['L_Torso_X_Back', 'R_Base_Y_For', 'R_Base_X_For', 'R_Torso_Z_Back', 'R_Base_Y_Back', 'R_Torso_Y_For']",True,R_Torso_Y_For,6,robot,1,True,False,"['robot_stimuli\\L_Torso_X_Back.mp4', 'robot_stimuli\\R_Base_Y_For.mp4', 'robot_stimuli\\R_Base_X_For.mp4', 'robot_stimuli\\R_Torso_Z_Back.mp4', 'robot_stimuli\\R_Base_Y_Back.mp4', 'robot_stimuli\\R_Torso_Y_For.mp4']",robot_stimuli\R_Torso_Y_For.mp4,7,0,0,0,0,0,15,15,15,,,,,,,,,,,,,,,,,,,,,533.0809629999999,533.0809629999999,space,1.2169126999999094,557.6061648999998,558.6918389,,,,558.6918389,558.6918389,558.6918389,c,3.7910850999998615,562.5100264999999,562.5100264999999,562.5100264999999,562.5100264999999,562.5100264999999,562.5100264999999,562.5100264999999,562.5100264999999,None,None,None,,,,553.9746488000001,558.6918389,,,,,,,,,,,,,,,,,,,,,,7,001,2024-06-28_13h11.16.997,robot_sternberg_sign,2022.2.5,60.049204318022305,
"['R_Head_X_For', 'L_Torso_X_Back', 'L_Head_Y_Back', 'L_Torso_Y_Back', 'L_Arm_X_For', 'L_Arm_Z_For']",False,R_Torso_X_Back,6,robot,1,False,False,"['robot_stimuli\\R_Head_X_For.mp4', 'robot_stimuli\\L_Torso_X_Back.mp4', 'robot_stimuli\\L_Head_Y_Back.mp4', 'robot_stimuli\\L_Torso_Y_Back.mp4', 'robot_stimuli\\L_Arm_X_For.mp4', 'robot_stimuli\\L_Arm_Z_For.mp4']",robot_stimuli\R_Torso_X_Back.mp4,7,0,0,0,0,0,16,16,16,,,,,,,,,,,,,,,,,,,,,562.5100264999999,562.5100264999999,None,,585.7014987999999,563.5947707999999,,,,586.7943034,586.7943034,586.7943034,n,3.6867761999998834,590.5085801,590.5085801,590.5085801,590.5085801,590.5085801,590.5085801,590.5085801,590.5085801,None,None,None,562.5100264999999,562.5100264999999,,582.0710647999999,586.7943034,,,,,,,,,,,,,,,,,,,,,,7,001,2024-06-28_13h11.16.997,robot_sternberg_sign,2022.2.5,60.049204318022305,
"['L_Arm_Y_For', 'L_Arm_Z_For', 'L_Torso_X_For', 'L_Head_X_Back', 'L_Base_Y_Back', 'R_Base_Y_For']",True,L_Arm_Y_For,6,robot,1,False,True,"['robot_stimuli\\L_Arm_Y_For.mp4', 'robot_stimuli\\L_Arm_Z_For.mp4', 'robot_stimuli\\L_Torso_X_For.mp4', 'robot_stimuli\\L_Head_X_Back.mp4', 'robot_stimuli\\L_Base_Y_Back.mp4', 'robot_stimuli\\R_Base_Y_For.mp4']",robot_stimuli\L_Arm_Y_For.mp4,7,0,0,0,0,0,17,17,17,,,,,,,,,,,,,,,,,,,,,590.5085801,590.5085801,None,,613.791526,614.8906311999999,,,,614.8906311999999,614.8906311999999,614.8906311999999,c,3.97562929999998,618.9247938999999,622.0052151999998,618.9247938999999,622.0052151999998,618.9247938999999,622.0052151999998,618.9247938999999,622.0052151999998,49.44444444444444,2.7612071999999444,space,590.5085801,590.5085801,3.0364220999999247,610.1566261,614.8906311999999,,,,,,,,,,,,,,,,,,,,,,7,001,2024-06-28_13h11.16.997,robot_sternberg_sign,2022.2.5,60.049204318022305,
,,,,,,,,,,,0,0,0,0,,,,,,,,,,,,,,,,,,,,,,,,,,,,,,,,,,,,,,,,,,,,,,,,,,,,,,,622.0052151999998,622.0052151999998,622.0052151999998,c,6.781420299999752,,,,,,,,,,,,,,,,,7,001,2024-06-28_13h11.16.997,robot_sternberg_sign,2022.2.5,60.049204318022305,
"['L_Head_X_For', 'R_Head_X_Back', 'R_Base_Z_Back', 'L_Arm_Z_For', 'R_Arm_Y_For', 'L_Base_X_For']",False,R_Head_Z_Back,6,robot,1,True,False,"['robot_stimuli\\L_Head_X_For.mp4', 'robot_stimuli\\R_Head_X_Back.mp4', 'robot_stimuli\\R_Base_Z_Back.mp4', 'robot_stimuli\\L_Arm_Z_For.mp4', 'robot_stimuli\\R_Arm_Y_For.mp4', 'robot_stimuli\\L_Base_X_For.mp4']",robot_stimuli\R_Head_Z_Back.mp4,7,,,,,,,,,,,,,0,0,0,0,,,,,,,,,,,,,,,,,658.2991631999998,659.377837,,,,,,,,,663.5908168999999,663.5908168999999,663.5908168999999,663.5908168999999,663.5908168999999,663.5908168999999,663.5908168999999,663.5908168999999,None,None,None,,,,,,,,,,,628.8309835,628.8309835,space,6.4670062999998095,654.7424882,659.377837,659.377837,659.377837,659.377837,n,4.175158500000123,,,,,,7,001,2024-06-28_13h11.16.997,robot_sternberg_sign,2022.2.5,60.049204318022305,
"['L_Head_Z_Back', 'L_Torso_Y_Back', 'L_Head_Z_For', 'R_Torso_X_Back', 'R_Head_Z_For', 'L_Base_Z_Back']",False,L_Torso_X_For,6,robot,1,False,False,"['robot_stimuli\\L_Head_Z_Back.mp4', 'robot_stimuli\\L_Torso_Y_Back.mp4', 'robot_stimuli\\L_Head_Z_For.mp4', 'robot_stimuli\\R_Torso_X_Back.mp4', 'robot_stimuli\\R_Head_Z_For.mp4', 'robot_stimuli\\L_Base_Z_Back.mp4']",robot_stimuli\L_Torso_X_For.mp4,7,,,,,,,,,,,,,0,1,1,1,,,,,,,,,,,,,,,,,686.8207722999998,687.9089105999999,,,,,,,,,697.7490181999999,697.7490181999999,697.7490181999999,697.7490181999999,697.7490181999999,697.7490181999999,697.7490181999999,697.7490181999999,None,None,None,,,,,,,,,,,663.5908168999999,663.5908168999999,None,,683.1775508999999,687.9089105999999,687.9089105999999,687.9089105999999,687.9089105999999,c,9.798263099999929,663.5908168999999,663.5908168999999,,,,7,001,2024-06-28_13h11.16.997,robot_sternberg_sign,2022.2.5,60.049204318022305,
"['L_Torso_Z_Back', 'R_Base_Y_For', 'R_Head_Y_For', 'R_Base_Z_Back', 'L_Head_Z_For', 'R_Base_Z_For']",False,L_Arm_X_Back,6,robot,1,False,False,"['robot_stimuli\\L_Torso_Z_Back.mp4', 'robot_stimuli\\R_Base_Y_For.mp4', 'robot_stimuli\\R_Head_Y_For.mp4', 'robot_stimuli\\R_Base_Z_Back.mp4', 'robot_stimuli\\L_Head_Z_For.mp4', 'robot_stimuli\\R_Base_Z_For.mp4']",robot_stimuli\L_Arm_X_Back.mp4,7,,,,,,,,,,,,,0,2,2,2,,,,,,,,,,,,,,,,,720.8407382,721.9321551999999,,,,,,,,,725.7919227,725.7919227,725.7919227,725.7919227,725.7919227,725.7919227,725.7919227,725.7919227,None,None,None,,,,,,,,,,,697.7490181999999,697.7490181999999,None,,717.2082492,721.9321551999999,721.9321551999999,721.9321551999999,721.9321551999999,n,3.821708499999829,697.7490181999999,697.7490181999999,,,,7,001,2024-06-28_13h11.16.997,robot_sternberg_sign,2022.2.5,60.049204318022305,
"['R_Head_Y_Back', 'R_Torso_Z_Back', 'L_Torso_X_Back', 'R_Torso_Z_For', 'L_Arm_Z_Back', 'R_Head_Z_For']",False,R_Torso_Y_Back,6,robot,1,False,False,"['robot_stimuli\\R_Head_Y_Back.mp4', 'robot_stimuli\\R_Torso_Z_Back.mp4', 'robot_stimuli\\L_Torso_X_Back.mp4', 'robot_stimuli\\R_Torso_Z_For.mp4', 'robot_stimuli\\L_Arm_Z_Back.mp4', 'robot_stimuli\\R_Head_Z_For.mp4']",robot_stimuli\R_Torso_Y_Back.mp4,7,,,,,,,,,,,,,0,3,3,3,,,,,,,,,,,,,,,,,749.1038618999999,750.1939729999999,,,,,,,,,754.3625774999998,754.3625774999998,754.3625774999998,754.3625774999998,754.3625774999998,754.3625774999998,754.3625774999998,754.3625774999998,None,None,None,,,,,,,,,,,725.7919227,725.7919227,None,,745.4720290999999,750.1939729999999,750.1939729999999,750.1939729999999,750.1939729999999,c,4.1277940999997895,725.7919227,725.7919227,,,,7,001,2024-06-28_13h11.16.997,robot_sternberg_sign,2022.2.5,60.049204318022305,
"['R_Head_X_For', 'L_Base_X_Back', 'L_Head_Y_Back', 'R_Base_Z_Back', 'L_Torso_Y_Back', 'L_Base_Y_Back']",True,L_Base_Y_Back,6,robot,1,False,False,"['robot_stimuli\\R_Head_X_For.mp4', 'robot_stimuli\\L_Base_X_Back.mp4', 'robot_stimuli\\L_Head_Y_Back.mp4', 'robot_stimuli\\R_Base_Z_Back.mp4', 'robot_stimuli\\L_Torso_Y_Back.mp4', 'robot_stimuli\\L_Base_Y_Back.mp4']",robot_stimuli\L_Base_Y_Back.mp4,7,,,,,,,,,,,,,0,4,4,4,,,,,,,,,,,,,,,,,777.3323576999999,778.4115926,,,,,,,,,781.9937313,781.9937313,781.9937313,781.9937313,781.9937313,781.9937313,781.9937313,781.9937313,None,None,None,,,,,,,,,,,754.3625774999998,754.3625774999998,None,,773.7762439999999,778.4115926,778.4115926,778.4115926,778.4115926,c,2.9494799999999373,754.3625774999998,754.3625774999998,,,,7,001,2024-06-28_13h11.16.997,robot_sternberg_sign,2022.2.5,60.049204318022305,
"['R_Torso_Z_Back', 'L_Arm_Z_For', 'R_Base_Z_For', 'L_Torso_X_Back', 'L_Torso_Z_Back', 'L_Base_Z_For']",True,R_Torso_Z_Back,6,robot,1,False,False,"['robot_stimuli\\R_Torso_Z_Back.mp4', 'robot_stimuli\\L_Arm_Z_For.mp4', 'robot_stimuli\\R_Base_Z_For.mp4', 'robot_stimuli\\L_Torso_X_Back.mp4', 'robot_stimuli\\L_Torso_Z_Back.mp4', 'robot_stimuli\\L_Base_Z_For.mp4']",robot_stimuli\R_Torso_Z_Back.mp4,7,,,,,,,,,,,,,0,5,5,5,,,,,,,,,,,,,,,,,805.1658573,806.2418534999999,,,,,,,,,810.5936445999998,810.5936445999998,810.5936445999998,810.5936445999998,810.5936445999998,810.5936445999998,810.5936445999998,810.5936445999998,None,None,None,,,,,,,,,,,781.9937313,781.9937313,None,,801.5434779999998,806.2418534999999,806.2418534999999,806.2418534999999,806.2418534999999,c,4.311951300000089,781.9937313,781.9937313,,,,7,001,2024-06-28_13h11.16.997,robot_sternberg_sign,2022.2.5,60.049204318022305,
"['L_Arm_Y_Back', 'L_Arm_X_Back', 'R_Torso_X_For', 'R_Arm_Z_Back', 'L_Head_Y_Back', 'L_Arm_Y_For']",True,R_Torso_X_For,6,robot,1,False,False,"['robot_stimuli\\L_Arm_Y_Back.mp4', 'robot_stimuli\\L_Arm_X_Back.mp4', 'robot_stimuli\\R_Torso_X_For.mp4', 'robot_stimuli\\R_Arm_Z_Back.mp4', 'robot_stimuli\\L_Head_Y_Back.mp4', 'robot_stimuli\\L_Arm_Y_For.mp4']",robot_stimuli\R_Torso_X_For.mp4,7,,,,,,,,,,,,,0,6,6,6,,,,,,,,,,,,,,,,,833.9683794,811.6742829999998,,,,,,,,,838.6895643999999,838.6895643999999,838.6895643999999,838.6895643999999,838.6895643999999,838.6895643999999,838.6895643999999,838.6895643999999,None,None,None,,,,,,,,,,,810.5936445999998,810.5936445999998,None,,830.3232237999998,835.0601428,835.0601428,835.0601428,835.0601428,c,3.492790599999978,810.5936445999998,810.5936445999998,,,,7,001,2024-06-28_13h11.16.997,robot_sternberg_sign,2022.2.5,60.049204318022305,
"['L_Head_Y_For', 'L_Torso_Z_For', 'L_Torso_Y_Back', 'R_Torso_X_Back', 'R_Arm_X_For', 'L_Arm_X_For']",True,R_Torso_X_Back,6,robot,1,False,False,"['robot_stimuli\\L_Head_Y_For.mp4', 'robot_stimuli\\L_Torso_Z_For.mp4', 'robot_stimuli\\L_Torso_Y_Back.mp4', 'robot_stimuli\\R_Torso_X_Back.mp4', 'robot_stimuli\\R_Arm_X_For.mp4', 'robot_stimuli\\L_Arm_X_For.mp4']",robot_stimuli\R_Torso_X_Back.mp4,7,,,,,,,,,,,,,0,7,7,7,,,,,,,,,,,,,,,,,861.9379042999999,863.0237743999999,,,,,,,,,866.6558458,866.6558458,866.6558458,866.6558458,866.6558458,866.6558458,866.6558458,866.6558458,None,None,None,,,,,,,,,,,838.6895643999999,838.6895643999999,None,,858.3085503999998,863.0237743999999,863.0237743999999,863.0237743999999,863.0237743999999,c,3.4827975000000038,838.6895643999999,838.6895643999999,,,,7,001,2024-06-28_13h11.16.997,robot_sternberg_sign,2022.2.5,60.049204318022305,
"['L_Arm_Z_For', 'L_Head_Z_For', 'R_Base_Z_For', 'L_Arm_Z_Back', 'R_Base_Y_For', 'L_Head_Y_For']",False,R_Head_Y_Back,6,robot,1,False,False,"['robot_stimuli\\L_Arm_Z_For.mp4', 'robot_stimuli\\L_Head_Z_For.mp4', 'robot_stimuli\\R_Base_Z_For.mp4', 'robot_stimuli\\L_Arm_Z_Back.mp4', 'robot_stimuli\\R_Base_Y_For.mp4', 'robot_stimuli\\L_Head_Y_For.mp4']",robot_stimuli\R_Head_Y_Back.mp4,7,,,,,,,,,,,,,0,8,8,8,,,,,,,,,,,,,,,,,890.0042200999999,891.0923243,,,,,,,,,896.1091936,896.1091936,896.1091936,896.1091936,896.1091936,896.1091936,896.1091936,896.1091936,None,None,None,,,,,,,,,,,866.6558458,866.6558458,None,,886.3613091,891.0923243,891.0923243,891.0923243,891.0923243,n,4.989256400000102,866.6558458,866.6558458,,,,7,001,2024-06-28_13h11.16.997,robot_sternberg_sign,2022.2.5,60.049204318022305,
"['L_Head_X_Back', 'L_Base_Z_Back', 'L_Base_Z_For', 'R_Arm_Z_For', 'L_Base_Y_For', 'R_Base_Z_For']",True,R_Arm_Z_For,6,robot,1,False,True,"['robot_stimuli\\L_Head_X_Back.mp4', 'robot_stimuli\\L_Base_Z_Back.mp4', 'robot_stimuli\\L_Base_Z_For.mp4', 'robot_stimuli\\R_Arm_Z_For.mp4', 'robot_stimuli\\L_Base_Y_For.mp4', 'robot_stimuli\\R_Base_Z_For.mp4']",robot_stimuli\R_Arm_Z_For.mp4,7,,,,,,,,,,,,,0,9,9,9,,,,,,,,,,,,,,,,,919.3376423999998,920.4266392,,,,,,,,,924.1322112,931.5193583999999,924.1322112,931.5193583999999,924.1322112,931.5193583999999,924.1322112,931.5193583999999,56.69753086419753,5.941930599999978,space,,,7.318172499999889,,,,,,,,896.1091936,896.1091936,None,,915.6986915,920.4266392,920.4266392,920.4266392,920.4266392,c,3.6313193000000297,896.1091936,896.1091936,,,,7,001,2024-06-28_13h11.16.997,robot_sternberg_sign,2022.2.5,60.049204318022305,
"['L_Head_Z_For', 'R_Arm_Y_For', 'L_Torso_X_For', 'R_Base_X_Back']",True,L_Head_Z_For,4,robot,1,True,False,"['robot_stimuli\\L_Head_Z_For.mp4', 'robot_stimuli\\R_Arm_Y_For.mp4', 'robot_stimuli\\L_Torso_X_For.mp4', 'robot_stimuli\\R_Base_X_Back.mp4']",robot_stimuli\L_Head_Z_For.mp4,7,,,,,,,,,,,,,0,10,10,10,,,,,,,,,,,,,,,,,950.3406213999999,951.4271601999999,,,,,,,,,955.3762651,955.3762651,955.3762651,955.3762651,955.3762651,955.3762651,955.3762651,955.3762651,None,None,None,,,,,,,,,,,931.5193583999999,931.5193583999999,space,3.0590669999998568,946.7089215999999,951.4271601999999,951.4271601999999,951.4271601999999,951.4271601999999,c,3.919096199999956,,,,,,7,001,2024-06-28_13h11.16.997,robot_sternberg_sign,2022.2.5,60.049204318022305,
"['L_Base_Z_For', 'L_Arm_X_For', 'R_Base_Z_For', 'R_Torso_Z_For']",False,L_Head_Y_Back,4,robot,1,False,False,"['robot_stimuli\\L_Base_Z_For.mp4', 'robot_stimuli\\L_Arm_X_For.mp4', 'robot_stimuli\\R_Base_Z_For.mp4', 'robot_stimuli\\R_Torso_Z_For.mp4']",robot_stimuli\L_Head_Y_Back.mp4,7,,,,,,,,,,,,,0,11,11,11,,,,,,,,,,,,,,,,,971.2544720999999,972.3429177999999,,,,,,,,,975.9814483999999,975.9814483999999,975.9814483999999,975.9814483999999,975.9814483999999,975.9814483999999,975.9814483999999,975.9814483999999,None,None,None,,,,,,,,,,,955.3762651,955.3762651,None,,967.6249281,972.3429177999999,972.3429177999999,972.3429177999999,972.3429177999999,n,3.434215400000028,955.3762651,955.3762651,,,,7,001,2024-06-28_13h11.16.997,robot_sternberg_sign,2022.2.5,60.049204318022305,
"['R_Arm_Z_Back', 'L_Base_X_Back', 'R_Torso_Z_Back', 'L_Torso_Z_For']",False,R_Head_X_Back,4,robot,1,False,False,"['robot_stimuli\\R_Arm_Z_Back.mp4', 'robot_stimuli\\L_Base_X_Back.mp4', 'robot_stimuli\\R_Torso_Z_Back.mp4', 'robot_stimuli\\L_Torso_Z_For.mp4']",robot_stimuli\R_Head_X_Back.mp4,7,,,,,,,,,,,,,0,12,12,12,,,,,,,,,,,,,,,,,991.8055961999999,992.8903519999999,,,,,,,,,996.5306782,996.5306782,996.5306782,996.5306782,996.5306782,996.5306782,996.5306782,996.5306782,None,None,None,,,,,,,,,,,975.9814483999999,975.9814483999999,None,,988.174246,992.8903519999999,992.8903519999999,992.8903519999999,992.8903519999999,n,2.7911993999998117,975.9814483999999,975.9814483999999,,,,7,001,2024-06-28_13h11.16.997,robot_sternberg_sign,2022.2.5,60.049204318022305,
"['R_Head_Z_For', 'L_Torso_Y_For', 'L_Arm_X_Back', 'R_Arm_X_Back']",False,R_Torso_Y_For,4,robot,1,False,False,"['robot_stimuli\\R_Head_Z_For.mp4', 'robot_stimuli\\L_Torso_Y_For.mp4', 'robot_stimuli\\L_Arm_X_Back.mp4', 'robot_stimuli\\R_Arm_X_Back.mp4']",robot_stimuli\R_Torso_Y_For.mp4,7,,,,,,,,,,,,,0,13,13,13,,,,,,,,,,,,,,,,,1012.4018867999998,997.6067134,,,,,,,,,1017.9928548999999,1017.9928548999999,1017.9928548999999,1017.9928548999999,1017.9928548999999,1017.9928548999999,1017.9928548999999,1017.9928548999999,None,None,None,,,,,,,,,,,996.5306782,996.5306782,None,,1008.7619758999999,1013.4943802999999,1013.4943802999999,1013.4943802999999,1013.4943802999999,n,4.468604999999968,996.5306782,996.5306782,,,,7,001,2024-06-28_13h11.16.997,robot_sternberg_sign,2022.2.5,60.049204318022305,
"['R_Torso_Y_For', 'R_Arm_X_For', 'L_Torso_Y_For', 'R_Arm_X_Back']",False,L_Head_Y_Back,4,robot,1,False,False,"['robot_stimuli\\R_Torso_Y_For.mp4', 'robot_stimuli\\R_Arm_X_For.mp4', 'robot_stimuli\\L_Torso_Y_For.mp4', 'robot_stimuli\\R_Arm_X_Back.mp4']",robot_stimuli\L_Head_Y_Back.mp4,7,,,,,,,,,,,,,0,14,14,14,,,,,,,,,,,,,,,,,1033.8664876,1034.9443107,,,,,,,,,1038.5744465999999,1038.5744465999999,1038.5744465999999,1038.5744465999999,1038.5744465999999,1038.5744465999999,1038.5744465999999,1038.5744465999999,None,None,None,,,,,,,,,,,1017.9928548999999,1017.9928548999999,None,,1030.2319212,1034.9443107,1034.9443107,1034.9443107,1034.9443107,n,3.5863332000000696,1017.9928548999999,1017.9928548999999,,,,7,001,2024-06-28_13h11.16.997,robot_sternberg_sign,2022.2.5,60.049204318022305,
"['L_Torso_Z_Back', 'L_Head_Z_Back', 'R_Base_Y_For', 'L_Head_Z_For']",True,L_Torso_Z_Back,4,robot,1,False,False,"['robot_stimuli\\L_Torso_Z_Back.mp4', 'robot_stimuli\\L_Head_Z_Back.mp4', 'robot_stimuli\\R_Base_Y_For.mp4', 'robot_stimuli\\L_Head_Z_For.mp4']",robot_stimuli\L_Torso_Z_Back.mp4,7,,,,,,,,,,,,,0,15,15,15,,,,,,,,,,,,,,,,,1054.3412779,1055.4427217,,,,,,,,,1061.6023922,1061.6023922,1061.6023922,1061.6023922,1061.6023922,1061.6023922,1061.6023922,1061.6023922,None,None,None,,,,,,,,,,,1038.5744465999999,1038.5744465999999,None,,1050.6945282,1055.4427217,1055.4427217,1055.4427217,1055.4427217,c,6.119701999999904,1038.5744465999999,1038.5744465999999,,,,7,001,2024-06-28_13h11.16.997,robot_sternberg_sign,2022.2.5,60.049204318022305,
"['R_Head_Z_For', 'L_Head_Z_Back', 'L_Arm_X_For', 'R_Torso_Z_Back']",True,L_Arm_X_For,4,robot,1,False,False,"['robot_stimuli\\R_Head_Z_For.mp4', 'robot_stimuli\\L_Head_Z_Back.mp4', 'robot_stimuli\\L_Arm_X_For.mp4', 'robot_stimuli\\R_Torso_Z_Back.mp4']",robot_stimuli\L_Arm_X_For.mp4,7,,,,,,,,,,,,,0,16,16,16,,,,,,,,,,,,,,,,,1077.5078254999999,1078.6085186999999,,,,,,,,,1082.2476333,1082.2476333,1082.2476333,1082.2476333,1082.2476333,1082.2476333,1082.2476333,1082.2476333,None,None,None,,,,,,,,,,,1061.6023922,1061.6023922,None,,1073.8615983999998,1078.6085186999999,1078.6085186999999,1078.6085186999999,1078.6085186999999,c,3.306431299999929,1061.6023922,1061.6023922,,,,7,001,2024-06-28_13h11.16.997,robot_sternberg_sign,2022.2.5,60.049204318022305,
"['L_Arm_Y_For', 'R_Torso_Z_Back', 'R_Base_Y_For', 'L_Torso_X_For']",True,L_Torso_X_For,4,robot,1,False,False,"['robot_stimuli\\L_Arm_Y_For.mp4', 'robot_stimuli\\R_Torso_Z_Back.mp4', 'robot_stimuli\\R_Base_Y_For.mp4', 'robot_stimuli\\L_Torso_X_For.mp4']",robot_stimuli\L_Torso_X_For.mp4,7,,,,,,,,,,,,,0,17,17,17,,,,,,,,,,,,,,,,,1098.1536354,1099.2459414999998,,,,,,,,,1102.8950667,1102.8950667,1102.8950667,1102.8950667,1102.8950667,1102.8950667,1102.8950667,1102.8950667,None,None,None,,,,,,,,,,,1082.2476333,1082.2476333,None,,1094.5225062,1099.2459414999998,1099.2459414999998,1099.2459414999998,1099.2459414999998,c,3.411971999999821,1082.2476333,1082.2476333,,,,7,001,2024-06-28_13h11.16.997,robot_sternberg_sign,2022.2.5,60.049204318022305,
"['R_Head_Z_Back', 'R_Torso_Z_For', 'R_Base_X_For', 'R_Head_X_Back']",False,R_Base_Y_Back,4,robot,1,False,False,"['robot_stimuli\\R_Head_Z_Back.mp4', 'robot_stimuli\\R_Torso_Z_For.mp4', 'robot_stimuli\\R_Base_X_For.mp4', 'robot_stimuli\\R_Head_X_Back.mp4']",robot_stimuli\R_Base_Y_Back.mp4,7,,,,,,,,,,,,,0,18,18,18,,,,,,,,,,,,,,,,,1118.6878626999999,1119.7738023,,,,,,,,,1124.8981663,1124.8981663,1124.8981663,1124.8981663,1124.8981663,1124.8981663,1124.8981663,1124.8981663,None,None,None,,,,,,,,,,,1102.8950667,1102.8950667,None,,1115.0459644,1119.7738023,1119.7738023,1119.7738023,1119.7738023,n,5.091647799999862,1102.8950667,1102.8950667,,,,7,001,2024-06-28_13h11.16.997,robot_sternberg_sign,2022.2.5,60.049204318022305,
"['R_Torso_X_For', 'R_Torso_Y_For', 'L_Torso_Y_Back', 'R_Torso_Z_Back']",True,R_Torso_X_For,4,robot,1,False,True,"['robot_stimuli\\R_Torso_X_For.mp4', 'robot_stimuli\\R_Torso_Y_For.mp4', 'robot_stimuli\\L_Torso_Y_Back.mp4', 'robot_stimuli\\R_Torso_Z_Back.mp4']",robot_stimuli\R_Torso_X_For.mp4,7,,,,,,,,,,,,,0,19,19,19,,,,,,,,,,,,,,,,,1140.6699869,1141.7614260999999,,,,,,,,,1145.4227998,1153.8951988,1145.4227998,1153.8951988,1145.4227998,1153.8951988,1145.4227998,1153.8951988,45.74074074074074,7.110537900000054,space,,,8.403035699999862,,,,,,,,1124.8981663,1124.8981663,None,,1137.0279529,1141.7614260999999,1141.7614260999999,1141.7614260999999,1141.7614260999999,c,3.0881169000001023,1124.8981663,1124.8981663,,,,7,001,2024-06-28_13h11.16.997,robot_sternberg_sign,2022.2.5,60.049204318022305,
"['R_Torso_X_For', 'L_Head_X_For']",True,L_Head_X_For,2,robot,1,True,False,"['robot_stimuli\\R_Torso_X_For.mp4', 'robot_stimuli\\L_Head_X_For.mp4']",robot_stimuli\L_Head_X_For.mp4,7,,,,,,,,,,,,,0,20,20,20,,,,,,,,,,,,,,,,,1163.5067520999999,1164.6049186,,,,,,,,,1168.1802063,1168.1802063,1168.1802063,1168.1802063,1168.1802063,1168.1802063,1168.1802063,1168.1802063,None,None,None,,,,,,,,,,,1153.8951988,1153.8951988,space,1.218927199999996,1159.9270503999999,1164.6049186,1164.6049186,1164.6049186,1164.6049186,c,3.148564100000101,,,,,,7,001,2024-06-28_13h11.16.997,robot_sternberg_sign,2022.2.5,60.049204318022305,
"['R_Base_X_For', 'R_Head_X_For']",False,L_Torso_X_For,2,robot,1,False,False,"['robot_stimuli\\R_Base_X_For.mp4', 'robot_stimuli\\R_Head_X_For.mp4']",robot_stimuli\L_Torso_X_For.mp4,7,,,,,,,,,,,,,0,21,21,21,,,,,,,,,,,,,,,,,1176.5361805999999,1177.6243760999998,,,,,,,,,1181.2571561,1181.2571561,1181.2571561,1181.2571561,1181.2571561,1181.2571561,1181.2571561,1181.2571561,None,None,None,,,,,,,,,,,1168.1802063,1168.1802063,None,,1172.8942058,1177.6243760999998,1177.6243760999998,1177.6243760999998,1177.6243760999998,n,3.441867400000035,1168.1802063,1168.1802063,,,,7,001,2024-06-28_13h11.16.997,robot_sternberg_sign,2022.2.5,60.049204318022305,
"['R_Torso_Z_Back', 'L_Arm_Z_For']",True,R_Torso_Z_Back,2,robot,1,False,False,"['robot_stimuli\\R_Torso_Z_Back.mp4', 'robot_stimuli\\L_Arm_Z_For.mp4']",robot_stimuli\R_Torso_Z_Back.mp4,7,,,,,,,,,,,,,0,22,22,22,,,,,,,,,,,,,,,,,1189.7046192,1190.7954989,,,,,,,,,1194.4437467,1194.4437467,1194.4437467,1194.4437467,1194.4437467,1194.4437467,1194.4437467,1194.4437467,None,None,None,,,,,,,,,,,1181.2571561,1181.2571561,None,,1186.0659544,1190.7954989,1190.7954989,1190.7954989,1190.7954989,c,3.5027262999998925,1181.2571561,1181.2571561,,,,7,001,2024-06-28_13h11.16.997,robot_sternberg_sign,2022.2.5,60.049204318022305,
"['L_Arm_Y_For', 'R_Arm_Y_Back']",False,L_Base_X_Back,2,robot,1,False,False,"['robot_stimuli\\L_Arm_Y_For.mp4', 'robot_stimuli\\R_Arm_Y_Back.mp4']",robot_stimuli\L_Base_X_Back.mp4,7,,,,,,,,,,,,,0,23,23,23,,,,,,,,,,,,,,,,,1202.8900211,1203.9787941,,,,,,,,,1207.6005934,1207.6005934,1207.6005934,1207.6005934,1207.6005934,1207.6005934,1207.6005934,1207.6005934,None,None,None,,,,,,,,,,,1194.4437467,1194.4437467,None,,1199.2483226,1203.9787941,1203.9787941,1203.9787941,1203.9787941,n,3.302935399999967,1194.4437467,1194.4437467,,,,7,001,2024-06-28_13h11.16.997,robot_sternberg_sign,2022.2.5,60.049204318022305,
"['R_Head_Z_Back', 'L_Arm_Z_For']",True,R_Head_Z_Back,2,robot,1,False,False,"['robot_stimuli\\R_Head_Z_Back.mp4', 'robot_stimuli\\L_Arm_Z_For.mp4']",robot_stimuli\R_Head_Z_Back.mp4,7,,,,,,,,,,,,,0,24,24,24,,,,,,,,,,,,,,,,,1216.0560438,1217.1448229,,,,,,,,,1222.3261506,1222.3261506,1222.3261506,1222.3261506,1222.3261506,1222.3261506,1222.3261506,1222.3261506,None,None,None,,,,,,,,,,,1207.6005934,1207.6005934,None,,1212.4235886,1217.1448229,1217.1448229,1217.1448229,1217.1448229,c,5.153843100000074,1207.6005934,1207.6005934,,,,7,001,2024-06-28_13h11.16.997,robot_sternberg_sign,2022.2.5,60.049204318022305,
"['L_Arm_Y_Back', 'L_Head_Z_For']",False,R_Base_Y_Back,2,robot,1,False,False,"['robot_stimuli\\L_Arm_Y_Back.mp4', 'robot_stimuli\\L_Head_Z_For.mp4']",robot_stimuli\R_Base_Y_Back.mp4,7,,,,,,,,,,,,,0,25,25,25,,,,,,,,,,,,,,,,,1230.754541,1231.8442969,,,,,,,,,1235.5795455,1235.5795455,1235.5795455,1235.5795455,1235.5795455,1235.5795455,1235.5795455,1235.5795455,None,None,None,,,,,,,,,,,1222.3261506,1222.3261506,None,,1227.1254953999999,1231.8442969,1231.8442969,1231.8442969,1231.8442969,n,3.693496899999843,1222.3261506,1222.3261506,,,,7,001,2024-06-28_13h11.16.997,robot_sternberg_sign,2022.2.5,60.049204318022305,
"['R_Torso_Y_Back', 'R_Torso_Z_Back']",False,R_Base_Y_Back,2,robot,1,False,False,"['robot_stimuli\\R_Torso_Y_Back.mp4', 'robot_stimuli\\R_Torso_Z_Back.mp4']",robot_stimuli\R_Base_Y_Back.mp4,7,,,,,,,,,,,,,0,26,26,26,,,,,,,,,,,,,,,,,1243.9998750999998,1245.0752552,,,,,,,,,1249.1834185999999,1249.1834185999999,1249.1834185999999,1249.1834185999999,1249.1834185999999,1249.1834185999999,1249.1834185999999,1249.1834185999999,None,None,None,,,,,,,,,,,1235.5795455,1235.5795455,None,,1240.3785149,1245.0752552,1245.0752552,1245.0752552,1245.0752552,n,4.0711553999998955,1235.5795455,1235.5795455,,,,7,001,2024-06-28_13h11.16.997,robot_sternberg_sign,2022.2.5,60.049204318022305,
"['R_Head_X_Back', 'L_Head_Y_Back']",True,R_Head_X_Back,2,robot,1,False,False,"['robot_stimuli\\R_Head_X_Back.mp4', 'robot_stimuli\\L_Head_Y_Back.mp4']",robot_stimuli\R_Head_X_Back.mp4,7,,,,,,,,,,,,,0,27,27,27,,,,,,,,,,,,,,,,,1257.620086,1258.7131929999998,,,,,,,,,1262.3627861,1262.3627861,1262.3627861,1262.3627861,1262.3627861,1262.3627861,1262.3627861,1262.3627861,None,None,None,,,,,,,,,,,1249.1834185999999,1249.1834185999999,None,,1253.9807105999998,1258.7131929999998,1258.7131929999998,1258.7131929999998,1258.7131929999998,c,2.600111899999945,1249.1834185999999,1249.1834185999999,,,,7,001,2024-06-28_13h11.16.997,robot_sternberg_sign,2022.2.5,60.049204318022305,
"['L_Torso_Y_Back', 'L_Torso_X_Back']",False,L_Torso_X_For,2,robot,1,False,False,"['robot_stimuli\\L_Torso_Y_Back.mp4', 'robot_stimuli\\L_Torso_X_Back.mp4']",robot_stimuli\L_Torso_X_For.mp4,7,,,,,,,,,,,,,0,28,28,28,,,,,,,,,,,,,,,,,1270.6697364,1271.7590607,,,,,,,,,1275.3982067,1275.3982067,1275.3982067,1275.3982067,1275.3982067,1275.3982067,1275.3982067,1275.3982067,None,None,None,,,,,,,,,,,1262.3627861,1262.3627861,None,,1267.0305994,1271.7590607,1271.7590607,1271.7590607,1271.7590607,n,3.5307792000000404,1262.3627861,1262.3627861,,,,7,001,2024-06-28_13h11.16.997,robot_sternberg_sign,2022.2.5,60.049204318022305,
"['R_Torso_X_For', 'R_Base_Y_Back']",True,R_Torso_X_For,2,robot,1,False,True,"['robot_stimuli\\R_Torso_X_For.mp4', 'robot_stimuli\\R_Base_Y_Back.mp4']",robot_stimuli\R_Torso_X_For.mp4,7,,,,,,,,,,,,,0,29,29,29,,,,,,,,,,,,,,,,,1283.8364869,1284.9268895999999,,,,,,,,,1288.5950149999999,1319.701725,1288.5950149999999,1319.701725,1288.5950149999999,1319.701725,1288.5950149999999,1319.701725,23.67283950617283,21.752827300000035,space,,,31.054103699999985,,,,,,,,1275.3982067,1275.3982067,None,,1280.1962405,1284.9268895999999,1284.9268895999999,1284.9268895999999,1284.9268895999999,c,2.250228199999981,1275.3982067,1275.3982067,,,,7,001,2024-06-28_13h11.16.997,robot_sternberg_sign,2022.2.5,60.049204318022305,
"['L', 'Q']",True,Q,2,letter,2,True,False,"['robot_stimuli\\\\filler.mp4', 'robot_stimuli\\\\filler.mp4']",robot_stimuli\\filler.mp4,7,,,,,,,,,,,,,0,30,30,30,,,,,,,,,,,,,,,,,1328.2800714,1329.3473999999999,,,,,,,,,1330.1702997,1330.1702997,1330.1702997,1330.1702997,1330.1702997,1330.1702997,1330.1702997,1330.1702997,None,None,None,,,,,,,,,,,1319.701725,1319.701725,space,3.187486700000079,,,1329.3473999999999,1329.3473999999999,1329.3473999999999,c,0.6462799000000246,,,1326.2609026999999,1328.2800714,1329.3473999999999,7,001,2024-06-28_13h11.16.997,robot_sternberg_sign,2022.2.5,60.049204318022305,
"['F', 'C']",False,M,2,letter,2,False,False,"['robot_stimuli\\\\filler.mp4', 'robot_stimuli\\\\filler.mp4']",robot_stimuli\\filler.mp4,7,,,,,,,,,,,,,0,31,31,31,,,,,,,,,,,,,,,,,1335.7348161999998,1331.2374654,,,,,,,,,1337.4223175999998,1337.4223175999998,1337.4223175999998,1337.4223175999998,1337.4223175999998,1337.4223175999998,1337.4223175999998,1337.4223175999998,None,None,None,,,,,,,,,,,1330.1702997,1330.1702997,None,,,,1336.8031111999999,1336.8031111999999,1336.8031111999999,n,0.4390197999998122,1330.1702997,1330.1702997,1333.5204543,1335.7348161999998,1336.8031111999999,7,001,2024-06-28_13h11.16.997,robot_sternberg_sign,2022.2.5,60.049204318022305,
"['B', 'S']",False,N,2,letter,2,False,False,"['robot_stimuli\\\\filler.mp4', 'robot_stimuli\\\\filler.mp4']",robot_stimuli\\filler.mp4,7,,,,,,,,,,,,,0,32,32,32,,,,,,,,,,,,,,,,,1342.5976394,1343.6537744999998,,,,,,,,,1344.2816822,1344.2816822,1344.2816822,1344.2816822,1344.2816822,1344.2816822,1344.2816822,1344.2816822,None,None,None,,,,,,,,,,,1337.4223175999998,1337.4223175999998,None,,,,1343.6537744999998,1343.6537744999998,1343.6537744999998,n,0.4049265000000446,1337.4223175999998,1337.4223175999998,1340.5748198,1342.5976394,1343.6537744999998,7,001,2024-06-28_13h11.16.997,robot_sternberg_sign,2022.2.5,60.049204318022305,
"['H', 'G']",True,H,2,letter,2,False,False,"['robot_stimuli\\\\filler.mp4', 'robot_stimuli\\\\filler.mp4']",robot_stimuli\\filler.mp4,7,,,,,,,,,,,,,0,33,33,33,,,,,,,,,,,,,,,,,1349.6539819,1350.7304029,,,,,,,,,1351.3498008,1351.3498008,1351.3498008,1351.3498008,1351.3498008,1351.3498008,1351.3498008,1351.3498008,None,None,None,,,,,,,,,,,1344.2816822,1344.2816822,None,,,,1350.7304029,1350.7304029,1350.7304029,c,0.4625665999998887,1344.2816822,1344.2816822,1347.6278836,1349.6539819,1350.7304029,7,001,2024-06-28_13h11.16.997,robot_sternberg_sign,2022.2.5,60.049204318022305,
"['L', 'F']",False,C,2,letter,2,False,False,"['robot_stimuli\\\\filler.mp4', 'robot_stimuli\\\\filler.mp4']",robot_stimuli\\filler.mp4,7,,,,,,,,,,,,,0,34,34,34,,,,,,,,,,,,,,,,,1356.9031711999999,1357.9686508999998,,,,,,,,,1358.5970889,1358.5970889,1358.5970889,1358.5970889,1358.5970889,1358.5970889,1358.5970889,1358.5970889,None,None,None,,,,,,,,,,,1351.3498008,1351.3498008,None,,,,1357.9686508999998,1357.9686508999998,1357.9686508999998,n,0.5692601000000082,1351.3498008,1351.3498008,1354.6875533999998,1356.9031711999999,1357.9686508999998,7,001,2024-06-28_13h11.16.997,robot_sternberg_sign,2022.2.5,60.049204318022305,
"['W', 'V']",True,V,2,letter,2,False,False,"['robot_stimuli\\\\filler.mp4', 'robot_stimuli\\\\filler.mp4']",robot_stimuli\\filler.mp4,7,,,,,,,,,,,,,0,35,35,35,,,,,,,,,,,,,,,,,1364.1494633,1365.2034526999998,,,,,,,,,1366.2334137999999,1366.2334137999999,1366.2334137999999,1366.2334137999999,1366.2334137999999,1366.2334137999999,1366.2334137999999,1366.2334137999999,None,None,None,,,,,,,,,,,1358.5970889,1358.5970889,None,,,,1365.2034526999998,1365.2034526999998,1365.2034526999998,c,0.8067381000000182,1358.5970889,1358.5970889,1361.9403023999998,1364.1494633,1365.2034526999998,7,001,2024-06-28_13h11.16.997,robot_sternberg_sign,2022.2.5,60.049204318022305,
"['X', 'W']",True,W,2,letter,2,False,False,"['robot_stimuli\\\\filler.mp4', 'robot_stimuli\\\\filler.mp4']",robot_stimuli\\filler.mp4,7,,,,,,,,,,,,,0,36,36,36,,,,,,,,,,,,,,,,,1371.7947563,1372.8530672,,,,,,,,,1373.4801980999998,1373.4801980999998,1373.4801980999998,1373.4801980999998,1373.4801980999998,1373.4801980999998,1373.4801980999998,1373.4801980999998,None,None,None,,,,,,,,,,,1366.2334137999999,1366.2334137999999,None,,,,1372.8530672,1372.8530672,1372.8530672,n,0.4374931999997784,1366.2334137999999,1366.2334137999999,1369.5710904,1371.7947563,1372.8530672,7,001,2024-06-28_13h11.16.997,robot_sternberg_sign,2022.2.5,60.049204318022305,
"['L', 'J']",False,W,2,letter,2,False,False,"['robot_stimuli\\\\filler.mp4', 'robot_stimuli\\\\filler.mp4']",robot_stimuli\\filler.mp4,7,,,,,,,,,,,,,0,37,37,37,,,,,,,,,,,,,,,,,1378.6483701,1379.7018772,,,,,,,,,1380.7226240999998,1380.7226240999998,1380.7226240999998,1380.7226240999998,1380.7226240999998,1380.7226240999998,1380.7226240999998,1380.7226240999998,None,None,None,,,,,,,,,,,1373.4801980999998,1373.4801980999998,None,,,,1379.7018772,1379.7018772,1379.7018772,n,0.9089883999999415,1373.4801980999998,1373.4801980999998,1376.6326537,1378.6483701,1379.7018772,7,001,2024-06-28_13h11.16.997,robot_sternberg_sign,2022.2.5,60.049204318022305,
"['D', 'B']",True,D,2,letter,2,False,False,"['robot_stimuli\\\\filler.mp4', 'robot_stimuli\\\\filler.mp4']",robot_stimuli\\filler.mp4,7,,,,,,,,,,,,,0,38,38,38,,,,,,,,,,,,,,,,,1386.2913319,1387.3533455,,,,,,,,,1387.9827395,1387.9827395,1387.9827395,1387.9827395,1387.9827395,1387.9827395,1387.9827395,1387.9827395,None,None,None,,,,,,,,,,,1380.7226240999998,1380.7226240999998,None,,,,1387.3533455,1387.3533455,1387.3533455,c,0.39315759999993816,1380.7226240999998,1380.7226240999998,1384.0678303,1386.2913319,1387.3533455,7,001,2024-06-28_13h11.16.997,robot_sternberg_sign,2022.2.5,60.049204318022305,
"['S', 'X']",False,M,2,letter,2,False,True,"['robot_stimuli\\\\filler.mp4', 'robot_stimuli\\\\filler.mp4']",robot_stimuli\\filler.mp4,7,,,,,,,,,,,,,0,39,39,39,,,,,,,,,,,,,,,,,1393.3376174999999,1394.4038062999998,,,,,,,,,1395.0628649,1402.3747251999998,1395.0628649,1402.3747251999998,1395.0628649,1402.3747251999998,1395.0628649,1402.3747251999998,9.78395061728395,6.352131800000052,space,,,7.250762399999928,,,,,,,,1387.9827395,1387.9827395,None,,,,1394.4038062999998,1394.4038062999998,1394.4038062999998,n,0.47082549999998946,1387.9827395,1387.9827395,1391.3231273,1393.3376174999999,1394.4038062999998,7,001,2024-06-28_13h11.16.997,robot_sternberg_sign,2022.2.5,60.049204318022305,
"['X', 'V', 'B', 'M', 'S', 'F']",False,H,6,letter,2,True,False,"['robot_stimuli\\\\filler.mp4', 'robot_stimuli\\\\filler.mp4', 'robot_stimuli\\\\filler.mp4', 'robot_stimuli\\\\filler.mp4', 'robot_stimuli\\\\filler.mp4', 'robot_stimuli\\\\filler.mp4']",robot_stimuli\\filler.mp4,7,,,,,,,,,,,,,0,40,40,40,,,,,,,,,,,,,,,,,1418.7748052,1419.8373198,,,,,,,,,1420.8596536999999,1420.8596536999999,1420.8596536999999,1420.8596536999999,1420.8596536999999,1420.8596536999999,1420.8596536999999,1420.8596536999999,None,None,None,,,,,,,,,,,1402.3747251999998,1402.3747251999998,space,2.4677524999999036,,,1419.8373198,1419.8373198,1419.8373198,n,0.8447462999999402,,,1416.7567224,1418.7748052,1419.8373198,7,001,2024-06-28_13h11.16.997,robot_sternberg_sign,2022.2.5,60.049204318022305,
"['M', 'J', 'T', 'V', 'P', 'X']",True,V,6,letter,2,False,False,"['robot_stimuli\\\\filler.mp4', 'robot_stimuli\\\\filler.mp4', 'robot_stimuli\\\\filler.mp4', 'robot_stimuli\\\\filler.mp4', 'robot_stimuli\\\\filler.mp4', 'robot_stimuli\\\\filler.mp4']",robot_stimuli\\filler.mp4,7,,,,,,,,,,,,,0,41,41,41,,,,,,,,,,,,,,,,,1435.1747596999999,1436.2377924,,,,,,,,,1437.2639288999999,1437.2639288999999,1437.2639288999999,1437.2639288999999,1437.2639288999999,1437.2639288999999,1437.2639288999999,1437.2639288999999,None,None,None,,,,,,,,,,,1420.8596536999999,1420.8596536999999,None,,,,1436.2377924,1436.2377924,1436.2377924,n,0.8207492000000798,1420.8596536999999,1420.8596536999999,1432.9525111,1435.1747596999999,1436.2377924,7,001,2024-06-28_13h11.16.997,robot_sternberg_sign,2022.2.5,60.049204318022305,
"['P', 'X', 'S', 'W', 'N', 'M']",False,F,6,letter,2,False,False,"['robot_stimuli\\\\filler.mp4', 'robot_stimuli\\\\filler.mp4', 'robot_stimuli\\\\filler.mp4', 'robot_stimuli\\\\filler.mp4', 'robot_stimuli\\\\filler.mp4', 'robot_stimuli\\\\filler.mp4']",robot_stimuli\\filler.mp4,7,,,,,,,,,,,,,0,42,42,42,,,,,,,,,,,,,,,,,1451.7635117,1452.8200806,,,,,,,,,1453.4408078,1453.4408078,1453.4408078,1453.4408078,1453.4408078,1453.4408078,1453.4408078,1453.4408078,None,None,None,,,,,,,,,,,1437.2639288999999,1437.2639288999999,None,,,,1452.8200806,1452.8200806,1452.8200806,n,0.5261291000001052,1437.2639288999999,1437.2639288999999,1449.7466316999999,1451.7635117,1452.8200806,7,001,2024-06-28_13h11.16.997,robot_sternberg_sign,2022.2.5,60.049204318022305,
"['P', 'T', 'F', 'R', 'Q', 'M']",True,P,6,letter,2,False,False,"['robot_stimuli\\\\filler.mp4', 'robot_stimuli\\\\filler.mp4', 'robot_stimuli\\\\filler.mp4', 'robot_stimuli\\\\filler.mp4', 'robot_stimuli\\\\filler.mp4', 'robot_stimuli\\\\filler.mp4']",robot_stimuli\\filler.mp4,7,,,,,,,,,,,,,0,43,43,43,,,,,,,,,,,,,,,,,1467.7579606,1468.8211577,,,,,,,,,1469.6476844,1469.6476844,1469.6476844,1469.6476844,1469.6476844,1469.6476844,1469.6476844,1469.6476844,None,None,None,,,,,,,,,,,1453.4408078,1453.4408078,None,,,,1468.8211577,1468.8211577,1468.8211577,c,0.6689411999997787,1453.4408078,1453.4408078,1465.5411365999998,1467.7579606,1468.8211577,7,001,2024-06-28_13h11.16.997,robot_sternberg_sign,2022.2.5,60.049204318022305,
"['H', 'X', 'K', 'P', 'N', 'Z']",False,S,6,letter,2,False,False,"['robot_stimuli\\\\filler.mp4', 'robot_stimuli\\\\filler.mp4', 'robot_stimuli\\\\filler.mp4', 'robot_stimuli\\\\filler.mp4', 'robot_stimuli\\\\filler.mp4', 'robot_stimuli\\\\filler.mp4']",robot_stimuli\\filler.mp4,7,,,,,,,,,,,,,0,44,44,44,,,,,,,,,,,,,,,,,1483.3589926,1484.4289767,,,,,,,,,1485.054788,1485.054788,1485.054788,1485.054788,1485.054788,1485.054788,1485.054788,1485.054788,None,None,None,,,,,,,,,,,1469.6476844,1469.6476844,None,,,,1484.4289767,1484.4289767,1484.4289767,n,0.5409080999999674,1469.6476844,1469.6476844,1481.3367507,1483.3589926,1484.4289767,7,001,2024-06-28_13h11.16.997,robot_sternberg_sign,2022.2.5,60.049204318022305,
"['N', 'P', 'K', 'B', 'J', 'C']",True,N,6,letter,2,False,False,"['robot_stimuli\\\\filler.mp4', 'robot_stimuli\\\\filler.mp4', 'robot_stimuli\\\\filler.mp4', 'robot_stimuli\\\\filler.mp4', 'robot_stimuli\\\\filler.mp4', 'robot_stimuli\\\\filler.mp4']",robot_stimuli\\filler.mp4,7,,,,,,,,,,,,,0,45,45,45,,,,,,,,,,,,,,,,,1498.5642129999999,1499.6199844,,,,,,,,,1500.4491842,1500.4491842,1500.4491842,1500.4491842,1500.4491842,1500.4491842,1500.4491842,1500.4491842,None,None,None,,,,,,,,,,,1485.054788,1485.054788,None,,,,1499.6199844,1499.6199844,1499.6199844,c,0.6146803999999406,1485.054788,1485.054788,1496.5465611,1498.5642129999999,1499.6199844,7,001,2024-06-28_13h11.16.997,robot_sternberg_sign,2022.2.5,60.049204318022305,
"['B', 'Z', 'G', 'F', 'D', 'K']",False,H,6,letter,2,False,False,"['robot_stimuli\\\\filler.mp4', 'robot_stimuli\\\\filler.mp4', 'robot_stimuli\\\\filler.mp4', 'robot_stimuli\\\\filler.mp4', 'robot_stimuli\\\\filler.mp4', 'robot_stimuli\\\\filler.mp4']",robot_stimuli\\filler.mp4,7,,,,,,,,,,,,,0,46,46,46,,,,,,,,,,,,,,,,,1514.3561631999999,1515.4208730999999,,,,,,,,,1517.0474559,1517.0474559,1517.0474559,1517.0474559,1517.0474559,1517.0474559,1517.0474559,1517.0474559,None,None,None,,,,,,,,,,,1500.4491842,1500.4491842,None,,,,1515.4208730999999,1515.4208730999999,1515.4208730999999,n,1.4282662999998479,1500.4491842,1500.4491842,1512.3329750999999,1514.3561631999999,1515.4208730999999,7,001,2024-06-28_13h11.16.997,robot_sternberg_sign,2022.2.5,60.049204318022305,
"['B', 'W', 'G', 'N', 'C', 'F']",True,C,6,letter,2,False,False,"['robot_stimuli\\\\filler.mp4', 'robot_stimuli\\\\filler.mp4', 'robot_stimuli\\\\filler.mp4', 'robot_stimuli\\\\filler.mp4', 'robot_stimuli\\\\filler.mp4', 'robot_stimuli\\\\filler.mp4']",robot_stimuli\\filler.mp4,7,,,,,,,,,,,,,0,47,47,47,,,,,,,,,,,,,,,,,1531.1555933999998,1532.2236475,,,,,,,,,1533.6462331,1533.6462331,1533.6462331,1533.6462331,1533.6462331,1533.6462331,1533.6462331,1533.6462331,None,None,None,,,,,,,,,,,1517.0474559,1517.0474559,None,,,,1532.2236475,1532.2236475,1532.2236475,c,1.3455271999998217,1517.0474559,1517.0474559,1528.9348343,1531.1555933999998,1532.2236475,7,001,2024-06-28_13h11.16.997,robot_sternberg_sign,2022.2.5,60.049204318022305,
"['G', 'M', 'X', 'Z', 'V', 'D']",False,K,6,letter,2,False,False,"['robot_stimuli\\\\filler.mp4', 'robot_stimuli\\\\filler.mp4', 'robot_stimuli\\\\filler.mp4', 'robot_stimuli\\\\filler.mp4', 'robot_stimuli\\\\filler.mp4', 'robot_stimuli\\\\filler.mp4']",robot_stimuli\\filler.mp4,7,,,,,,,,,,,,,0,48,48,48,,,,,,,,,,,,,,,,,1547.5495273,1548.6036943,,,,,,,,,1549.4242663,1549.4242663,1549.4242663,1549.4242663,1549.4242663,1549.4242663,1549.4242663,1549.4242663,None,None,None,,,,,,,,,,,1533.6462331,1533.6462331,None,,,,1548.6036943,1548.6036943,1548.6036943,n,0.7110583000000474,1533.6462331,1533.6462331,1545.3397155,1547.5495273,1548.6036943,7,001,2024-06-28_13h11.16.997,robot_sternberg_sign,2022.2.5,60.049204318022305,
"['C', 'G', 'J', 'Q', 'B', 'P']",True,G,6,letter,2,False,True,"['robot_stimuli\\\\filler.mp4', 'robot_stimuli\\\\filler.mp4', 'robot_stimuli\\\\filler.mp4', 'robot_stimuli\\\\filler.mp4', 'robot_stimuli\\\\filler.mp4', 'robot_stimuli\\\\filler.mp4']",robot_stimuli\\filler.mp4,7,,,,,,,,,,,,,0,49,49,49,,,,,,,,,,,,,,,,,1563.548834,1564.6058275999999,,,,,,,,,1565.6693071,1571.1357472,1565.6693071,1571.1357472,1565.6693071,1571.1357472,1565.6693071,1571.1357472,29.845679012345677,3.0534860999998727,space,,,5.421186900000009,,,,,,,,1549.4242663,1549.4242663,None,,,,1564.6058275999999,1564.6058275999999,1564.6058275999999,c,0.932116399999984,1549.4242663,1549.4242663,1561.3386314,1563.548834,1564.6058275999999,7,001,2024-06-28_13h11.16.997,robot_sternberg_sign,2022.2.5,60.049204318022305,
"['T', 'X', 'L', 'D']",False,C,4,letter,2,True,False,"['robot_stimuli\\\\filler.mp4', 'robot_stimuli\\\\filler.mp4', 'robot_stimuli\\\\filler.mp4', 'robot_stimuli\\\\filler.mp4']",robot_stimuli\\filler.mp4,7,,,,,,,,,,,,,0,50,50,50,,,,,,,,,,,,,,,,,1582.3694186999999,1573.2927158999998,,,,,,,,,1584.8676718999998,1584.8676718999998,1584.8676718999998,1584.8676718999998,1584.8676718999998,1584.8676718999998,1584.8676718999998,1584.8676718999998,None,None,None,,,,,,,,,,,1571.1357472,1571.1357472,space,1.074858200000051,,,1583.4371362,1583.4371362,1583.4371362,n,1.3099802999999497,,,1580.1549115999999,1582.3694186999999,1583.4371362,7,001,2024-06-28_13h11.16.997,robot_sternberg_sign,2022.2.5,60.049204318022305,
"['F', 'D', 'T', 'K']",False,N,4,letter,2,False,False,"['robot_stimuli\\\\filler.mp4', 'robot_stimuli\\\\filler.mp4', 'robot_stimuli\\\\filler.mp4', 'robot_stimuli\\\\filler.mp4']",robot_stimuli\\filler.mp4,7,,,,,,,,,,,,,0,51,51,51,,,,,,,,,,,,,,,,,1594.3927591,1595.4553849000001,,,,,,,,,1596.0828054,1596.0828054,1596.0828054,1596.0828054,1596.0828054,1596.0828054,1596.0828054,1596.0828054,None,None,None,,,,,,,,,,,1584.8676718999998,1584.8676718999998,None,,,,1595.4553849000001,1595.4553849000001,1595.4553849000001,n,0.5462200000001189,1584.8676718999998,1584.8676718999998,1592.3807289999997,1594.3927591,1595.4553849000001,7,001,2024-06-28_13h11.16.997,robot_sternberg_sign,2022.2.5,60.049204318022305,
"['G', 'X', 'F', 'R']",True,G,4,letter,2,False,False,"['robot_stimuli\\\\filler.mp4', 'robot_stimuli\\\\filler.mp4', 'robot_stimuli\\\\filler.mp4', 'robot_stimuli\\\\filler.mp4']",robot_stimuli\\filler.mp4,7,,,,,,,,,,,,,0,52,52,52,,,,,,,,,,,,,,,,,1606.2006119,1607.2532979999999,,,,,,,,,1607.8808908999997,1607.8808908999997,1607.8808908999997,1607.8808908999997,1607.8808908999997,1607.8808908999997,1607.8808908999997,1607.8808908999997,None,None,None,,,,,,,,,,,1596.0828054,1596.0828054,None,,,,1607.2532979999999,1607.2532979999999,1607.2532979999999,c,0.4128978000002803,1596.0828054,1596.0828054,1603.9886491,1606.2006119,1607.2532979999999,7,001,2024-06-28_13h11.16.997,robot_sternberg_sign,2022.2.5,60.049204318022305,
"['L', 'Z', 'H', 'M']",True,H,4,letter,2,False,False,"['robot_stimuli\\\\filler.mp4', 'robot_stimuli\\\\filler.mp4', 'robot_stimuli\\\\filler.mp4', 'robot_stimuli\\\\filler.mp4']",robot_stimuli\\filler.mp4,7,,,,,,,,,,,,,0,53,53,53,,,,,,,,,,,,,,,,,1617.4178306000001,1618.4710877999999,,,,,,,,,1619.2926492999998,1619.2926492999998,1619.2926492999998,1619.2926492999998,1619.2926492999998,1619.2926492999998,1619.2926492999998,1619.2926492999998,None,None,None,,,,,,,,,,,1607.8808908999997,1607.8808908999997,None,,,,1618.4710877999999,1618.4710877999999,1618.4710877999999,c,0.7060514999997736,1607.8808908999997,1607.8808908999997,1615.3975383999998,1617.4178306000001,1618.4710877999999,7,001,2024-06-28_13h11.16.997,robot_sternberg_sign,2022.2.5,60.049204318022305,
"['D', 'H', 'K', 'R']",False,S,4,letter,2,False,False,"['robot_stimuli\\\\filler.mp4', 'robot_stimuli\\\\filler.mp4', 'robot_stimuli\\\\filler.mp4', 'robot_stimuli\\\\filler.mp4']",robot_stimuli\\filler.mp4,7,,,,,,,,,,,,,0,54,54,54,,,,,,,,,,,,,,,,,1628.8344761,1629.8893824,,,,,,,,,1630.5153987,1630.5153987,1630.5153987,1630.5153987,1630.5153987,1630.5153987,1630.5153987,1630.5153987,None,None,None,,,,,,,,,,,1619.2926492999998,1619.2926492999998,None,,,,1629.8893824,1629.8893824,1629.8893824,n,0.5055167999998389,1619.2926492999998,1619.2926492999998,1626.6195258999999,1628.8344761,1629.8893824,7,001,2024-06-28_13h11.16.997,robot_sternberg_sign,2022.2.5,60.049204318022305,
"['R', 'F', 'N', 'D']",True,F,4,letter,2,False,False,"['robot_stimuli\\\\filler.mp4', 'robot_stimuli\\\\filler.mp4', 'robot_stimuli\\\\filler.mp4', 'robot_stimuli\\\\filler.mp4']",robot_stimuli\\filler.mp4,7,,,,,,,,,,,,,0,55,55,55,,,,,,,,,,,,,,,,,1640.2413233,1641.3041387,,,,,,,,,1641.9307447999997,1641.9307447999997,1641.9307447999997,1641.9307447999997,1641.9307447999997,1641.9307447999997,1641.9307447999997,1641.9307447999997,None,None,None,,,,,,,,,,,1630.5153987,1630.5153987,None,,,,1641.3041387,1641.3041387,1641.3041387,c,0.44195819999998776,1630.5153987,1630.5153987,1638.0239722999997,1640.2413233,1641.3041387,7,001,2024-06-28_13h11.16.997,robot_sternberg_sign,2022.2.5,60.049204318022305,
"['S', 'D', 'F', 'T']",False,Q,4,letter,2,False,False,"['robot_stimuli\\\\filler.mp4', 'robot_stimuli\\\\filler.mp4', 'robot_stimuli\\\\filler.mp4', 'robot_stimuli\\\\filler.mp4']",robot_stimuli\\filler.mp4,7,,,,,,,,,,,,,0,56,56,56,,,,,,,,,,,,,,,,,1651.4596921999998,1652.5297251,,,,,,,,,1653.9592492999998,1653.9592492999998,1653.9592492999998,1653.9592492999998,1653.9592492999998,1653.9592492999998,1653.9592492999998,1653.9592492999998,None,None,None,,,,,,,,,,,1641.9307447999997,1641.9307447999997,None,,,,1652.5297251,1652.5297251,1652.5297251,n,1.3592355000000111,1641.9307447999997,1641.9307447999997,1649.4468721,1651.4596921999998,1652.5297251,7,001,2024-06-28_13h11.16.997,robot_sternberg_sign,2022.2.5,60.049204318022305,
"['C', 'X', 'H', 'V']",False,N,4,letter,2,False,False,"['robot_stimuli\\\\filler.mp4', 'robot_stimuli\\\\filler.mp4', 'robot_stimuli\\\\filler.mp4', 'robot_stimuli\\\\filler.mp4']",robot_stimuli\\filler.mp4,7,,,,,,,,,,,,,0,57,57,57,,,,,,,,,,,,,,,,,1663.4928862999998,1664.5558035000001,,,,,,,,,1665.3820625,1665.3820625,1665.3820625,1665.3820625,1665.3820625,1665.3820625,1665.3820625,1665.3820625,None,None,None,,,,,,,,,,,1653.9592492999998,1653.9592492999998,None,,,,1664.5558035000001,1664.5558035000001,1664.5558035000001,n,0.6860108999998715,1653.9592492999998,1653.9592492999998,1661.4759953,1663.4928862999998,1664.5558035000001,7,001,2024-06-28_13h11.16.997,robot_sternberg_sign,2022.2.5,60.049204318022305,
"['Z', 'R', 'M', 'D']",True,Z,4,letter,2,False,False,"['robot_stimuli\\\\filler.mp4', 'robot_stimuli\\\\filler.mp4', 'robot_stimuli\\\\filler.mp4', 'robot_stimuli\\\\filler.mp4']",robot_stimuli\\filler.mp4,7,,,,,,,,,,,,,0,58,58,58,,,,,,,,,,,,,,,,,1675.1200741,1666.4368557,,,,,,,,,1676.8139773999999,1676.8139773999999,1676.8139773999999,1676.8139773999999,1676.8139773999999,1676.8139773999999,1676.8139773999999,1676.8139773999999,None,None,None,,,,,,,,,,,1665.3820625,1665.3820625,None,,,,1676.1905988,1676.1905988,1676.1905988,c,0.5319093999996198,1665.3820625,1665.3820625,1672.9050922,1675.1200741,1676.1905988,7,001,2024-06-28_13h11.16.997,robot_sternberg_sign,2022.2.5,60.049204318022305,
"['Z', 'L', 'C', 'P']",True,Z,4,letter,2,False,True,"['robot_stimuli\\\\filler.mp4', 'robot_stimuli\\\\filler.mp4', 'robot_stimuli\\\\filler.mp4', 'robot_stimuli\\\\filler.mp4']",robot_stimuli\\filler.mp4,7,,,,,,,,,,,,,0,59,59,59,,,,,,,,,,,,,,,,,1686.5678059999998,1687.6184568,,,,,,,,,1688.4721812,1691.8281411,1688.4721812,1691.8281411,1688.4721812,1691.8281411,1688.4721812,1691.8281411,22.592592592592588,2.4802997000001596,space,,,3.312899899999991,,,,,,,,1676.8139773999999,1676.8139773999999,None,,,,1687.6184568,1687.6184568,1687.6184568,c,0.6794574999998417,1676.8139773999999,1676.8139773999999,1684.5466949,1686.5678059999998,1687.6184568,7,001,2024-06-28_13h11.16.997,robot_sternberg_sign,2022.2.5,60.049204318022305,
"['R_Torso_Y_Back', 'R_Base_X_Back', 'L_Torso_Z_Back', 'L_Torso_Z_For']",True,L_Torso_Z_For,4,robot,3,True,False,"['robot_stimuli\\R_Torso_Y_Back.mp4', 'robot_stimuli\\R_Base_X_Back.mp4', 'robot_stimuli\\L_Torso_Z_Back.mp4', 'robot_stimuli\\L_Torso_Z_For.mp4']",robot_stimuli\L_Torso_Z_For.mp4,7,,,,,,,,,,,,,0,60,60,60,,,,,,,,,,,,,,,,,1709.1060906999999,1710.1955805999999,,,,,,,,,1713.8449724,1713.8449724,1713.8449724,1713.8449724,1713.8449724,1713.8449724,1713.8449724,1713.8449724,None,None,None,,,,,,,,,,,1691.8281411,1691.8281411,space,1.4703425000001857,1705.4632991,1710.1955805999999,1710.1955805999999,1710.1955805999999,1710.1955805999999,c,3.199232000000336,,,,,,7,001,2024-06-28_13h11.16.997,robot_sternberg_sign,2022.2.5,60.049204318022305,
"['R_Arm_X_Back', 'R_Base_Z_For', 'R_Head_Y_Back', 'L_Torso_Y_For']",False,L_Arm_X_For,4,robot,3,False,False,"['robot_stimuli\\R_Arm_X_Back.mp4', 'robot_stimuli\\R_Base_Z_For.mp4', 'robot_stimuli\\R_Head_Y_Back.mp4', 'robot_stimuli\\L_Torso_Y_For.mp4']",robot_stimuli\L_Arm_X_For.mp4,7,,,,,,,,,,,,,0,61,61,61,,,,,,,,,,,,,,,,,1729.7242175999997,1730.8115904,,,,,,,,,1734.4501767,1734.4501767,1734.4501767,1734.4501767,1734.4501767,1734.4501767,1734.4501767,1734.4501767,None,None,None,,,,,,,,,,,1713.8449724,1713.8449724,None,,1726.0910004,1730.8115904,1730.8115904,1730.8115904,1730.8115904,n,2.9022954999999797,1713.8449724,1713.8449724,,,,7,001,2024-06-28_13h11.16.997,robot_sternberg_sign,2022.2.5,60.049204318022305,
"['L_Arm_Y_Back', 'L_Head_Z_Back', 'R_Head_X_Back', 'L_Arm_X_Back']",False,R_Base_Z_For,4,robot,3,False,False,"['robot_stimuli\\L_Arm_Y_Back.mp4', 'robot_stimuli\\L_Head_Z_Back.mp4', 'robot_stimuli\\R_Head_X_Back.mp4', 'robot_stimuli\\L_Arm_X_Back.mp4']",robot_stimuli\R_Base_Z_For.mp4,7,,,,,,,,,,,,,0,62,62,62,,,,,,,,,,,,,,,,,1750.3386161,1751.4284977999998,,,,,,,,,1756.1590737999998,1756.1590737999998,1756.1590737999998,1756.1590737999998,1756.1590737999998,1756.1590737999998,1756.1590737999998,1756.1590737999998,None,None,None,,,,,,,,,,,1734.4501767,1734.4501767,None,,1746.6944531000001,1751.4284977999998,1751.4284977999998,1751.4284977999998,1751.4284977999998,n,4.701679199999887,1734.4501767,1734.4501767,,,,7,001,2024-06-28_13h11.16.997,robot_sternberg_sign,2022.2.5,60.049204318022305,
"['L_Head_Z_For', 'L_Torso_Y_Back', 'R_Arm_Z_Back', 'R_Base_Y_Back']",True,L_Head_Z_For,4,robot,3,False,False,"['robot_stimuli\\L_Head_Z_For.mp4', 'robot_stimuli\\L_Torso_Y_Back.mp4', 'robot_stimuli\\R_Arm_Z_Back.mp4', 'robot_stimuli\\R_Base_Y_Back.mp4']",robot_stimuli\L_Head_Z_For.mp4,7,,,,,,,,,,,,,0,63,63,63,,,,,,,,,,,,,,,,,1771.917201,1772.9980109,,,,,,,,,1776.6449494,1776.6449494,1776.6449494,1776.6449494,1776.6449494,1776.6449494,1776.6449494,1776.6449494,None,None,None,,,,,,,,,,,1756.1590737999998,1756.1590737999998,None,,1768.2848634,1772.9980109,1772.9980109,1772.9980109,1772.9980109,c,3.2038865999997483,1756.1590737999998,1756.1590737999998,,,,7,001,2024-06-28_13h11.16.997,robot_sternberg_sign,2022.2.5,60.049204318022305,
"['L_Head_Y_For', 'R_Head_Y_For', 'L_Base_Z_Back', 'R_Base_Y_For']",False,R_Base_Z_Back,4,robot,3,False,False,"['robot_stimuli\\L_Head_Y_For.mp4', 'robot_stimuli\\R_Head_Y_For.mp4', 'robot_stimuli\\L_Base_Z_Back.mp4', 'robot_stimuli\\R_Base_Y_For.mp4']",robot_stimuli\R_Base_Z_Back.mp4,7,,,,,,,,,,,,,0,64,64,64,,,,,,,,,,,,,,,,,1792.5026996,1777.7258114999997,,,,,,,,,1798.2797407,1798.2797407,1798.2797407,1798.2797407,1798.2797407,1798.2797407,1798.2797407,1798.2797407,None,None,None,,,,,,,,,,,1776.6449494,1776.6449494,None,,1788.8696456999999,1793.5973146999997,1793.5973146999997,1793.5973146999997,1793.5973146999997,c,4.644525300000112,1776.6449494,1776.6449494,,,,7,001,2024-06-28_13h11.16.997,robot_sternberg_sign,2022.2.5,60.049204318022305,
"['L_Torso_Z_Back', 'L_Torso_Y_For', 'R_Arm_Z_Back', 'L_Arm_Z_Back']",False,L_Head_Y_For,4,robot,3,False,False,"['robot_stimuli\\L_Torso_Z_Back.mp4', 'robot_stimuli\\L_Torso_Y_For.mp4', 'robot_stimuli\\R_Arm_Z_Back.mp4', 'robot_stimuli\\L_Arm_Z_Back.mp4']",robot_stimuli\L_Head_Y_For.mp4,7,,,,,,,,,,,,,0,65,65,65,,,,,,,,,,,,,,,,,1814.0236256,1815.1127488999998,,,,,,,,,1819.1112848999999,1819.1112848999999,1819.1112848999999,1819.1112848999999,1819.1112848999999,1819.1112848999999,1819.1112848999999,1819.1112848999999,None,None,None,,,,,,,,,,,1798.2797407,1798.2797407,None,,1810.3878769,1815.1127488999998,1815.1127488999998,1815.1127488999998,1815.1127488999998,n,3.9694518000000585,1798.2797407,1798.2797407,,,,7,001,2024-06-28_13h11.16.997,robot_sternberg_sign,2022.2.5,60.049204318022305,
"['R_Torso_X_Back', 'L_Head_Z_Back', 'L_Base_Z_Back', 'L_Torso_Y_Back']",True,L_Base_Z_Back,4,robot,3,False,False,"['robot_stimuli\\R_Torso_X_Back.mp4', 'robot_stimuli\\L_Head_Z_Back.mp4', 'robot_stimuli\\L_Base_Z_Back.mp4', 'robot_stimuli\\L_Torso_Y_Back.mp4']",robot_stimuli\L_Base_Z_Back.mp4,7,,,,,,,,,,,,,0,66,66,66,,,,,,,,,,,,,,,,,1834.8343035999999,1835.9111505999997,,,,,,,,,1839.5405878999998,1839.5405878999998,1839.5405878999998,1839.5405878999998,1839.5405878999998,1839.5405878999998,1839.5405878999998,1839.5405878999998,None,None,None,,,,,,,,,,,1819.1112848999999,1819.1112848999999,None,,1831.3362761,1835.9111505999997,1835.9111505999997,1835.9111505999997,1835.9111505999997,c,3.5467554999999606,1819.1112848999999,1819.1112848999999,,,,7,001,2024-06-28_13h11.16.997,robot_sternberg_sign,2022.2.5,60.049204318022305,
"['R_Base_Z_For', 'R_Arm_Z_For', 'R_Torso_X_For', 'L_Base_X_For']",True,R_Arm_Z_For,4,robot,3,False,False,"['robot_stimuli\\R_Base_Z_For.mp4', 'robot_stimuli\\R_Arm_Z_For.mp4', 'robot_stimuli\\R_Torso_X_For.mp4', 'robot_stimuli\\L_Base_X_For.mp4']",robot_stimuli\R_Arm_Z_For.mp4,7,,,,,,,,,,,,,0,67,67,67,,,,,,,,,,,,,,,,,1855.3368573999999,1840.6213378999998,,,,,,,,,1862.3570971000001,1862.3570971000001,1862.3570971000001,1862.3570971000001,1862.3570971000001,1862.3570971000001,1862.3570971000001,1862.3570971000001,None,None,None,,,,,,,,,,,1839.5405878999998,1839.5405878999998,None,,1851.7722201,1856.4270052999998,1856.4270052999998,1856.4270052999998,1856.4270052999998,n,5.903582300000323,1839.5405878999998,1839.5405878999998,,,,7,001,2024-06-28_13h11.16.997,robot_sternberg_sign,2022.2.5,60.049204318022305,
"['R_Arm_Z_Back', 'R_Base_Z_Back', 'L_Torso_X_For', 'L_Base_Y_For']",True,R_Arm_Z_Back,4,robot,3,False,False,"['robot_stimuli\\R_Arm_Z_Back.mp4', 'robot_stimuli\\R_Base_Z_Back.mp4', 'robot_stimuli\\L_Torso_X_For.mp4', 'robot_stimuli\\L_Base_Y_For.mp4']",robot_stimuli\R_Arm_Z_Back.mp4,7,,,,,,,,,,,,,0,68,68,68,,,,,,,,,,,,,,,,,1878.0205221999997,1879.1104601999998,,,,,,,,,1882.7500595999998,1882.7500595999998,1882.7500595999998,1882.7500595999998,1882.7500595999998,1882.7500595999998,1882.7500595999998,1882.7500595999998,None,None,None,,,,,,,,,,,1862.3570971000001,1862.3570971000001,None,,1874.4885213999999,1879.1104601999998,1879.1104601999998,1879.1104601999998,1879.1104601999998,c,3.5625451999998745,1862.3570971000001,1862.3570971000001,,,,7,001,2024-06-28_13h11.16.997,robot_sternberg_sign,2022.2.5,60.049204318022305,
"['R_Base_X_For', 'L_Head_Y_For', 'L_Base_X_For', 'L_Head_Z_For']",False,R_Torso_Y_Back,4,robot,3,False,True,"['robot_stimuli\\R_Base_X_For.mp4', 'robot_stimuli\\L_Head_Y_For.mp4', 'robot_stimuli\\L_Base_X_For.mp4', 'robot_stimuli\\L_Head_Z_For.mp4']",robot_stimuli\R_Torso_Y_Back.mp4,7,,,,,,,,,,,,,0,69,69,69,,,,,,,,,,,,,,,,,1898.4584729,1899.5459463,,,,,,,,,1903.2314153999998,1907.1065479000001,1903.2314153999998,1907.1065479000001,1903.2314153999998,1907.1065479000001,1903.2314153999998,1907.1065479000001,43.73456790123457,3.031774499999756,space,,,3.825587999999641,,,,,,,,1882.7500595999998,1882.7500595999998,None,,1894.8263325,1899.5459463,1899.5459463,1899.5459463,1899.5459463,n,3.504141599999855,1882.7500595999998,1882.7500595999998,,,,7,001,2024-06-28_13h11.16.997,robot_sternberg_sign,2022.2.5,60.049204318022305,
"['L_Torso_X_Back', 'R_Arm_X_For']",True,L_Torso_X_Back,2,robot,3,True,False,"['robot_stimuli\\L_Torso_X_Back.mp4', 'robot_stimuli\\R_Arm_X_For.mp4']",robot_stimuli\L_Torso_X_Back.mp4,7,,,,,,,,,,,,,0,70,70,70,,,,,,,,,,,,,,,,,1917.3385409,1918.4424077,,,,,,,,,1923.1360004,1923.1360004,1923.1360004,1923.1360004,1923.1360004,1923.1360004,1923.1360004,1923.1360004,None,None,None,,,,,,,,,,,1907.1065479000001,1907.1065479000001,space,1.7835933000000637,1913.7059725000001,1918.4424077,1918.4424077,1918.4424077,1918.4424077,c,4.655966000000205,,,,,,7,001,2024-06-28_13h11.16.997,robot_sternberg_sign,2022.2.5,60.049204318022305,
"['R_Arm_Z_Back', 'L_Arm_Z_Back']",True,L_Arm_Z_Back,2,robot,3,False,False,"['robot_stimuli\\R_Arm_Z_Back.mp4', 'robot_stimuli\\L_Arm_Z_Back.mp4']",robot_stimuli\L_Arm_Z_Back.mp4,7,,,,,,,,,,,,,0,71,71,71,,,,,,,,,,,,,,,,,1931.5920073999998,1932.6782,,,,,,,,,1936.3076528999998,1936.3076528999998,1936.3076528999998,1936.3076528999998,1936.3076528999998,1936.3076528999998,1936.3076528999998,1936.3076528999998,None,None,None,,,,,,,,,,,1923.1360004,1923.1360004,None,,1927.9619099999998,1932.6782,1932.6782,1932.6782,1932.6782,c,3.452007599999831,1923.1360004,1923.1360004,,,,7,001,2024-06-28_13h11.16.997,robot_sternberg_sign,2022.2.5,60.049204318022305,
"['L_Arm_Z_For', 'R_Head_Z_For']",False,R_Torso_Z_Back,2,robot,3,False,False,"['robot_stimuli\\L_Arm_Z_For.mp4', 'robot_stimuli\\R_Head_Z_For.mp4']",robot_stimuli\R_Torso_Z_Back.mp4,7,,,,,,,,,,,,,0,72,72,72,,,,,,,,,,,,,,,,,1944.7357845,1937.3937401,,,,,,,,,1949.4670255999997,1949.4670255999997,1949.4670255999997,1949.4670255999997,1949.4670255999997,1949.4670255999997,1949.4670255999997,1949.4670255999997,None,None,None,,,,,,,,,,,1936.3076528999998,1936.3076528999998,None,,1941.1061613,1945.8272501,1945.8272501,1945.8272501,1945.8272501,c,2.983631500000172,1936.3076528999998,1936.3076528999998,,,,7,001,2024-06-28_13h11.16.997,robot_sternberg_sign,2022.2.5,60.049204318022305,
"['R_Base_X_Back', 'L_Head_Y_For']",True,R_Base_X_Back,2,robot,3,False,False,"['robot_stimuli\\R_Base_X_Back.mp4', 'robot_stimuli\\L_Head_Y_For.mp4']",robot_stimuli\R_Base_X_Back.mp4,7,,,,,,,,,,,,,0,73,73,73,,,,,,,,,,,,,,,,,1957.9024566,1950.5417645,,,,,,,,,1963.0165759,1963.0165759,1963.0165759,1963.0165759,1963.0165759,1963.0165759,1963.0165759,1963.0165759,None,None,None,,,,,,,,,,,1949.4670255999997,1949.4670255999997,None,,1954.2656123,1958.9959646,1958.9959646,1958.9959646,1958.9959646,c,3.9744893999999817,1949.4670255999997,1949.4670255999997,,,,7,001,2024-06-28_13h11.16.997,robot_sternberg_sign,2022.2.5,60.049204318022305,
"['R_Base_X_For', 'L_Torso_Z_Back']",True,L_Torso_Z_Back,2,robot,3,False,False,"['robot_stimuli\\R_Base_X_For.mp4', 'robot_stimuli\\L_Torso_Z_Back.mp4']",robot_stimuli\L_Torso_Z_Back.mp4,7,,,,,,,,,,,,,0,74,74,74,,,,,,,,,,,,,,,,,1971.2063012,1972.2955119,,,,,,,,,1975.8003084999998,1975.8003084999998,1975.8003084999998,1975.8003084999998,1975.8003084999998,1975.8003084999998,1975.8003084999998,1975.8003084999998,None,None,None,,,,,,,,,,,1963.0165759,1963.0165759,None,,1967.7105774999998,1972.2955119,1972.2955119,1972.2955119,1972.2955119,c,3.39390859999952,1963.0165759,1963.0165759,,,,7,001,2024-06-28_13h11.16.997,robot_sternberg_sign,2022.2.5,60.049204318022305,
"['L_Base_Y_For', 'R_Head_X_Back']",False,L_Base_X_For,2,robot,3,False,False,"['robot_stimuli\\L_Base_Y_For.mp4', 'robot_stimuli\\R_Head_X_Back.mp4']",robot_stimuli\L_Base_X_For.mp4,7,,,,,,,,,,,,,0,75,75,75,,,,,,,,,,,,,,,,,1984.1536967999998,1976.8755026000001,,,,,,,,,1988.8296008,1988.8296008,1988.8296008,1988.8296008,1988.8296008,1988.8296008,1988.8296008,1988.8296008,None,None,None,,,,,,,,,,,1975.8003084999998,1975.8003084999998,None,,1980.5137770999997,1985.2464881999997,1985.2464881999997,1985.2464881999997,1985.2464881999997,n,3.282669199999816,1975.8003084999998,1975.8003084999998,,,,7,001,2024-06-28_13h11.16.997,robot_sternberg_sign,2022.2.5,60.049204318022305,
"['L_Base_Y_Back', 'R_Base_X_For']",True,R_Base_X_For,2,robot,3,False,False,"['robot_stimuli\\L_Base_Y_Back.mp4', 'robot_stimuli\\R_Base_X_For.mp4']",robot_stimuli\R_Base_X_For.mp4,7,,,,,,,,,,,,,0,76,76,76,,,,,,,,,,,,,,,,,1997.1049234,1998.1946296999997,,,,,,,,,2001.7338923,2001.7338923,2001.7338923,2001.7338923,2001.7338923,2001.7338923,2001.7338923,2001.7338923,None,None,None,,,,,,,,,,,1988.8296008,1988.8296008,None,,1993.5642550999999,1998.1946296999997,1998.1946296999997,1998.1946296999997,1998.1946296999997,c,3.390809399999796,1988.8296008,1988.8296008,,,,7,001,2024-06-28_13h11.16.997,robot_sternberg_sign,2022.2.5,60.049204318022305,
"['R_Torso_X_Back', 'R_Base_Y_For']",False,L_Head_X_Back,2,robot,3,False,False,"['robot_stimuli\\R_Torso_X_Back.mp4', 'robot_stimuli\\R_Base_Y_For.mp4']",robot_stimuli\L_Head_X_Back.mp4,7,,,,,,,,,,,,,0,77,77,77,,,,,,,,,,,,,,,,,2010.1573102999998,2011.2454661,,,,,,,,,2014.8732155999999,2014.8732155999999,2014.8732155999999,2014.8732155999999,2014.8732155999999,2014.8732155999999,2014.8732155999999,2014.8732155999999,None,None,None,,,,,,,,,,,2001.7338923,2001.7338923,None,,2006.5281352999998,2011.2454661,2011.2454661,2011.2454661,2011.2454661,n,3.5566233999997507,2001.7338923,2001.7338923,,,,7,001,2024-06-28_13h11.16.997,robot_sternberg_sign,2022.2.5,60.049204318022305,
"['R_Head_Y_For', 'R_Arm_Z_Back']",False,R_Arm_Z_For,2,robot,3,False,False,"['robot_stimuli\\R_Head_Y_For.mp4', 'robot_stimuli\\R_Arm_Z_Back.mp4']",robot_stimuli\R_Arm_Z_For.mp4,7,,,,,,,,,,,,,0,78,78,78,,,,,,,,,,,,,,,,,2023.3013204000001,2024.3790066,,,,,,,,,2028.0158095999998,2028.0158095999998,2028.0158095999998,2028.0158095999998,2028.0158095999998,2028.0158095999998,2028.0158095999998,2028.0158095999998,None,None,None,,,,,,,,,,,2014.8732155999999,2014.8732155999999,None,,2019.6795826,2024.3790066,2024.3790066,2024.3790066,2024.3790066,n,3.487533800000108,2014.8732155999999,2014.8732155999999,,,,7,001,2024-06-28_13h11.16.997,robot_sternberg_sign,2022.2.5,60.049204318022305,
"['R_Base_X_For', 'R_Arm_X_Back']",False,R_Arm_Y_For,2,robot,3,False,True,"['robot_stimuli\\R_Base_X_For.mp4', 'robot_stimuli\\R_Arm_X_Back.mp4']",robot_stimuli\R_Arm_Y_For.mp4,7,,,,,,,,,,,,,0,79,79,79,,,,,,,,,,,,,,,,,2036.3337319,2037.4173382000001,,,,,,,,,2042.3733908000002,2046.5798266,2042.3733908000002,2046.5798266,2042.3733908000002,2046.5798266,2042.3733908000002,2046.5798266,50.06172839506173,3.064781999999923,space,,,4.139927900000146,,,,,,,,2028.0158095999998,2028.0158095999998,None,,2032.7123076999999,2037.4173382000001,2037.4173382000001,2037.4173382000001,2037.4173382000001,n,4.897682500000371,2028.0158095999998,2028.0158095999998,,,,7,001,2024-06-28_13h11.16.997,robot_sternberg_sign,2022.2.5,60.049204318022305,
"['L_Head_Y_Back', 'R_Base_Z_Back', 'R_Base_X_Back', 'L_Head_Z_Back', 'L_Base_X_Back', 'R_Head_Z_For']",True,R_Head_Z_For,6,robot,3,True,False,"['robot_stimuli\\L_Head_Y_Back.mp4', 'robot_stimuli\\R_Base_Z_Back.mp4', 'robot_stimuli\\R_Base_X_Back.mp4', 'robot_stimuli\\L_Head_Z_Back.mp4', 'robot_stimuli\\L_Base_X_Back.mp4', 'robot_stimuli\\R_Head_Z_For.mp4']",robot_stimuli\R_Head_Z_For.mp4,7,,,,,,,,,,,,,0,80,80,80,,,,,,,,,,,,,,,,,2070.787801,2071.8751608000002,,,,,,,,,2075.517253,2075.517253,2075.517253,2075.517253,2075.517253,2075.517253,2075.517253,2075.517253,None,None,None,,,,,,,,,,,2046.5798266,2046.5798266,space,1.0153928999997675,2067.1527094000003,2071.8751608000002,2071.8751608000002,2071.8751608000002,2071.8751608000002,c,3.42338320000016,,,,,,7,001,2024-06-28_13h11.16.997,robot_sternberg_sign,2022.2.5,60.049204318022305,
"['L_Base_Y_For', 'L_Head_Y_For', 'L_Head_Z_For', 'R_Base_X_Back', 'L_Torso_X_Back', 'R_Head_X_For']",False,L_Arm_Z_For,6,robot,3,False,False,"['robot_stimuli\\L_Base_Y_For.mp4', 'robot_stimuli\\L_Head_Y_For.mp4', 'robot_stimuli\\L_Head_Z_For.mp4', 'robot_stimuli\\R_Base_X_Back.mp4', 'robot_stimuli\\L_Torso_X_Back.mp4', 'robot_stimuli\\R_Head_X_For.mp4']",robot_stimuli\L_Arm_Z_For.mp4,7,,,,,,,,,,,,,0,81,81,81,,,,,,,,,,,,,,,,,2098.7073023000003,2099.7932330000003,,,,,,,,,2103.4454937,2103.4454937,2103.4454937,2103.4454937,2103.4454937,2103.4454937,2103.4454937,2103.4454937,None,None,None,,,,,,,,,,,2075.517253,2075.517253,None,,2095.0763179,2099.7932330000003,2099.7932330000003,2099.7932330000003,2099.7932330000003,n,3.247882599999855,2075.517253,2075.517253,,,,7,001,2024-06-28_13h11.16.997,robot_sternberg_sign,2022.2.5,60.049204318022305,
"['R_Torso_Y_For', 'R_Arm_X_For', 'R_Arm_X_Back', 'L_Arm_X_For', 'L_Head_Z_For', 'L_Arm_Z_For']",True,L_Arm_X_For,6,robot,3,False,False,"['robot_stimuli\\R_Torso_Y_For.mp4', 'robot_stimuli\\R_Arm_X_For.mp4', 'robot_stimuli\\R_Arm_X_Back.mp4', 'robot_stimuli\\L_Arm_X_For.mp4', 'robot_stimuli\\L_Head_Z_For.mp4', 'robot_stimuli\\L_Arm_Z_For.mp4']",robot_stimuli\L_Arm_X_For.mp4,7,,,,,,,,,,,,,0,82,82,82,,,,,,,,,,,,,,,,,2126.7589961000003,2127.8455369000003,,,,,,,,,2131.4836417,2131.4836417,2131.4836417,2131.4836417,2131.4836417,2131.4836417,2131.4836417,2131.4836417,None,None,None,,,,,,,,,,,2103.4454937,2103.4454937,None,,2123.1231596000002,2127.8455369000003,2127.8455369000003,2127.8455369000003,2127.8455369000003,c,3.459708500000204,2103.4454937,2103.4454937,,,,7,001,2024-06-28_13h11.16.997,robot_sternberg_sign,2022.2.5,60.049204318022305,
"['R_Arm_X_For', 'L_Head_X_For', 'R_Torso_Y_For', 'R_Torso_X_For', 'L_Torso_Z_For', 'L_Base_Z_Back']",True,L_Head_X_For,6,robot,3,False,False,"['robot_stimuli\\R_Arm_X_For.mp4', 'robot_stimuli\\L_Head_X_For.mp4', 'robot_stimuli\\R_Torso_Y_For.mp4', 'robot_stimuli\\R_Torso_X_For.mp4', 'robot_stimuli\\L_Torso_Z_For.mp4', 'robot_stimuli\\L_Base_Z_Back.mp4']",robot_stimuli\L_Head_X_For.mp4,7,,,,,,,,,,,,,0,83,83,83,,,,,,,,,,,,,,,,,2154.7397363,2155.8300086,,,,,,,,,2159.4144088000003,2159.4144088000003,2159.4144088000003,2159.4144088000003,2159.4144088000003,2159.4144088000003,2159.4144088000003,2159.4144088000003,None,None,None,,,,,,,,,,,2131.4836417,2131.4836417,None,,2151.097607,2155.8300086,2155.8300086,2155.8300086,2155.8300086,n,3.540270600000156,2131.4836417,2131.4836417,,,,7,001,2024-06-28_13h11.16.997,robot_sternberg_sign,2022.2.5,60.049204318022305,
"['R_Head_Z_Back', 'R_Arm_Y_For', 'L_Torso_X_Back', 'L_Head_Y_Back', 'L_Torso_Y_For', 'L_Base_X_Back']",False,L_Arm_Y_Back,6,robot,3,False,False,"['robot_stimuli\\R_Head_Z_Back.mp4', 'robot_stimuli\\R_Arm_Y_For.mp4', 'robot_stimuli\\L_Torso_X_Back.mp4', 'robot_stimuli\\L_Head_Y_Back.mp4', 'robot_stimuli\\L_Torso_Y_For.mp4', 'robot_stimuli\\L_Base_X_Back.mp4']",robot_stimuli\L_Arm_Y_Back.mp4,7,,,,,,,,,,,,,0,84,84,84,,,,,,,,,,,,,,,,,2182.5890411,2183.6788484000003,,,,,,,,,2187.4293681000004,2187.4293681000004,2187.4293681000004,2187.4293681000004,2187.4293681000004,2187.4293681000004,2187.4293681000004,2187.4293681000004,None,None,None,,,,,,,,,,,2159.4144088000003,2159.4144088000003,None,,2178.9765897,2183.6788484000003,2183.6788484000003,2183.6788484000003,2183.6788484000003,c,3.714435700000365,2159.4144088000003,2159.4144088000003,,,,7,001,2024-06-28_13h11.16.997,robot_sternberg_sign,2022.2.5,60.049204318022305,
"['L_Arm_X_Back', 'R_Arm_Z_For', 'R_Torso_Y_For', 'L_Arm_Z_Back', 'R_Torso_Z_Back', 'R_Head_Y_For']",True,L_Arm_Z_Back,6,robot,3,False,False,"['robot_stimuli\\L_Arm_X_Back.mp4', 'robot_stimuli\\R_Arm_Z_For.mp4', 'robot_stimuli\\R_Torso_Y_For.mp4', 'robot_stimuli\\L_Arm_Z_Back.mp4', 'robot_stimuli\\R_Torso_Z_Back.mp4', 'robot_stimuli\\R_Head_Y_For.mp4']",robot_stimuli\L_Arm_Z_Back.mp4,7,,,,,,,,,,,,,0,85,85,85,,,,,,,,,,,,,,,,,2210.7874918,2211.8784923000003,,,,,,,,,2215.5154447,2215.5154447,2215.5154447,2215.5154447,2215.5154447,2215.5154447,2215.5154447,2215.5154447,None,None,None,,,,,,,,,,,2187.4293681000004,2187.4293681000004,None,,2207.1454842000003,2211.8784923000003,2211.8784923000003,2211.8784923000003,2211.8784923000003,c,3.483887300000049,2187.4293681000004,2187.4293681000004,,,,7,001,2024-06-28_13h11.16.997,robot_sternberg_sign,2022.2.5,60.049204318022305,
"['R_Torso_X_For', 'R_Base_Y_Back', 'L_Torso_Y_For', 'R_Torso_Z_Back', 'R_Base_X_Back', 'L_Base_Y_Back']",False,L_Torso_Y_Back,6,robot,3,False,False,"['robot_stimuli\\R_Torso_X_For.mp4', 'robot_stimuli\\R_Base_Y_Back.mp4', 'robot_stimuli\\L_Torso_Y_For.mp4', 'robot_stimuli\\R_Torso_Z_Back.mp4', 'robot_stimuli\\R_Base_X_Back.mp4', 'robot_stimuli\\L_Base_Y_Back.mp4']",robot_stimuli\L_Torso_Y_Back.mp4,7,,,,,,,,,,,,,0,86,86,86,,,,,,,,,,,,,,,,,2238.7738867000003,2239.8622796,,,,,,,,,2243.3604829,2243.3604829,2243.3604829,2243.3604829,2243.3604829,2243.3604829,2243.3604829,2243.3604829,None,None,None,,,,,,,,,,,2215.5154447,2215.5154447,None,,2235.2054136,2239.8622796,2239.8622796,2239.8622796,2239.8622796,c,3.0207381000001874,2215.5154447,2215.5154447,,,,7,001,2024-06-28_13h11.16.997,robot_sternberg_sign,2022.2.5,60.049204318022305,
"['R_Arm_Y_Back', 'L_Head_Z_Back', 'L_Head_Y_Back', 'R_Head_Y_For', 'L_Torso_Y_Back', 'R_Arm_Y_For']",False,L_Torso_X_For,6,robot,3,False,False,"['robot_stimuli\\R_Arm_Y_Back.mp4', 'robot_stimuli\\L_Head_Z_Back.mp4', 'robot_stimuli\\L_Head_Y_Back.mp4', 'robot_stimuli\\R_Head_Y_For.mp4', 'robot_stimuli\\L_Torso_Y_Back.mp4', 'robot_stimuli\\R_Arm_Y_For.mp4']",robot_stimuli\L_Torso_X_For.mp4,7,,,,,,,,,,,,,0,87,87,87,,,,,,,,,,,,,,,,,2266.434208,2267.5115291,,,,,,,,,2271.2776302,2271.2776302,2271.2776302,2271.2776302,2271.2776302,2271.2776302,2271.2776302,2271.2776302,None,None,None,,,,,,,,,,,2243.3604829,2243.3604829,None,,2262.9348766000003,2267.5115291,2267.5115291,2267.5115291,2267.5115291,c,3.7310407000001646,2243.3604829,2243.3604829,,,,7,001,2024-06-28_13h11.16.997,robot_sternberg_sign,2022.2.5,60.049204318022305,
"['R_Base_Y_For', 'L_Head_Z_Back', 'R_Head_Y_Back', 'R_Base_Z_For', 'L_Torso_Z_Back', 'L_Arm_Y_For']",True,L_Head_Z_Back,6,robot,3,False,False,"['robot_stimuli\\R_Base_Y_For.mp4', 'robot_stimuli\\L_Head_Z_Back.mp4', 'robot_stimuli\\R_Head_Y_Back.mp4', 'robot_stimuli\\R_Base_Z_For.mp4', 'robot_stimuli\\L_Torso_Z_Back.mp4', 'robot_stimuli\\L_Arm_Y_For.mp4']",robot_stimuli\L_Head_Z_Back.mp4,7,,,,,,,,,,,,,0,88,88,88,,,,,,,,,,,,,,,,,2294.4900561,2295.5764099000003,,,,,,,,,2299.2142068000003,2299.2142068000003,2299.2142068000003,2299.2142068000003,2299.2142068000003,2299.2142068000003,2299.2142068000003,2299.2142068000003,None,None,None,,,,,,,,,,,2271.2776302,2271.2776302,None,,2290.8590184,2295.5764099000003,2295.5764099000003,2295.5764099000003,2295.5764099000003,c,2.5138588000001505,2271.2776302,2271.2776302,,,,7,001,2024-06-28_13h11.16.997,robot_sternberg_sign,2022.2.5,60.049204318022305,
"['L_Base_Y_Back', 'R_Torso_Z_Back', 'R_Arm_X_For', 'R_Head_X_Back', 'L_Arm_X_Back', 'L_Head_Y_For']",False,R_Base_Z_For,6,robot,3,False,True,"['robot_stimuli\\L_Base_Y_Back.mp4', 'robot_stimuli\\R_Torso_Z_Back.mp4', 'robot_stimuli\\R_Arm_X_For.mp4', 'robot_stimuli\\R_Head_X_Back.mp4', 'robot_stimuli\\L_Arm_X_Back.mp4', 'robot_stimuli\\L_Head_Y_For.mp4']",robot_stimuli\R_Base_Z_For.mp4,7,,,,,,,,,,,,,0,89,89,89,,,,,,,,,,,,,,,,,2322.4739224,2323.5627784000003,,,,,,,,,2327.2351741,2334.66886,2327.2351741,2334.66886,2327.2351741,2334.66886,2327.2351741,2334.66886,82.62345679012346,7.17321899999979,space,,,7.390357000000392,,,,,,,,2299.2142068000003,2299.2142068000003,None,,2318.8300108000003,2323.5627784000003,2323.5627784000003,2323.5627784000003,2323.5627784000003,c,3.4556717000002095,2299.2142068000003,2299.2142068000003,,,,7,001,2024-06-28_13h11.16.997,robot_sternberg_sign,2022.2.5,60.049204318022305,
"['W', 'S', 'Z', 'N']",False,H,4,letter,4,True,False,"['robot_stimuli\\\\filler.mp4', 'robot_stimuli\\\\filler.mp4', 'robot_stimuli\\\\filler.mp4', 'robot_stimuli\\\\filler.mp4']",robot_stimuli\\filler.mp4,7,,,,,,,,,,,,,0,90,90,90,,,,,,,,,,,,,,,,,2374.6435804000002,2375.7043856,,,,,,,,,2376.7349923,2376.7349923,2376.7349923,2376.7349923,2376.7349923,2376.7349923,2376.7349923,2376.7349923,None,None,None,,,,,,,,,,,2334.66886,2334.66886,space,30.228796800000225,,,2375.7043856,2375.7043856,2375.7043856,n,0.8017222000000288,,,2372.6266212,2374.6435804000002,2375.7043856,7,001,2024-06-28_13h11.16.997,robot_sternberg_sign,2022.2.5,60.049204318022305,
"['X', 'Q', 'P', 'K']",False,B,4,letter,4,False,False,"['robot_stimuli\\\\filler.mp4', 'robot_stimuli\\\\filler.mp4', 'robot_stimuli\\\\filler.mp4', 'robot_stimuli\\\\filler.mp4']",robot_stimuli\\filler.mp4,7,,,,,,,,,,,,,0,91,91,91,,,,,,,,,,,,,,,,,2386.6574626,2387.7375972,,,,,,,,,2388.558441,2388.558441,2388.558441,2388.558441,2388.558441,2388.558441,2388.558441,2388.558441,None,None,None,,,,,,,,,,,2376.7349923,2376.7349923,None,,,,2387.7375972,2387.7375972,2387.7375972,n,0.6800776000001747,2376.7349923,2376.7349923,2384.443322,2386.6574626,2387.7375972,7,001,2024-06-28_13h11.16.997,robot_sternberg_sign,2022.2.5,60.049204318022305,
"['M', 'Z', 'R', 'S']",True,M,4,letter,4,False,False,"['robot_stimuli\\\\filler.mp4', 'robot_stimuli\\\\filler.mp4', 'robot_stimuli\\\\filler.mp4', 'robot_stimuli\\\\filler.mp4']",robot_stimuli\\filler.mp4,7,,,,,,,,,,,,,0,92,92,92,,,,,,,,,,,,,,,,,2398.0976006,2399.1552789,,,,,,,,,2399.5752249,2399.5752249,2399.5752249,2399.5752249,2399.5752249,2399.5752249,2399.5752249,2399.5752249,None,None,None,,,,,,,,,,,2388.558441,2388.558441,None,,,,2399.1552789,2399.1552789,2399.1552789,c,0.37498460000023215,2388.558441,2388.558441,2396.0780496,2398.0976006,2399.1552789,7,001,2024-06-28_13h11.16.997,robot_sternberg_sign,2022.2.5,60.049204318022305,
"['S', 'Z', 'L', 'R']",True,R,4,letter,4,False,False,"['robot_stimuli\\\\filler.mp4', 'robot_stimuli\\\\filler.mp4', 'robot_stimuli\\\\filler.mp4', 'robot_stimuli\\\\filler.mp4']",robot_stimuli\\filler.mp4,7,,,,,,,,,,,,,0,93,93,93,,,,,,,,,,,,,,,,,2409.1308139000002,2410.1895456,,,,,,,,,2411.2200997,2411.2200997,2411.2200997,2411.2200997,2411.2200997,2411.2200997,2411.2200997,2411.2200997,None,None,None,,,,,,,,,,,2399.5752249,2399.5752249,None,,,,2410.1895456,2410.1895456,2410.1895456,c,0.9562995000002843,2399.5752249,2399.5752249,2407.1063592,2409.1308139000002,2410.1895456,7,001,2024-06-28_13h11.16.997,robot_sternberg_sign,2022.2.5,60.049204318022305,
"['F', 'W', 'S', 'J']",False,C,4,letter,4,False,False,"['robot_stimuli\\\\filler.mp4', 'robot_stimuli\\\\filler.mp4', 'robot_stimuli\\\\filler.mp4', 'robot_stimuli\\\\filler.mp4']",robot_stimuli\\filler.mp4,7,,,,,,,,,,,,,0,94,94,94,,,,,,,,,,,,,,,,,2420.9691374000004,,,,,,,,,,2423.0578570000002,2423.0578570000002,2423.0578570000002,2423.0578570000002,2423.0578570000002,2423.0578570000002,2423.0578570000002,2423.0578570000002,None,None,None,,,,,,,,,,,2411.2200997,2411.2200997,None,,,,2422.0380504,2422.0380504,2422.0380504,n,0.8442515000003254,2411.2200997,2411.2200997,2418.7565158,2420.9691374000004,2422.0380504,7,001,2024-06-28_13h11.16.997,robot_sternberg_sign,2022.2.5,60.049204318022305,
"['Q', 'K', 'N', 'T']",False,P,4,letter,4,False,False,"['robot_stimuli\\\\filler.mp4', 'robot_stimuli\\\\filler.mp4', 'robot_stimuli\\\\filler.mp4', 'robot_stimuli\\\\filler.mp4']",robot_stimuli\\filler.mp4,7,,,,,,,,,,,,,0,95,95,95,,,,,,,,,,,,,,,,,2432.7958178000003,2433.8562065,,,,,,,,,2435.8844389,2435.8844389,2435.8844389,2435.8844389,2435.8844389,2435.8844389,2435.8844389,2435.8844389,None,None,None,,,,,,,,,,,2423.0578570000002,2423.0578570000002,None,,,,2433.8562065,2433.8562065,2433.8562065,n,1.9768079000002103,2423.0578570000002,2423.0578570000002,2430.7758311000002,2432.7958178000003,2433.8562065,7,001,2024-06-28_13h11.16.997,robot_sternberg_sign,2022.2.5,60.049204318022305,
"['D', 'R', 'V', 'Q']",False,S,4,letter,4,False,False,"['robot_stimuli\\\\filler.mp4', 'robot_stimuli\\\\filler.mp4', 'robot_stimuli\\\\filler.mp4', 'robot_stimuli\\\\filler.mp4']",robot_stimuli\\filler.mp4,7,,,,,,,,,,,,,0,96,96,96,,,,,,,,,,,,,,,,,2445.4132974000004,2446.484649,,,,,,,,,2447.3038538,2447.3038538,2447.3038538,2447.3038538,2447.3038538,2447.3038538,2447.3038538,2447.3038538,None,None,None,,,,,,,,,,,2435.8844389,2435.8844389,None,,,,2446.484649,2446.484649,2446.484649,n,0.7657584000004931,2435.8844389,2435.8844389,2443.3963028000003,2445.4132974000004,2446.484649,7,001,2024-06-28_13h11.16.997,robot_sternberg_sign,2022.2.5,60.049204318022305,
"['W', 'D', 'P', 'K']",True,W,4,letter,4,False,False,"['robot_stimuli\\\\filler.mp4', 'robot_stimuli\\\\filler.mp4', 'robot_stimuli\\\\filler.mp4', 'robot_stimuli\\\\filler.mp4']",robot_stimuli\\filler.mp4,7,,,,,,,,,,,,,0,97,97,97,,,,,,,,,,,,,,,,,2457.0479054,2458.1044988000003,,,,,,,,,2459.1346217,2459.1346217,2459.1346217,2459.1346217,2459.1346217,2459.1346217,2459.1346217,2459.1346217,None,None,None,,,,,,,,,,,2447.3038538,2447.3038538,None,,,,2458.1044988000003,2458.1044988000003,2458.1044988000003,c,0.8975253000004955,2447.3038538,2447.3038538,2455.0336162000003,2457.0479054,2458.1044988000003,7,001,2024-06-28_13h11.16.997,robot_sternberg_sign,2022.2.5,60.049204318022305,
"['M', 'X', 'T', 'S']",True,T,4,letter,4,False,False,"['robot_stimuli\\\\filler.mp4', 'robot_stimuli\\\\filler.mp4', 'robot_stimuli\\\\filler.mp4', 'robot_stimuli\\\\filler.mp4']",robot_stimuli\\filler.mp4,7,,,,,,,,,,,,,0,98,98,98,,,,,,,,,,,,,,,,,2468.4754743000003,2469.538164,,,,,,,,,2470.3640632,2470.3640632,2470.3640632,2470.3640632,2470.3640632,2470.3640632,2470.3640632,2470.3640632,None,None,None,,,,,,,,,,,2459.1346217,2459.1346217,None,,,,2469.538164,2469.538164,2469.538164,c,0.6308839000004696,2459.1346217,2459.1346217,2466.4514809,2468.4754743000003,2469.538164,7,001,2024-06-28_13h11.16.997,robot_sternberg_sign,2022.2.5,60.049204318022305,
"['Z', 'Q', 'X', 'W']",True,Z,4,letter,4,False,True,"['robot_stimuli\\\\filler.mp4', 'robot_stimuli\\\\filler.mp4', 'robot_stimuli\\\\filler.mp4', 'robot_stimuli\\\\filler.mp4']",robot_stimuli\\filler.mp4,7,,,,,,,,,,,,,0,99,99,99,,,,,,,,,,,,,,,,,2480.2844701000004,2481.3410109,,,,,,,,,2481.9974026,2486.5322652,2481.9974026,2486.5322652,2481.9974026,2486.5322652,2481.9974026,2486.5322652,18.734567901234566,4.267294900000252,space,,,4.469192799999917,,,,,,,,2470.3640632,2470.3640632,None,,,,2481.3410109,2481.3410109,2481.3410109,c,0.46880660000005037,2470.3640632,2470.3640632,2478.0705739,2480.2844701000004,2481.3410109,7,001,2024-06-28_13h11.16.997,robot_sternberg_sign,2022.2.5,60.049204318022305,
"['K', 'H', 'D', 'T', 'G', 'F']",True,F,6,letter,4,True,False,"['robot_stimuli\\\\filler.mp4', 'robot_stimuli\\\\filler.mp4', 'robot_stimuli\\\\filler.mp4', 'robot_stimuli\\\\filler.mp4', 'robot_stimuli\\\\filler.mp4', 'robot_stimuli\\\\filler.mp4']",robot_stimuli\\filler.mp4,7,,,,,,,,,,,,,0,100,100,100,,,,,,,,,,,,,,,,,2501.5711009,2488.7280109000003,,,,,,,,,2504.6649699,2504.6649699,2504.6649699,2504.6649699,2504.6649699,2504.6649699,2504.6649699,2504.6649699,None,None,None,,,,,,,,,,,2486.5322652,2486.5322652,space,1.1181731000003197,,,2502.6423204000002,2502.6423204000002,2502.6423204000002,c,1.8874928000001887,,,2499.3528225,2501.5711009,2502.6423204000002,7,001,2024-06-28_13h11.16.997,robot_sternberg_sign,2022.2.5,60.049204318022305,
"['D', 'W', 'N', 'K', 'V', 'T']",False,J,6,letter,4,False,False,"['robot_stimuli\\\\filler.mp4', 'robot_stimuli\\\\filler.mp4', 'robot_stimuli\\\\filler.mp4', 'robot_stimuli\\\\filler.mp4', 'robot_stimuli\\\\filler.mp4', 'robot_stimuli\\\\filler.mp4']",robot_stimuli\\filler.mp4,7,,,,,,,,,,,,,0,101,101,101,,,,,,,,,,,,,,,,,2518.5843015,2519.6388974,,,,,,,,,2520.4655787,2520.4655787,2520.4655787,2520.4655787,2520.4655787,2520.4655787,2520.4655787,2520.4655787,None,None,None,,,,,,,,,,,2504.6649699,2504.6649699,None,,,,2519.6388974,2519.6388974,2519.6388974,n,0.6196080999999936,2504.6649699,2504.6649699,2516.3690866,2518.5843015,2519.6388974,7,001,2024-06-28_13h11.16.997,robot_sternberg_sign,2022.2.5,60.049204318022305,
"['K', 'D', 'X', 'R', 'M', 'T']",False,C,6,letter,4,False,False,"['robot_stimuli\\\\filler.mp4', 'robot_stimuli\\\\filler.mp4', 'robot_stimuli\\\\filler.mp4', 'robot_stimuli\\\\filler.mp4', 'robot_stimuli\\\\filler.mp4', 'robot_stimuli\\\\filler.mp4']",robot_stimuli\\filler.mp4,7,,,,,,,,,,,,,0,102,102,102,,,,,,,,,,,,,,,,,2534.3603976,2535.4222945,,,,,,,,,2538.2472554,2538.2472554,2538.2472554,2538.2472554,2538.2472554,2538.2472554,2538.2472554,2538.2472554,None,None,None,,,,,,,,,,,2520.4655787,2520.4655787,None,,,,2535.4222945,2535.4222945,2535.4222945,n,2.74719980000026,2520.4655787,2520.4655787,2532.3462792,2534.3603976,2535.4222945,7,001,2024-06-28_13h11.16.997,robot_sternberg_sign,2022.2.5,60.049204318022305,
"['Z', 'H', 'C', 'K', 'P', 'W']",True,W,6,letter,4,False,False,"['robot_stimuli\\\\filler.mp4', 'robot_stimuli\\\\filler.mp4', 'robot_stimuli\\\\filler.mp4', 'robot_stimuli\\\\filler.mp4', 'robot_stimuli\\\\filler.mp4', 'robot_stimuli\\\\filler.mp4']",robot_stimuli\\filler.mp4,7,,,,,,,,,,,,,0,103,103,103,,,,,,,,,,,,,,,,,2552.7458265,2553.8055938,,,,,,,,,2554.8289503,2554.8289503,2554.8289503,2554.8289503,2554.8289503,2554.8289503,2554.8289503,2554.8289503,None,None,None,,,,,,,,,,,2538.2472554,2538.2472554,None,,,,2553.8055938,2553.8055938,2553.8055938,c,0.9001408000000879,2538.2472554,2538.2472554,2550.7266677000002,2552.7458265,2553.8055938,7,001,2024-06-28_13h11.16.997,robot_sternberg_sign,2022.2.5,60.049204318022305,
"['F', 'K', 'M', 'X', 'V', 'R']",True,K,6,letter,4,False,False,"['robot_stimuli\\\\filler.mp4', 'robot_stimuli\\\\filler.mp4', 'robot_stimuli\\\\filler.mp4', 'robot_stimuli\\\\filler.mp4', 'robot_stimuli\\\\filler.mp4', 'robot_stimuli\\\\filler.mp4']",robot_stimuli\\filler.mp4,7,,,,,,,,,,,,,0,104,104,104,,,,,,,,,,,,,,,,,2569.1417099,2570.2050910000003,,,,,,,,,2571.0282566,2571.0282566,2571.0282566,2571.0282566,2571.0282566,2571.0282566,2571.0282566,2571.0282566,None,None,None,,,,,,,,,,,2554.8289503,2554.8289503,None,,,,2570.2050910000003,2570.2050910000003,2570.2050910000003,c,0.7095722999999339,2554.8289503,2554.8289503,2566.9234322,2569.1417099,2570.2050910000003,7,001,2024-06-28_13h11.16.997,robot_sternberg_sign,2022.2.5,60.049204318022305,
"['N', 'D', 'J', 'K', 'W', 'M']",True,N,6,letter,4,False,False,"['robot_stimuli\\\\filler.mp4', 'robot_stimuli\\\\filler.mp4', 'robot_stimuli\\\\filler.mp4', 'robot_stimuli\\\\filler.mp4', 'robot_stimuli\\\\filler.mp4', 'robot_stimuli\\\\filler.mp4']",robot_stimuli\\filler.mp4,7,,,,,,,,,,,,,0,105,105,105,,,,,,,,,,,,,,,,,2584.7266447,2585.7982593,,,,,,,,,2587.2291138,2587.2291138,2587.2291138,2587.2291138,2587.2291138,2587.2291138,2587.2291138,2587.2291138,None,None,None,,,,,,,,,,,2571.0282566,2571.0282566,None,,,,2585.7982593,2585.7982593,2585.7982593,c,1.2284142999998835,2571.0282566,2571.0282566,2582.7067909,2584.7266447,2585.7982593,7,001,2024-06-28_13h11.16.997,robot_sternberg_sign,2022.2.5,60.049204318022305,
"['P', 'K', 'J', 'W', 'S', 'H']",False,D,6,letter,4,False,False,"['robot_stimuli\\\\filler.mp4', 'robot_stimuli\\\\filler.mp4', 'robot_stimuli\\\\filler.mp4', 'robot_stimuli\\\\filler.mp4', 'robot_stimuli\\\\filler.mp4', 'robot_stimuli\\\\filler.mp4']",robot_stimuli\\filler.mp4,7,,,,,,,,,,,,,0,106,106,106,,,,,,,,,,,,,,,,,2601.3440445,2602.4044673000003,,,,,,,,,2604.2369415000003,2604.2369415000003,2604.2369415000003,2604.2369415000003,2604.2369415000003,2604.2369415000003,2604.2369415000003,2604.2369415000003,None,None,None,,,,,,,,,,,2587.2291138,2587.2291138,None,,,,2602.4044673000003,2602.4044673000003,2602.4044673000003,n,1.6698241000005396,2587.2291138,2587.2291138,2599.1223451,2601.3440445,2602.4044673000003,7,001,2024-06-28_13h11.16.997,robot_sternberg_sign,2022.2.5,60.049204318022305,
"['B', 'W', 'H', 'R', 'T', 'D']",False,Z,6,letter,4,False,False,"['robot_stimuli\\\\filler.mp4', 'robot_stimuli\\\\filler.mp4', 'robot_stimuli\\\\filler.mp4', 'robot_stimuli\\\\filler.mp4', 'robot_stimuli\\\\filler.mp4', 'robot_stimuli\\\\filler.mp4']",robot_stimuli\\filler.mp4,7,,,,,,,,,,,,,0,107,107,107,,,,,,,,,,,,,,,,,2618.1436655,2619.2051907,,,,,,,,,2621.6343878000002,2621.6343878000002,2621.6343878000002,2621.6343878000002,2621.6343878000002,2621.6343878000002,2621.6343878000002,2621.6343878000002,None,None,None,,,,,,,,,,,2604.2369415000003,2604.2369415000003,None,,,,2619.2051907,2619.2051907,2619.2051907,n,2.3644271000000003,2604.2369415000003,2604.2369415000003,2616.1252349,2618.1436655,2619.2051907,7,001,2024-06-28_13h11.16.997,robot_sternberg_sign,2022.2.5,60.049204318022305,
"['M', 'C', 'X', 'P', 'D', 'R']",True,M,6,letter,4,False,False,"['robot_stimuli\\\\filler.mp4', 'robot_stimuli\\\\filler.mp4', 'robot_stimuli\\\\filler.mp4', 'robot_stimuli\\\\filler.mp4', 'robot_stimuli\\\\filler.mp4', 'robot_stimuli\\\\filler.mp4']",robot_stimuli\\filler.mp4,7,,,,,,,,,,,,,0,108,108,108,,,,,,,,,,,,,,,,,2635.3435007000003,2636.4043631,,,,,,,,,2637.2323899000003,2637.2323899000003,2637.2323899000003,2637.2323899000003,2637.2323899000003,2637.2323899000003,2637.2323899000003,2637.2323899000003,None,None,None,,,,,,,,,,,2621.6343878000002,2621.6343878000002,None,,,,2636.4043631,2636.4043631,2636.4043631,c,0.6784720000002267,2621.6343878000002,2621.6343878000002,2633.3251224,2635.3435007000003,2636.4043631,7,001,2024-06-28_13h11.16.997,robot_sternberg_sign,2022.2.5,60.049204318022305,
"['C', 'P', 'R', 'Z', 'M', 'T']",False,H,6,letter,4,False,True,"['robot_stimuli\\\\filler.mp4', 'robot_stimuli\\\\filler.mp4', 'robot_stimuli\\\\filler.mp4', 'robot_stimuli\\\\filler.mp4', 'robot_stimuli\\\\filler.mp4', 'robot_stimuli\\\\filler.mp4']",robot_stimuli\\filler.mp4,7,,,,,,,,,,,,,0,109,109,109,,,,,,,,,,,,,,,,,2651.3307849000003,2652.3881469000003,,,,,,,,,2653.2397328,2657.1313806000003,2653.2397328,2657.1313806000003,2653.2397328,2657.1313806000003,2653.2397328,2657.1313806000003,60.401234567901234,3.0413042000000132,space,,,3.8340709000000857,,,,,,,,2637.2323899000003,2637.2323899000003,None,,,,2652.3881469000003,2652.3881469000003,2652.3881469000003,n,0.773737200000312,2637.2323899000003,2637.2323899000003,2649.313098,2651.3307849000003,2652.3881469000003,7,001,2024-06-28_13h11.16.997,robot_sternberg_sign,2022.2.5,60.049204318022305,
"['F', 'G']",True,F,2,letter,4,True,False,"['robot_stimuli\\\\filler.mp4', 'robot_stimuli\\\\filler.mp4']",robot_stimuli\\filler.mp4,7,,,,,,,,,,,,,0,110,110,110,,,,,,,,,,,,,,,,,2663.9980783,2665.0561943000002,,,,,,,,,2665.8756829000004,2665.8756829000004,2665.8756829000004,2665.8756829000004,2665.8756829000004,2665.8756829000004,2665.8756829000004,2665.8756829000004,None,None,None,,,,,,,,,,,2657.1313806000003,2657.1313806000003,space,1.286085900000387,,,2665.0561943000002,2665.0561943000002,2665.0561943000002,c,0.5864628000001062,,,2661.7750105,2663.9980783,2665.0561943000002,7,001,2024-06-28_13h11.16.997,robot_sternberg_sign,2022.2.5,60.049204318022305,
"['F', 'P']",False,X,2,letter,4,False,False,"['robot_stimuli\\\\filler.mp4', 'robot_stimuli\\\\filler.mp4']",robot_stimuli\\filler.mp4,7,,,,,,,,,,,,,0,111,111,111,,,,,,,,,,,,,,,,,2671.2438448000003,2672.306654,,,,,,,,,2673.1314761000003,2673.1314761000003,2673.1314761000003,2673.1314761000003,2673.1314761000003,2673.1314761000003,2673.1314761000003,2673.1314761000003,None,None,None,,,,,,,,,,,2665.8756829000004,2665.8756829000004,None,,,,2672.306654,2672.306654,2672.306654,n,0.6558362000002376,2665.8756829000004,2665.8756829000004,2669.2254619,2671.2438448000003,2672.306654,7,001,2024-06-28_13h11.16.997,robot_sternberg_sign,2022.2.5,60.049204318022305,
"['C', 'T']",True,C,2,letter,4,False,False,"['robot_stimuli\\\\filler.mp4', 'robot_stimuli\\\\filler.mp4']",robot_stimuli\\filler.mp4,7,,,,,,,,,,,,,0,112,112,112,,,,,,,,,,,,,,,,,2678.4916102,2679.5563052,,,,,,,,,2680.1856661,2680.1856661,2680.1856661,2680.1856661,2680.1856661,2680.1856661,2680.1856661,2680.1856661,None,None,None,,,,,,,,,,,2673.1314761000003,2673.1314761000003,None,,,,2679.5563052,2679.5563052,2679.5563052,c,0.4299545999999168,2673.1314761000003,2673.1314761000003,2676.2712805,2678.4916102,2679.5563052,7,001,2024-06-28_13h11.16.997,robot_sternberg_sign,2022.2.5,60.049204318022305,
