sequence,is_true,target,condition,stimuli,block,is_block_beginning,is_block_ending,sequence_fnames,target_fname,subject,retraining.thisRepN,retraining.thisTrialN,retraining.thisN,retraining.thisIndex,training.thisRepN,training.thisTrialN,training.thisN,training.thisIndex,training_sequence_loop.thisRepN,training_sequence_loop.thisTrialN,training_sequence_loop.thisN,training_sequence_loop.thisIndex,trials.thisRepN,trials.thisTrialN,trials.thisN,trials.thisIndex,sequence_loop.thisRepN,sequence_loop.thisTrialN,sequence_loop.thisN,sequence_loop.thisIndex,langage_text.started,langage_key.started,langage_key.keys,langage_key.rt,intro_text.started,intro_key.started,intro_key.keys,intro_key.rt,training_intro_text.started,training_intro_key.started,training_intro_key.keys,training_intro_key.rt,polygon.started,polygon.stopped,training_presentation_letter.started,training_presentation_letter.stopped,training_recall_letter.started,training_recall_key.started,training_recall_question.started,training_recall_answer.started,training_recall_key.keys,training_recall_key.rt,RSME_labels.started,RSME_labels.stopped,RSME_ticks.started,RSME_ticks.stopped,RSME_text.started,RSME_text.stopped,RSME_key.started,RSME_key.stopped,RSME_ticks.response,RSME_ticks.rt,RSME_key.keys,training_intro_text.stopped,training_intro_key.stopped,RSME_key.rt,training_presentation_movie.started,training_recall_movie.started,experiment_beginning_text.started,experiment_beginning_keys.started,experiment_beginning_key.started,experiment_beginning_key.keys,experiment_beginning_key.rt,block_intro_text.started,block_intro_key.started,block_intro_key.keys,block_intro_key.rt,presentation_letter.started,presentation_letter.stopped,recall_letter.started,recall_key.started,recall_question.started,recall_answer.started,recall_key.keys,recall_key.rt,block_intro_text.stopped,block_intro_key.stopped,presentation_movie.started,recall_movie.started,participant,session,date,expName,psychopyVersion,frameRate,
,,,,,,,,,,,,,,,,,,,,,,,,,,,,,,,16.16043940000054,16.16043940000054,e,0.7487757999988389,,,,,,,,,,,,,,,,,,,,,,,,,,,,,,,,,,,,,,,,,,,,,,,,,,,,,,,,22,001,2024-08-01_13h11.24.718,robot_sternberg_sign,2022.2.5,60.05439727346326,
,,,,,,,,,,,,,,,,,,,,,,,,,,,,,,,,,,,16.974120000000767,16.974120000000767,space,110.62247749999733,,,,,,,,,,,,,,,,,,,,,,,,,,,,,,,,,,,,,,,,,,,,,,,,,,,,22,001,2024-08-01_13h11.24.718,robot_sternberg_sign,2022.2.5,60.05439727346326,
"['D', 'X']",False,G,2,letter,1,True,False,"['robot_stimuli\\\\filler.mp4', 'robot_stimuli\\\\filler.mp4']",robot_stimuli\\filler.mp4,22,0,0,0,0,0,0,0,0,,,,,,,,,,,,,,,,,,,,,127.63524540000071,127.63524540000071,space,3.9687264999975014,137.32456490000004,138.4105709000014,135.30224180000005,137.32456490000004,138.4105709000014,138.4105709000014,138.4105709000014,138.4105709000014,n,4.633766199998718,143.24348790000113,143.24348790000113,143.24348790000113,143.24348790000113,143.24348790000113,143.24348790000113,143.24348790000113,143.24348790000113,None,None,None,,,,,,,,,,,,,,,,,,,,,,,,,,,22,001,2024-08-01_13h11.24.718,robot_sternberg_sign,2022.2.5,60.05439727346326,
"['S', 'V']",True,S,2,letter,1,False,False,"['robot_stimuli\\\\filler.mp4', 'robot_stimuli\\\\filler.mp4']",robot_stimuli\\filler.mp4,22,0,0,0,0,0,1,1,1,,,,,,,,,,,,,,,,,,,,,143.24348790000113,143.24348790000113,None,,148.64484620000076,,146.42973070000153,148.64484620000076,149.72187699999995,149.72187699999995,149.72187699999995,149.72187699999995,c,1.771287099998517,151.55783210000118,151.55783210000118,151.55783210000118,151.55783210000118,151.55783210000118,151.55783210000118,151.55783210000118,151.55783210000118,None,None,None,143.24348790000113,143.24348790000113,,,,,,,,,,,,,,,,,,,,,,,,,22,001,2024-08-01_13h11.24.718,robot_sternberg_sign,2022.2.5,60.05439727346326,
"['T', 'Z']",True,Z,2,letter,1,False,True,"['robot_stimuli\\\\filler.mp4', 'robot_stimuli\\\\filler.mp4']",robot_stimuli\\filler.mp4,22,0,0,0,0,0,2,2,2,,,,,,,,,,,,,,,,,,,,,151.55783210000118,151.55783210000118,None,,156.75330720000056,157.82329370000116,154.73817250000138,156.75330720000056,157.82329370000116,157.82329370000116,157.82329370000116,157.82329370000116,c,1.5100215999991633,159.5114291000009,175.0969829000005,159.5114291000009,175.0969829000005,159.5114291000009,175.0969829000005,159.5114291000009,175.0969829000005,25.370370370370367,14.875226099999054,space,151.55783210000118,151.55783210000118,15.532779499999378,,,,,,,,,,,,,,,,,,,,,,,,22,001,2024-08-01_13h11.24.718,robot_sternberg_sign,2022.2.5,60.05439727346326,
"['N', 'P', 'B', 'S']",True,N,4,letter,1,True,False,"['robot_stimuli\\\\filler.mp4', 'robot_stimuli\\\\filler.mp4', 'robot_stimuli\\\\filler.mp4', 'robot_stimuli\\\\filler.mp4']",robot_stimuli\\filler.mp4,22,0,0,0,0,0,3,3,3,,,,,,,,,,,,,,,,,,,,,175.0969829000005,175.0969829000005,space,2.7562512999993487,187.88146770000094,188.95730189999995,185.6599470000001,187.88146770000094,188.95730189999995,188.95730189999995,188.95730189999995,188.95730189999995,c,1.6721324999980425,190.79080500000055,190.79080500000055,190.79080500000055,190.79080500000055,190.79080500000055,190.79080500000055,190.79080500000055,190.79080500000055,None,None,None,,,,,,,,,,,,,,,,,,,,,,,,,,,22,001,2024-08-01_13h11.24.718,robot_sternberg_sign,2022.2.5,60.05439727346326,
"['J', 'V', 'P', 'T']",True,T,4,letter,1,False,False,"['robot_stimuli\\\\filler.mp4', 'robot_stimuli\\\\filler.mp4', 'robot_stimuli\\\\filler.mp4', 'robot_stimuli\\\\filler.mp4']",robot_stimuli\\filler.mp4,22,0,0,0,0,0,4,4,4,,,,,,,,,,,,,,,,,,,,,190.79080500000055,190.79080500000055,None,,200.78629680000086,201.8556091999999,198.77069970000048,200.78629680000086,201.8556091999999,201.8556091999999,201.8556091999999,201.8556091999999,c,1.5642680999990262,203.48308780000116,203.48308780000116,203.48308780000116,203.48308780000116,203.48308780000116,203.48308780000116,203.48308780000116,203.48308780000116,None,None,None,190.79080500000055,190.79080500000055,,,,,,,,,,,,,,,,,,,,,,,,,22,001,2024-08-01_13h11.24.718,robot_sternberg_sign,2022.2.5,60.05439727346326,
"['X', 'T', 'Z', 'N']",False,S,4,letter,1,False,True,"['robot_stimuli\\\\filler.mp4', 'robot_stimuli\\\\filler.mp4', 'robot_stimuli\\\\filler.mp4', 'robot_stimuli\\\\filler.mp4']",robot_stimuli\\filler.mp4,22,0,0,0,0,0,5,5,5,,,,,,,,,,,,,,,,,,,,,203.48308780000116,203.48308780000116,None,,213.08582260000003,214.1557685000007,211.06975460000103,213.08582260000003,214.1557685000007,214.1557685000007,214.1557685000007,214.1557685000007,n,1.64868739999838,216.01350120000097,229.93544760000077,216.01350120000097,229.93544760000077,216.01350120000097,229.93544760000077,216.01350120000097,229.93544760000077,25.67901234567901,7.45882630000051,space,203.48308780000116,203.48308780000116,13.854818499998146,,,,,,,,,,,,,,,,,,,,,,,,22,001,2024-08-01_13h11.24.718,robot_sternberg_sign,2022.2.5,60.05439727346326,
"['R', 'Q', 'D', 'K', 'M', 'T']",True,K,6,letter,1,True,False,"['robot_stimuli\\\\filler.mp4', 'robot_stimuli\\\\filler.mp4', 'robot_stimuli\\\\filler.mp4', 'robot_stimuli\\\\filler.mp4', 'robot_stimuli\\\\filler.mp4', 'robot_stimuli\\\\filler.mp4']",robot_stimuli\\filler.mp4,22,0,0,0,0,0,6,6,6,,,,,,,,,,,,,,,,,,,,,229.93544760000077,229.93544760000077,space,1.7491102999974828,246.3111288,232.77707440000086,244.10449550000158,246.3111288,247.38859630000115,247.38859630000115,247.38859630000115,247.38859630000115,c,1.4567475999992894,249.0189392000011,249.0189392000011,249.0189392000011,249.0189392000011,249.0189392000011,249.0189392000011,249.0189392000011,249.0189392000011,None,None,None,,,,,,,,,,,,,,,,,,,,,,,,,,,22,001,2024-08-01_13h11.24.718,robot_sternberg_sign,2022.2.5,60.05439727346326,
"['B', 'S', 'N', 'D', 'C', 'M']",True,S,6,letter,1,False,False,"['robot_stimuli\\\\filler.mp4', 'robot_stimuli\\\\filler.mp4', 'robot_stimuli\\\\filler.mp4', 'robot_stimuli\\\\filler.mp4', 'robot_stimuli\\\\filler.mp4', 'robot_stimuli\\\\filler.mp4']",robot_stimuli\\filler.mp4,22,0,0,0,0,0,7,7,7,,,,,,,,,,,,,,,,,,,,,249.0189392000011,249.0189392000011,None,,263.3733422000005,264.4353127000013,261.1627141000008,263.3733422000005,264.4353127000013,264.4353127000013,264.4353127000013,264.4353127000013,c,1.6245874999985972,266.26453260000017,266.26453260000017,266.26453260000017,266.26453260000017,266.26453260000017,266.26453260000017,266.26453260000017,266.26453260000017,None,None,None,249.0189392000011,249.0189392000011,,,,,,,,,,,,,,,,,,,,,,,,,22,001,2024-08-01_13h11.24.718,robot_sternberg_sign,2022.2.5,60.05439727346326,
"['D', 'W', 'H', 'N', 'P', 'B']",False,Z,6,letter,1,False,True,"['robot_stimuli\\\\filler.mp4', 'robot_stimuli\\\\filler.mp4', 'robot_stimuli\\\\filler.mp4', 'robot_stimuli\\\\filler.mp4', 'robot_stimuli\\\\filler.mp4', 'robot_stimuli\\\\filler.mp4']",robot_stimuli\\filler.mp4,22,0,0,0,0,0,8,8,8,,,,,,,,,,,,,,,,,,,,,266.26453260000017,266.26453260000017,None,,280.41131870000027,267.33501960000103,278.3921941000008,280.41131870000027,281.4777866000004,281.4777866000004,281.4777866000004,281.4777866000004,n,1.4876550999997562,283.1368476000007,292.3220669000002,283.1368476000007,292.3220669000002,283.1368476000007,292.3220669000002,283.1368476000007,292.3220669000002,45.586419753086425,7.067063500000586,space,266.26453260000017,266.26453260000017,9.131717299998854,,,,,,,,,,,,,,,,,,,,,,,,22,001,2024-08-01_13h11.24.718,robot_sternberg_sign,2022.2.5,60.05439727346326,
"['R_Arm_Z_For', 'L_Head_Z_For']",True,R_Arm_Z_For,2,robot,2,True,False,"['robot_stimuli\\R_Arm_Z_For.mp4', 'robot_stimuli\\L_Head_Z_For.mp4']",robot_stimuli\R_Arm_Z_For.mp4,22,0,0,0,0,0,9,9,9,,,,,,,,,,,,,,,,,,,,,292.3220669000002,292.3220669000002,space,3.9155031999998755,304.71482390000165,305.8089112000016,,,,305.8089112000016,305.8089112000016,305.8089112000016,c,3.571729699997377,309.4498842000012,309.4498842000012,309.4498842000012,309.4498842000012,309.4498842000012,309.4498842000012,309.4498842000012,309.4498842000012,None,None,None,,,,301.0747919000005,305.8089112000016,,,,,,,,,,,,,,,,,,,,,,22,001,2024-08-01_13h11.24.718,robot_sternberg_sign,2022.2.5,60.05439727346326,
"['R_Torso_Z_Back', 'R_Base_Z_For']",False,L_Torso_Z_Back,2,robot,2,False,False,"['robot_stimuli\\R_Torso_Z_Back.mp4', 'robot_stimuli\\R_Base_Z_For.mp4']",robot_stimuli\L_Torso_Z_Back.mp4,22,0,0,0,0,0,10,10,10,,,,,,,,,,,,,,,,,,,,,309.4498842000012,309.4498842000012,None,,317.90811660000145,318.99304790000133,,,,318.99304790000133,318.99304790000133,318.99304790000133,n,3.995743199999197,323.01901350000117,323.01901350000117,323.01901350000117,323.01901350000117,323.01901350000117,323.01901350000117,323.01901350000117,323.01901350000117,None,None,None,309.4498842000012,309.4498842000012,,314.27864220000083,318.99304790000133,,,,,,,,,,,,,,,,,,,,,,22,001,2024-08-01_13h11.24.718,robot_sternberg_sign,2022.2.5,60.05439727346326,
"['R_Torso_X_Back', 'L_Torso_Z_Back']",True,R_Torso_X_Back,2,robot,2,False,True,"['robot_stimuli\\R_Torso_X_Back.mp4', 'robot_stimuli\\L_Torso_Z_Back.mp4']",robot_stimuli\R_Torso_X_Back.mp4,22,0,0,0,0,0,11,11,11,,,,,,,,,,,,,,,,,,,,,323.01901350000117,323.01901350000117,None,,331.34991230000014,332.4390865000005,,,,332.4390865000005,332.4390865000005,332.4390865000005,c,3.5101657999985036,336.1190062000005,341.3631699000016,336.1190062000005,341.3631699000016,336.1190062000005,341.3631699000016,336.1190062000005,341.3631699000016,29.691358024691354,4.177953000000343,space,323.01901350000117,323.01901350000117,5.181493899997804,327.8455769000011,332.4390865000005,,,,,,,,,,,,,,,,,,,,,,22,001,2024-08-01_13h11.24.718,robot_sternberg_sign,2022.2.5,60.05439727346326,
"['R_Arm_Z_For', 'R_Base_X_For', 'R_Torso_Y_For', 'L_Base_Y_For']",False,L_Arm_Z_Back,4,robot,2,True,False,"['robot_stimuli\\R_Arm_Z_For.mp4', 'robot_stimuli\\R_Base_X_For.mp4', 'robot_stimuli\\R_Torso_Y_For.mp4', 'robot_stimuli\\L_Base_Y_For.mp4']",robot_stimuli\L_Arm_Z_Back.mp4,22,0,0,0,0,0,12,12,12,,,,,,,,,,,,,,,,,,,,,341.3631699000016,341.3631699000016,space,4.0022593999983656,361.08118840000134,362.1766196000008,,,,362.1766196000008,362.1766196000008,362.1766196000008,n,3.260729399999036,365.8192101000004,365.8192101000004,365.8192101000004,365.8192101000004,365.8192101000004,365.8192101000004,365.8192101000004,365.8192101000004,None,None,None,,,,357.53857300000163,362.1766196000008,,,,,,,,,,,,,,,,,,,,,,22,001,2024-08-01_13h11.24.718,robot_sternberg_sign,2022.2.5,60.05439727346326,
"['R_Head_X_Back', 'L_Head_Y_For', 'R_Torso_Y_For', 'R_Head_Z_Back']",True,L_Head_Y_For,4,robot,2,False,False,"['robot_stimuli\\R_Head_X_Back.mp4', 'robot_stimuli\\L_Head_Y_For.mp4', 'robot_stimuli\\R_Torso_Y_For.mp4', 'robot_stimuli\\R_Head_Z_Back.mp4']",robot_stimuli\L_Head_Y_For.mp4,22,0,0,0,0,0,13,13,13,,,,,,,,,,,,,,,,,,,,,365.8192101000004,365.8192101000004,None,,381.75033130000156,382.84124820000034,,,,382.84124820000034,382.84124820000034,382.84124820000034,c,3.5804572999986704,386.49148590000004,386.49148590000004,386.49148590000004,386.49148590000004,386.49148590000004,386.49148590000004,386.49148590000004,386.49148590000004,None,None,None,365.8192101000004,365.8192101000004,,378.10866760000135,382.84124820000034,,,,,,,,,,,,,,,,,,,,,,22,001,2024-08-01_13h11.24.718,robot_sternberg_sign,2022.2.5,60.05439727346326,
"['R_Arm_Y_For', 'R_Arm_Y_Back', 'L_Arm_X_For', 'R_Base_Z_For']",True,R_Arm_Y_For,4,robot,2,False,True,"['robot_stimuli\\R_Arm_Y_For.mp4', 'robot_stimuli\\R_Arm_Y_Back.mp4', 'robot_stimuli\\L_Arm_X_For.mp4', 'robot_stimuli\\R_Base_Z_For.mp4']",robot_stimuli\R_Arm_Y_For.mp4,22,0,0,0,0,0,14,14,14,,,,,,,,,,,,,,,,,,,,,386.49148590000004,386.49148590000004,None,,402.2584263000008,403.3371186000004,,,,403.3371186000004,403.3371186000004,403.3371186000004,c,3.044203399998878,406.86231020000014,411.80138160000024,406.86231020000014,411.80138160000024,406.86231020000014,411.80138160000024,406.86231020000014,411.80138160000024,37.40740740740741,3.7561736999996356,space,386.49148590000004,386.49148590000004,4.894271799999842,398.63667760000135,403.3371186000004,,,,,,,,,,,,,,,,,,,,,,22,001,2024-08-01_13h11.24.718,robot_sternberg_sign,2022.2.5,60.05439727346326,
"['R_Torso_Y_Back', 'R_Arm_Y_Back', 'L_Torso_X_For', 'L_Arm_Z_Back', 'R_Head_Y_For', 'R_Head_Y_Back']",True,R_Head_Y_Back,6,robot,2,True,False,"['robot_stimuli\\R_Torso_Y_Back.mp4', 'robot_stimuli\\R_Arm_Y_Back.mp4', 'robot_stimuli\\L_Torso_X_For.mp4', 'robot_stimuli\\L_Arm_Z_Back.mp4', 'robot_stimuli\\R_Head_Y_For.mp4', 'robot_stimuli\\R_Head_Y_Back.mp4']",robot_stimuli\R_Head_Y_Back.mp4,22,0,0,0,0,0,15,15,15,,,,,,,,,,,,,,,,,,,,,411.80138160000024,411.80138160000024,space,2.9960699999974167,438.1340267000014,439.2222709000016,,,,439.2222709000016,439.2222709000016,439.2222709000016,c,2.9184801999981573,442.87010230000124,442.87010230000124,442.87010230000124,442.87010230000124,442.87010230000124,442.87010230000124,442.87010230000124,442.87010230000124,None,None,None,,,,434.5021446999999,439.2222709000016,,,,,,,,,,,,,,,,,,,,,,22,001,2024-08-01_13h11.24.718,robot_sternberg_sign,2022.2.5,60.05439727346326,
"['L_Torso_Y_For', 'L_Base_Y_For', 'L_Arm_X_For', 'L_Head_X_For', 'R_Arm_Y_For', 'R_Torso_X_For']",True,L_Base_Y_For,6,robot,2,False,False,"['robot_stimuli\\L_Torso_Y_For.mp4', 'robot_stimuli\\L_Base_Y_For.mp4', 'robot_stimuli\\L_Arm_X_For.mp4', 'robot_stimuli\\L_Head_X_For.mp4', 'robot_stimuli\\R_Arm_Y_For.mp4', 'robot_stimuli\\R_Torso_X_For.mp4']",robot_stimuli\L_Base_Y_For.mp4,22,0,0,0,0,0,16,16,16,,,,,,,,,,,,,,,,,,,,,442.87010230000124,442.87010230000124,None,,465.9515033000007,467.03734760000043,,,,467.03734760000043,467.03734760000043,467.03734760000043,c,3.551673699997991,470.6218263999999,470.6218263999999,470.6218263999999,470.6218263999999,470.6218263999999,470.6218263999999,470.6218263999999,470.6218263999999,None,None,None,442.87010230000124,442.87010230000124,,462.31815520000055,467.03734760000043,,,,,,,,,,,,,,,,,,,,,,22,001,2024-08-01_13h11.24.718,robot_sternberg_sign,2022.2.5,60.05439727346326,
"['L_Torso_X_Back', 'R_Head_Z_For', 'L_Head_X_For', 'R_Torso_X_Back', 'L_Base_Y_Back', 'L_Torso_Z_Back']",False,L_Base_Y_For,6,robot,2,False,True,"['robot_stimuli\\L_Torso_X_Back.mp4', 'robot_stimuli\\R_Head_Z_For.mp4', 'robot_stimuli\\L_Head_X_For.mp4', 'robot_stimuli\\R_Torso_X_Back.mp4', 'robot_stimuli\\L_Base_Y_Back.mp4', 'robot_stimuli\\L_Torso_Z_Back.mp4']",robot_stimuli\L_Base_Y_For.mp4,22,0,0,0,0,0,17,17,17,,,,,,,,,,,,,,,,,,,,,470.6218263999999,470.6218263999999,None,,493.68272910000087,494.76809980000144,,,,494.76809980000144,494.76809980000144,494.76809980000144,c,3.88556189999872,498.7204986000015,504.0556452000001,498.7204986000015,504.0556452000001,498.7204986000015,504.0556452000001,498.7204986000015,504.0556452000001,59.783950617283956,4.083698000000368,space,470.6218263999999,470.6218263999999,5.269439699999566,490.18522610000036,494.76809980000144,,,,,,,,,,,,,,,,,,,,,,22,001,2024-08-01_13h11.24.718,robot_sternberg_sign,2022.2.5,60.05439727346326,
,,,,,,,,,,,0,0,0,0,,,,,,,,,,,,,,,,,,,,,,,,,,,,,,,,,,,,,,,,,,,,,,,,,,,,,,,504.0556452000001,504.0556452000001,504.0556452000001,c,18.093220499997187,,,,,,,,,,,,,,,,,22,001,2024-08-01_13h11.24.718,robot_sternberg_sign,2022.2.5,60.05439727346326,
"['S', 'Z', 'W', 'Q']",True,W,4,letter,1,True,False,"['robot_stimuli\\\\filler.mp4', 'robot_stimuli\\\\filler.mp4', 'robot_stimuli\\\\filler.mp4', 'robot_stimuli\\\\filler.mp4']",robot_stimuli\\filler.mp4,22,,,,,,,,,,,,,0,0,0,0,,,,,,,,,,,,,,,,,536.1539451000008,537.2384857000015,,,,,,,,,540.2452401999999,540.2452401999999,540.2452401999999,540.2452401999999,540.2452401999999,540.2452401999999,540.2452401999999,540.2452401999999,None,None,None,,,,,,,,,,,522.1907748000012,522.1907748000012,space,4.015393399997265,534.1340147999999,536.1539451000008,537.2384857000015,537.2384857000015,537.2384857000015,537.2384857000015,c,2.775121199998466,,,,,22,001,2024-08-01_13h11.24.718,robot_sternberg_sign,2022.2.5,60.05439727346326,
"['J', 'R', 'C', 'T']",False,S,4,letter,1,False,False,"['robot_stimuli\\\\filler.mp4', 'robot_stimuli\\\\filler.mp4', 'robot_stimuli\\\\filler.mp4', 'robot_stimuli\\\\filler.mp4']",robot_stimuli\\filler.mp4,22,,,,,,,,,,,,,0,1,1,1,,,,,,,,,,,,,,,,,550.3945085000014,,,,,,,,,,553.0906179000012,553.0906179000012,553.0906179000012,553.0906179000012,553.0906179000012,553.0906179000012,553.0906179000012,553.0906179000012,None,None,None,,,,,,,,,,,540.2452401999999,540.2452401999999,None,,548.1841780000013,550.3945085000014,551.4654472000002,551.4654472000002,551.4654472000002,551.4654472000002,n,1.4682910999981686,540.2452401999999,540.2452401999999,,,22,001,2024-08-01_13h11.24.718,robot_sternberg_sign,2022.2.5,60.05439727346326,
"['K', 'R', 'B', 'Q']",True,B,4,letter,1,False,False,"['robot_stimuli\\\\filler.mp4', 'robot_stimuli\\\\filler.mp4', 'robot_stimuli\\\\filler.mp4', 'robot_stimuli\\\\filler.mp4']",robot_stimuli\\filler.mp4,22,,,,,,,,,,,,,0,2,2,2,,,,,,,,,,,,,,,,,562.8244093000012,563.8844478999999,,,,,,,,,565.1039555000007,565.1039555000007,565.1039555000007,565.1039555000007,565.1039555000007,565.1039555000007,565.1039555000007,565.1039555000007,None,None,None,,,,,,,,,,,553.0906179000012,553.0906179000012,None,,560.6121920000005,562.8244093000012,563.8844478999999,563.8844478999999,563.8844478999999,563.8844478999999,c,1.1378920999995898,553.0906179000012,553.0906179000012,,,22,001,2024-08-01_13h11.24.718,robot_sternberg_sign,2022.2.5,60.05439727346326,
"['G', 'S', 'R', 'L']",False,K,4,letter,1,False,False,"['robot_stimuli\\\\filler.mp4', 'robot_stimuli\\\\filler.mp4', 'robot_stimuli\\\\filler.mp4', 'robot_stimuli\\\\filler.mp4']",robot_stimuli\\filler.mp4,22,,,,,,,,,,,,,0,3,3,3,,,,,,,,,,,,,,,,,574.8428429000014,575.8976881000017,,,,,,,,,577.5206555000004,577.5206555000004,577.5206555000004,577.5206555000004,577.5206555000004,577.5206555000004,577.5206555000004,577.5206555000004,None,None,None,,,,,,,,,,,565.1039555000007,565.1039555000007,None,,572.6331064000005,574.8428429000014,575.8976881000017,575.8976881000017,575.8976881000017,575.8976881000017,n,1.5158354999985022,565.1039555000007,565.1039555000007,,,22,001,2024-08-01_13h11.24.718,robot_sternberg_sign,2022.2.5,60.05439727346326,
"['N', 'P', 'X', 'V']",False,S,4,letter,1,False,False,"['robot_stimuli\\\\filler.mp4', 'robot_stimuli\\\\filler.mp4', 'robot_stimuli\\\\filler.mp4', 'robot_stimuli\\\\filler.mp4']",robot_stimuli\\filler.mp4,22,,,,,,,,,,,,,0,4,4,4,,,,,,,,,,,,,,,,,587.254347600001,588.3132583000006,,,,,,,,,589.9432750000014,589.9432750000014,589.9432750000014,589.9432750000014,589.9432750000014,589.9432750000014,589.9432750000014,589.9432750000014,None,None,None,,,,,,,,,,,577.5206555000004,577.5206555000004,None,,585.2371747000016,587.254347600001,588.3132583000006,588.3132583000006,588.3132583000006,588.3132583000006,n,1.5717273999980534,577.5206555000004,577.5206555000004,,,22,001,2024-08-01_13h11.24.718,robot_sternberg_sign,2022.2.5,60.05439727346326,
"['C', 'B', 'F', 'L']",True,F,4,letter,1,False,False,"['robot_stimuli\\\\filler.mp4', 'robot_stimuli\\\\filler.mp4', 'robot_stimuli\\\\filler.mp4', 'robot_stimuli\\\\filler.mp4']",robot_stimuli\\filler.mp4,22,,,,,,,,,,,,,0,5,5,5,,,,,,,,,,,,,,,,,599.6988511,600.7715327000005,,,,,,,,,602.3952523000007,602.3952523000007,602.3952523000007,602.3952523000007,602.3952523000007,602.3952523000007,602.3952523000007,602.3952523000007,None,None,None,,,,,,,,,,,589.9432750000014,589.9432750000014,None,,597.684743400001,599.6988511,600.7715327000005,600.7715327000005,600.7715327000005,600.7715327000005,c,1.4264224999969883,589.9432750000014,589.9432750000014,,,22,001,2024-08-01_13h11.24.718,robot_sternberg_sign,2022.2.5,60.05439727346326,
"['K', 'J', 'F', 'G']",True,G,4,letter,1,False,False,"['robot_stimuli\\\\filler.mp4', 'robot_stimuli\\\\filler.mp4', 'robot_stimuli\\\\filler.mp4', 'robot_stimuli\\\\filler.mp4']",robot_stimuli\\filler.mp4,22,,,,,,,,,,,,,0,6,6,6,,,,,,,,,,,,,,,,,612.370006000001,613.4325073,,,,,,,,,615.2577938000013,615.2577938000013,615.2577938000013,615.2577938000013,615.2577938000013,615.2577938000013,615.2577938000013,615.2577938000013,None,None,None,,,,,,,,,,,602.3952523000007,602.3952523000007,None,,610.1601052000005,612.370006000001,613.4325073,613.4325073,613.4325073,613.4325073,c,1.7808156999981293,602.3952523000007,602.3952523000007,,,22,001,2024-08-01_13h11.24.718,robot_sternberg_sign,2022.2.5,60.05439727346326,
"['Q', 'P', 'K', 'F']",False,W,4,letter,1,False,False,"['robot_stimuli\\\\filler.mp4', 'robot_stimuli\\\\filler.mp4', 'robot_stimuli\\\\filler.mp4', 'robot_stimuli\\\\filler.mp4']",robot_stimuli\\filler.mp4,22,,,,,,,,,,,,,0,7,7,7,,,,,,,,,,,,,,,,,625.1855653000002,626.2457738000012,,,,,,,,,628.6721885000006,628.6721885000006,628.6721885000006,628.6721885000006,628.6721885000006,628.6721885000006,628.6721885000006,628.6721885000006,None,None,None,,,,,,,,,,,615.2577938000013,615.2577938000013,None,,623.171354600001,625.1855653000002,626.2457738000012,626.2457738000012,626.2457738000012,626.2457738000012,n,2.1831782999979623,615.2577938000013,615.2577938000013,,,22,001,2024-08-01_13h11.24.718,robot_sternberg_sign,2022.2.5,60.05439727346326,
"['F', 'X', 'D', 'S']",True,X,4,letter,1,False,False,"['robot_stimuli\\\\filler.mp4', 'robot_stimuli\\\\filler.mp4', 'robot_stimuli\\\\filler.mp4', 'robot_stimuli\\\\filler.mp4']",robot_stimuli\\filler.mp4,22,,,,,,,,,,,,,0,8,8,8,,,,,,,,,,,,,,,,,638.4047819000007,639.4655516000003,,,,,,,,,641.296664200001,641.296664200001,641.296664200001,641.296664200001,641.296664200001,641.296664200001,641.296664200001,641.296664200001,None,None,None,,,,,,,,,,,628.6721885000006,628.6721885000006,None,,636.3917084000004,638.4047819000007,639.4655516000003,639.4655516000003,639.4655516000003,639.4655516000003,c,1.7231884999982867,628.6721885000006,628.6721885000006,,,22,001,2024-08-01_13h11.24.718,robot_sternberg_sign,2022.2.5,60.05439727346326,
"['S', 'W', 'J', 'X']",False,N,4,letter,1,False,True,"['robot_stimuli\\\\filler.mp4', 'robot_stimuli\\\\filler.mp4', 'robot_stimuli\\\\filler.mp4', 'robot_stimuli\\\\filler.mp4']",robot_stimuli\\filler.mp4,22,,,,,,,,,,,,,0,9,9,9,,,,,,,,,,,,,,,,,650.8380202000008,651.896259000001,,,,,,,,,654.1510782000005,659.5984184000008,654.1510782000005,659.5984184000008,654.1510782000005,659.5984184000008,654.1510782000005,659.5984184000008,40.03086419753087,3.730434699999023,space,,,5.3896071999988635,,,,,,,,641.296664200001,641.296664200001,None,,648.8262840000007,650.8380202000008,651.896259000001,651.896259000001,651.896259000001,651.896259000001,n,2.0680838999978732,641.296664200001,641.296664200001,,,22,001,2024-08-01_13h11.24.718,robot_sternberg_sign,2022.2.5,60.05439727346326,
"['W', 'X']",False,C,2,letter,1,True,False,"['robot_stimuli\\\\filler.mp4', 'robot_stimuli\\\\filler.mp4']",robot_stimuli\\filler.mp4,22,,,,,,,,,,,,,0,10,10,10,,,,,,,,,,,,,,,,,667.6916099000009,668.7463236000003,,,,,,,,,669.9725158000001,669.9725158000001,669.9725158000001,669.9725158000001,669.9725158000001,669.9725158000001,669.9725158000001,669.9725158000001,None,None,None,,,,,,,,,,,659.5984184000008,659.5984184000008,space,2.495308199999272,665.4782342000017,667.6916099000009,668.7463236000003,668.7463236000003,668.7463236000003,668.7463236000003,n,1.0511961999982304,,,,,22,001,2024-08-01_13h11.24.718,robot_sternberg_sign,2022.2.5,60.05439727346326,
"['D', 'H']",True,H,2,letter,1,False,False,"['robot_stimuli\\\\filler.mp4', 'robot_stimuli\\\\filler.mp4']",robot_stimuli\\filler.mp4,22,,,,,,,,,,,,,0,11,11,11,,,,,,,,,,,,,,,,,675.5307674000014,676.5963621999999,,,,,,,,,677.8234929000009,677.8234929000009,677.8234929000009,677.8234929000009,677.8234929000009,677.8234929000009,677.8234929000009,677.8234929000009,None,None,None,,,,,,,,,,,669.9725158000001,669.9725158000001,None,,673.3166022000005,675.5307674000014,676.5963621999999,676.5963621999999,676.5963621999999,676.5963621999999,c,1.0327748999989126,669.9725158000001,669.9725158000001,,,22,001,2024-08-01_13h11.24.718,robot_sternberg_sign,2022.2.5,60.05439727346326,
"['N', 'W']",True,N,2,letter,1,False,False,"['robot_stimuli\\\\filler.mp4', 'robot_stimuli\\\\filler.mp4']",robot_stimuli\\filler.mp4,22,,,,,,,,,,,,,0,12,12,12,,,,,,,,,,,,,,,,,683.4017457000009,684.4641937000015,,,,,,,,,685.4843189000003,685.4843189000003,685.4843189000003,685.4843189000003,685.4843189000003,685.4843189000003,685.4843189000003,685.4843189000003,None,None,None,,,,,,,,,,,677.8234929000009,677.8234929000009,None,,681.179680700001,683.4017457000009,684.4641937000015,684.4641937000015,684.4641937000015,684.4641937000015,c,0.8694639999976062,677.8234929000009,677.8234929000009,,,22,001,2024-08-01_13h11.24.718,robot_sternberg_sign,2022.2.5,60.05439727346326,
"['D', 'V']",True,V,2,letter,1,False,False,"['robot_stimuli\\\\filler.mp4', 'robot_stimuli\\\\filler.mp4']",robot_stimuli\\filler.mp4,22,,,,,,,,,,,,,0,13,13,13,,,,,,,,,,,,,,,,,691.0586145000016,692.1115450000016,,,,,,,,,693.5363905000013,693.5363905000013,693.5363905000013,693.5363905000013,693.5363905000013,693.5363905000013,693.5363905000013,693.5363905000013,None,None,None,,,,,,,,,,,685.4843189000003,685.4843189000003,None,,688.8475142000007,691.0586145000016,692.1115450000016,692.1115450000016,692.1115450000016,692.1115450000016,c,1.3735533999988547,685.4843189000003,685.4843189000003,,,22,001,2024-08-01_13h11.24.718,robot_sternberg_sign,2022.2.5,60.05439727346326,
"['M', 'B']",False,G,2,letter,1,False,False,"['robot_stimuli\\\\filler.mp4', 'robot_stimuli\\\\filler.mp4']",robot_stimuli\\filler.mp4,22,,,,,,,,,,,,,0,14,14,14,,,,,,,,,,,,,,,,,699.1131549000002,700.1793565000007,,,,,,,,,701.3998089000015,701.3998089000015,701.3998089000015,701.3998089000015,701.3998089000015,701.3998089000015,701.3998089000015,701.3998089000015,None,None,None,,,,,,,,,,,693.5363905000013,693.5363905000013,None,,696.8961956000003,699.1131549000002,700.1793565000007,700.1793565000007,700.1793565000007,700.1793565000007,n,1.002157899998565,693.5363905000013,693.5363905000013,,,22,001,2024-08-01_13h11.24.718,robot_sternberg_sign,2022.2.5,60.05439727346326,
"['P', 'X']",True,X,2,letter,1,False,False,"['robot_stimuli\\\\filler.mp4', 'robot_stimuli\\\\filler.mp4']",robot_stimuli\\filler.mp4,22,,,,,,,,,,,,,0,15,15,15,,,,,,,,,,,,,,,,,706.9649153000009,708.0300899000013,,,,,,,,,709.0574359000002,709.0574359000002,709.0574359000002,709.0574359000002,709.0574359000002,709.0574359000002,709.0574359000002,709.0574359000002,None,None,None,,,,,,,,,,,701.3998089000015,701.3998089000015,None,,704.7467118000004,706.9649153000009,708.0300899000013,708.0300899000013,708.0300899000013,708.0300899000013,c,0.8477102999986528,701.3998089000015,701.3998089000015,,,22,001,2024-08-01_13h11.24.718,robot_sternberg_sign,2022.2.5,60.05439727346326,
"['H', 'R']",False,K,2,letter,1,False,False,"['robot_stimuli\\\\filler.mp4', 'robot_stimuli\\\\filler.mp4']",robot_stimuli\\filler.mp4,22,,,,,,,,,,,,,0,16,16,16,,,,,,,,,,,,,,,,,714.6132128000008,715.6803180000006,,,,,,,,,716.7071033000011,716.7071033000011,716.7071033000011,716.7071033000011,716.7071033000011,716.7071033000011,716.7071033000011,716.7071033000011,None,None,None,,,,,,,,,,,709.0574359000002,709.0574359000002,None,,712.3999209000012,714.6132128000008,715.6803180000006,715.6803180000006,715.6803180000006,715.6803180000006,n,0.9738715999992564,709.0574359000002,709.0574359000002,,,22,001,2024-08-01_13h11.24.718,robot_sternberg_sign,2022.2.5,60.05439727346326,
"['K', 'L']",False,H,2,letter,1,False,False,"['robot_stimuli\\\\filler.mp4', 'robot_stimuli\\\\filler.mp4']",robot_stimuli\\filler.mp4,22,,,,,,,,,,,,,0,17,17,17,,,,,,,,,,,,,,,,,722.0819030000002,723.1477306000015,,,,,,,,,724.3685298,724.3685298,724.3685298,724.3685298,724.3685298,724.3685298,724.3685298,724.3685298,None,None,None,,,,,,,,,,,716.7071033000011,716.7071033000011,None,,719.8609673999999,722.0819030000002,723.1477306000015,723.1477306000015,723.1477306000015,723.1477306000015,n,1.0502609999984998,716.7071033000011,716.7071033000011,,,22,001,2024-08-01_13h11.24.718,robot_sternberg_sign,2022.2.5,60.05439727346326,
"['K', 'J']",False,H,2,letter,1,False,False,"['robot_stimuli\\\\filler.mp4', 'robot_stimuli\\\\filler.mp4']",robot_stimuli\\filler.mp4,22,,,,,,,,,,,,,0,18,18,18,,,,,,,,,,,,,,,,,729.9461859000003,731.012024900001,,,,,,,,,733.6466246,733.6466246,733.6466246,733.6466246,733.6466246,733.6466246,733.6466246,733.6466246,None,None,None,,,,,,,,,,,724.3685298,724.3685298,None,,727.7288427000003,729.9461859000003,731.012024900001,731.012024900001,731.012024900001,731.012024900001,n,2.538238099998125,724.3685298,724.3685298,,,22,001,2024-08-01_13h11.24.718,robot_sternberg_sign,2022.2.5,60.05439727346326,
"['R', 'H']",True,R,2,letter,1,False,True,"['robot_stimuli\\\\filler.mp4', 'robot_stimuli\\\\filler.mp4']",robot_stimuli\\filler.mp4,22,,,,,,,,,,,,,0,19,19,19,,,,,,,,,,,,,,,,,739.2095984000007,740.2642500000002,,,,,,,,,741.3167192000001,748.0707906000007,741.3167192000001,748.0707906000007,741.3167192000001,748.0707906000007,741.3167192000001,748.0707906000007,28.14814814814814,5.5062452999991365,space,,,6.695967099996778,,,,,,,,733.6466246,733.6466246,None,,737.0086253000009,739.2095984000007,740.2642500000002,740.2642500000002,740.2642500000002,740.2642500000002,c,0.9012319999983447,733.6466246,733.6466246,,,22,001,2024-08-01_13h11.24.718,robot_sternberg_sign,2022.2.5,60.05439727346326,
"['C', 'H', 'W', 'K', 'N', 'B']",True,B,6,letter,1,True,False,"['robot_stimuli\\\\filler.mp4', 'robot_stimuli\\\\filler.mp4', 'robot_stimuli\\\\filler.mp4', 'robot_stimuli\\\\filler.mp4', 'robot_stimuli\\\\filler.mp4', 'robot_stimuli\\\\filler.mp4']",robot_stimuli\\filler.mp4,22,,,,,,,,,,,,,0,20,20,20,,,,,,,,,,,,,,,,,769.0657910000009,770.1300525000006,,,,,,,,,771.7629637000009,771.7629637000009,771.7629637000009,771.7629637000009,771.7629637000009,771.7629637000009,771.7629637000009,771.7629637000009,None,None,None,,,,,,,,,,,748.0707906000007,748.0707906000007,space,6.262663399998928,766.8473127000016,769.0657910000009,770.1300525000006,770.1300525000006,770.1300525000006,770.1300525000006,c,1.4041445999973803,,,,,22,001,2024-08-01_13h11.24.718,robot_sternberg_sign,2022.2.5,60.05439727346326,
"['B', 'M', 'S', 'N', 'G', 'R']",True,N,6,letter,1,False,False,"['robot_stimuli\\\\filler.mp4', 'robot_stimuli\\\\filler.mp4', 'robot_stimuli\\\\filler.mp4', 'robot_stimuli\\\\filler.mp4', 'robot_stimuli\\\\filler.mp4', 'robot_stimuli\\\\filler.mp4']",robot_stimuli\\filler.mp4,22,,,,,,,,,,,,,0,21,21,21,,,,,,,,,,,,,,,,,785.6983711000012,786.7631971999999,,,,,,,,,788.1919467000007,788.1919467000007,788.1919467000007,788.1919467000007,788.1919467000007,788.1919467000007,788.1919467000007,788.1919467000007,None,None,None,,,,,,,,,,,771.7629637000009,771.7629637000009,None,,783.4815611000013,785.6983711000012,786.7631971999999,786.7631971999999,786.7631971999999,786.7631971999999,c,1.3141867999984242,771.7629637000009,771.7629637000009,,,22,001,2024-08-01_13h11.24.718,robot_sternberg_sign,2022.2.5,60.05439727346326,
"['S', 'Z', 'D', 'M', 'G', 'R']",True,G,6,letter,1,False,False,"['robot_stimuli\\\\filler.mp4', 'robot_stimuli\\\\filler.mp4', 'robot_stimuli\\\\filler.mp4', 'robot_stimuli\\\\filler.mp4', 'robot_stimuli\\\\filler.mp4', 'robot_stimuli\\\\filler.mp4']",robot_stimuli\\filler.mp4,22,,,,,,,,,,,,,0,22,22,22,,,,,,,,,,,,,,,,,802.5130660000013,803.5800252000008,,,,,,,,,806.0104947,806.0104947,806.0104947,806.0104947,806.0104947,806.0104947,806.0104947,806.0104947,None,None,None,,,,,,,,,,,788.1919467000007,788.1919467000007,None,,800.298369600001,802.5130660000013,803.5800252000008,803.5800252000008,803.5800252000008,803.5800252000008,c,2.378333199998451,788.1919467000007,788.1919467000007,,,22,001,2024-08-01_13h11.24.718,robot_sternberg_sign,2022.2.5,60.05439727346326,
"['X', 'C', 'H', 'V', 'L', 'G']",False,Z,6,letter,1,False,False,"['robot_stimuli\\\\filler.mp4', 'robot_stimuli\\\\filler.mp4', 'robot_stimuli\\\\filler.mp4', 'robot_stimuli\\\\filler.mp4', 'robot_stimuli\\\\filler.mp4', 'robot_stimuli\\\\filler.mp4']",robot_stimuli\\filler.mp4,22,,,,,,,,,,,,,0,23,23,23,,,,,,,,,,,,,,,,,819.9347377000013,821.0069768000012,,,,,,,,,822.6280144000011,822.6280144000011,822.6280144000011,822.6280144000011,822.6280144000011,822.6280144000011,822.6280144000011,822.6280144000011,None,None,None,,,,,,,,,,,806.0104947,806.0104947,None,,817.9184344000005,819.9347377000013,821.0069768000012,821.0069768000012,821.0069768000012,821.0069768000012,n,1.422176899997794,806.0104947,806.0104947,,,22,001,2024-08-01_13h11.24.718,robot_sternberg_sign,2022.2.5,60.05439727346326,
"['R', 'Z', 'C', 'W', 'P', 'B']",False,D,6,letter,1,False,False,"['robot_stimuli\\\\filler.mp4', 'robot_stimuli\\\\filler.mp4', 'robot_stimuli\\\\filler.mp4', 'robot_stimuli\\\\filler.mp4', 'robot_stimuli\\\\filler.mp4', 'robot_stimuli\\\\filler.mp4']",robot_stimuli\\filler.mp4,22,,,,,,,,,,,,,0,24,24,24,,,,,,,,,,,,,,,,,836.5418573000006,837.5970961000003,,,,,,,,,839.2207638,839.2207638,839.2207638,839.2207638,839.2207638,839.2207638,839.2207638,839.2207638,None,None,None,,,,,,,,,,,822.6280144000011,822.6280144000011,None,,834.5204579000001,836.5418573000006,837.5970961000003,837.5970961000003,837.5970961000003,837.5970961000003,n,1.4964471999974194,822.6280144000011,822.6280144000011,,,22,001,2024-08-01_13h11.24.718,robot_sternberg_sign,2022.2.5,60.05439727346326,
"['V', 'M', 'P', 'T', 'F', 'Q']",True,M,6,letter,1,False,False,"['robot_stimuli\\\\filler.mp4', 'robot_stimuli\\\\filler.mp4', 'robot_stimuli\\\\filler.mp4', 'robot_stimuli\\\\filler.mp4', 'robot_stimuli\\\\filler.mp4', 'robot_stimuli\\\\filler.mp4']",robot_stimuli\\filler.mp4,22,,,,,,,,,,,,,0,25,25,25,,,,,,,,,,,,,,,,,853.1339126000003,854.2002396000007,,,,,,,,,858.8354837000006,858.8354837000006,858.8354837000006,858.8354837000006,858.8354837000006,858.8354837000006,858.8354837000006,858.8354837000006,None,None,None,,,,,,,,,,,839.2207638,839.2207638,None,,851.1239269000016,853.1339126000003,854.2002396000007,854.2002396000007,854.2002396000007,854.2002396000007,c,4.437270999998873,839.2207638,839.2207638,,,22,001,2024-08-01_13h11.24.718,robot_sternberg_sign,2022.2.5,60.05439727346326,
"['Q', 'S', 'R', 'J', 'D', 'Z']",True,Z,6,letter,1,False,False,"['robot_stimuli\\\\filler.mp4', 'robot_stimuli\\\\filler.mp4', 'robot_stimuli\\\\filler.mp4', 'robot_stimuli\\\\filler.mp4', 'robot_stimuli\\\\filler.mp4', 'robot_stimuli\\\\filler.mp4']",robot_stimuli\\filler.mp4,22,,,,,,,,,,,,,0,26,26,26,,,,,,,,,,,,,,,,,872.3424375000013,873.3964320000014,,,,,,,,,875.6241535000008,875.6241535000008,875.6241535000008,875.6241535000008,875.6241535000008,875.6241535000008,875.6241535000008,875.6241535000008,None,None,None,,,,,,,,,,,858.8354837000006,858.8354837000006,None,,870.3270027000017,872.3424375000013,873.3964320000014,873.3964320000014,873.3964320000014,873.3964320000014,c,2.0648005999992165,858.8354837000006,858.8354837000006,,,22,001,2024-08-01_13h11.24.718,robot_sternberg_sign,2022.2.5,60.05439727346326,
"['M', 'Q', 'K', 'B', 'C', 'V']",False,S,6,letter,1,False,False,"['robot_stimuli\\\\filler.mp4', 'robot_stimuli\\\\filler.mp4', 'robot_stimuli\\\\filler.mp4', 'robot_stimuli\\\\filler.mp4', 'robot_stimuli\\\\filler.mp4', 'robot_stimuli\\\\filler.mp4']",robot_stimuli\\filler.mp4,22,,,,,,,,,,,,,0,27,27,27,,,,,,,,,,,,,,,,,889.7578723000006,890.8132847000015,,,,,,,,,893.0468474000008,893.0468474000008,893.0468474000008,893.0468474000008,893.0468474000008,893.0468474000008,893.0468474000008,893.0468474000008,None,None,None,,,,,,,,,,,875.6241535000008,875.6241535000008,None,,887.5528094000001,889.7578723000006,890.8132847000015,890.8132847000015,890.8132847000015,890.8132847000015,n,2.04048789999797,875.6241535000008,875.6241535000008,,,22,001,2024-08-01_13h11.24.718,robot_sternberg_sign,2022.2.5,60.05439727346326,
"['L', 'K', 'S', 'F', 'X', 'B']",False,G,6,letter,1,False,False,"['robot_stimuli\\\\filler.mp4', 'robot_stimuli\\\\filler.mp4', 'robot_stimuli\\\\filler.mp4', 'robot_stimuli\\\\filler.mp4', 'robot_stimuli\\\\filler.mp4', 'robot_stimuli\\\\filler.mp4']",robot_stimuli\\filler.mp4,22,,,,,,,,,,,,,0,28,28,28,,,,,,,,,,,,,,,,,907.3935926000013,908.4521166000013,,,,,,,,,912.2823797000001,912.2823797000001,912.2823797000001,912.2823797000001,912.2823797000001,912.2823797000001,912.2823797000001,912.2823797000001,None,None,None,,,,,,,,,,,893.0468474000008,893.0468474000008,None,,905.1790115000003,907.3935926000013,908.4521166000013,908.4521166000013,908.4521166000013,908.4521166000013,n,3.6823373999977775,893.0468474000008,893.0468474000008,,,22,001,2024-08-01_13h11.24.718,robot_sternberg_sign,2022.2.5,60.05439727346326,
"['J', 'C', 'V', 'L', 'B', 'Z']",False,F,6,letter,1,False,True,"['robot_stimuli\\\\filler.mp4', 'robot_stimuli\\\\filler.mp4', 'robot_stimuli\\\\filler.mp4', 'robot_stimuli\\\\filler.mp4', 'robot_stimuli\\\\filler.mp4', 'robot_stimuli\\\\filler.mp4']",robot_stimuli\\filler.mp4,22,,,,,,,,,,,,,0,29,29,29,,,,,,,,,,,,,,,,,926.5995841000004,927.6678938000005,,,,,,,,,930.5291484000008,940.2058640000014,930.5291484000008,940.2058640000014,930.5291484000008,940.2058640000014,930.5291484000008,940.2058640000014,70.4320987654321,9.404028499999185,space,,,9.61196899999777,,,,,,,,912.2823797000001,912.2823797000001,None,,924.383843900001,926.5995841000004,927.6678938000005,927.6678938000005,927.6678938000005,927.6678938000005,c,2.6097468999978446,912.2823797000001,912.2823797000001,,,22,001,2024-08-01_13h11.24.718,robot_sternberg_sign,2022.2.5,60.05439727346326,
"['L_Head_X_Back', 'R_Head_Z_For', 'R_Torso_Y_For', 'L_Torso_X_Back', 'R_Arm_Z_Back', 'R_Base_Z_Back']",True,R_Torso_Y_For,6,robot,2,True,False,"['robot_stimuli\\L_Head_X_Back.mp4', 'robot_stimuli\\R_Head_Z_For.mp4', 'robot_stimuli\\R_Torso_Y_For.mp4', 'robot_stimuli\\L_Torso_X_Back.mp4', 'robot_stimuli\\R_Arm_Z_Back.mp4', 'robot_stimuli\\R_Base_Z_Back.mp4']",robot_stimuli\R_Torso_Y_For.mp4,22,,,,,,,,,,,,,0,30,30,30,,,,,,,,,,,,,,,,,967.9336668000014,969.0379740000008,,,,,,,,,973.2182741000015,973.2182741000015,973.2182741000015,973.2182741000015,973.2182741000015,973.2182741000015,973.2182741000015,973.2182741000015,None,None,None,,,,,,,,,,,940.2058640000014,940.2058640000014,space,4.448116799996569,,,,969.0379740000008,969.0379740000008,969.0379740000008,c,4.143375399999059,,,964.3882269000005,969.0379740000008,22,001,2024-08-01_13h11.24.718,robot_sternberg_sign,2022.2.5,60.05439727346326,
"['L_Torso_Z_Back', 'L_Torso_Y_For', 'R_Base_X_Back', 'L_Arm_Y_Back', 'L_Torso_X_Back', 'L_Arm_Z_For']",False,L_Head_Y_For,6,robot,2,False,False,"['robot_stimuli\\L_Torso_Z_Back.mp4', 'robot_stimuli\\L_Torso_Y_For.mp4', 'robot_stimuli\\R_Base_X_Back.mp4', 'robot_stimuli\\L_Arm_Y_Back.mp4', 'robot_stimuli\\L_Torso_X_Back.mp4', 'robot_stimuli\\L_Arm_Z_For.mp4']",robot_stimuli\L_Head_Y_For.mp4,22,,,,,,,,,,,,,0,31,31,31,,,,,,,,,,,,,,,,,996.4852974000005,997.5729027000016,,,,,,,,,1001.2223418000012,1001.2223418000012,1001.2223418000012,1001.2223418000012,1001.2223418000012,1001.2223418000012,1001.2223418000012,1001.2223418000012,None,None,None,,,,,,,,,,,973.2182741000015,973.2182741000015,None,,,,,997.5729027000016,997.5729027000016,997.5729027000016,n,2.616405599997961,973.2182741000015,973.2182741000015,992.8538075000015,997.5729027000016,22,001,2024-08-01_13h11.24.718,robot_sternberg_sign,2022.2.5,60.05439727346326,
"['R_Head_Y_Back', 'R_Arm_Z_For', 'R_Arm_Y_Back', 'L_Head_Y_For', 'L_Base_X_For', 'R_Torso_X_For']",True,L_Head_Y_For,6,robot,2,False,False,"['robot_stimuli\\R_Head_Y_Back.mp4', 'robot_stimuli\\R_Arm_Z_For.mp4', 'robot_stimuli\\R_Arm_Y_Back.mp4', 'robot_stimuli\\L_Head_Y_For.mp4', 'robot_stimuli\\L_Base_X_For.mp4', 'robot_stimuli\\R_Torso_X_For.mp4']",robot_stimuli\L_Head_Y_For.mp4,22,,,,,,,,,,,,,0,32,32,32,,,,,,,,,,,,,,,,,1024.4500738000006,1025.5360583000001,,,,,,,,,1029.1752669000016,1029.1752669000016,1029.1752669000016,1029.1752669000016,1029.1752669000016,1029.1752669000016,1029.1752669000016,1029.1752669000016,None,None,None,,,,,,,,,,,1001.2223418000012,1001.2223418000012,None,,,,,1025.5360583000001,1025.5360583000001,1025.5360583000001,c,2.7492686999976286,1001.2223418000012,1001.2223418000012,1020.8183331,1025.5360583000001,22,001,2024-08-01_13h11.24.718,robot_sternberg_sign,2022.2.5,60.05439727346326,
"['R_Base_Y_Back', 'L_Head_Z_Back', 'R_Arm_X_Back', 'L_Base_Z_For', 'L_Torso_Z_Back', 'L_Torso_Z_For']",True,L_Torso_Z_For,6,robot,2,False,False,"['robot_stimuli\\R_Base_Y_Back.mp4', 'robot_stimuli\\L_Head_Z_Back.mp4', 'robot_stimuli\\R_Arm_X_Back.mp4', 'robot_stimuli\\L_Base_Z_For.mp4', 'robot_stimuli\\L_Torso_Z_Back.mp4', 'robot_stimuli\\L_Torso_Z_For.mp4']",robot_stimuli\L_Torso_Z_For.mp4,22,,,,,,,,,,,,,0,33,33,33,,,,,,,,,,,,,,,,,1052.3822324000012,1053.4711984000005,,,,,,,,,1057.1103649000015,1057.1103649000015,1057.1103649000015,1057.1103649000015,1057.1103649000015,1057.1103649000015,1057.1103649000015,1057.1103649000015,None,None,None,,,,,,,,,,,1029.1752669000016,1029.1752669000016,None,,,,,1053.4711984000005,1053.4711984000005,1053.4711984000005,c,2.741651099999217,1029.1752669000016,1029.1752669000016,1048.7379300000011,1053.4711984000005,22,001,2024-08-01_13h11.24.718,robot_sternberg_sign,2022.2.5,60.05439727346326,
"['R_Arm_Z_Back', 'R_Base_Z_Back', 'R_Head_Z_Back', 'R_Base_X_For', 'R_Torso_Z_Back', 'L_Torso_Z_Back']",True,R_Head_Z_Back,6,robot,2,False,False,"['robot_stimuli\\R_Arm_Z_Back.mp4', 'robot_stimuli\\R_Base_Z_Back.mp4', 'robot_stimuli\\R_Head_Z_Back.mp4', 'robot_stimuli\\R_Base_X_For.mp4', 'robot_stimuli\\R_Torso_Z_Back.mp4', 'robot_stimuli\\L_Torso_Z_Back.mp4']",robot_stimuli\R_Head_Z_Back.mp4,22,,,,,,,,,,,,,0,34,34,34,,,,,,,,,,,,,,,,,1080.1323307000002,1081.2200251000013,,,,,,,,,1084.8608716000017,1084.8608716000017,1084.8608716000017,1084.8608716000017,1084.8608716000017,1084.8608716000017,1084.8608716000017,1084.8608716000017,None,None,None,,,,,,,,,,,1057.1103649000015,1057.1103649000015,None,,,,,1081.2200251000013,1081.2200251000013,1081.2200251000013,c,3.545119899998099,1057.1103649000015,1057.1103649000015,1076.6234631000007,1081.2200251000013,22,001,2024-08-01_13h11.24.718,robot_sternberg_sign,2022.2.5,60.05439727346326,
"['L_Head_Z_Back', 'R_Torso_Z_For', 'L_Base_Z_Back', 'L_Arm_Z_Back', 'L_Torso_Z_Back', 'L_Torso_Y_For']",False,R_Base_X_For,6,robot,2,False,False,"['robot_stimuli\\L_Head_Z_Back.mp4', 'robot_stimuli\\R_Torso_Z_For.mp4', 'robot_stimuli\\L_Base_Z_Back.mp4', 'robot_stimuli\\L_Arm_Z_Back.mp4', 'robot_stimuli\\L_Torso_Z_Back.mp4', 'robot_stimuli\\L_Torso_Y_For.mp4']",robot_stimuli\R_Base_X_For.mp4,22,,,,,,,,,,,,,0,35,35,35,,,,,,,,,,,,,,,,,1108.0464435000013,,,,,,,,,,1117.1548851000007,1117.1548851000007,1117.1548851000007,1117.1548851000007,1117.1548851000007,1117.1548851000007,1117.1548851000007,1117.1548851000007,None,None,None,,,,,,,,,,,1084.8608716000017,1084.8608716000017,None,,,,,1109.138299100001,1109.138299100001,1109.138299100001,c,7.979656299998169,1084.8608716000017,1084.8608716000017,1104.4144896000016,1109.138299100001,22,001,2024-08-01_13h11.24.718,robot_sternberg_sign,2022.2.5,60.05439727346326,
"['R_Head_X_For', 'L_Base_Y_For', 'R_Arm_Y_Back', 'L_Torso_Z_For', 'L_Head_X_For', 'L_Arm_Y_Back']",False,L_Base_X_For,6,robot,2,False,False,"['robot_stimuli\\R_Head_X_For.mp4', 'robot_stimuli\\L_Base_Y_For.mp4', 'robot_stimuli\\R_Arm_Y_Back.mp4', 'robot_stimuli\\L_Torso_Z_For.mp4', 'robot_stimuli\\L_Head_X_For.mp4', 'robot_stimuli\\L_Arm_Y_Back.mp4']",robot_stimuli\L_Base_X_For.mp4,22,,,,,,,,,,,,,0,36,36,36,,,,,,,,,,,,,,,,,1140.3222564000007,1141.4198143000012,,,,,,,,,1145.088818600001,1145.088818600001,1145.088818600001,1145.088818600001,1145.088818600001,1145.088818600001,1145.088818600001,1145.088818600001,None,None,None,,,,,,,,,,,1117.1548851000007,1117.1548851000007,None,,,,,1141.4198143000012,1141.4198143000012,1141.4198143000012,n,3.6342392999977164,1117.1548851000007,1117.1548851000007,1136.6881682000003,1141.4198143000012,22,001,2024-08-01_13h11.24.718,robot_sternberg_sign,2022.2.5,60.05439727346326,
"['R_Head_Y_Back', 'R_Head_Z_For', 'L_Arm_Y_For', 'R_Arm_X_For', 'R_Arm_Z_For', 'L_Torso_Z_Back']",False,R_Torso_X_Back,6,robot,2,False,False,"['robot_stimuli\\R_Head_Y_Back.mp4', 'robot_stimuli\\R_Head_Z_For.mp4', 'robot_stimuli\\L_Arm_Y_For.mp4', 'robot_stimuli\\R_Arm_X_For.mp4', 'robot_stimuli\\R_Arm_Z_For.mp4', 'robot_stimuli\\L_Torso_Z_Back.mp4']",robot_stimuli\R_Torso_X_Back.mp4,22,,,,,,,,,,,,,0,37,37,37,,,,,,,,,,,,,,,,,1168.2970702000002,1169.3886964000012,,,,,,,,,1173.2274857000011,1173.2274857000011,1173.2274857000011,1173.2274857000011,1173.2274857000011,1173.2274857000011,1173.2274857000011,1173.2274857000011,None,None,None,,,,,,,,,,,1145.088818600001,1145.088818600001,None,,,,,1169.3886964000012,1169.3886964000012,1169.3886964000012,n,3.7928935999989335,1145.088818600001,1145.088818600001,1164.7885826000002,1169.3886964000012,22,001,2024-08-01_13h11.24.718,robot_sternberg_sign,2022.2.5,60.05439727346326,
"['R_Head_Y_Back', 'L_Head_Y_For', 'R_Head_Y_For', 'R_Arm_Z_For', 'L_Torso_Y_Back', 'L_Torso_Y_For']",True,R_Head_Y_For,6,robot,2,False,False,"['robot_stimuli\\R_Head_Y_Back.mp4', 'robot_stimuli\\L_Head_Y_For.mp4', 'robot_stimuli\\R_Head_Y_For.mp4', 'robot_stimuli\\R_Arm_Z_For.mp4', 'robot_stimuli\\L_Torso_Y_Back.mp4', 'robot_stimuli\\L_Torso_Y_For.mp4']",robot_stimuli\R_Head_Y_For.mp4,22,,,,,,,,,,,,,0,38,38,38,,,,,,,,,,,,,,,,,1196.3986033,1197.4894238000015,,,,,,,,,1201.1372938000004,1201.1372938000004,1201.1372938000004,1201.1372938000004,1201.1372938000004,1201.1372938000004,1201.1372938000004,1201.1372938000004,None,None,None,,,,,,,,,,,1173.2274857000011,1173.2274857000011,None,,,,,1197.4894238000015,1197.4894238000015,1197.4894238000015,c,3.0595045999998547,1173.2274857000011,1173.2274857000011,1192.7560837,1197.4894238000015,22,001,2024-08-01_13h11.24.718,robot_sternberg_sign,2022.2.5,60.05439727346326,
"['L_Head_Z_Back', 'R_Head_Z_For', 'L_Arm_Y_Back', 'L_Arm_Z_For', 'L_Base_X_For', 'L_Base_Y_Back']",False,L_Head_X_Back,6,robot,2,False,True,"['robot_stimuli\\L_Head_Z_Back.mp4', 'robot_stimuli\\R_Head_Z_For.mp4', 'robot_stimuli\\L_Arm_Y_Back.mp4', 'robot_stimuli\\L_Arm_Z_For.mp4', 'robot_stimuli\\L_Base_X_For.mp4', 'robot_stimuli\\L_Base_Y_Back.mp4']",robot_stimuli\L_Head_X_Back.mp4,22,,,,,,,,,,,,,0,39,39,39,,,,,,,,,,,,,,,,,1224.3099273000007,1225.3872825000017,,,,,,,,,1229.0627874000002,1236.0104333,1229.0627874000002,1236.0104333,1229.0627874000002,1236.0104333,1229.0627874000002,1236.0104333,95.12345679012346,5.69129840000096,space,,,6.8862065999983315,,,,,,,,1201.1372938000004,1201.1372938000004,None,,,,,1225.3872825000017,1225.3872825000017,1225.3872825000017,n,3.2670405999979266,1201.1372938000004,1201.1372938000004,1220.7539597000014,1225.3872825000017,22,001,2024-08-01_13h11.24.718,robot_sternberg_sign,2022.2.5,60.05439727346326,
"['R_Torso_Z_Back', 'L_Base_Y_For', 'L_Head_X_Back', 'R_Torso_Z_For']",True,L_Base_Y_For,4,robot,2,True,False,"['robot_stimuli\\R_Torso_Z_Back.mp4', 'robot_stimuli\\L_Base_Y_For.mp4', 'robot_stimuli\\L_Head_X_Back.mp4', 'robot_stimuli\\R_Torso_Z_For.mp4']",robot_stimuli\L_Base_Y_For.mp4,22,,,,,,,,,,,,,0,40,40,40,,,,,,,,,,,,,,,,,1254.1169954000015,1255.2058355000008,,,,,,,,,1259.9929494000007,1259.9929494000007,1259.9929494000007,1259.9929494000007,1259.9929494000007,1259.9929494000007,1259.9929494000007,1259.9929494000007,None,None,None,,,,,,,,,,,1236.0104333,1236.0104333,space,2.314989999998943,,,,1255.2058355000008,1255.2058355000008,1255.2058355000008,n,4.752104599998347,,,1250.4836178000005,1255.2058355000008,22,001,2024-08-01_13h11.24.718,robot_sternberg_sign,2022.2.5,60.05439727346326,
"['L_Base_Y_For', 'R_Base_X_Back', 'R_Head_Z_For', 'R_Arm_Y_Back']",False,L_Head_X_For,4,robot,2,False,False,"['robot_stimuli\\L_Base_Y_For.mp4', 'robot_stimuli\\R_Base_X_Back.mp4', 'robot_stimuli\\R_Head_Z_For.mp4', 'robot_stimuli\\R_Arm_Y_Back.mp4']",robot_stimuli\L_Head_X_For.mp4,22,,,,,,,,,,,,,0,41,41,41,,,,,,,,,,,,,,,,,1275.7673965000013,1276.8559678000001,,,,,,,,,1280.4394562000016,1280.4394562000016,1280.4394562000016,1280.4394562000016,1280.4394562000016,1280.4394562000016,1280.4394562000016,1280.4394562000016,None,None,None,,,,,,,,,,,1259.9929494000007,1259.9929494000007,None,,,,,1276.8559678000001,1276.8559678000001,1276.8559678000001,n,3.1094266999989486,1259.9929494000007,1259.9929494000007,1272.1235476000002,1276.8559678000001,22,001,2024-08-01_13h11.24.718,robot_sternberg_sign,2022.2.5,60.05439727346326,
"['R_Torso_Z_Back', 'L_Base_X_For', 'R_Arm_X_Back', 'L_Head_Y_For']",False,R_Arm_X_For,4,robot,2,False,False,"['robot_stimuli\\R_Torso_Z_Back.mp4', 'robot_stimuli\\L_Base_X_For.mp4', 'robot_stimuli\\R_Arm_X_Back.mp4', 'robot_stimuli\\L_Head_Y_For.mp4']",robot_stimuli\R_Arm_X_For.mp4,22,,,,,,,,,,,,,0,42,42,42,,,,,,,,,,,,,,,,,1296.261431500001,1281.5174257000017,,,,,,,,,1301.0086937000015,1301.0086937000015,1301.0086937000015,1301.0086937000015,1301.0086937000015,1301.0086937000015,1301.0086937000015,1301.0086937000015,None,None,None,,,,,,,,,,,1280.4394562000016,1280.4394562000016,None,,,,,1297.3580035000014,1297.3580035000014,1297.3580035000014,c,3.0549456999979157,1280.4394562000016,1280.4394562000016,1292.6298573000004,1297.3580035000014,22,001,2024-08-01_13h11.24.718,robot_sternberg_sign,2022.2.5,60.05439727346326,
"['L_Torso_Z_For', 'L_Head_X_For', 'R_Arm_Y_For', 'L_Base_Z_Back']",True,L_Head_X_For,4,robot,2,False,False,"['robot_stimuli\\L_Torso_Z_For.mp4', 'robot_stimuli\\L_Head_X_For.mp4', 'robot_stimuli\\R_Arm_Y_For.mp4', 'robot_stimuli\\L_Base_Z_Back.mp4']",robot_stimuli\L_Head_X_For.mp4,22,,,,,,,,,,,,,0,43,43,43,,,,,,,,,,,,,,,,,1316.7170640000004,1317.8202740000015,,,,,,,,,1321.3926096000014,1321.3926096000014,1321.3926096000014,1321.3926096000014,1321.3926096000014,1321.3926096000014,1321.3926096000014,1321.3926096000014,None,None,None,,,,,,,,,,,1301.0086937000015,1301.0086937000015,None,,,,,1317.8202740000015,1317.8202740000015,1317.8202740000015,c,2.5865012999984174,1301.0086937000015,1301.0086937000015,1313.0709094000013,1317.8202740000015,22,001,2024-08-01_13h11.24.718,robot_sternberg_sign,2022.2.5,60.05439727346326,
"['R_Torso_X_Back', 'L_Base_X_For', 'L_Torso_Z_For', 'R_Head_Y_Back']",True,L_Torso_Z_For,4,robot,2,False,False,"['robot_stimuli\\R_Torso_X_Back.mp4', 'robot_stimuli\\L_Base_X_For.mp4', 'robot_stimuli\\L_Torso_Z_For.mp4', 'robot_stimuli\\R_Head_Y_Back.mp4']",robot_stimuli\L_Torso_Z_For.mp4,22,,,,,,,,,,,,,0,44,44,44,,,,,,,,,,,,,,,,,1337.1987319,1338.2894835000006,,,,,,,,,1342.7862941000003,1342.7862941000003,1342.7862941000003,1342.7862941000003,1342.7862941000003,1342.7862941000003,1342.7862941000003,1342.7862941000003,None,None,None,,,,,,,,,,,1321.3926096000014,1321.3926096000014,None,,,,,1338.2894835000006,1338.2894835000006,1338.2894835000006,c,4.468187299999045,1321.3926096000014,1321.3926096000014,1333.572549800001,1338.2894835000006,22,001,2024-08-01_13h11.24.718,robot_sternberg_sign,2022.2.5,60.05439727346326,
"['L_Torso_Z_Back', 'R_Torso_Z_Back', 'R_Torso_X_For', 'R_Torso_Y_Back']",True,R_Torso_X_For,4,robot,2,False,False,"['robot_stimuli\\L_Torso_Z_Back.mp4', 'robot_stimuli\\R_Torso_Z_Back.mp4', 'robot_stimuli\\R_Torso_X_For.mp4', 'robot_stimuli\\R_Torso_Y_Back.mp4']",robot_stimuli\R_Torso_X_For.mp4,22,,,,,,,,,,,,,0,45,45,45,,,,,,,,,,,,,,,,,1358.5266787,1359.6065506000014,,,,,,,,,1363.5063901000012,1363.5063901000012,1363.5063901000012,1363.5063901000012,1363.5063901000012,1363.5063901000012,1363.5063901000012,1363.5063901000012,None,None,None,,,,,,,,,,,1342.7862941000003,1342.7862941000003,None,,,,,1359.6065506000014,1359.6065506000014,1359.6065506000014,c,3.8708625999970536,1342.7862941000003,1342.7862941000003,1354.9039590000011,1359.6065506000014,22,001,2024-08-01_13h11.24.718,robot_sternberg_sign,2022.2.5,60.05439727346326,
"['R_Arm_X_For', 'L_Arm_Y_Back', 'R_Arm_Z_Back', 'R_Torso_Y_For']",True,R_Arm_Z_Back,4,robot,2,False,False,"['robot_stimuli\\R_Arm_X_For.mp4', 'robot_stimuli\\L_Arm_Y_Back.mp4', 'robot_stimuli\\R_Arm_Z_Back.mp4', 'robot_stimuli\\R_Torso_Y_For.mp4']",robot_stimuli\R_Arm_Z_Back.mp4,22,,,,,,,,,,,,,0,46,46,46,,,,,,,,,,,,,,,,,1379.3933683000014,1380.4726973000015,,,,,,,,,1384.3531594000015,1384.3531594000015,1384.3531594000015,1384.3531594000015,1384.3531594000015,1384.3531594000015,1384.3531594000015,1384.3531594000015,None,None,None,,,,,,,,,,,1363.5063901000012,1363.5063901000012,None,,,,,1380.4726973000015,1380.4726973000015,1380.4726973000015,c,3.845798999998806,1363.5063901000012,1363.5063901000012,1375.7689832000015,1380.4726973000015,22,001,2024-08-01_13h11.24.718,robot_sternberg_sign,2022.2.5,60.05439727346326,
"['R_Head_Z_For', 'R_Torso_Y_For', 'L_Arm_X_Back', 'L_Arm_Z_Back']",False,R_Head_Y_Back,4,robot,2,False,False,"['robot_stimuli\\R_Head_Z_For.mp4', 'robot_stimuli\\R_Torso_Y_For.mp4', 'robot_stimuli\\L_Arm_X_Back.mp4', 'robot_stimuli\\L_Arm_Z_Back.mp4']",robot_stimuli\R_Head_Y_Back.mp4,22,,,,,,,,,,,,,0,47,47,47,,,,,,,,,,,,,,,,,1400.2176026000016,1401.306374400001,,,,,,,,,1405.9603181000002,1405.9603181000002,1405.9603181000002,1405.9603181000002,1405.9603181000002,1405.9603181000002,1405.9603181000002,1405.9603181000002,None,None,None,,,,,,,,,,,1384.3531594000015,1384.3531594000015,None,,,,,1401.306374400001,1401.306374400001,1401.306374400001,n,4.61879769999905,1384.3531594000015,1384.3531594000015,1396.5856786000004,1401.306374400001,22,001,2024-08-01_13h11.24.718,robot_sternberg_sign,2022.2.5,60.05439727346326,
"['R_Base_X_For', 'R_Base_Y_Back', 'L_Torso_Z_For', 'R_Arm_Y_For']",False,L_Base_Z_Back,4,robot,2,False,False,"['robot_stimuli\\R_Base_X_For.mp4', 'robot_stimuli\\R_Base_Y_Back.mp4', 'robot_stimuli\\L_Torso_Z_For.mp4', 'robot_stimuli\\R_Arm_Y_For.mp4']",robot_stimuli\L_Base_Z_Back.mp4,22,,,,,,,,,,,,,0,48,48,48,,,,,,,,,,,,,,,,,1421.6123517000015,1407.0410888000006,,,,,,,,,1426.8199637000016,1426.8199637000016,1426.8199637000016,1426.8199637000016,1426.8199637000016,1426.8199637000016,1426.8199637000016,1426.8199637000016,None,None,None,,,,,,,,,,,1405.9603181000002,1405.9603181000002,None,,,,,1422.7144079000009,1422.7144079000009,1422.7144079000009,n,4.075714299997344,1405.9603181000002,1405.9603181000002,1418.1125973000017,1422.7144079000009,22,001,2024-08-01_13h11.24.718,robot_sternberg_sign,2022.2.5,60.05439727346326,
"['L_Arm_Z_For', 'L_Base_X_For', 'L_Torso_X_Back', 'L_Arm_X_Back']",False,L_Head_X_For,4,robot,2,False,True,"['robot_stimuli\\L_Arm_Z_For.mp4', 'robot_stimuli\\L_Base_X_For.mp4', 'robot_stimuli\\L_Torso_X_Back.mp4', 'robot_stimuli\\L_Arm_X_Back.mp4']",robot_stimuli\L_Head_X_For.mp4,22,,,,,,,,,,,,,0,49,49,49,,,,,,,,,,,,,,,,,1442.6603465000007,1443.7441553000008,,,,,,,,,1447.359838800001,1453.9047209,1447.359838800001,1453.9047209,1447.359838800001,1453.9047209,1447.359838800001,1453.9047209,98.51851851851852,4.705935999998474,space,,,6.476909499997419,,,,,,,,1426.8199637000016,1426.8199637000016,None,,,,,1443.7441553000008,1443.7441553000008,1443.7441553000008,n,2.758335199998328,1426.8199637000016,1426.8199637000016,1439.0387389000007,1443.7441553000008,22,001,2024-08-01_13h11.24.718,robot_sternberg_sign,2022.2.5,60.05439727346326,
"['R_Torso_Z_For', 'L_Head_X_Back']",False,R_Head_Z_Back,2,robot,2,True,False,"['robot_stimuli\\R_Torso_Z_For.mp4', 'robot_stimuli\\L_Head_X_Back.mp4']",robot_stimuli\R_Head_Z_Back.mp4,22,,,,,,,,,,,,,0,50,50,50,,,,,,,,,,,,,,,,,1466.1342033,1467.2236042000004,,,,,,,,,1470.9251816000015,1470.9251816000015,1470.9251816000015,1470.9251816000015,1470.9251816000015,1470.9251816000015,1470.9251816000015,1470.9251816000015,None,None,None,,,,,,,,,,,1453.9047209,1453.9047209,space,3.764746099997865,,,,1467.2236042000004,1467.2236042000004,1467.2236042000004,n,3.662299699997675,,,1462.4924179000009,1467.2236042000004,22,001,2024-08-01_13h11.24.718,robot_sternberg_sign,2022.2.5,60.05439727346326,
"['L_Arm_X_For', 'R_Base_Z_Back']",True,R_Base_Z_Back,2,robot,2,False,False,"['robot_stimuli\\L_Arm_X_For.mp4', 'robot_stimuli\\R_Base_Z_Back.mp4']",robot_stimuli\R_Base_Z_Back.mp4,22,,,,,,,,,,,,,0,51,51,51,,,,,,,,,,,,,,,,,1479.2651411000006,1480.3546760000008,,,,,,,,,1483.8943454,1483.8943454,1483.8943454,1483.8943454,1483.8943454,1483.8943454,1483.8943454,1483.8943454,None,None,None,,,,,,,,,,,1470.9251816000015,1470.9251816000015,None,,,,,1480.3546760000008,1480.3546760000008,1480.3546760000008,c,2.6585725999993883,1470.9251816000015,1470.9251816000015,1475.7253870000004,1480.3546760000008,22,001,2024-08-01_13h11.24.718,robot_sternberg_sign,2022.2.5,60.05439727346326,
"['L_Arm_Y_For', 'L_Torso_Z_For']",True,L_Arm_Y_For,2,robot,2,False,False,"['robot_stimuli\\L_Arm_Y_For.mp4', 'robot_stimuli\\L_Torso_Z_For.mp4']",robot_stimuli\L_Arm_Y_For.mp4,22,,,,,,,,,,,,,0,52,52,52,,,,,,,,,,,,,,,,,1492.3507407000016,1493.4386706000005,,,,,,,,,1497.0695258000014,1497.0695258000014,1497.0695258000014,1497.0695258000014,1497.0695258000014,1497.0695258000014,1497.0695258000014,1497.0695258000014,None,None,None,,,,,,,,,,,1483.8943454,1483.8943454,None,,,,,1493.4386706000005,1493.4386706000005,1493.4386706000005,c,3.0709280999999464,1483.8943454,1483.8943454,1488.711018,1493.4386706000005,22,001,2024-08-01_13h11.24.718,robot_sternberg_sign,2022.2.5,60.05439727346326,
"['L_Base_Z_Back', 'L_Head_X_For']",False,L_Head_Z_For,2,robot,2,False,False,"['robot_stimuli\\L_Base_Z_Back.mp4', 'robot_stimuli\\L_Head_X_For.mp4']",robot_stimuli\L_Head_Z_For.mp4,22,,,,,,,,,,,,,0,53,53,53,,,,,,,,,,,,,,,,,1505.427168100001,1506.5052668000008,,,,,,,,,1510.1441526000017,1510.1441526000017,1510.1441526000017,1510.1441526000017,1510.1441526000017,1510.1441526000017,1510.1441526000017,1510.1441526000017,None,None,None,,,,,,,,,,,1497.0695258000014,1497.0695258000014,None,,,,,1506.5052668000008,1506.5052668000008,1506.5052668000008,n,2.876262099998712,1497.0695258000014,1497.0695258000014,1501.8745604000014,1506.5052668000008,22,001,2024-08-01_13h11.24.718,robot_sternberg_sign,2022.2.5,60.05439727346326,
"['L_Torso_Z_Back', 'R_Torso_Y_Back']",False,R_Arm_Z_For,2,robot,2,False,False,"['robot_stimuli\\L_Torso_Z_Back.mp4', 'robot_stimuli\\R_Torso_Y_Back.mp4']",robot_stimuli\R_Arm_Z_For.mp4,22,,,,,,,,,,,,,0,54,54,54,,,,,,,,,,,,,,,,,1518.4605397000014,1519.5375663000013,,,,,,,,,1523.4738399000016,1523.4738399000016,1523.4738399000016,1523.4738399000016,1523.4738399000016,1523.4738399000016,1523.4738399000016,1523.4738399000016,None,None,None,,,,,,,,,,,1510.1441526000017,1510.1441526000017,None,,,,,1519.5375663000013,1519.5375663000013,1519.5375663000013,n,3.9081774999976915,1510.1441526000017,1510.1441526000017,1514.8279687000013,1519.5375663000013,22,001,2024-08-01_13h11.24.718,robot_sternberg_sign,2022.2.5,60.05439727346326,
"['R_Arm_Z_For', 'L_Head_X_Back']",True,L_Head_X_Back,2,robot,2,False,False,"['robot_stimuli\\R_Arm_Z_For.mp4', 'robot_stimuli\\L_Head_X_Back.mp4']",robot_stimuli\L_Head_X_Back.mp4,22,,,,,,,,,,,,,0,55,55,55,,,,,,,,,,,,,,,,,1531.9484458000006,1533.0394696000003,,,,,,,,,1536.6704308000008,1536.6704308000008,1536.6704308000008,1536.6704308000008,1536.6704308000008,1536.6704308000008,1536.6704308000008,1536.6704308000008,None,None,None,,,,,,,,,,,1523.4738399000016,1523.4738399000016,None,,,,,1533.0394696000003,1533.0394696000003,1533.0394696000003,c,2.2941736999982822,1523.4738399000016,1523.4738399000016,1528.3083227000006,1533.0394696000003,22,001,2024-08-01_13h11.24.718,robot_sternberg_sign,2022.2.5,60.05439727346326,
"['R_Base_Z_Back', 'L_Head_Z_Back']",False,R_Torso_Y_Back,2,robot,2,False,False,"['robot_stimuli\\R_Base_Z_Back.mp4', 'robot_stimuli\\L_Head_Z_Back.mp4']",robot_stimuli\R_Torso_Y_Back.mp4,22,,,,,,,,,,,,,0,56,56,56,,,,,,,,,,,,,,,,,1545.0015655000007,1546.0890019000017,,,,,,,,,1549.7193525000002,1549.7193525000002,1549.7193525000002,1549.7193525000002,1549.7193525000002,1549.7193525000002,1549.7193525000002,1549.7193525000002,None,None,None,,,,,,,,,,,1536.6704308000008,1536.6704308000008,None,,,,,1546.0890019000017,1546.0890019000017,1546.0890019000017,n,2.501442099997803,1536.6704308000008,1536.6704308000008,1541.3732390000005,1546.0890019000017,22,001,2024-08-01_13h11.24.718,robot_sternberg_sign,2022.2.5,60.05439727346326,
"['R_Torso_Z_Back', 'L_Torso_Y_Back']",False,L_Head_Z_For,2,robot,2,False,False,"['robot_stimuli\\R_Torso_Z_Back.mp4', 'robot_stimuli\\L_Torso_Y_Back.mp4']",robot_stimuli\L_Head_Z_For.mp4,22,,,,,,,,,,,,,0,57,57,57,,,,,,,,,,,,,,,,,1558.031762300001,1559.1221693000007,,,,,,,,,1563.2908050000005,1563.2908050000005,1563.2908050000005,1563.2908050000005,1563.2908050000005,1563.2908050000005,1563.2908050000005,1563.2908050000005,None,None,None,,,,,,,,,,,1549.7193525000002,1549.7193525000002,None,,,,,1559.1221693000007,1559.1221693000007,1559.1221693000007,n,4.140060799998537,1549.7193525000002,1549.7193525000002,1554.5251262000002,1559.1221693000007,22,001,2024-08-01_13h11.24.718,robot_sternberg_sign,2022.2.5,60.05439727346326,
"['L_Arm_Z_For', 'L_Base_Y_Back']",True,L_Arm_Z_For,2,robot,2,False,False,"['robot_stimuli\\L_Arm_Z_For.mp4', 'robot_stimuli\\L_Base_Y_Back.mp4']",robot_stimuli\L_Arm_Z_For.mp4,22,,,,,,,,,,,,,0,58,58,58,,,,,,,,,,,,,,,,,1571.6507852000013,1572.7395980000001,,,,,,,,,1576.3889320000017,1576.3889320000017,1576.3889320000017,1576.3889320000017,1576.3889320000017,1576.3889320000017,1576.3889320000017,1576.3889320000017,None,None,None,,,,,,,,,,,1563.2908050000005,1563.2908050000005,None,,,,,1572.7395980000001,1572.7395980000001,1572.7395980000001,c,3.3063798999992287,1563.2908050000005,1563.2908050000005,1568.0891472000003,1572.7395980000001,22,001,2024-08-01_13h11.24.718,robot_sternberg_sign,2022.2.5,60.05439727346326,
"['L_Base_X_For', 'R_Base_X_Back']",True,R_Base_X_Back,2,robot,2,False,True,"['robot_stimuli\\L_Base_X_For.mp4', 'robot_stimuli\\R_Base_X_Back.mp4']",robot_stimuli\R_Base_X_Back.mp4,22,,,,,,,,,,,,,0,59,59,59,,,,,,,,,,,,,,,,,1584.7453974,1577.471635400001,,,,,,,,,1589.5208748000005,1593.8021099000016,1589.5208748000005,1593.8021099000016,1589.5208748000005,1593.8021099000016,1589.5208748000005,1593.8021099000016,69.96913580246914,3.0568272000000434,space,,,4.221055999998498,,,,,,,,1576.3889320000017,1576.3889320000017,None,,,,,1585.8402277000005,1585.8402277000005,1585.8402277000005,c,3.500847999997859,1576.3889320000017,1576.3889320000017,1581.1163261000002,1585.8402277000005,22,001,2024-08-01_13h11.24.718,robot_sternberg_sign,2022.2.5,60.05439727346326,
"['F', 'K', 'T', 'L']",True,L,4,letter,3,True,False,"['robot_stimuli\\\\filler.mp4', 'robot_stimuli\\\\filler.mp4', 'robot_stimuli\\\\filler.mp4', 'robot_stimuli\\\\filler.mp4']",robot_stimuli\\filler.mp4,22,,,,,,,,,,,,,0,60,60,60,,,,,,,,,,,,,,,,,1607.5148186000006,1608.5815307000012,,,,,,,,,1610.0040221,1610.0040221,1610.0040221,1610.0040221,1610.0040221,1610.0040221,1610.0040221,1610.0040221,None,None,None,,,,,,,,,,,1593.8021099000016,1593.8021099000016,space,3.7476982999978645,1605.4992265,1607.5148186000006,1608.5815307000012,1608.5815307000012,1608.5815307000012,1608.5815307000012,c,1.26364779999858,,,,,22,001,2024-08-01_13h11.24.718,robot_sternberg_sign,2022.2.5,60.05439727346326,
"['N', 'Q', 'T', 'C']",True,Q,4,letter,3,False,False,"['robot_stimuli\\\\filler.mp4', 'robot_stimuli\\\\filler.mp4', 'robot_stimuli\\\\filler.mp4', 'robot_stimuli\\\\filler.mp4']",robot_stimuli\\filler.mp4,22,,,,,,,,,,,,,0,61,61,61,,,,,,,,,,,,,,,,,1619.738390800001,1620.8026372000004,,,,,,,,,1622.0255566000014,1622.0255566000014,1622.0255566000014,1622.0255566000014,1622.0255566000014,1622.0255566000014,1622.0255566000014,1622.0255566000014,None,None,None,,,,,,,,,,,1610.0040221,1610.0040221,None,,1617.5300744000015,1619.738390800001,1620.8026372000004,1620.8026372000004,1620.8026372000004,1620.8026372000004,c,0.995127299998785,1610.0040221,1610.0040221,,,22,001,2024-08-01_13h11.24.718,robot_sternberg_sign,2022.2.5,60.05439727346326,
"['G', 'C', 'M', 'L']",False,N,4,letter,3,False,False,"['robot_stimuli\\\\filler.mp4', 'robot_stimuli\\\\filler.mp4', 'robot_stimuli\\\\filler.mp4', 'robot_stimuli\\\\filler.mp4']",robot_stimuli\\filler.mp4,22,,,,,,,,,,,,,0,62,62,62,,,,,,,,,,,,,,,,,1631.9694756000008,1633.0342367000012,,,,,,,,,1635.4581846,1635.4581846,1635.4581846,1635.4581846,1635.4581846,1635.4581846,1635.4581846,1635.4581846,None,None,None,,,,,,,,,,,1622.0255566000014,1622.0255566000014,None,,1629.7492649000014,1631.9694756000008,1633.0342367000012,1633.0342367000012,1633.0342367000012,1633.0342367000012,n,2.204364999997779,1622.0255566000014,1622.0255566000014,,,22,001,2024-08-01_13h11.24.718,robot_sternberg_sign,2022.2.5,60.05439727346326,
"['H', 'N', 'X', 'S']",False,K,4,letter,3,False,False,"['robot_stimuli\\\\filler.mp4', 'robot_stimuli\\\\filler.mp4', 'robot_stimuli\\\\filler.mp4', 'robot_stimuli\\\\filler.mp4']",robot_stimuli\\filler.mp4,22,,,,,,,,,,,,,0,63,63,63,,,,,,,,,,,,,,,,,1645.4036676000014,1646.4651062000012,,,,,,,,,1650.4971814,1650.4971814,1650.4971814,1650.4971814,1650.4971814,1650.4971814,1650.4971814,1650.4971814,None,None,None,,,,,,,,,,,1635.4581846,1635.4581846,None,,1643.3853955000013,1645.4036676000014,1646.4651062000012,1646.4651062000012,1646.4651062000012,1646.4651062000012,n,3.9098580999998376,1635.4581846,1635.4581846,,,22,001,2024-08-01_13h11.24.718,robot_sternberg_sign,2022.2.5,60.05439727346326,
"['B', 'X', 'H', 'S']",False,F,4,letter,3,False,False,"['robot_stimuli\\\\filler.mp4', 'robot_stimuli\\\\filler.mp4', 'robot_stimuli\\\\filler.mp4', 'robot_stimuli\\\\filler.mp4']",robot_stimuli\\filler.mp4,22,,,,,,,,,,,,,0,64,64,64,,,,,,,,,,,,,,,,,1660.2531291000014,1661.3147593000012,,,,,,,,,1664.3491584000003,1664.3491584000003,1664.3491584000003,1664.3491584000003,1664.3491584000003,1664.3491584000003,1664.3491584000003,1664.3491584000003,None,None,None,,,,,,,,,,,1650.4971814,1650.4971814,None,,1658.2385124000011,1660.2531291000014,1661.3147593000012,1661.3147593000012,1661.3147593000012,1661.3147593000012,n,2.819311999997808,1650.4971814,1650.4971814,,,22,001,2024-08-01_13h11.24.718,robot_sternberg_sign,2022.2.5,60.05439727346326,
"['M', 'P', 'R', 'H']",True,M,4,letter,3,False,False,"['robot_stimuli\\\\filler.mp4', 'robot_stimuli\\\\filler.mp4', 'robot_stimuli\\\\filler.mp4', 'robot_stimuli\\\\filler.mp4']",robot_stimuli\\filler.mp4,22,,,,,,,,,,,,,0,65,65,65,,,,,,,,,,,,,,,,,1674.299262300001,1675.370928800001,,,,,,,,,1677.191846900001,1677.191846900001,1677.191846900001,1677.191846900001,1677.191846900001,1677.191846900001,1677.191846900001,1677.191846900001,None,None,None,,,,,,,,,,,1664.3491584000003,1664.3491584000003,None,,1672.0867794000005,1674.299262300001,1675.370928800001,1675.370928800001,1675.370928800001,1675.370928800001,c,1.6744023999981437,1664.3491584000003,1664.3491584000003,,,22,001,2024-08-01_13h11.24.718,robot_sternberg_sign,2022.2.5,60.05439727346326,
"['M', 'W', 'N', 'K']",False,X,4,letter,3,False,False,"['robot_stimuli\\\\filler.mp4', 'robot_stimuli\\\\filler.mp4', 'robot_stimuli\\\\filler.mp4', 'robot_stimuli\\\\filler.mp4']",robot_stimuli\\filler.mp4,22,,,,,,,,,,,,,0,66,66,66,,,,,,,,,,,,,,,,,1686.9402370000007,1688.0021617000002,,,,,,,,,1690.0233831000005,1690.0233831000005,1690.0233831000005,1690.0233831000005,1690.0233831000005,1690.0233831000005,1690.0233831000005,1690.0233831000005,None,None,None,,,,,,,,,,,1677.191846900001,1677.191846900001,None,,1684.9248542000005,1686.9402370000007,1688.0021617000002,1688.0021617000002,1688.0021617000002,1688.0021617000002,n,1.8603567999998631,1677.191846900001,1677.191846900001,,,22,001,2024-08-01_13h11.24.718,robot_sternberg_sign,2022.2.5,60.05439727346326,
"['N', 'T', 'Z', 'L']",False,R,4,letter,3,False,False,"['robot_stimuli\\\\filler.mp4', 'robot_stimuli\\\\filler.mp4', 'robot_stimuli\\\\filler.mp4', 'robot_stimuli\\\\filler.mp4']",robot_stimuli\\filler.mp4,22,,,,,,,,,,,,,0,67,67,67,,,,,,,,,,,,,,,,,1699.9866675000012,1701.0532647,,,,,,,,,1702.6770400000005,1702.6770400000005,1702.6770400000005,1702.6770400000005,1702.6770400000005,1702.6770400000005,1702.6770400000005,1702.6770400000005,None,None,None,,,,,,,,,,,1690.0233831000005,1690.0233831000005,None,,1697.7629023000009,1699.9866675000012,1701.0532647,1701.0532647,1701.0532647,1701.0532647,n,1.4890667999989091,1690.0233831000005,1690.0233831000005,,,22,001,2024-08-01_13h11.24.718,robot_sternberg_sign,2022.2.5,60.05439727346326,
"['V', 'N', 'Q', 'H']",True,V,4,letter,3,False,False,"['robot_stimuli\\\\filler.mp4', 'robot_stimuli\\\\filler.mp4', 'robot_stimuli\\\\filler.mp4', 'robot_stimuli\\\\filler.mp4']",robot_stimuli\\filler.mp4,22,,,,,,,,,,,,,0,68,68,68,,,,,,,,,,,,,,,,,1712.8217510000013,1713.886958000001,,,,,,,,,1715.1031354000006,1715.1031354000006,1715.1031354000006,1715.1031354000006,1715.1031354000006,1715.1031354000006,1715.1031354000006,1715.1031354000006,None,None,None,,,,,,,,,,,1702.6770400000005,1702.6770400000005,None,,1710.5978471000017,1712.8217510000013,1713.886958000001,1713.886958000001,1713.886958000001,1713.886958000001,c,1.046724499998163,1702.6770400000005,1702.6770400000005,,,22,001,2024-08-01_13h11.24.718,robot_sternberg_sign,2022.2.5,60.05439727346326,
"['G', 'N', 'T', 'Q']",True,T,4,letter,3,False,True,"['robot_stimuli\\\\filler.mp4', 'robot_stimuli\\\\filler.mp4', 'robot_stimuli\\\\filler.mp4', 'robot_stimuli\\\\filler.mp4']",robot_stimuli\\filler.mp4,22,,,,,,,,,,,,,0,69,69,69,,,,,,,,,,,,,,,,,1724.8475153,1716.1650580000005,,,,,,,,,1727.7659632000014,1735.2202303000013,1727.7659632000014,1735.2202303000013,1727.7659632000014,1735.2202303000013,1727.7659632000014,1735.2202303000013,53.76543209876544,5.811235199998919,space,,,7.391094299999168,,,,,,,,1715.1031354000006,1715.1031354000006,None,,1722.839739500001,1724.8475153,1725.9172610000005,1725.9172610000005,1725.9172610000005,1725.9172610000005,c,1.6961929999979475,1715.1031354000006,1715.1031354000006,,,22,001,2024-08-01_13h11.24.718,robot_sternberg_sign,2022.2.5,60.05439727346326,
"['T', 'G', 'W', 'F', 'S', 'Z']",True,G,6,letter,3,True,False,"['robot_stimuli\\\\filler.mp4', 'robot_stimuli\\\\filler.mp4', 'robot_stimuli\\\\filler.mp4', 'robot_stimuli\\\\filler.mp4', 'robot_stimuli\\\\filler.mp4', 'robot_stimuli\\\\filler.mp4']",robot_stimuli\\filler.mp4,22,,,,,,,,,,,,,0,70,70,70,,,,,,,,,,,,,,,,,1760.091205300001,1761.1488085,,,,,,,,,1762.5781955000002,1762.5781955000002,1762.5781955000002,1762.5781955000002,1762.5781955000002,1762.5781955000002,1762.5781955000002,1762.5781955000002,None,None,None,,,,,,,,,,,1735.2202303000013,1735.2202303000013,space,11.154138899999452,1758.076218100001,1760.091205300001,1761.1488085,1761.1488085,1761.1488085,1761.1488085,c,1.336389499998404,,,,,22,001,2024-08-01_13h11.24.718,robot_sternberg_sign,2022.2.5,60.05439727346326,
"['V', 'C', 'H', 'S', 'J', 'D']",True,V,6,letter,3,False,False,"['robot_stimuli\\\\filler.mp4', 'robot_stimuli\\\\filler.mp4', 'robot_stimuli\\\\filler.mp4', 'robot_stimuli\\\\filler.mp4', 'robot_stimuli\\\\filler.mp4', 'robot_stimuli\\\\filler.mp4']",robot_stimuli\\filler.mp4,22,,,,,,,,,,,,,0,71,71,71,,,,,,,,,,,,,,,,,1776.6851070000012,1777.7493304,,,,,,,,,1779.1774921000015,1779.1774921000015,1779.1774921000015,1779.1774921000015,1779.1774921000015,1779.1774921000015,1779.1774921000015,1779.1774921000015,None,None,None,,,,,,,,,,,1762.5781955000002,1762.5781955000002,None,,1774.6750399000011,1776.6851070000012,1777.7493304,1777.7493304,1777.7493304,1777.7493304,c,1.217477999998664,1762.5781955000002,1762.5781955000002,,,22,001,2024-08-01_13h11.24.718,robot_sternberg_sign,2022.2.5,60.05439727346326,
"['N', 'X', 'B', 'T', 'M', 'L']",True,L,6,letter,3,False,False,"['robot_stimuli\\\\filler.mp4', 'robot_stimuli\\\\filler.mp4', 'robot_stimuli\\\\filler.mp4', 'robot_stimuli\\\\filler.mp4', 'robot_stimuli\\\\filler.mp4', 'robot_stimuli\\\\filler.mp4']",robot_stimuli\\filler.mp4,22,,,,,,,,,,,,,0,72,72,72,,,,,,,,,,,,,,,,,1793.2928659000008,1794.3502754,,,,,,,,,1796.5767196000015,1796.5767196000015,1796.5767196000015,1796.5767196000015,1796.5767196000015,1796.5767196000015,1796.5767196000015,1796.5767196000015,None,None,None,,,,,,,,,,,1779.1774921000015,1779.1774921000015,None,,1791.275823,1793.2928659000008,1794.3502754,1794.3502754,1794.3502754,1794.3502754,c,2.104019499996866,1779.1774921000015,1779.1774921000015,,,22,001,2024-08-01_13h11.24.718,robot_sternberg_sign,2022.2.5,60.05439727346326,
"['L', 'N', 'M', 'D', 'X', 'Z']",False,V,6,letter,3,False,False,"['robot_stimuli\\\\filler.mp4', 'robot_stimuli\\\\filler.mp4', 'robot_stimuli\\\\filler.mp4', 'robot_stimuli\\\\filler.mp4', 'robot_stimuli\\\\filler.mp4', 'robot_stimuli\\\\filler.mp4']",robot_stimuli\\filler.mp4,22,,,,,,,,,,,,,0,73,73,73,,,,,,,,,,,,,,,,,1810.6922533000015,1811.7517214,,,,,,,,,1813.9757194000013,1813.9757194000013,1813.9757194000013,1813.9757194000013,1813.9757194000013,1813.9757194000013,1813.9757194000013,1813.9757194000013,None,None,None,,,,,,,,,,,1796.5767196000015,1796.5767196000015,None,,1808.673517700001,1810.6922533000015,1811.7517214,1811.7517214,1811.7517214,1811.7517214,n,2.0147098999987065,1796.5767196000015,1796.5767196000015,,,22,001,2024-08-01_13h11.24.718,robot_sternberg_sign,2022.2.5,60.05439727346326,
"['Q', 'J', 'N', 'T', 'B', 'W']",False,H,6,letter,3,False,False,"['robot_stimuli\\\\filler.mp4', 'robot_stimuli\\\\filler.mp4', 'robot_stimuli\\\\filler.mp4', 'robot_stimuli\\\\filler.mp4', 'robot_stimuli\\\\filler.mp4', 'robot_stimuli\\\\filler.mp4']",robot_stimuli\\filler.mp4,22,,,,,,,,,,,,,0,74,74,74,,,,,,,,,,,,,,,,,1828.2858995000006,1829.3487344000005,,,,,,,,,1832.5808558000008,1832.5808558000008,1832.5808558000008,1832.5808558000008,1832.5808558000008,1832.5808558000008,1832.5808558000008,1832.5808558000008,None,None,None,,,,,,,,,,,1813.9757194000013,1813.9757194000013,None,,1826.0684138000015,1828.2858995000006,1829.3487344000005,1829.3487344000005,1829.3487344000005,1829.3487344000005,n,3.1378421999979764,1813.9757194000013,1813.9757194000013,,,22,001,2024-08-01_13h11.24.718,robot_sternberg_sign,2022.2.5,60.05439727346326,
"['X', 'P', 'F', 'S', 'W', 'V']",True,W,6,letter,3,False,False,"['robot_stimuli\\\\filler.mp4', 'robot_stimuli\\\\filler.mp4', 'robot_stimuli\\\\filler.mp4', 'robot_stimuli\\\\filler.mp4', 'robot_stimuli\\\\filler.mp4', 'robot_stimuli\\\\filler.mp4']",robot_stimuli\\filler.mp4,22,,,,,,,,,,,,,0,75,75,75,,,,,,,,,,,,,,,,,1846.9294284000007,,,,,,,,,,1849.8244672,1849.8244672,1849.8244672,1849.8244672,1849.8244672,1849.8244672,1849.8244672,1849.8244672,None,None,None,,,,,,,,,,,1832.5808558000008,1832.5808558000008,None,,1844.9057923,1846.9294284000007,1847.9990451000012,1847.9990451000012,1847.9990451000012,1847.9990451000012,c,1.7681060999984766,1832.5808558000008,1832.5808558000008,,,22,001,2024-08-01_13h11.24.718,robot_sternberg_sign,2022.2.5,60.05439727346326,
"['T', 'F', 'P', 'M', 'N', 'G']",False,J,6,letter,3,False,False,"['robot_stimuli\\\\filler.mp4', 'robot_stimuli\\\\filler.mp4', 'robot_stimuli\\\\filler.mp4', 'robot_stimuli\\\\filler.mp4', 'robot_stimuli\\\\filler.mp4', 'robot_stimuli\\\\filler.mp4']",robot_stimuli\\filler.mp4,22,,,,,,,,,,,,,0,76,76,76,,,,,,,,,,,,,,,,,1863.9511393000012,1865.015573300001,,,,,,,,,1866.8454126000015,1866.8454126000015,1866.8454126000015,1866.8454126000015,1866.8454126000015,1866.8454126000015,1866.8454126000015,1866.8454126000015,None,None,None,,,,,,,,,,,1849.8244672,1849.8244672,None,,1861.9381324000005,1863.9511393000012,1865.015573300001,1865.015573300001,1865.015573300001,1865.015573300001,n,1.7672042999984114,1849.8244672,1849.8244672,,,22,001,2024-08-01_13h11.24.718,robot_sternberg_sign,2022.2.5,60.05439727346326,
"['N', 'C', 'T', 'G', 'Q', 'K']",True,C,6,letter,3,False,False,"['robot_stimuli\\\\filler.mp4', 'robot_stimuli\\\\filler.mp4', 'robot_stimuli\\\\filler.mp4', 'robot_stimuli\\\\filler.mp4', 'robot_stimuli\\\\filler.mp4', 'robot_stimuli\\\\filler.mp4']",robot_stimuli\\filler.mp4,22,,,,,,,,,,,,,0,77,77,77,,,,,,,,,,,,,,,,,1881.1615918000007,1882.2171451000013,,,,,,,,,1884.0455598000008,1884.0455598000008,1884.0455598000008,1884.0455598000008,1884.0455598000008,1884.0455598000008,1884.0455598000008,1884.0455598000008,None,None,None,,,,,,,,,,,1866.8454126000015,1866.8454126000015,None,,1878.948123600001,1881.1615918000007,1882.2171451000013,1882.2171451000013,1882.2171451000013,1882.2171451000013,c,1.6767724999972415,1866.8454126000015,1866.8454126000015,,,22,001,2024-08-01_13h11.24.718,robot_sternberg_sign,2022.2.5,60.05439727346326,
"['H', 'R', 'S', 'D', 'B', 'Q']",False,X,6,letter,3,False,False,"['robot_stimuli\\\\filler.mp4', 'robot_stimuli\\\\filler.mp4', 'robot_stimuli\\\\filler.mp4', 'robot_stimuli\\\\filler.mp4', 'robot_stimuli\\\\filler.mp4', 'robot_stimuli\\\\filler.mp4']",robot_stimuli\\filler.mp4,22,,,,,,,,,,,,,0,78,78,78,,,,,,,,,,,,,,,,,1897.9406176000011,1899.0013072000002,,,,,,,,,1900.8293841000013,1900.8293841000013,1900.8293841000013,1900.8293841000013,1900.8293841000013,1900.8293841000013,1900.8293841000013,1900.8293841000013,None,None,None,,,,,,,,,,,1884.0455598000008,1884.0455598000008,None,,1895.9258902000001,1897.9406176000011,1899.0013072000002,1899.0013072000002,1899.0013072000002,1899.0013072000002,n,1.789017299997795,1884.0455598000008,1884.0455598000008,,,22,001,2024-08-01_13h11.24.718,robot_sternberg_sign,2022.2.5,60.05439727346326,
"['V', 'S', 'P', 'B', 'M', 'G']",False,X,6,letter,3,False,True,"['robot_stimuli\\\\filler.mp4', 'robot_stimuli\\\\filler.mp4', 'robot_stimuli\\\\filler.mp4', 'robot_stimuli\\\\filler.mp4', 'robot_stimuli\\\\filler.mp4', 'robot_stimuli\\\\filler.mp4']",robot_stimuli\\filler.mp4,22,,,,,,,,,,,,,0,79,79,79,,,,,,,,,,,,,,,,,1915.1482110000015,1916.2132899000007,,,,,,,,,1919.2757672000007,1927.6965812000017,1919.2757672000007,1927.6965812000017,1919.2757672000007,1927.6965812000017,1919.2757672000007,1927.6965812000017,70.89506172839506,7.31926840000051,space,,,8.354416599997421,,,,,,,,1900.8293841000013,1900.8293841000013,None,,1912.9354982000004,1915.1482110000015,1916.2132899000007,1916.2132899000007,1916.2132899000007,1916.2132899000007,n,2.8256758999978047,1900.8293841000013,1900.8293841000013,,,22,001,2024-08-01_13h11.24.718,robot_sternberg_sign,2022.2.5,60.05439727346326,
"['K', 'Z']",True,Z,2,letter,3,True,False,"['robot_stimuli\\\\filler.mp4', 'robot_stimuli\\\\filler.mp4']",robot_stimuli\\filler.mp4,22,,,,,,,,,,,,,0,80,80,80,,,,,,,,,,,,,,,,,1939.5714613,1940.632100500001,,,,,,,,,1941.8591948000012,1941.8591948000012,1941.8591948000012,1941.8591948000012,1941.8591948000012,1941.8591948000012,1941.8591948000012,1941.8591948000012,None,None,None,,,,,,,,,,,1927.6965812000017,1927.6965812000017,space,6.285770299997239,1937.3647139000004,1939.5714613,1940.632100500001,1940.632100500001,1940.632100500001,1940.632100500001,c,1.1499005999976362,,,,,22,001,2024-08-01_13h11.24.718,robot_sternberg_sign,2022.2.5,60.05439727346326,
"['J', 'N']",True,N,2,letter,3,False,False,"['robot_stimuli\\\\filler.mp4', 'robot_stimuli\\\\filler.mp4']",robot_stimuli\\filler.mp4,22,,,,,,,,,,,,,0,81,81,81,,,,,,,,,,,,,,,,,1947.4202466000006,1948.4825876000014,,,,,,,,,1949.7122803000002,1949.7122803000002,1949.7122803000002,1949.7122803000002,1949.7122803000002,1949.7122803000002,1949.7122803000002,1949.7122803000002,None,None,None,,,,,,,,,,,1941.8591948000012,1941.8591948000012,None,,1945.2026438000012,1947.4202466000006,1948.4825876000014,1948.4825876000014,1948.4825876000014,1948.4825876000014,c,1.0919659999981377,1941.8591948000012,1941.8591948000012,,,22,001,2024-08-01_13h11.24.718,robot_sternberg_sign,2022.2.5,60.05439727346326,
"['V', 'X']",True,X,2,letter,3,False,False,"['robot_stimuli\\\\filler.mp4', 'robot_stimuli\\\\filler.mp4']",robot_stimuli\\filler.mp4,22,,,,,,,,,,,,,0,82,82,82,,,,,,,,,,,,,,,,,1955.2596169000008,1956.3157971,,,,,,,,,1957.3386771000005,1957.3386771000005,1957.3386771000005,1957.3386771000005,1957.3386771000005,1957.3386771000005,1957.3386771000005,1957.3386771000005,None,None,None,,,,,,,,,,,1949.7122803000002,1949.7122803000002,None,,1953.0507799000006,1955.2596169000008,1956.3157971,1956.3157971,1956.3157971,1956.3157971,c,0.842986399999063,1949.7122803000002,1949.7122803000002,,,22,001,2024-08-01_13h11.24.718,robot_sternberg_sign,2022.2.5,60.05439727346326,
"['T', 'Q']",True,Q,2,letter,3,False,False,"['robot_stimuli\\\\filler.mp4', 'robot_stimuli\\\\filler.mp4']",robot_stimuli\\filler.mp4,22,,,,,,,,,,,,,0,83,83,83,,,,,,,,,,,,,,,,,1962.5029139000017,1963.5656341000013,,,,,,,,,1964.5878255000007,1964.5878255000007,1964.5878255000007,1964.5878255000007,1964.5878255000007,1964.5878255000007,1964.5878255000007,1964.5878255000007,None,None,None,,,,,,,,,,,1957.3386771000005,1957.3386771000005,None,,1960.4943368000004,1962.5029139000017,1963.5656341000013,1963.5656341000013,1963.5656341000013,1963.5656341000013,c,0.8162133999976504,1957.3386771000005,1957.3386771000005,,,22,001,2024-08-01_13h11.24.718,robot_sternberg_sign,2022.2.5,60.05439727346326,
"['Q', 'N']",True,Q,2,letter,3,False,False,"['robot_stimuli\\\\filler.mp4', 'robot_stimuli\\\\filler.mp4']",robot_stimuli\\filler.mp4,22,,,,,,,,,,,,,0,84,84,84,,,,,,,,,,,,,,,,,1969.9678980000008,1971.032343500001,,,,,,,,,1972.0574526,1972.0574526,1972.0574526,1972.0574526,1972.0574526,1972.0574526,1972.0574526,1972.0574526,None,None,None,,,,,,,,,,,1964.5878255000007,1964.5878255000007,None,,1967.7500900000014,1969.9678980000008,1971.032343500001,1971.032343500001,1971.032343500001,1971.032343500001,c,0.9023553999995784,1964.5878255000007,1964.5878255000007,,,22,001,2024-08-01_13h11.24.718,robot_sternberg_sign,2022.2.5,60.05439727346326,
"['L', 'Q']",False,G,2,letter,3,False,False,"['robot_stimuli\\\\filler.mp4', 'robot_stimuli\\\\filler.mp4']",robot_stimuli\\filler.mp4,22,,,,,,,,,,,,,0,85,85,85,,,,,,,,,,,,,,,,,1977.445195100001,1978.5134559000016,,,,,,,,,1979.934996,1979.934996,1979.934996,1979.934996,1979.934996,1979.934996,1979.934996,1979.934996,None,None,None,,,,,,,,,,,1972.0574526,1972.0574526,None,,1975.4281364000017,1977.445195100001,1978.5134559000016,1978.5134559000016,1978.5134559000016,1978.5134559000016,n,1.3007607999988977,1972.0574526,1972.0574526,,,22,001,2024-08-01_13h11.24.718,robot_sternberg_sign,2022.2.5,60.05439727346326,
"['C', 'P']",False,K,2,letter,3,False,False,"['robot_stimuli\\\\filler.mp4', 'robot_stimuli\\\\filler.mp4']",robot_stimuli\\filler.mp4,22,,,,,,,,,,,,,0,86,86,86,,,,,,,,,,,,,,,,,1985.3048354000002,1986.365586,,,,,,,,,1987.5884793000005,1987.5884793000005,1987.5884793000005,1987.5884793000005,1987.5884793000005,1987.5884793000005,1987.5884793000005,1987.5884793000005,None,None,None,,,,,,,,,,,1979.934996,1979.934996,None,,1983.2957117000005,1985.3048354000002,1986.365586,1986.365586,1986.365586,1986.365586,n,1.089272199998959,1979.934996,1979.934996,,,22,001,2024-08-01_13h11.24.718,robot_sternberg_sign,2022.2.5,60.05439727346326,
"['X', 'V']",False,T,2,letter,3,False,False,"['robot_stimuli\\\\filler.mp4', 'robot_stimuli\\\\filler.mp4']",robot_stimuli\\filler.mp4,22,,,,,,,,,,,,,0,87,87,87,,,,,,,,,,,,,,,,,1992.9537934,1994.0158575000005,,,,,,,,,1995.4427982000016,1995.4427982000016,1995.4427982000016,1995.4427982000016,1995.4427982000016,1995.4427982000016,1995.4427982000016,1995.4427982000016,None,None,None,,,,,,,,,,,1987.5884793000005,1987.5884793000005,None,,1990.940655100001,1992.9537934,1994.0158575000005,1994.0158575000005,1994.0158575000005,1994.0158575000005,n,1.1821244999973715,1987.5884793000005,1987.5884793000005,,,22,001,2024-08-01_13h11.24.718,robot_sternberg_sign,2022.2.5,60.05439727346326,
"['P', 'C']",False,L,2,letter,3,False,False,"['robot_stimuli\\\\filler.mp4', 'robot_stimuli\\\\filler.mp4']",robot_stimuli\\filler.mp4,22,,,,,,,,,,,,,0,88,88,88,,,,,,,,,,,,,,,,,2001.0355139000003,2002.0989824000008,,,,,,,,,2003.3287979000015,2003.3287979000015,2003.3287979000015,2003.3287979000015,2003.3287979000015,2003.3287979000015,2003.3287979000015,2003.3287979000015,None,None,None,,,,,,,,,,,1995.4427982000016,1995.4427982000016,None,,1998.8149135000003,2001.0355139000003,2002.0989824000008,2002.0989824000008,2002.0989824000008,2002.0989824000008,n,1.1308101999966311,1995.4427982000016,1995.4427982000016,,,22,001,2024-08-01_13h11.24.718,robot_sternberg_sign,2022.2.5,60.05439727346326,
"['K', 'D']",False,B,2,letter,3,False,True,"['robot_stimuli\\\\filler.mp4', 'robot_stimuli\\\\filler.mp4']",robot_stimuli\\filler.mp4,22,,,,,,,,,,,,,0,89,89,89,,,,,,,,,,,,,,,,,2008.8831494000005,2009.9506231000014,,,,,,,,,2011.0111808000001,2018.096297600001,2011.0111808000001,2018.096297600001,2011.0111808000001,2018.096297600001,2011.0111808000001,2018.096297600001,40.80246913580247,5.979809300000852,space,,,7.034383699998216,,,,,,,,2003.3287979000015,2003.3287979000015,None,,2006.6694415000002,2008.8831494000005,2009.9506231000014,2009.9506231000014,2009.9506231000014,2009.9506231000014,n,0.9366784999983793,2003.3287979000015,2003.3287979000015,,,22,001,2024-08-01_13h11.24.718,robot_sternberg_sign,2022.2.5,60.05439727346326,
"['R_Base_Z_For', 'R_Arm_Z_Back', 'L_Torso_Y_For', 'L_Torso_X_For', 'R_Head_X_Back', 'L_Arm_Y_Back']",False,R_Torso_X_For,6,robot,4,True,False,"['robot_stimuli\\R_Base_Z_For.mp4', 'robot_stimuli\\R_Arm_Z_Back.mp4', 'robot_stimuli\\L_Torso_Y_For.mp4', 'robot_stimuli\\L_Torso_X_For.mp4', 'robot_stimuli\\R_Head_X_Back.mp4', 'robot_stimuli\\L_Arm_Y_Back.mp4']",robot_stimuli\R_Torso_X_For.mp4,22,,,,,,,,,,,,,0,90,90,90,,,,,,,,,,,,,,,,,2099.1518534000006,2100.2398524,,,,,,,,,2104.3386665000016,2104.3386665000016,2104.3386665000016,2104.3386665000016,2104.3386665000016,2104.3386665000016,2104.3386665000016,2104.3386665000016,None,None,None,,,,,,,,,,,2018.096297600001,2018.096297600001,space,57.710258999999496,,,,2100.2398524,2100.2398524,2100.2398524,n,4.061995399997613,,,2095.5217078000005,2100.2398524,22,001,2024-08-01_13h11.24.718,robot_sternberg_sign,2022.2.5,60.05439727346326,
"['R_Head_Z_For', 'L_Torso_Y_For', 'L_Arm_Y_For', 'L_Arm_Z_Back', 'L_Arm_X_For', 'R_Arm_Z_Back']",False,L_Head_X_Back,6,robot,4,False,False,"['robot_stimuli\\R_Head_Z_For.mp4', 'robot_stimuli\\L_Torso_Y_For.mp4', 'robot_stimuli\\L_Arm_Y_For.mp4', 'robot_stimuli\\L_Arm_Z_Back.mp4', 'robot_stimuli\\L_Arm_X_For.mp4', 'robot_stimuli\\R_Arm_Z_Back.mp4']",robot_stimuli\L_Head_X_Back.mp4,22,,,,,,,,,,,,,0,91,91,91,,,,,,,,,,,,,,,,,2127.6652938000007,2105.4208560000006,,,,,,,,,2132.3941041000016,2132.3941041000016,2132.3941041000016,2132.3941041000016,2132.3941041000016,2132.3941041000016,2132.3941041000016,2132.3941041000016,None,None,None,,,,,,,,,,,2104.3386665000016,2104.3386665000016,None,,,,,2128.7558274000003,2128.7558274000003,2128.7558274000003,n,2.6736327999988134,2104.3386665000016,2104.3386665000016,2124.034779200001,2128.7558274000003,22,001,2024-08-01_13h11.24.718,robot_sternberg_sign,2022.2.5,60.05439727346326,
"['R_Base_Y_Back', 'R_Arm_Y_Back', 'L_Head_X_Back', 'L_Arm_Z_For', 'L_Base_Z_For', 'L_Base_Y_For']",False,R_Torso_Z_For,6,robot,4,False,False,"['robot_stimuli\\R_Base_Y_Back.mp4', 'robot_stimuli\\R_Arm_Y_Back.mp4', 'robot_stimuli\\L_Head_X_Back.mp4', 'robot_stimuli\\L_Arm_Z_For.mp4', 'robot_stimuli\\L_Base_Z_For.mp4', 'robot_stimuli\\L_Base_Y_For.mp4']",robot_stimuli\R_Torso_Z_For.mp4,22,,,,,,,,,,,,,0,92,92,92,,,,,,,,,,,,,,,,,2155.6192365000006,2156.7079531,,,,,,,,,2163.4882436000007,2163.4882436000007,2163.4882436000007,2163.4882436000007,2163.4882436000007,2163.4882436000007,2163.4882436000007,2163.4882436000007,None,None,None,,,,,,,,,,,2132.3941041000016,2132.3941041000016,None,,,,,2156.7079531,2156.7079531,2156.7079531,n,6.746524299998782,2132.3941041000016,2132.3941041000016,2152.0884103000008,2156.7079531,22,001,2024-08-01_13h11.24.718,robot_sternberg_sign,2022.2.5,60.05439727346326,
"['R_Base_Y_Back', 'L_Torso_Y_Back', 'L_Torso_X_For', 'R_Head_X_Back', 'R_Base_X_For', 'R_Arm_Y_Back']",False,R_Arm_X_For,6,robot,4,False,False,"['robot_stimuli\\R_Base_Y_Back.mp4', 'robot_stimuli\\L_Torso_Y_Back.mp4', 'robot_stimuli\\L_Torso_X_For.mp4', 'robot_stimuli\\R_Head_X_Back.mp4', 'robot_stimuli\\R_Base_X_For.mp4', 'robot_stimuli\\R_Arm_Y_Back.mp4']",robot_stimuli\R_Arm_X_For.mp4,22,,,,,,,,,,,,,0,93,93,93,,,,,,,,,,,,,,,,,2186.5859409000004,2187.6736317000014,,,,,,,,,2191.4388316000004,2191.4388316000004,2191.4388316000004,2191.4388316000004,2191.4388316000004,2191.4388316000004,2191.4388316000004,2191.4388316000004,None,None,None,,,,,,,,,,,2163.4882436000007,2163.4882436000007,None,,,,,2187.6736317000014,2187.6736317000014,2187.6736317000014,n,3.7247286999972857,2163.4882436000007,2163.4882436000007,2182.953535800001,2187.6736317000014,22,001,2024-08-01_13h11.24.718,robot_sternberg_sign,2022.2.5,60.05439727346326,
"['L_Torso_Y_For', 'R_Base_Y_For', 'R_Torso_X_Back', 'R_Head_Y_Back', 'R_Head_X_For', 'L_Arm_X_Back']",False,L_Arm_X_For,6,robot,4,False,False,"['robot_stimuli\\L_Torso_Y_For.mp4', 'robot_stimuli\\R_Base_Y_For.mp4', 'robot_stimuli\\R_Torso_X_Back.mp4', 'robot_stimuli\\R_Head_Y_Back.mp4', 'robot_stimuli\\R_Head_X_For.mp4', 'robot_stimuli\\L_Arm_X_Back.mp4']",robot_stimuli\L_Arm_X_For.mp4,22,,,,,,,,,,,,,0,94,94,94,,,,,,,,,,,,,,,,,2214.7664406000004,2215.855460500001,,,,,,,,,2219.5052435000016,2219.5052435000016,2219.5052435000016,2219.5052435000016,2219.5052435000016,2219.5052435000016,2219.5052435000016,2219.5052435000016,None,None,None,,,,,,,,,,,2191.4388316000004,2191.4388316000004,None,,,,,2215.855460500001,2215.855460500001,2215.855460500001,n,3.6149263999996037,2191.4388316000004,2191.4388316000004,2211.125213700001,2215.855460500001,22,001,2024-08-01_13h11.24.718,robot_sternberg_sign,2022.2.5,60.05439727346326,
"['L_Head_Z_For', 'L_Base_Z_For', 'L_Head_Z_Back', 'R_Head_Z_Back', 'R_Base_Y_For', 'L_Arm_Y_Back']",True,R_Base_Y_For,6,robot,4,False,False,"['robot_stimuli\\L_Head_Z_For.mp4', 'robot_stimuli\\L_Base_Z_For.mp4', 'robot_stimuli\\L_Head_Z_Back.mp4', 'robot_stimuli\\R_Head_Z_Back.mp4', 'robot_stimuli\\R_Base_Y_For.mp4', 'robot_stimuli\\L_Arm_Y_Back.mp4']",robot_stimuli\R_Base_Y_For.mp4,22,,,,,,,,,,,,,0,95,95,95,,,,,,,,,,,,,,,,,2242.8368690000007,2243.9398727000007,,,,,,,,,2253.2777181,2253.2777181,2253.2777181,2253.2777181,2253.2777181,2253.2777181,2253.2777181,2253.2777181,None,None,None,,,,,,,,,,,2219.5052435000016,2219.5052435000016,None,,,,,2243.9398727000007,2243.9398727000007,2243.9398727000007,c,9.305746599999111,2219.5052435000016,2219.5052435000016,2239.202949100001,2243.9398727000007,22,001,2024-08-01_13h11.24.718,robot_sternberg_sign,2022.2.5,60.05439727346326,
"['L_Base_X_For', 'R_Arm_Z_For', 'R_Base_Z_Back', 'R_Torso_X_For', 'L_Head_Z_Back', 'R_Head_Z_For']",True,L_Head_Z_Back,6,robot,4,False,False,"['robot_stimuli\\L_Base_X_For.mp4', 'robot_stimuli\\R_Arm_Z_For.mp4', 'robot_stimuli\\R_Base_Z_Back.mp4', 'robot_stimuli\\R_Torso_X_For.mp4', 'robot_stimuli\\L_Head_Z_Back.mp4', 'robot_stimuli\\R_Head_Z_For.mp4']",robot_stimuli\L_Head_Z_Back.mp4,22,,,,,,,,,,,,,0,96,96,96,,,,,,,,,,,,,,,,,2276.4166718000015,2277.5072831000016,,,,,,,,,2281.4548312000006,2281.4548312000006,2281.4548312000006,2281.4548312000006,2281.4548312000006,2281.4548312000006,2281.4548312000006,2281.4548312000006,None,None,None,,,,,,,,,,,2253.2777181,2253.2777181,None,,,,,2277.5072831000016,2277.5072831000016,2277.5072831000016,c,3.907926199997746,2253.2777181,2253.2777181,2272.7756981,2277.5072831000016,22,001,2024-08-01_13h11.24.718,robot_sternberg_sign,2022.2.5,60.05439727346326,
"['L_Base_Z_For', 'L_Arm_X_Back', 'L_Torso_X_For', 'R_Base_X_For', 'R_Head_Y_Back', 'R_Torso_X_Back']",True,L_Base_Z_For,6,robot,4,False,False,"['robot_stimuli\\L_Base_Z_For.mp4', 'robot_stimuli\\L_Arm_X_Back.mp4', 'robot_stimuli\\L_Torso_X_For.mp4', 'robot_stimuli\\R_Base_X_For.mp4', 'robot_stimuli\\R_Head_Y_Back.mp4', 'robot_stimuli\\R_Torso_X_Back.mp4']",robot_stimuli\L_Base_Z_For.mp4,22,,,,,,,,,,,,,0,97,97,97,,,,,,,,,,,,,,,,,2304.7164900000007,2305.8073463,,,,,,,,,2310.3255206000013,2310.3255206000013,2310.3255206000013,2310.3255206000013,2310.3255206000013,2310.3255206000013,2310.3255206000013,2310.3255206000013,None,None,None,,,,,,,,,,,2281.4548312000006,2281.4548312000006,None,,,,,2305.8073463,2305.8073463,2305.8073463,c,4.487831299997197,2281.4548312000006,2281.4548312000006,2301.0870834000016,2305.8073463,22,001,2024-08-01_13h11.24.718,robot_sternberg_sign,2022.2.5,60.05439727346326,
"['L_Torso_Y_Back', 'L_Base_Z_For', 'R_Arm_X_Back', 'L_Head_X_For', 'R_Arm_Y_Back', 'L_Arm_Y_Back']",True,R_Arm_X_Back,6,robot,4,False,False,"['robot_stimuli\\L_Torso_Y_Back.mp4', 'robot_stimuli\\L_Base_Z_For.mp4', 'robot_stimuli\\R_Arm_X_Back.mp4', 'robot_stimuli\\L_Head_X_For.mp4', 'robot_stimuli\\R_Arm_Y_Back.mp4', 'robot_stimuli\\L_Arm_Y_Back.mp4']",robot_stimuli\R_Arm_X_Back.mp4,22,,,,,,,,,,,,,0,98,98,98,,,,,,,,,,,,,,,,,2333.4339483000003,2334.5275743,,,,,,,,,2338.471533400001,2338.471533400001,2338.471533400001,2338.471533400001,2338.471533400001,2338.471533400001,2338.471533400001,2338.471533400001,None,None,None,,,,,,,,,,,2310.3255206000013,2310.3255206000013,None,,,,,2334.5275743,2334.5275743,2334.5275743,c,3.9184614999994665,2310.3255206000013,2310.3255206000013,2329.7926202000017,2334.5275743,22,001,2024-08-01_13h11.24.718,robot_sternberg_sign,2022.2.5,60.05439727346326,
"['R_Base_X_Back', 'L_Torso_X_For', 'L_Head_X_Back', 'L_Torso_Z_Back', 'R_Base_Y_For', 'R_Torso_Z_Back']",True,L_Head_X_Back,6,robot,4,False,True,"['robot_stimuli\\R_Base_X_Back.mp4', 'robot_stimuli\\L_Torso_X_For.mp4', 'robot_stimuli\\L_Head_X_Back.mp4', 'robot_stimuli\\L_Torso_Z_Back.mp4', 'robot_stimuli\\R_Base_Y_For.mp4', 'robot_stimuli\\R_Torso_Z_Back.mp4']",robot_stimuli\L_Head_X_Back.mp4,22,,,,,,,,,,,,,0,99,99,99,,,,,,,,,,,,,,,,,2361.6989297,2339.5551136000013,,,,,,,,,2366.463945200001,2372.3031001,2366.463945200001,2372.3031001,2366.463945200001,2372.3031001,2366.463945200001,2372.3031001,109.320987654321,4.287113299998964,space,,,5.7901906999977655,,,,,,,,2338.471533400001,2338.471533400001,None,,,,,2362.7907956,2362.7907956,2362.7907956,c,3.2081842999978107,2338.471533400001,2338.471533400001,2358.0570788000005,2362.7907956,22,001,2024-08-01_13h11.24.718,robot_sternberg_sign,2022.2.5,60.05439727346326,
"['L_Torso_X_For', 'R_Head_Z_For', 'L_Base_X_Back', 'L_Base_Y_Back']",True,R_Head_Z_For,4,robot,4,True,False,"['robot_stimuli\\L_Torso_X_For.mp4', 'robot_stimuli\\R_Head_Z_For.mp4', 'robot_stimuli\\L_Base_X_Back.mp4', 'robot_stimuli\\L_Base_Y_Back.mp4']",robot_stimuli\R_Head_Z_For.mp4,22,,,,,,,,,,,,,0,100,100,100,,,,,,,,,,,,,,,,,2486.269406900001,2487.3589388,,,,,,,,,2491.0091446000006,2491.0091446000006,2491.0091446000006,2491.0091446000006,2491.0091446000006,2491.0091446000006,2491.0091446000006,2491.0091446000006,None,None,None,,,,,,,,,,,2372.3031001,2372.3031001,space,98.17502869999771,,,,2487.3589388,2487.3589388,2487.3589388,c,3.0547457999982726,,,2482.7060313,2487.3589388,22,001,2024-08-01_13h11.24.718,robot_sternberg_sign,2022.2.5,60.05439727346326,
"['L_Arm_Z_Back', 'L_Head_Y_Back', 'R_Base_Z_Back', 'R_Base_Z_For']",True,L_Head_Y_Back,4,robot,4,False,False,"['robot_stimuli\\L_Arm_Z_Back.mp4', 'robot_stimuli\\L_Head_Y_Back.mp4', 'robot_stimuli\\R_Base_Z_Back.mp4', 'robot_stimuli\\R_Base_Z_For.mp4']",robot_stimuli\L_Head_Y_Back.mp4,22,,,,,,,,,,,,,0,101,101,101,,,,,,,,,,,,,,,,,2506.8041404000014,2507.891278700001,,,,,,,,,2511.656810100001,2511.656810100001,2511.656810100001,2511.656810100001,2511.656810100001,2511.656810100001,2511.656810100001,2511.656810100001,None,None,None,,,,,,,,,,,2491.0091446000006,2491.0091446000006,None,,,,,2507.891278700001,2507.891278700001,2507.891278700001,c,3.7317697999969823,2491.0091446000006,2491.0091446000006,2503.1616374000005,2507.891278700001,22,001,2024-08-01_13h11.24.718,robot_sternberg_sign,2022.2.5,60.05439727346326,
"['R_Head_X_Back', 'R_Torso_X_Back', 'L_Torso_X_Back', 'L_Arm_Z_For']",False,L_Base_Y_For,4,robot,4,False,False,"['robot_stimuli\\R_Head_X_Back.mp4', 'robot_stimuli\\R_Torso_X_Back.mp4', 'robot_stimuli\\L_Torso_X_Back.mp4', 'robot_stimuli\\L_Arm_Z_For.mp4']",robot_stimuli\L_Base_Y_For.mp4,22,,,,,,,,,,,,,0,102,102,102,,,,,,,,,,,,,,,,,2527.5514292000007,2528.6412598000006,,,,,,,,,2537.2619454000014,2537.2619454000014,2537.2619454000014,2537.2619454000014,2537.2619454000014,2537.2619454000014,2537.2619454000014,2537.2619454000014,None,None,None,,,,,,,,,,,2511.656810100001,2511.656810100001,None,,,,,2528.6412598000006,2528.6412598000006,2528.6412598000006,n,8.589969299999211,2511.656810100001,2511.656810100001,2523.9102871000014,2528.6412598000006,22,001,2024-08-01_13h11.24.718,robot_sternberg_sign,2022.2.5,60.05439727346326,
"['R_Arm_X_For', 'R_Arm_Y_Back', 'L_Torso_X_Back', 'R_Arm_Y_For']",False,R_Base_Y_For,4,robot,4,False,False,"['robot_stimuli\\R_Arm_X_For.mp4', 'robot_stimuli\\R_Arm_Y_Back.mp4', 'robot_stimuli\\L_Torso_X_Back.mp4', 'robot_stimuli\\R_Arm_Y_For.mp4']",robot_stimuli\R_Base_Y_For.mp4,22,,,,,,,,,,,,,0,103,103,103,,,,,,,,,,,,,,,,,2552.9963052000003,2554.0757337000014,,,,,,,,,2557.7220065,2557.7220065,2557.7220065,2557.7220065,2557.7220065,2557.7220065,2557.7220065,2557.7220065,None,None,None,,,,,,,,,,,2537.2619454000014,2537.2619454000014,None,,,,,2554.0757337000014,2554.0757337000014,2554.0757337000014,n,3.5953903999979957,2537.2619454000014,2537.2619454000014,2549.5073900000007,2554.0757337000014,22,001,2024-08-01_13h11.24.718,robot_sternberg_sign,2022.2.5,60.05439727346326,
"['L_Head_Z_Back', 'L_Torso_Z_Back', 'L_Head_X_For', 'L_Arm_Z_For']",False,R_Base_Z_For,4,robot,4,False,False,"['robot_stimuli\\L_Head_Z_Back.mp4', 'robot_stimuli\\L_Torso_Z_Back.mp4', 'robot_stimuli\\L_Head_X_For.mp4', 'robot_stimuli\\L_Arm_Z_For.mp4']",robot_stimuli\R_Base_Z_For.mp4,22,,,,,,,,,,,,,0,104,104,104,,,,,,,,,,,,,,,,,2573.4159581000004,2558.8045406,,,,,,,,,2578.1573481000014,2578.1573481000014,2578.1573481000014,2578.1573481000014,2578.1573481000014,2578.1573481000014,2578.1573481000014,2578.1573481000014,None,None,None,,,,,,,,,,,2557.7220065,2557.7220065,None,,,,,2574.5089649,2574.5089649,2574.5089649,n,3.49811839999893,2557.7220065,2557.7220065,2569.7853921000005,2574.5089649,22,001,2024-08-01_13h11.24.718,robot_sternberg_sign,2022.2.5,60.05439727346326,
