sequence,is_target,condition,stimuli,block,is_block_beginning,is_block_ending,fname,subject,retraining.thisRepN,retraining.thisTrialN,retraining.thisN,retraining.thisIndex,training.thisRepN,training.thisTrialN,training.thisN,training.thisIndex,trials.thisRepN,trials.thisTrialN,trials.thisN,trials.thisIndex,langage_text.started,langage_key.started,langage_key.keys,langage_key.rt,intro_text.started,intro_key.started,intro_key.keys,intro_key.rt,training_robot_intro_text.started,training_robot_intro_key.started,training_robot_intro_key.keys,training_robot_intro_key.rt,cross.started,cross.stopped,training_letter.started,training_robot_key.started,training_robot_question.started,training_robot_keys.started,training_letter.stopped,training_robot_key.keys,RSME_labels.started,RSME_labels.stopped,RSME_ticks.started,RSME_ticks.stopped,RSME_text.started,RSME_text.stopped,RSME_key.started,RSME_key.stopped,RSME_ticks.response,RSME_ticks.rt,RSME_key.keys,training_robot_intro_text.stopped,training_robot_intro_key.stopped,training_robot_key.rt,RSME_key.rt,training_robot_movie.started,experiment_beginning_text.started,experiment_beginning_keys.started,experiment_beginning_key.started,experiment_beginning_key.keys,experiment_beginning_key.rt,block_intro_text.started,block_intro_key.started,block_intro_key.keys,block_intro_key.rt,letter.started,key.started,letter.stopped,key.keys,key.rt,block_intro_text.stopped,block_intro_key.stopped,movie.started,participant,session,date,expName,psychopyVersion,frameRate,
,,,,,,,,,,,,,,,,,,,,,17.318133099994157,17.318133099994157,f,1.6596286999993026,,,,,,,,,,,,,,,,,,,,,,,,,,,,,,,,,,,,,,,,,,,,,,,,,,20,001,2024-07-03_10h35.54.472,robot_nback_sign,2022.2.5,60.07958141276605,
,,,,,,,,,,,,,,,,,,,,,,,,,19.03474329999881,19.03474329999881,space,89.18202829999791,,,,,,,,,,,,,,,,,,,,,,,,,,,,,,,,,,,,,,,,,,,,,,20,001,2024-07-03_10h35.54.472,robot_nback_sign,2022.2.5,60.07958141276605,
P,False,1,letter,1,True,False,robot_stimuli\\filler.mp4,20,0,0,0,0,0,0,0,0,,,,,,,,,,,,,108.26653329998953,108.26653329998953,space,58.27873710000131,166.5651932000037,167.92265880000195,167.92265880000195,167.92265880000195,167.92265880000195,167.92265880000195,170.23635939999076,None,170.23635939999076,170.23635939999076,170.23635939999076,170.23635939999076,170.23635939999076,170.23635939999076,170.23635939999076,170.23635939999076,None,None,None,,,,,,,,,,,,,,,,,,,,,,,20,001,2024-07-03_10h35.54.472,robot_nback_sign,2022.2.5,60.07958141276605,
T,False,1,letter,1,False,False,robot_stimuli\\filler.mp4,20,0,0,0,0,0,1,1,1,,,,,,,,,,,,,170.23635939999076,170.23635939999076,None,,170.23635939999076,,171.31618069999968,171.31618069999968,171.31618069999968,171.31618069999968,173.34396630000265,None,173.34396630000265,173.34396630000265,173.34396630000265,173.34396630000265,173.34396630000265,173.34396630000265,173.34396630000265,173.34396630000265,None,None,None,170.23635939999076,170.23635939999076,,,,,,,,,,,,,,,,,,,,,20,001,2024-07-03_10h35.54.472,robot_nback_sign,2022.2.5,60.07958141276605,
C,False,1,letter,1,False,False,robot_stimuli\\filler.mp4,20,0,0,0,0,0,2,2,2,,,,,,,,,,,,,173.34396630000265,173.34396630000265,None,,173.34396630000265,174.41404709999915,174.41404709999915,174.41404709999915,174.41404709999915,174.41404709999915,176.4485352999909,n,176.4485352999909,176.4485352999909,176.4485352999909,176.4485352999909,176.4485352999909,176.4485352999909,176.4485352999909,176.4485352999909,None,None,None,173.34396630000265,173.34396630000265,1.4750865999958478,,,,,,,,,,,,,,,,,,,,20,001,2024-07-03_10h35.54.472,robot_nback_sign,2022.2.5,60.07958141276605,
R,False,1,letter,1,False,False,robot_stimuli\\filler.mp4,20,0,0,0,0,0,3,3,3,,,,,,,,,,,,,176.4485352999909,176.4485352999909,None,,176.4485352999909,177.5142274999962,177.5142274999962,177.5142274999962,177.5142274999962,177.5142274999962,179.54056949999358,n,179.54056949999358,179.54056949999358,179.54056949999358,179.54056949999358,179.54056949999358,179.54056949999358,179.54056949999358,179.54056949999358,None,None,None,176.4485352999909,176.4485352999909,0.8855785000050673,,,,,,,,,,,,,,,,,,,,20,001,2024-07-03_10h35.54.472,robot_nback_sign,2022.2.5,60.07958141276605,
R,True,1,letter,1,False,False,robot_stimuli\\filler.mp4,20,0,0,0,0,0,4,4,4,,,,,,,,,,,,,179.54056949999358,179.54056949999358,None,,179.54056949999358,180.61122469999827,180.61122469999827,180.61122469999827,180.61122469999827,180.61122469999827,182.63665040000342,c,182.63665040000342,182.63665040000342,182.63665040000342,182.63665040000342,182.63665040000342,182.63665040000342,182.63665040000342,182.63665040000342,None,None,None,179.54056949999358,179.54056949999358,0.9017713000066578,,,,,,,,,,,,,,,,,,,,20,001,2024-07-03_10h35.54.472,robot_nback_sign,2022.2.5,60.07958141276605,
R,True,1,letter,1,False,True,robot_stimuli\\filler.mp4,20,0,0,0,0,0,5,5,5,,,,,,,,,,,,,182.63665040000342,182.63665040000342,None,,182.63665040000342,183.7162893999921,183.7162893999921,183.7162893999921,183.7162893999921,183.7162893999921,185.80237599999236,c,185.80237599999236,193.88222629998927,185.80237599999236,193.88222629998927,185.80237599999236,193.88222629998927,185.80237599999236,193.88222629998927,9.78395061728395,4.309557799992035,space,182.63665040000342,182.63665040000342,0.9406435999990208,8.029865599994082,,,,,,,,,,,,,,,,,,,20,001,2024-07-03_10h35.54.472,robot_nback_sign,2022.2.5,60.07958141276605,
N,False,2,letter,1,True,False,robot_stimuli\\filler.mp4,20,0,0,0,0,0,6,6,6,,,,,,,,,,,,,193.88222629998927,193.88222629998927,space,2.3258579000103055,196.23187119999784,197.306834899995,197.306834899995,197.306834899995,197.306834899995,197.306834899995,199.52846799998952,None,199.52846799998952,199.52846799998952,199.52846799998952,199.52846799998952,199.52846799998952,199.52846799998952,199.52846799998952,199.52846799998952,None,None,None,,,,,,,,,,,,,,,,,,,,,,,20,001,2024-07-03_10h35.54.472,robot_nback_sign,2022.2.5,60.07958141276605,
J,False,2,letter,1,False,False,robot_stimuli\\filler.mp4,20,0,0,0,0,0,7,7,7,,,,,,,,,,,,,199.52846799998952,199.52846799998952,None,,199.52846799998952,200.59857499999634,200.59857499999634,200.59857499999634,200.59857499999634,200.59857499999634,202.62670169999183,None,202.62670169999183,202.62670169999183,202.62670169999183,202.62670169999183,202.62670169999183,202.62670169999183,202.62670169999183,202.62670169999183,None,None,None,199.52846799998952,199.52846799998952,,,,,,,,,,,,,,,,,,,,,20,001,2024-07-03_10h35.54.472,robot_nback_sign,2022.2.5,60.07958141276605,
X,False,2,letter,1,False,False,robot_stimuli\\filler.mp4,20,0,0,0,0,0,8,8,8,,,,,,,,,,,,,202.62670169999183,202.62670169999183,None,,202.62670169999183,203.69900149999012,203.69900149999012,203.69900149999012,203.69900149999012,203.69900149999012,205.72914799999853,n,205.72914799999853,205.72914799999853,205.72914799999853,205.72914799999853,205.72914799999853,205.72914799999853,205.72914799999853,205.72914799999853,None,None,None,202.62670169999183,202.62670169999183,1.2288260000059381,,,,,,,,,,,,,,,,,,,,20,001,2024-07-03_10h35.54.472,robot_nback_sign,2022.2.5,60.07958141276605,
J,True,2,letter,1,False,False,robot_stimuli\\filler.mp4,20,0,0,0,0,0,9,9,9,,,,,,,,,,,,,205.72914799999853,205.72914799999853,None,,205.72914799999853,206.80116059999273,206.80116059999273,206.80116059999273,206.80116059999273,206.80116059999273,209.0343634000019,c,209.0343634000019,209.0343634000019,209.0343634000019,209.0343634000019,209.0343634000019,209.0343634000019,209.0343634000019,209.0343634000019,None,None,None,205.72914799999853,205.72914799999853,0.959396200007177,,,,,,,,,,,,,,,,,,,,20,001,2024-07-03_10h35.54.472,robot_nback_sign,2022.2.5,60.07958141276605,
X,True,2,letter,1,False,False,robot_stimuli\\filler.mp4,20,0,0,0,0,0,10,10,10,,,,,,,,,,,,,209.0343634000019,209.0343634000019,None,,209.0343634000019,,210.11252559999411,210.11252559999411,210.11252559999411,210.11252559999411,212.1458552999975,c,212.1458552999975,212.1458552999975,212.1458552999975,212.1458552999975,212.1458552999975,212.1458552999975,212.1458552999975,212.1458552999975,None,None,None,209.0343634000019,209.0343634000019,1.1918128000106663,,,,,,,,,,,,,,,,,,,,20,001,2024-07-03_10h35.54.472,robot_nback_sign,2022.2.5,60.07958141276605,
Q,False,2,letter,1,False,True,robot_stimuli\\filler.mp4,20,0,0,0,0,0,11,11,11,,,,,,,,,,,,,212.1458552999975,212.1458552999975,None,,212.1458552999975,213.2191310999915,213.2191310999915,213.2191310999915,213.2191310999915,213.2191310999915,215.47727789999044,n,215.47727789999044,223.15176589999464,215.47727789999044,223.15176589999464,215.47727789999044,223.15176589999464,215.47727789999044,223.15176589999464,29.691358024691354,3.6805444000056013,space,212.1458552999975,212.1458552999975,1.1646408000087831,7.61052319999726,,,,,,,,,,,,,,,,,,,20,001,2024-07-03_10h35.54.472,robot_nback_sign,2022.2.5,60.07958141276605,
K,False,3,letter,1,True,False,robot_stimuli\\filler.mp4,20,0,0,0,0,0,12,12,12,,,,,,,,,,,,,223.15176589999464,223.15176589999464,space,6.88129810000828,230.0655900999991,231.13795629999368,231.13795629999368,231.13795629999368,231.13795629999368,231.13795629999368,233.36030919999757,None,233.36030919999757,233.36030919999757,233.36030919999757,233.36030919999757,233.36030919999757,233.36030919999757,233.36030919999757,233.36030919999757,None,None,None,,,,,,,,,,,,,,,,,,,,,,,20,001,2024-07-03_10h35.54.472,robot_nback_sign,2022.2.5,60.07958141276605,
S,False,3,letter,1,False,False,robot_stimuli\\filler.mp4,20,0,0,0,0,0,13,13,13,,,,,,,,,,,,,233.36030919999757,233.36030919999757,None,,233.36030919999757,234.43201829999452,234.43201829999452,234.43201829999452,234.43201829999452,234.43201829999452,236.46130729999277,n,236.46130729999277,236.46130729999277,236.46130729999277,236.46130729999277,236.46130729999277,236.46130729999277,236.46130729999277,236.46130729999277,None,None,None,233.36030919999757,233.36030919999757,1.8572336000070209,,,,,,,,,,,,,,,,,,,,20,001,2024-07-03_10h35.54.472,robot_nback_sign,2022.2.5,60.07958141276605,
M,False,3,letter,1,False,False,robot_stimuli\\filler.mp4,20,0,0,0,0,0,14,14,14,,,,,,,,,,,,,236.46130729999277,236.46130729999277,None,,236.46130729999277,237.5321535999974,237.5321535999974,237.5321535999974,237.5321535999974,237.5321535999974,239.5606231999991,n,239.5606231999991,239.5606231999991,239.5606231999991,239.5606231999991,239.5606231999991,239.5606231999991,239.5606231999991,239.5606231999991,None,None,None,236.46130729999277,236.46130729999277,1.1809764000063296,,,,,,,,,,,,,,,,,,,,20,001,2024-07-03_10h35.54.472,robot_nback_sign,2022.2.5,60.07958141276605,
K,True,3,letter,1,False,False,robot_stimuli\\filler.mp4,20,0,0,0,0,0,15,15,15,,,,,,,,,,,,,239.5606231999991,239.5606231999991,None,,239.5606231999991,240.6298695000005,240.6298695000005,240.6298695000005,240.6298695000005,240.6298695000005,242.664306199993,None,242.664306199993,242.664306199993,242.664306199993,242.664306199993,242.664306199993,242.664306199993,242.664306199993,242.664306199993,None,None,None,239.5606231999991,239.5606231999991,,,,,,,,,,,,,,,,,,,,,20,001,2024-07-03_10h35.54.472,robot_nback_sign,2022.2.5,60.07958141276605,
V,False,3,letter,1,False,False,robot_stimuli\\filler.mp4,20,0,0,0,0,0,16,16,16,,,,,,,,,,,,,242.664306199993,242.664306199993,None,,242.664306199993,243.73058069999388,243.73058069999388,243.73058069999388,243.73058069999388,243.73058069999388,245.761434,n,245.761434,245.761434,245.761434,245.761434,245.761434,245.761434,245.761434,245.761434,None,None,None,242.664306199993,242.664306199993,1.0542833000072278,,,,,,,,,,,,,,,,,,,,20,001,2024-07-03_10h35.54.472,robot_nback_sign,2022.2.5,60.07958141276605,
M,True,3,letter,1,False,True,robot_stimuli\\filler.mp4,20,0,0,0,0,0,17,17,17,,,,,,,,,,,,,245.761434,245.761434,None,,245.761434,246.83539459999884,246.83539459999884,246.83539459999884,246.83539459999884,246.83539459999884,249.09263369999826,None,249.09263369999826,254.6120910000027,249.09263369999826,254.6120910000027,249.09263369999826,254.6120910000027,249.09263369999826,254.6120910000027,40.956790123456784,4.174687199993059,space,245.761434,245.761434,,5.476255899993703,,,,,,,,,,,,,,,,,,,20,001,2024-07-03_10h35.54.472,robot_nback_sign,2022.2.5,60.07958141276605,
R_Head_Z_Back,False,1,robot,2,True,False,robot_stimuli\R_Head_Z_Back.mp4,20,0,0,0,0,0,18,18,18,,,,,,,,,,,,,254.6120910000027,254.6120910000027,space,2.093247500000871,256.73207379999803,257.8474048999924,,257.8474048999924,257.8474048999924,257.8474048999924,,None,261.4786316999962,261.4786316999962,261.4786316999962,261.4786316999962,261.4786316999962,261.4786316999962,261.4786316999962,261.4786316999962,None,None,None,,,,,257.8474048999924,,,,,,,,,,,,,,,,,,20,001,2024-07-03_10h35.54.472,robot_nback_sign,2022.2.5,60.07958141276605,
L_Head_Z_For,False,1,robot,2,False,False,robot_stimuli\L_Head_Z_For.mp4,20,0,0,0,0,0,19,19,19,,,,,,,,,,,,,261.4786316999962,261.4786316999962,None,,261.4786316999962,262.58528820000356,,262.58528820000356,262.58528820000356,262.58528820000356,,n,266.2277294999949,266.2277294999949,266.2277294999949,266.2277294999949,266.2277294999949,266.2277294999949,266.2277294999949,266.2277294999949,None,None,None,261.4786316999962,261.4786316999962,1.6959675000107381,,262.58528820000356,,,,,,,,,,,,,,,,,,20,001,2024-07-03_10h35.54.472,robot_nback_sign,2022.2.5,60.07958141276605,
L_Head_Z_For,True,1,robot,2,False,False,robot_stimuli\L_Head_Z_For.mp4,20,0,0,0,0,0,20,20,20,,,,,,,,,,,,,266.2277294999949,266.2277294999949,None,,266.2277294999949,267.3261483999959,,267.3261483999959,267.3261483999959,267.3261483999959,,c,270.95852479999303,270.95852479999303,270.95852479999303,270.95852479999303,270.95852479999303,270.95852479999303,270.95852479999303,270.95852479999303,None,None,None,266.2277294999949,266.2277294999949,1.8829548999929102,,267.3261483999959,,,,,,,,,,,,,,,,,,20,001,2024-07-03_10h35.54.472,robot_nback_sign,2022.2.5,60.07958141276605,
L_Head_Z_Back,False,1,robot,2,False,False,robot_stimuli\L_Head_Z_Back.mp4,20,0,0,0,0,0,21,21,21,,,,,,,,,,,,,270.95852479999303,270.95852479999303,None,,270.95852479999303,272.05874649999896,,272.05874649999896,272.05874649999896,272.05874649999896,,c,275.6932259000023,275.6932259000023,275.6932259000023,275.6932259000023,275.6932259000023,275.6932259000023,275.6932259000023,275.6932259000023,None,None,None,270.95852479999303,270.95852479999303,2.1742248999944422,,272.05874649999896,,,,,,,,,,,,,,,,,,20,001,2024-07-03_10h35.54.472,robot_nback_sign,2022.2.5,60.07958141276605,
R_Arm_X_For,False,1,robot,2,False,False,robot_stimuli\R_Arm_X_For.mp4,20,0,0,0,0,0,22,22,22,,,,,,,,,,,,,275.6932259000023,275.6932259000023,None,,275.6932259000023,276.7991608000011,,276.7991608000011,276.7991608000011,276.7991608000011,,n,280.4430655999895,280.4430655999895,280.4430655999895,280.4430655999895,280.4430655999895,280.4430655999895,280.4430655999895,280.4430655999895,None,None,None,275.6932259000023,275.6932259000023,1.6252875000063796,,276.7991608000011,,,,,,,,,,,,,,,,,,20,001,2024-07-03_10h35.54.472,robot_nback_sign,2022.2.5,60.07958141276605,
R_Arm_X_For,True,1,robot,2,False,True,robot_stimuli\R_Arm_X_For.mp4,20,0,0,0,0,0,23,23,23,,,,,,,,,,,,,280.4430655999895,280.4430655999895,None,,280.4430655999895,281.53606869999203,,281.53606869999203,281.53606869999203,281.53606869999203,,c,285.21213509999507,290.32445259999076,285.21213509999507,290.32445259999076,285.21213509999507,290.32445259999076,285.21213509999507,290.32445259999076,9.475308641975309,2.9195930999994744,space,280.4430655999895,280.4430655999895,1.536144500001683,5.052561200005584,281.53606869999203,,,,,,,,,,,,,,,,,,20,001,2024-07-03_10h35.54.472,robot_nback_sign,2022.2.5,60.07958141276605,
L_Base_Y_Back,False,2,robot,2,True,False,robot_stimuli\L_Base_Y_Back.mp4,20,0,0,0,0,0,24,24,24,,,,,,,,,,,,,290.32445259999076,290.32445259999076,space,1.5881166000035591,291.93200369999977,293.0252322000015,,293.0252322000015,293.0252322000015,293.0252322000015,,n,296.61589059999096,296.61589059999096,296.61589059999096,296.61589059999096,296.61589059999096,296.61589059999096,296.61589059999096,296.61589059999096,None,None,None,,,3.4949396000010893,,293.0252322000015,,,,,,,,,,,,,,,,,,20,001,2024-07-03_10h35.54.472,robot_nback_sign,2022.2.5,60.07958141276605,
R_Head_Z_For,False,2,robot,2,False,False,robot_stimuli\R_Head_Z_For.mp4,20,0,0,0,0,0,25,25,25,,,,,,,,,,,,,296.61589059999096,296.61589059999096,None,,296.61589059999096,297.71266379998997,,297.71266379998997,297.71266379998997,297.71266379998997,,n,301.3667626999959,301.3667626999959,301.3667626999959,301.3667626999959,301.3667626999959,301.3667626999959,301.3667626999959,301.3667626999959,None,None,None,296.61589059999096,296.61589059999096,2.056009299994912,,297.71266379998997,,,,,,,,,,,,,,,,,,20,001,2024-07-03_10h35.54.472,robot_nback_sign,2022.2.5,60.07958141276605,
L_Head_Y_For,False,2,robot,2,False,False,robot_stimuli\L_Head_Y_For.mp4,20,0,0,0,0,0,26,26,26,,,,,,,,,,,,,301.3667626999959,301.3667626999959,None,,301.3667626999959,,,302.4705239000032,302.4705239000032,302.4705239000032,,n,306.1153953999892,306.1153953999892,306.1153953999892,306.1153953999892,306.1153953999892,306.1153953999892,306.1153953999892,306.1153953999892,None,None,None,301.3667626999959,301.3667626999959,2.6976880000001984,,302.4705239000032,,,,,,,,,,,,,,,,,,20,001,2024-07-03_10h35.54.472,robot_nback_sign,2022.2.5,60.07958141276605,
R_Arm_Z_For,False,2,robot,2,False,False,robot_stimuli\R_Arm_Z_For.mp4,20,0,0,0,0,0,27,27,27,,,,,,,,,,,,,306.1153953999892,306.1153953999892,None,,306.1153953999892,307.20403959999385,,307.20403959999385,307.20403959999385,307.20403959999385,,n,310.8496482999908,310.8496482999908,310.8496482999908,310.8496482999908,310.8496482999908,310.8496482999908,310.8496482999908,310.8496482999908,None,None,None,306.1153953999892,306.1153953999892,1.78958790001343,,307.20403959999385,,,,,,,,,,,,,,,,,,20,001,2024-07-03_10h35.54.472,robot_nback_sign,2022.2.5,60.07958141276605,
L_Head_Y_For,True,2,robot,2,False,False,robot_stimuli\L_Head_Y_For.mp4,20,0,0,0,0,0,28,28,28,,,,,,,,,,,,,310.8496482999908,310.8496482999908,None,,310.8496482999908,311.94031949999044,,311.94031949999044,311.94031949999044,311.94031949999044,,c,315.57854039999074,315.57854039999074,315.57854039999074,315.57854039999074,315.57854039999074,315.57854039999074,315.57854039999074,315.57854039999074,None,None,None,310.8496482999908,310.8496482999908,1.8920988000027137,,311.94031949999044,,,,,,,,,,,,,,,,,,20,001,2024-07-03_10h35.54.472,robot_nback_sign,2022.2.5,60.07958141276605,
R_Arm_Z_For,True,2,robot,2,False,True,robot_stimuli\R_Arm_Z_For.mp4,20,0,0,0,0,0,29,29,29,,,,,,,,,,,,,315.57854039999074,315.57854039999074,None,,315.57854039999074,316.6619963999983,,316.6619963999983,316.6619963999983,316.6619963999983,,None,320.3409365999978,327.95234619999246,320.3409365999978,327.95234619999246,320.3409365999978,327.95234619999246,320.3409365999978,327.95234619999246,36.79012345679013,6.250778600006015,space,315.57854039999074,315.57854039999074,,7.563116100005573,316.6619963999983,,,,,,,,,,,,,,,,,,20,001,2024-07-03_10h35.54.472,robot_nback_sign,2022.2.5,60.07958141276605,
L_Arm_Y_Back,False,3,robot,2,True,False,robot_stimuli\L_Arm_Y_Back.mp4,20,0,0,0,0,0,30,30,30,,,,,,,,,,,,,327.95234619999246,327.95234619999246,space,1.2636722000024747,329.23217809999187,330.311719099991,,330.311719099991,330.311719099991,330.311719099991,,None,333.9594541999977,333.9594541999977,333.9594541999977,333.9594541999977,333.9594541999977,333.9594541999977,333.9594541999977,333.9594541999977,None,None,None,,,,,330.311719099991,,,,,,,,,,,,,,,,,,20,001,2024-07-03_10h35.54.472,robot_nback_sign,2022.2.5,60.07958141276605,
L_Base_Y_Back,False,3,robot,2,False,False,robot_stimuli\L_Base_Y_Back.mp4,20,0,0,0,0,0,31,31,31,,,,,,,,,,,,,333.9594541999977,333.9594541999977,None,,333.9594541999977,335.04336189999594,,335.04336189999594,335.04336189999594,335.04336189999594,,n,338.6150195999944,338.6150195999944,338.6150195999944,338.6150195999944,338.6150195999944,338.6150195999944,338.6150195999944,338.6150195999944,None,None,None,333.9594541999977,333.9594541999977,2.366088900002069,,335.04336189999594,,,,,,,,,,,,,,,,,,20,001,2024-07-03_10h35.54.472,robot_nback_sign,2022.2.5,60.07958141276605,
R_Base_Y_For,False,3,robot,2,False,False,robot_stimuli\R_Base_Y_For.mp4,20,0,0,0,0,0,32,32,32,,,,,,,,,,,,,338.6150195999944,338.6150195999944,None,,338.6150195999944,339.69528990000254,,339.69528990000254,339.69528990000254,339.69528990000254,,n,343.3501483,343.3501483,343.3501483,343.3501483,343.3501483,343.3501483,343.3501483,343.3501483,None,None,None,338.6150195999944,338.6150195999944,1.850209400014137,,339.69528990000254,,,,,,,,,,,,,,,,,,20,001,2024-07-03_10h35.54.472,robot_nback_sign,2022.2.5,60.07958141276605,
L_Arm_Y_Back,True,3,robot,2,False,False,robot_stimuli\L_Arm_Y_Back.mp4,20,0,0,0,0,0,33,33,33,,,,,,,,,,,,,343.3501483,343.3501483,None,,343.3501483,,,344.44399050000357,344.44399050000357,344.44399050000357,,c,348.0938528999977,348.0938528999977,348.0938528999977,348.0938528999977,348.0938528999977,348.0938528999977,348.0938528999977,348.0938528999977,None,None,None,343.3501483,343.3501483,2.3166334999987157,,344.44399050000357,,,,,,,,,,,,,,,,,,20,001,2024-07-03_10h35.54.472,robot_nback_sign,2022.2.5,60.07958141276605,
R_Head_Y_For,False,3,robot,2,False,False,robot_stimuli\R_Head_Y_For.mp4,20,0,0,0,0,0,34,34,34,,,,,,,,,,,,,348.0938528999977,348.0938528999977,None,,348.0938528999977,349.17742209999415,,349.17742209999415,349.17742209999415,349.17742209999415,,n,352.8257772999932,352.8257772999932,352.8257772999932,352.8257772999932,352.8257772999932,352.8257772999932,352.8257772999932,352.8257772999932,None,None,None,348.0938528999977,348.0938528999977,1.983690499997465,,349.17742209999415,,,,,,,,,,,,,,,,,,20,001,2024-07-03_10h35.54.472,robot_nback_sign,2022.2.5,60.07958141276605,
R_Base_Y_For,True,3,robot,2,False,True,robot_stimuli\R_Base_Y_For.mp4,20,0,0,0,0,0,35,35,35,,,,,,,,,,,,,352.8257772999932,352.8257772999932,None,,352.8257772999932,353.9089598999999,,353.9089598999999,353.9089598999999,353.9089598999999,,n,357.57747419999214,363.58387709999806,357.57747419999214,363.58387709999806,357.57747419999214,363.58387709999806,357.57747419999214,363.58387709999806,60.092592592592595,4.561920000007376,space,352.8257772999932,352.8257772999932,2.339130099993781,5.943012300005648,353.9089598999999,,,,,,,,,,,,,,,,,,20,001,2024-07-03_10h35.54.472,robot_nback_sign,2022.2.5,60.07958141276605,
,,,,,,,,,0,0,0,0,,,,,,,,,,,,,,,,,,,,,,,,,,,,,,,,,,,,,,,,,,,,,363.58387709999806,363.58387709999806,363.58387709999806,c,2.3762205999955768,,,,,,,,,,,,,20,001,2024-07-03_10h35.54.472,robot_nback_sign,2022.2.5,60.07958141276605,
S,False,3,letter,1,True,False,robot_stimuli\\filler.mp4,20,,,,,,,,,0,0,0,0,,,,,,,,,,,,,372.19881509999686,373.2550978999934,,,,,,,375.4862002000009,375.4862002000009,375.4862002000009,375.4862002000009,375.4862002000009,375.4862002000009,375.4862002000009,375.4862002000009,None,None,None,,,,,,,,,,,366.02062899999146,366.02062899999146,space,6.147674100007862,373.2550978999934,373.2550978999934,375.4862002000009,n,1.6903320000128588,,,,20,001,2024-07-03_10h35.54.472,robot_nback_sign,2022.2.5,60.07958141276605,
T,False,3,letter,1,False,False,robot_stimuli\\filler.mp4,20,,,,,,,,,0,1,1,1,,,,,,,,,,,,,375.4862002000009,376.56394819999696,,,,,,,378.58949849999044,378.58949849999044,378.58949849999044,378.58949849999044,378.58949849999044,378.58949849999044,378.58949849999044,378.58949849999044,None,None,None,,,,,,,,,,,375.4862002000009,375.4862002000009,None,,376.56394819999696,376.56394819999696,378.58949849999044,n,0.9086916999949608,375.4862002000009,375.4862002000009,,20,001,2024-07-03_10h35.54.472,robot_nback_sign,2022.2.5,60.07958141276605,
Z,False,3,letter,1,False,False,robot_stimuli\\filler.mp4,20,,,,,,,,,0,2,2,2,,,,,,,,,,,,,378.58949849999044,379.65127279999433,,,,,,,381.87837419999414,381.87837419999414,381.87837419999414,381.87837419999414,381.87837419999414,381.87837419999414,381.87837419999414,381.87837419999414,None,None,None,,,,,,,,,,,378.58949849999044,378.58949849999044,None,,379.65127279999433,379.65127279999433,381.87837419999414,n,0.7256736000126693,378.58949849999044,378.58949849999044,,20,001,2024-07-03_10h35.54.472,robot_nback_sign,2022.2.5,60.07958141276605,
V,False,3,letter,1,False,False,robot_stimuli\\filler.mp4,20,,,,,,,,,0,3,3,3,,,,,,,,,,,,,381.87837419999414,382.93361539999023,,,,,,,384.95997389999684,384.95997389999684,384.95997389999684,384.95997389999684,384.95997389999684,384.95997389999684,384.95997389999684,384.95997389999684,None,None,None,,,,,,,,,,,381.87837419999414,381.87837419999414,None,,382.93361539999023,382.93361539999023,384.95997389999684,n,1.0343825000018114,381.87837419999414,381.87837419999414,,20,001,2024-07-03_10h35.54.472,robot_nback_sign,2022.2.5,60.07958141276605,
J,False,3,letter,1,False,False,robot_stimuli\\filler.mp4,20,,,,,,,,,0,4,4,4,,,,,,,,,,,,,384.95997389999684,386.01756469999964,,,,,,,388.24720339999476,388.24720339999476,388.24720339999476,388.24720339999476,388.24720339999476,388.24720339999476,388.24720339999476,388.24720339999476,None,None,None,,,,,,,,,,,384.95997389999684,384.95997389999684,None,,386.01756469999964,386.01756469999964,388.24720339999476,n,1.2082391000003554,384.95997389999684,384.95997389999684,,20,001,2024-07-03_10h35.54.472,robot_nback_sign,2022.2.5,60.07958141276605,
J,False,3,letter,1,False,False,robot_stimuli\\filler.mp4,20,,,,,,,,,0,5,5,5,,,,,,,,,,,,,388.24720339999476,389.3007026999985,,,,,,,391.5327862999984,391.5327862999984,391.5327862999984,391.5327862999984,391.5327862999984,391.5327862999984,391.5327862999984,391.5327862999984,None,None,None,,,,,,,,,,,388.24720339999476,388.24720339999476,None,,389.3007026999985,389.3007026999985,391.5327862999984,n,1.0609687000105623,388.24720339999476,388.24720339999476,,20,001,2024-07-03_10h35.54.472,robot_nback_sign,2022.2.5,60.07958141276605,
V,True,3,letter,1,False,False,robot_stimuli\\filler.mp4,20,,,,,,,,,0,6,6,6,,,,,,,,,,,,,391.5327862999984,392.5854210999969,,,,,,,394.8073980999907,394.8073980999907,394.8073980999907,394.8073980999907,394.8073980999907,394.8073980999907,394.8073980999907,394.8073980999907,None,None,None,,,,,,,,,,,391.5327862999984,391.5327862999984,None,,392.5854210999969,392.5854210999969,394.8073980999907,c,1.38345069999923,391.5327862999984,391.5327862999984,,20,001,2024-07-03_10h35.54.472,robot_nback_sign,2022.2.5,60.07958141276605,
J,True,3,letter,1,False,False,robot_stimuli\\filler.mp4,20,,,,,,,,,0,7,7,7,,,,,,,,,,,,,394.8073980999907,395.8676209999976,,,,,,,398.0916201999935,398.0916201999935,398.0916201999935,398.0916201999935,398.0916201999935,398.0916201999935,398.0916201999935,398.0916201999935,None,None,None,,,,,,,,,,,394.8073980999907,394.8073980999907,None,,395.8676209999976,395.8676209999976,398.0916201999935,c,1.7980231999972602,394.8073980999907,394.8073980999907,,20,001,2024-07-03_10h35.54.472,robot_nback_sign,2022.2.5,60.07958141276605,
L,False,3,letter,1,False,False,robot_stimuli\\filler.mp4,20,,,,,,,,,0,8,8,8,,,,,,,,,,,,,398.0916201999935,399.1519316999911,,,,,,,401.37732980000146,401.37732980000146,401.37732980000146,401.37732980000146,401.37732980000146,401.37732980000146,401.37732980000146,401.37732980000146,None,None,None,,,,,,,,,,,398.0916201999935,398.0916201999935,None,,399.1519316999911,399.1519316999911,401.37732980000146,n,0.8735216000059154,398.0916201999935,398.0916201999935,,20,001,2024-07-03_10h35.54.472,robot_nback_sign,2022.2.5,60.07958141276605,
W,False,3,letter,1,False,False,robot_stimuli\\filler.mp4,20,,,,,,,,,0,9,9,9,,,,,,,,,,,,,401.37732980000146,402.4397537999903,,,,,,,404.46666930000356,404.46666930000356,404.46666930000356,404.46666930000356,404.46666930000356,404.46666930000356,404.46666930000356,404.46666930000356,None,None,None,,,,,,,,,,,401.37732980000146,401.37732980000146,None,,402.4397537999903,402.4397537999903,404.46666930000356,n,1.3133483000128763,401.37732980000146,401.37732980000146,,20,001,2024-07-03_10h35.54.472,robot_nback_sign,2022.2.5,60.07958141276605,
H,False,3,letter,1,False,False,robot_stimuli\\filler.mp4,20,,,,,,,,,0,10,10,10,,,,,,,,,,,,,404.46666930000356,,,,,,,,407.76475999999093,407.76475999999093,407.76475999999093,407.76475999999093,407.76475999999093,407.76475999999093,407.76475999999093,407.76475999999093,None,None,None,,,,,,,,,,,404.46666930000356,404.46666930000356,None,,405.53394090000074,405.53394090000074,407.76475999999093,n,1.6905438000103459,404.46666930000356,404.46666930000356,,20,001,2024-07-03_10h35.54.472,robot_nback_sign,2022.2.5,60.07958141276605,
K,False,3,letter,1,False,False,robot_stimuli\\filler.mp4,20,,,,,,,,,0,11,11,11,,,,,,,,,,,,,407.76475999999093,408.81924149999395,,,,,,,410.85158400000364,410.85158400000364,410.85158400000364,410.85158400000364,410.85158400000364,410.85158400000364,410.85158400000364,410.85158400000364,None,None,None,,,,,,,,,,,407.76475999999093,407.76475999999093,None,,408.81924149999395,408.81924149999395,410.85158400000364,n,1.6611877999966964,407.76475999999093,407.76475999999093,,20,001,2024-07-03_10h35.54.472,robot_nback_sign,2022.2.5,60.07958141276605,
Z,False,3,letter,1,False,False,robot_stimuli\\filler.mp4,20,,,,,,,,,0,12,12,12,,,,,,,,,,,,,410.85158400000364,,,,,,,,413.958741800001,413.958741800001,413.958741800001,413.958741800001,413.958741800001,413.958741800001,413.958741800001,413.958741800001,None,None,None,,,,,,,,,,,410.85158400000364,410.85158400000364,None,,411.92835139999806,411.92835139999806,413.958741800001,n,1.0089637000055518,410.85158400000364,410.85158400000364,,20,001,2024-07-03_10h35.54.472,robot_nback_sign,2022.2.5,60.07958141276605,
P,False,3,letter,1,False,False,robot_stimuli\\filler.mp4,20,,,,,,,,,0,13,13,13,,,,,,,,,,,,,413.958741800001,415.02055370000016,,,,,,,417.24567429999297,417.24567429999297,417.24567429999297,417.24567429999297,417.24567429999297,417.24567429999297,417.24567429999297,417.24567429999297,None,None,None,,,,,,,,,,,413.958741800001,413.958741800001,None,,415.02055370000016,415.02055370000016,417.24567429999297,n,0.7232615000102669,413.958741800001,413.958741800001,,20,001,2024-07-03_10h35.54.472,robot_nback_sign,2022.2.5,60.07958141276605,
T,False,3,letter,1,False,False,robot_stimuli\\filler.mp4,20,,,,,,,,,0,14,14,14,,,,,,,,,,,,,417.24567429999297,418.3014301999938,,,,,,,420.331494500002,420.331494500002,420.331494500002,420.331494500002,420.331494500002,420.331494500002,420.331494500002,420.331494500002,None,None,None,,,,,,,,,,,417.24567429999297,417.24567429999297,None,,418.3014301999938,418.3014301999938,420.331494500002,n,0.6834044000133872,417.24567429999297,417.24567429999297,,20,001,2024-07-03_10h35.54.472,robot_nback_sign,2022.2.5,60.07958141276605,
M,False,3,letter,1,False,False,robot_stimuli\\filler.mp4,20,,,,,,,,,0,15,15,15,,,,,,,,,,,,,420.331494500002,421.38605099999404,,,,,,,423.4124887999933,423.4124887999933,423.4124887999933,423.4124887999933,423.4124887999933,423.4124887999933,423.4124887999933,423.4124887999933,None,None,None,,,,,,,,,,,420.331494500002,420.331494500002,None,,421.38605099999404,421.38605099999404,423.4124887999933,n,0.8143358999950578,420.331494500002,420.331494500002,,20,001,2024-07-03_10h35.54.472,robot_nback_sign,2022.2.5,60.07958141276605,
R,False,3,letter,1,False,False,robot_stimuli\\filler.mp4,20,,,,,,,,,0,16,16,16,,,,,,,,,,,,,423.4124887999933,424.4683113999927,,,,,,,426.70338459999766,426.70338459999766,426.70338459999766,426.70338459999766,426.70338459999766,426.70338459999766,426.70338459999766,426.70338459999766,None,None,None,,,,,,,,,,,423.4124887999933,423.4124887999933,None,,424.4683113999927,424.4683113999927,426.70338459999766,n,1.101471699992544,423.4124887999933,423.4124887999933,,20,001,2024-07-03_10h35.54.472,robot_nback_sign,2022.2.5,60.07958141276605,
Z,False,3,letter,1,False,False,robot_stimuli\\filler.mp4,20,,,,,,,,,0,17,17,17,,,,,,,,,,,,,426.70338459999766,427.7683893999929,,,,,,,429.9990503000008,429.9990503000008,429.9990503000008,429.9990503000008,429.9990503000008,429.9990503000008,429.9990503000008,429.9990503000008,None,None,None,,,,,,,,,,,426.70338459999766,426.70338459999766,None,,427.7683893999929,427.7683893999929,429.9990503000008,n,0.7849221999931615,426.70338459999766,426.70338459999766,,20,001,2024-07-03_10h35.54.472,robot_nback_sign,2022.2.5,60.07958141276605,
X,False,3,letter,1,False,False,robot_stimuli\\filler.mp4,20,,,,,,,,,0,18,18,18,,,,,,,,,,,,,429.9990503000008,431.0501212999952,,,,,,,433.279420699997,433.279420699997,433.279420699997,433.279420699997,433.279420699997,433.279420699997,433.279420699997,433.279420699997,None,None,None,,,,,,,,,,,429.9990503000008,429.9990503000008,None,,431.0501212999952,431.0501212999952,433.279420699997,n,1.6938313999999082,429.9990503000008,429.9990503000008,,20,001,2024-07-03_10h35.54.472,robot_nback_sign,2022.2.5,60.07958141276605,
G,False,3,letter,1,False,False,robot_stimuli\\filler.mp4,20,,,,,,,,,0,19,19,19,,,,,,,,,,,,,433.279420699997,434.34058049999294,,,,,,,436.36552449999726,436.36552449999726,436.36552449999726,436.36552449999726,436.36552449999726,436.36552449999726,436.36552449999726,436.36552449999726,None,None,None,,,,,,,,,,,433.279420699997,433.279420699997,None,,434.34058049999294,434.34058049999294,436.36552449999726,n,0.7801610000024084,433.279420699997,433.279420699997,,20,001,2024-07-03_10h35.54.472,robot_nback_sign,2022.2.5,60.07958141276605,
M,False,3,letter,1,False,False,robot_stimuli\\filler.mp4,20,,,,,,,,,0,20,20,20,,,,,,,,,,,,,436.36552449999726,437.419229799998,,,,,,,439.65160789999936,439.65160789999936,439.65160789999936,439.65160789999936,439.65160789999936,439.65160789999936,439.65160789999936,439.65160789999936,None,None,None,,,,,,,,,,,436.36552449999726,436.36552449999726,None,,437.419229799998,437.419229799998,439.65160789999936,c,0.7420634000009159,436.36552449999726,436.36552449999726,,20,001,2024-07-03_10h35.54.472,robot_nback_sign,2022.2.5,60.07958141276605,
D,False,3,letter,1,False,False,robot_stimuli\\filler.mp4,20,,,,,,,,,0,21,21,21,,,,,,,,,,,,,439.65160789999936,,,,,,,,442.74869199999375,442.74869199999375,442.74869199999375,442.74869199999375,442.74869199999375,442.74869199999375,442.74869199999375,442.74869199999375,None,None,None,,,,,,,,,,,439.65160789999936,439.65160789999936,None,,440.72046349999437,440.72046349999437,442.74869199999375,n,1.1914633999986108,439.65160789999936,439.65160789999936,,20,001,2024-07-03_10h35.54.472,robot_nback_sign,2022.2.5,60.07958141276605,
J,False,3,letter,1,False,False,robot_stimuli\\filler.mp4,20,,,,,,,,,0,22,22,22,,,,,,,,,,,,,442.74869199999375,443.80488100000366,,,,,,,446.0348319999903,446.0348319999903,446.0348319999903,446.0348319999903,446.0348319999903,446.0348319999903,446.0348319999903,446.0348319999903,None,None,None,,,,,,,,,,,442.74869199999375,442.74869199999375,None,,443.80488100000366,443.80488100000366,446.0348319999903,n,0.795499200001359,442.74869199999375,442.74869199999375,,20,001,2024-07-03_10h35.54.472,robot_nback_sign,2022.2.5,60.07958141276605,
C,False,3,letter,1,False,False,robot_stimuli\\filler.mp4,20,,,,,,,,,0,23,23,23,,,,,,,,,,,,,446.0348319999903,,,,,,,,449.1372862999997,449.1372862999997,449.1372862999997,449.1372862999997,449.1372862999997,449.1372862999997,449.1372862999997,449.1372862999997,None,None,None,,,,,,,,,,,446.0348319999903,446.0348319999903,None,,447.11140650000016,447.11140650000016,449.1372862999997,n,0.6734051000094041,446.0348319999903,446.0348319999903,,20,001,2024-07-03_10h35.54.472,robot_nback_sign,2022.2.5,60.07958141276605,
B,False,3,letter,1,False,False,robot_stimuli\\filler.mp4,20,,,,,,,,,0,24,24,24,,,,,,,,,,,,,449.1372862999997,450.20200869999826,,,,,,,452.4347657999897,452.4347657999897,452.4347657999897,452.4347657999897,452.4347657999897,452.4347657999897,452.4347657999897,452.4347657999897,None,None,None,,,,,,,,,,,449.1372862999997,449.1372862999997,None,,450.20200869999826,450.20200869999826,452.4347657999897,n,0.701851700010593,449.1372862999997,449.1372862999997,,20,001,2024-07-03_10h35.54.472,robot_nback_sign,2022.2.5,60.07958141276605,
J,True,3,letter,1,False,False,robot_stimuli\\filler.mp4,20,,,,,,,,,0,25,25,25,,,,,,,,,,,,,452.4347657999897,,,,,,,,455.5349575,455.5349575,455.5349575,455.5349575,455.5349575,455.5349575,455.5349575,455.5349575,None,None,None,,,,,,,,,,,452.4347657999897,452.4347657999897,None,,453.50390369999513,453.50390369999513,455.5349575,c,0.7451494000124512,452.4347657999897,452.4347657999897,,20,001,2024-07-03_10h35.54.472,robot_nback_sign,2022.2.5,60.07958141276605,
X,False,3,letter,1,False,False,robot_stimuli\\filler.mp4,20,,,,,,,,,0,26,26,26,,,,,,,,,,,,,455.5349575,,,,,,,,458.63793109999096,458.63793109999096,458.63793109999096,458.63793109999096,458.63793109999096,458.63793109999096,458.63793109999096,458.63793109999096,None,None,None,,,,,,,,,,,455.5349575,455.5349575,None,,456.6115310000023,456.6115310000023,458.63793109999096,n,0.9565615000028629,455.5349575,455.5349575,,20,001,2024-07-03_10h35.54.472,robot_nback_sign,2022.2.5,60.07958141276605,
B,True,3,letter,1,False,False,robot_stimuli\\filler.mp4,20,,,,,,,,,0,27,27,27,,,,,,,,,,,,,458.63793109999096,459.701642,,,,,,,461.93395579999196,461.93395579999196,461.93395579999196,461.93395579999196,461.93395579999196,461.93395579999196,461.93395579999196,461.93395579999196,None,None,None,,,,,,,,,,,458.63793109999096,458.63793109999096,None,,459.701642,459.701642,461.93395579999196,n,0.5561867000069469,458.63793109999096,458.63793109999096,,20,001,2024-07-03_10h35.54.472,robot_nback_sign,2022.2.5,60.07958141276605,
S,False,3,letter,1,False,False,robot_stimuli\\filler.mp4,20,,,,,,,,,0,28,28,28,,,,,,,,,,,,,461.93395579999196,,,,,,,,465.0286114999908,465.0286114999908,465.0286114999908,465.0286114999908,465.0286114999908,465.0286114999908,465.0286114999908,465.0286114999908,None,None,None,,,,,,,,,,,461.93395579999196,461.93395579999196,None,,463.00331410000217,463.00331410000217,465.0286114999908,n,0.7405376999959117,461.93395579999196,461.93395579999196,,20,001,2024-07-03_10h35.54.472,robot_nback_sign,2022.2.5,60.07958141276605,
T,False,3,letter,1,False,False,robot_stimuli\\filler.mp4,20,,,,,,,,,0,29,29,29,,,,,,,,,,,,,465.0286114999908,466.0862553999905,,,,,,,468.1108272999991,468.1108272999991,468.1108272999991,468.1108272999991,468.1108272999991,468.1108272999991,468.1108272999991,468.1108272999991,None,None,None,,,,,,,,,,,465.0286114999908,465.0286114999908,None,,466.0862553999905,466.0862553999905,468.1108272999991,n,0.7868996000033803,465.0286114999908,465.0286114999908,,20,001,2024-07-03_10h35.54.472,robot_nback_sign,2022.2.5,60.07958141276605,
N,False,3,letter,1,False,False,robot_stimuli\\filler.mp4,20,,,,,,,,,0,30,30,30,,,,,,,,,,,,,468.1108272999991,469.1682768000028,,,,,,,471.3960490000027,471.3960490000027,471.3960490000027,471.3960490000027,471.3960490000027,471.3960490000027,471.3960490000027,471.3960490000027,None,None,None,,,,,,,,,,,468.1108272999991,468.1108272999991,None,,469.1682768000028,469.1682768000028,471.3960490000027,n,0.6165160000091419,468.1108272999991,468.1108272999991,,20,001,2024-07-03_10h35.54.472,robot_nback_sign,2022.2.5,60.07958141276605,
N,False,3,letter,1,False,False,robot_stimuli\\filler.mp4,20,,,,,,,,,0,31,31,31,,,,,,,,,,,,,471.3960490000027,472.45174309999857,,,,,,,474.48309359999257,474.48309359999257,474.48309359999257,474.48309359999257,474.48309359999257,474.48309359999257,474.48309359999257,474.48309359999257,None,None,None,,,,,,,,,,,471.3960490000027,471.3960490000027,None,,472.45174309999857,472.45174309999857,474.48309359999257,n,0.892077500015148,471.3960490000027,471.3960490000027,,20,001,2024-07-03_10h35.54.472,robot_nback_sign,2022.2.5,60.07958141276605,
T,True,3,letter,1,False,False,robot_stimuli\\filler.mp4,20,,,,,,,,,0,32,32,32,,,,,,,,,,,,,474.48309359999257,475.53502399999707,,,,,,,477.56989440000325,477.56989440000325,477.56989440000325,477.56989440000325,477.56989440000325,477.56989440000325,477.56989440000325,477.56989440000325,None,None,None,,,,,,,,,,,474.48309359999257,474.48309359999257,None,,475.53502399999707,475.53502399999707,477.56989440000325,c,0.586773599992739,474.48309359999257,474.48309359999257,,20,001,2024-07-03_10h35.54.472,robot_nback_sign,2022.2.5,60.07958141276605,
N,True,3,letter,1,False,False,robot_stimuli\\filler.mp4,20,,,,,,,,,0,33,33,33,,,,,,,,,,,,,477.56989440000325,478.63453209999716,,,,,,,480.8614888000011,480.8614888000011,480.8614888000011,480.8614888000011,480.8614888000011,480.8614888000011,480.8614888000011,480.8614888000011,None,None,None,,,,,,,,,,,477.56989440000325,477.56989440000325,None,,478.63453209999716,478.63453209999716,480.8614888000011,c,0.7908172000024933,477.56989440000325,477.56989440000325,,20,001,2024-07-03_10h35.54.472,robot_nback_sign,2022.2.5,60.07958141276605,
S,False,3,letter,1,False,False,robot_stimuli\\filler.mp4,20,,,,,,,,,0,34,34,34,,,,,,,,,,,,,480.8614888000011,481.9174964999984,,,,,,,484.149608599997,484.149608599997,484.149608599997,484.149608599997,484.149608599997,484.149608599997,484.149608599997,484.149608599997,None,None,None,,,,,,,,,,,480.8614888000011,480.8614888000011,None,,481.9174964999984,481.9174964999984,484.149608599997,n,0.6029511999950046,480.8614888000011,480.8614888000011,,20,001,2024-07-03_10h35.54.472,robot_nback_sign,2022.2.5,60.07958141276605,
T,True,3,letter,1,False,False,robot_stimuli\\filler.mp4,20,,,,,,,,,0,35,35,35,,,,,,,,,,,,,484.149608599997,485.21143939999456,,,,,,,487.2438761999947,487.2438761999947,487.2438761999947,487.2438761999947,487.2438761999947,487.2438761999947,487.2438761999947,487.2438761999947,None,None,None,,,,,,,,,,,484.149608599997,484.149608599997,None,,485.21143939999456,485.21143939999456,487.2438761999947,c,0.693582800013246,484.149608599997,484.149608599997,,20,001,2024-07-03_10h35.54.472,robot_nback_sign,2022.2.5,60.07958141276605,
L,False,3,letter,1,False,False,robot_stimuli\\filler.mp4,20,,,,,,,,,0,36,36,36,,,,,,,,,,,,,487.2438761999947,488.30152329998964,,,,,,,490.5350156999921,490.5350156999921,490.5350156999921,490.5350156999921,490.5350156999921,490.5350156999921,490.5350156999921,490.5350156999921,None,None,None,,,,,,,,,,,487.2438761999947,487.2438761999947,None,,488.30152329998964,488.30152329998964,490.5350156999921,n,0.5715709000069182,487.2438761999947,487.2438761999947,,20,001,2024-07-03_10h35.54.472,robot_nback_sign,2022.2.5,60.07958141276605,
K,False,3,letter,1,False,False,robot_stimuli\\filler.mp4,20,,,,,,,,,0,37,37,37,,,,,,,,,,,,,490.5350156999921,,,,,,,,493.83521920000203,493.83521920000203,493.83521920000203,493.83521920000203,493.83521920000203,493.83521920000203,493.83521920000203,493.83521920000203,None,None,None,,,,,,,,,,,490.5350156999921,490.5350156999921,None,,491.6039246,491.6039246,493.83521920000203,n,1.1171832000109134,490.5350156999921,490.5350156999921,,20,001,2024-07-03_10h35.54.472,robot_nback_sign,2022.2.5,60.07958141276605,
T,True,3,letter,1,False,False,robot_stimuli\\filler.mp4,20,,,,,,,,,0,38,38,38,,,,,,,,,,,,,493.83521920000203,,,,,,,,496.9279804999969,496.9279804999969,496.9279804999969,496.9279804999969,496.9279804999969,496.9279804999969,496.9279804999969,496.9279804999969,None,None,None,,,,,,,,,,,493.83521920000203,493.83521920000203,None,,494.9025287999975,494.9025287999975,496.9279804999969,c,0.47409809999226127,493.83521920000203,493.83521920000203,,20,001,2024-07-03_10h35.54.472,robot_nback_sign,2022.2.5,60.07958141276605,
R,False,3,letter,1,False,False,robot_stimuli\\filler.mp4,20,,,,,,,,,0,39,39,39,,,,,,,,,,,,,496.9279804999969,497.98527989999275,,,,,,,500.2111775999947,500.2111775999947,500.2111775999947,500.2111775999947,500.2111775999947,500.2111775999947,500.2111775999947,500.2111775999947,None,None,None,,,,,,,,,,,496.9279804999969,496.9279804999969,None,,497.98527989999275,497.98527989999275,500.2111775999947,n,0.7200722999987192,496.9279804999969,496.9279804999969,,20,001,2024-07-03_10h35.54.472,robot_nback_sign,2022.2.5,60.07958141276605,
J,False,3,letter,1,False,False,robot_stimuli\\filler.mp4,20,,,,,,,,,0,40,40,40,,,,,,,,,,,,,500.2111775999947,501.26858699999866,,,,,,,503.4983416000032,503.4983416000032,503.4983416000032,503.4983416000032,503.4983416000032,503.4983416000032,503.4983416000032,503.4983416000032,None,None,None,,,,,,,,,,,500.2111775999947,500.2111775999947,None,,501.26858699999866,501.26858699999866,503.4983416000032,n,0.6679860000003828,500.2111775999947,500.2111775999947,,20,001,2024-07-03_10h35.54.472,robot_nback_sign,2022.2.5,60.07958141276605,
S,False,3,letter,1,False,False,robot_stimuli\\filler.mp4,20,,,,,,,,,0,41,41,41,,,,,,,,,,,,,503.4983416000032,504.55275509999774,,,,,,,506.57777079999505,506.57777079999505,506.57777079999505,506.57777079999505,506.57777079999505,506.57777079999505,506.57777079999505,506.57777079999505,None,None,None,,,,,,,,,,,503.4983416000032,503.4983416000032,None,,504.55275509999774,504.55275509999774,506.57777079999505,n,0.5755254999967292,503.4983416000032,503.4983416000032,,20,001,2024-07-03_10h35.54.472,robot_nback_sign,2022.2.5,60.07958141276605,
W,False,3,letter,1,False,False,robot_stimuli\\filler.mp4,20,,,,,,,,,0,42,42,42,,,,,,,,,,,,,506.57777079999505,507.6399134999956,,,,,,,509.8618754999916,509.8618754999916,509.8618754999916,509.8618754999916,509.8618754999916,509.8618754999916,509.8618754999916,509.8618754999916,None,None,None,,,,,,,,,,,506.57777079999505,506.57777079999505,None,,507.6399134999956,507.6399134999956,509.8618754999916,n,0.8418611000088276,506.57777079999505,506.57777079999505,,20,001,2024-07-03_10h35.54.472,robot_nback_sign,2022.2.5,60.07958141276605,
Z,False,3,letter,1,False,False,robot_stimuli\\filler.mp4,20,,,,,,,,,0,43,43,43,,,,,,,,,,,,,509.8618754999916,510.9286251000012,,,,,,,512.9540573999984,512.9540573999984,512.9540573999984,512.9540573999984,512.9540573999984,512.9540573999984,512.9540573999984,512.9540573999984,None,None,None,,,,,,,,,,,509.8618754999916,509.8618754999916,None,,510.9286251000012,510.9286251000012,512.9540573999984,n,0.6471944999939296,509.8618754999916,509.8618754999916,,20,001,2024-07-03_10h35.54.472,robot_nback_sign,2022.2.5,60.07958141276605,
N,False,3,letter,1,False,False,robot_stimuli\\filler.mp4,20,,,,,,,,,0,44,44,44,,,,,,,,,,,,,512.9540573999984,514.0182560999965,,,,,,,516.24191289999,516.24191289999,516.24191289999,516.24191289999,516.24191289999,516.24191289999,516.24191289999,516.24191289999,None,None,None,,,,,,,,,,,512.9540573999984,512.9540573999984,None,,514.0182560999965,514.0182560999965,516.24191289999,n,1.0075091000035172,512.9540573999984,512.9540573999984,,20,001,2024-07-03_10h35.54.472,robot_nback_sign,2022.2.5,60.07958141276605,
V,False,3,letter,1,False,False,robot_stimuli\\filler.mp4,20,,,,,,,,,0,45,45,45,,,,,,,,,,,,,516.24191289999,517.3023216000001,,,,,,,519.3279229000036,519.3279229000036,519.3279229000036,519.3279229000036,519.3279229000036,519.3279229000036,519.3279229000036,519.3279229000036,None,None,None,,,,,,,,,,,516.24191289999,516.24191289999,None,,517.3023216000001,517.3023216000001,519.3279229000036,n,1.6337352999980794,516.24191289999,516.24191289999,,20,001,2024-07-03_10h35.54.472,robot_nback_sign,2022.2.5,60.07958141276605,
K,False,3,letter,1,False,False,robot_stimuli\\filler.mp4,20,,,,,,,,,0,46,46,46,,,,,,,,,,,,,519.3279229000036,520.3861535999895,,,,,,,522.4096425000025,522.4096425000025,522.4096425000025,522.4096425000025,522.4096425000025,522.4096425000025,522.4096425000025,522.4096425000025,None,None,None,,,,,,,,,,,519.3279229000036,519.3279229000036,None,,520.3861535999895,520.3861535999895,522.4096425000025,n,1.0556113999919035,519.3279229000036,519.3279229000036,,20,001,2024-07-03_10h35.54.472,robot_nback_sign,2022.2.5,60.07958141276605,
D,False,3,letter,1,False,False,robot_stimuli\\filler.mp4,20,,,,,,,,,0,47,47,47,,,,,,,,,,,,,522.4096425000025,523.4878032999986,,,,,,,525.5174901999999,525.5174901999999,525.5174901999999,525.5174901999999,525.5174901999999,525.5174901999999,525.5174901999999,525.5174901999999,None,None,None,,,,,,,,,,,522.4096425000025,522.4096425000025,None,,523.4878032999986,523.4878032999986,525.5174901999999,n,1.3290707000123803,522.4096425000025,522.4096425000025,,20,001,2024-07-03_10h35.54.472,robot_nback_sign,2022.2.5,60.07958141276605,
V,True,3,letter,1,False,False,robot_stimuli\\filler.mp4,20,,,,,,,,,0,48,48,48,,,,,,,,,,,,,525.5174901999999,,,,,,,,528.6231341999955,528.6231341999955,528.6231341999955,528.6231341999955,528.6231341999955,528.6231341999955,528.6231341999955,528.6231341999955,None,None,None,,,,,,,,,,,525.5174901999999,525.5174901999999,None,,526.5962731000036,526.5962731000036,528.6231341999955,c,0.7401664999924833,525.5174901999999,525.5174901999999,,20,001,2024-07-03_10h35.54.472,robot_nback_sign,2022.2.5,60.07958141276605,
K,True,3,letter,1,False,True,robot_stimuli\\filler.mp4,20,,,,,,,,,0,49,49,49,,,,,,,,,,,,,528.6231341999955,529.6865858999954,,,,,,,531.9431782000029,544.167116800003,531.9431782000029,544.167116800003,531.9431782000029,544.167116800003,531.9431782000029,544.167116800003,45.74074074074074,9.232955400002538,space,,,,12.177389399992535,,,,,,,528.6231341999955,528.6231341999955,None,,529.6865858999954,529.6865858999954,531.9431782000029,c,0.8748347000073409,528.6231341999955,528.6231341999955,,20,001,2024-07-03_10h35.54.472,robot_nback_sign,2022.2.5,60.07958141276605,
C,False,2,letter,1,True,False,robot_stimuli\\filler.mp4,20,,,,,,,,,0,50,50,50,,,,,,,,,,,,,547.2990157000022,548.3558498999919,,,,,,,550.5757611000008,550.5757611000008,550.5757611000008,550.5757611000008,550.5757611000008,550.5757611000008,550.5757611000008,550.5757611000008,None,None,None,,,,,,,,,,,544.167116800003,544.167116800003,space,3.1143847000057576,548.3558498999919,548.3558498999919,550.5757611000008,None,,,,,20,001,2024-07-03_10h35.54.472,robot_nback_sign,2022.2.5,60.07958141276605,
T,False,2,letter,1,False,False,robot_stimuli\\filler.mp4,20,,,,,,,,,0,51,51,51,,,,,,,,,,,,,550.5757611000008,551.634702299998,,,,,,,553.8588402000023,553.8588402000023,553.8588402000023,553.8588402000023,553.8588402000023,553.8588402000023,553.8588402000023,553.8588402000023,None,None,None,,,,,,,,,,,550.5757611000008,550.5757611000008,None,,551.634702299998,551.634702299998,553.8588402000023,n,0.7030990999919595,550.5757611000008,550.5757611000008,,20,001,2024-07-03_10h35.54.472,robot_nback_sign,2022.2.5,60.07958141276605,
M,False,2,letter,1,False,False,robot_stimuli\\filler.mp4,20,,,,,,,,,0,52,52,52,,,,,,,,,,,,,553.8588402000023,554.9189593999909,,,,,,,557.1524016999902,557.1524016999902,557.1524016999902,557.1524016999902,557.1524016999902,557.1524016999902,557.1524016999902,557.1524016999902,None,None,None,,,,,,,,,,,553.8588402000023,553.8588402000023,None,,554.9189593999909,554.9189593999909,557.1524016999902,n,0.9783599000074901,553.8588402000023,553.8588402000023,,20,001,2024-07-03_10h35.54.472,robot_nback_sign,2022.2.5,60.07958141276605,
R,False,2,letter,1,False,False,robot_stimuli\\filler.mp4,20,,,,,,,,,0,53,53,53,,,,,,,,,,,,,557.1524016999902,558.2190223999933,,,,,,,560.451207399994,560.451207399994,560.451207399994,560.451207399994,560.451207399994,560.451207399994,560.451207399994,560.451207399994,None,None,None,,,,,,,,,,,557.1524016999902,557.1524016999902,None,,558.2190223999933,558.2190223999933,560.451207399994,n,1.0215994000027422,557.1524016999902,557.1524016999902,,20,001,2024-07-03_10h35.54.472,robot_nback_sign,2022.2.5,60.07958141276605,
K,False,2,letter,1,False,False,robot_stimuli\\filler.mp4,20,,,,,,,,,0,54,54,54,,,,,,,,,,,,,560.451207399994,,,,,,,,563.7481957999989,563.7481957999989,563.7481957999989,563.7481957999989,563.7481957999989,563.7481957999989,563.7481957999989,563.7481957999989,None,None,None,,,,,,,,,,,560.451207399994,560.451207399994,None,,561.5178939999896,561.5178939999896,563.7481957999989,n,1.1552522999991197,560.451207399994,560.451207399994,,20,001,2024-07-03_10h35.54.472,robot_nback_sign,2022.2.5,60.07958141276605,
N,False,2,letter,1,False,False,robot_stimuli\\filler.mp4,20,,,,,,,,,0,55,55,55,,,,,,,,,,,,,563.7481957999989,564.8037036000023,,,,,,,566.8374652999919,566.8374652999919,566.8374652999919,566.8374652999919,566.8374652999919,566.8374652999919,566.8374652999919,566.8374652999919,None,None,None,,,,,,,,,,,563.7481957999989,563.7481957999989,None,,564.8037036000023,564.8037036000023,566.8374652999919,n,1.1561385999957565,563.7481957999989,563.7481957999989,,20,001,2024-07-03_10h35.54.472,robot_nback_sign,2022.2.5,60.07958141276605,
L,False,2,letter,1,False,False,robot_stimuli\\filler.mp4,20,,,,,,,,,0,56,56,56,,,,,,,,,,,,,566.8374652999919,567.9051848999952,,,,,,,570.1295260999905,570.1295260999905,570.1295260999905,570.1295260999905,570.1295260999905,570.1295260999905,570.1295260999905,570.1295260999905,None,None,None,,,,,,,,,,,566.8374652999919,566.8374652999919,None,,567.9051848999952,567.9051848999952,570.1295260999905,n,1.4726929000025848,566.8374652999919,566.8374652999919,,20,001,2024-07-03_10h35.54.472,robot_nback_sign,2022.2.5,60.07958141276605,
J,False,2,letter,1,False,False,robot_stimuli\\filler.mp4,20,,,,,,,,,0,57,57,57,,,,,,,,,,,,,570.1295260999905,571.1858153999929,,,,,,,573.4151095999987,573.4151095999987,573.4151095999987,573.4151095999987,573.4151095999987,573.4151095999987,573.4151095999987,573.4151095999987,None,None,None,,,,,,,,,,,570.1295260999905,570.1295260999905,None,,571.1858153999929,571.1858153999929,573.4151095999987,n,1.5276798999984749,570.1295260999905,570.1295260999905,,20,001,2024-07-03_10h35.54.472,robot_nback_sign,2022.2.5,60.07958141276605,
F,False,2,letter,1,False,False,robot_stimuli\\filler.mp4,20,,,,,,,,,0,58,58,58,,,,,,,,,,,,,573.4151095999987,574.4781628999917,,,,,,,576.5113471999939,576.5113471999939,576.5113471999939,576.5113471999939,576.5113471999939,576.5113471999939,576.5113471999939,576.5113471999939,None,None,None,,,,,,,,,,,573.4151095999987,573.4151095999987,None,,574.4781628999917,574.4781628999917,576.5113471999939,n,0.8749964000016917,573.4151095999987,573.4151095999987,,20,001,2024-07-03_10h35.54.472,robot_nback_sign,2022.2.5,60.07958141276605,
M,False,2,letter,1,False,False,robot_stimuli\\filler.mp4,20,,,,,,,,,0,59,59,59,,,,,,,,,,,,,576.5113471999939,577.5699650000024,,,,,,,579.5985501999967,579.5985501999967,579.5985501999967,579.5985501999967,579.5985501999967,579.5985501999967,579.5985501999967,579.5985501999967,None,None,None,,,,,,,,,,,576.5113471999939,576.5113471999939,None,,577.5699650000024,577.5699650000024,579.5985501999967,n,1.4223058999923524,576.5113471999939,576.5113471999939,,20,001,2024-07-03_10h35.54.472,robot_nback_sign,2022.2.5,60.07958141276605,
F,True,2,letter,1,False,False,robot_stimuli\\filler.mp4,20,,,,,,,,,0,60,60,60,,,,,,,,,,,,,579.5985501999967,580.6520689000026,,,,,,,582.8762951999961,582.8762951999961,582.8762951999961,582.8762951999961,582.8762951999961,582.8762951999961,582.8762951999961,582.8762951999961,None,None,None,,,,,,,,,,,579.5985501999967,579.5985501999967,None,,580.6520689000026,580.6520689000026,582.8762951999961,c,1.4049070000037318,579.5985501999967,579.5985501999967,,20,001,2024-07-03_10h35.54.472,robot_nback_sign,2022.2.5,60.07958141276605,
L,False,2,letter,1,False,False,robot_stimuli\\filler.mp4,20,,,,,,,,,0,61,61,61,,,,,,,,,,,,,582.8762951999961,583.9386908000015,,,,,,,585.9626178000035,585.9626178000035,585.9626178000035,585.9626178000035,585.9626178000035,585.9626178000035,585.9626178000035,585.9626178000035,None,None,None,,,,,,,,,,,582.8762951999961,582.8762951999961,None,,583.9386908000015,583.9386908000015,585.9626178000035,None,,582.8762951999961,582.8762951999961,,20,001,2024-07-03_10h35.54.472,robot_nback_sign,2022.2.5,60.07958141276605,
F,True,2,letter,1,False,False,robot_stimuli\\filler.mp4,20,,,,,,,,,0,62,62,62,,,,,,,,,,,,,585.9626178000035,587.019034099998,,,,,,,589.2417523999902,589.2417523999902,589.2417523999902,589.2417523999902,589.2417523999902,589.2417523999902,589.2417523999902,589.2417523999902,None,None,None,,,,,,,,,,,585.9626178000035,585.9626178000035,None,,587.019034099998,587.019034099998,589.2417523999902,c,0.734094900006312,585.9626178000035,585.9626178000035,,20,001,2024-07-03_10h35.54.472,robot_nback_sign,2022.2.5,60.07958141276605,
N,False,2,letter,1,False,False,robot_stimuli\\filler.mp4,20,,,,,,,,,0,63,63,63,,,,,,,,,,,,,589.2417523999902,590.3028536999918,,,,,,,592.5260038999986,592.5260038999986,592.5260038999986,592.5260038999986,592.5260038999986,592.5260038999986,592.5260038999986,592.5260038999986,None,None,None,,,,,,,,,,,589.2417523999902,589.2417523999902,None,,590.3028536999918,590.3028536999918,592.5260038999986,c,1.4653160000161733,589.2417523999902,589.2417523999902,,20,001,2024-07-03_10h35.54.472,robot_nback_sign,2022.2.5,60.07958141276605,
F,True,2,letter,1,False,False,robot_stimuli\\filler.mp4,20,,,,,,,,,0,64,64,64,,,,,,,,,,,,,592.5260038999986,593.5868888999976,,,,,,,595.6144469999999,595.6144469999999,595.6144469999999,595.6144469999999,595.6144469999999,595.6144469999999,595.6144469999999,595.6144469999999,None,None,None,,,,,,,,,,,592.5260038999986,592.5260038999986,None,,593.5868888999976,593.5868888999976,595.6144469999999,c,1.0134209999960149,592.5260038999986,592.5260038999986,,20,001,2024-07-03_10h35.54.472,robot_nback_sign,2022.2.5,60.07958141276605,
N,True,2,letter,1,False,False,robot_stimuli\\filler.mp4,20,,,,,,,,,0,65,65,65,,,,,,,,,,,,,595.6144469999999,596.6700170999975,,,,,,,598.6990586000029,598.6990586000029,598.6990586000029,598.6990586000029,598.6990586000029,598.6990586000029,598.6990586000029,598.6990586000029,None,None,None,,,,,,,,,,,595.6144469999999,595.6144469999999,None,,596.6700170999975,596.6700170999975,598.6990586000029,c,1.0115962999989279,595.6144469999999,595.6144469999999,,20,001,2024-07-03_10h35.54.472,robot_nback_sign,2022.2.5,60.07958141276605,
C,False,2,letter,1,False,False,robot_stimuli\\filler.mp4,20,,,,,,,,,0,66,66,66,,,,,,,,,,,,,598.6990586000029,599.7531909999961,,,,,,,601.7771036999911,601.7771036999911,601.7771036999911,601.7771036999911,601.7771036999911,601.7771036999911,601.7771036999911,601.7771036999911,None,None,None,,,,,,,,,,,598.6990586000029,598.6990586000029,None,,599.7531909999961,599.7531909999961,601.7771036999911,n,1.3046163000108209,598.6990586000029,598.6990586000029,,20,001,2024-07-03_10h35.54.472,robot_nback_sign,2022.2.5,60.07958141276605,
B,False,2,letter,1,False,False,robot_stimuli\\filler.mp4,20,,,,,,,,,0,67,67,67,,,,,,,,,,,,,601.7771036999911,602.8358390999929,,,,,,,605.0634694000037,605.0634694000037,605.0634694000037,605.0634694000037,605.0634694000037,605.0634694000037,605.0634694000037,605.0634694000037,None,None,None,,,,,,,,,,,601.7771036999911,601.7771036999911,None,,602.8358390999929,602.8358390999929,605.0634694000037,n,0.7486823000072036,601.7771036999911,601.7771036999911,,20,001,2024-07-03_10h35.54.472,robot_nback_sign,2022.2.5,60.07958141276605,
C,True,2,letter,1,False,False,robot_stimuli\\filler.mp4,20,,,,,,,,,0,68,68,68,,,,,,,,,,,,,605.0634694000037,606.1190464999963,,,,,,,608.3518116999912,608.3518116999912,608.3518116999912,608.3518116999912,608.3518116999912,608.3518116999912,608.3518116999912,608.3518116999912,None,None,None,,,,,,,,,,,605.0634694000037,605.0634694000037,None,,606.1190464999963,606.1190464999963,608.3518116999912,c,0.9379526000120677,605.0634694000037,605.0634694000037,,20,001,2024-07-03_10h35.54.472,robot_nback_sign,2022.2.5,60.07958141276605,
B,True,2,letter,1,False,False,robot_stimuli\\filler.mp4,20,,,,,,,,,0,69,69,69,,,,,,,,,,,,,608.3518116999912,,,,,,,,611.4465125999996,611.4465125999996,611.4465125999996,611.4465125999996,611.4465125999996,611.4465125999996,611.4465125999996,611.4465125999996,None,None,None,,,,,,,,,,,608.3518116999912,608.3518116999912,None,,609.4189432999992,609.4189432999992,611.4465125999996,c,0.4780077000032179,608.3518116999912,608.3518116999912,,20,001,2024-07-03_10h35.54.472,robot_nback_sign,2022.2.5,60.07958141276605,
B,False,2,letter,1,False,False,robot_stimuli\\filler.mp4,20,,,,,,,,,0,70,70,70,,,,,,,,,,,,,611.4465125999996,612.5100113999943,,,,,,,614.5408804999897,614.5408804999897,614.5408804999897,614.5408804999897,614.5408804999897,614.5408804999897,614.5408804999897,614.5408804999897,None,None,None,,,,,,,,,,,611.4465125999996,611.4465125999996,None,,612.5100113999943,612.5100113999943,614.5408804999897,n,0.7225105000106851,611.4465125999996,611.4465125999996,,20,001,2024-07-03_10h35.54.472,robot_nback_sign,2022.2.5,60.07958141276605,
W,False,2,letter,1,False,False,robot_stimuli\\filler.mp4,20,,,,,,,,,0,71,71,71,,,,,,,,,,,,,614.5408804999897,615.61394689999,,,,,,,617.6477500999899,617.6477500999899,617.6477500999899,617.6477500999899,617.6477500999899,617.6477500999899,617.6477500999899,617.6477500999899,None,None,None,,,,,,,,,,,614.5408804999897,614.5408804999897,None,,615.61394689999,615.61394689999,617.6477500999899,n,0.5872316000022693,614.5408804999897,614.5408804999897,,20,001,2024-07-03_10h35.54.472,robot_nback_sign,2022.2.5,60.07958141276605,
K,False,2,letter,1,False,False,robot_stimuli\\filler.mp4,20,,,,,,,,,0,72,72,72,,,,,,,,,,,,,617.6477500999899,618.7019366000022,,,,,,,620.9350781999965,620.9350781999965,620.9350781999965,620.9350781999965,620.9350781999965,620.9350781999965,620.9350781999965,620.9350781999965,None,None,None,,,,,,,,,,,617.6477500999899,617.6477500999899,None,,618.7019366000022,618.7019366000022,620.9350781999965,n,0.6672981000010623,617.6477500999899,617.6477500999899,,20,001,2024-07-03_10h35.54.472,robot_nback_sign,2022.2.5,60.07958141276605,
M,False,2,letter,1,False,False,robot_stimuli\\filler.mp4,20,,,,,,,,,0,73,73,73,,,,,,,,,,,,,620.9350781999965,,,,,,,,624.2266720999905,624.2266720999905,624.2266720999905,624.2266720999905,624.2266720999905,624.2266720999905,624.2266720999905,624.2266720999905,None,None,None,,,,,,,,,,,620.9350781999965,620.9350781999965,None,,622.0020188999915,622.0020188999915,624.2266720999905,n,0.5663273999962257,620.9350781999965,620.9350781999965,,20,001,2024-07-03_10h35.54.472,robot_nback_sign,2022.2.5,60.07958141276605,
H,False,2,letter,1,False,False,robot_stimuli\\filler.mp4,20,,,,,,,,,0,74,74,74,,,,,,,,,,,,,624.2266720999905,625.2839481999981,,,,,,,627.3203297,627.3203297,627.3203297,627.3203297,627.3203297,627.3203297,627.3203297,627.3203297,None,None,None,,,,,,,,,,,624.2266720999905,624.2266720999905,None,,625.2839481999981,625.2839481999981,627.3203297,n,0.6610827000113204,624.2266720999905,624.2266720999905,,20,001,2024-07-03_10h35.54.472,robot_nback_sign,2022.2.5,60.07958141276605,
L,False,2,letter,1,False,False,robot_stimuli\\filler.mp4,20,,,,,,,,,0,75,75,75,,,,,,,,,,,,,627.3203297,628.3819114999933,,,,,,,630.4084514999995,630.4084514999995,630.4084514999995,630.4084514999995,630.4084514999995,630.4084514999995,630.4084514999995,630.4084514999995,None,None,None,,,,,,,,,,,627.3203297,627.3203297,None,,628.3819114999933,628.3819114999933,630.4084514999995,n,0.7712395999988075,627.3203297,627.3203297,,20,001,2024-07-03_10h35.54.472,robot_nback_sign,2022.2.5,60.07958141276605,
F,False,2,letter,1,False,False,robot_stimuli\\filler.mp4,20,,,,,,,,,0,76,76,76,,,,,,,,,,,,,630.4084514999995,631.4694353999948,,,,,,,633.4980270999949,633.4980270999949,633.4980270999949,633.4980270999949,633.4980270999949,633.4980270999949,633.4980270999949,633.4980270999949,None,None,None,,,,,,,,,,,630.4084514999995,630.4084514999995,None,,631.4694353999948,631.4694353999948,633.4980270999949,n,1.250535500003025,630.4084514999995,630.4084514999995,,20,001,2024-07-03_10h35.54.472,robot_nback_sign,2022.2.5,60.07958141276605,
J,False,2,letter,1,False,False,robot_stimuli\\filler.mp4,20,,,,,,,,,0,77,77,77,,,,,,,,,,,,,633.4980270999949,634.5528107999999,,,,,,,636.7770227000001,636.7770227000001,636.7770227000001,636.7770227000001,636.7770227000001,636.7770227000001,636.7770227000001,636.7770227000001,None,None,None,,,,,,,,,,,633.4980270999949,633.4980270999949,None,,634.5528107999999,634.5528107999999,636.7770227000001,n,0.8724865000112914,633.4980270999949,633.4980270999949,,20,001,2024-07-03_10h35.54.472,robot_nback_sign,2022.2.5,60.07958141276605,
F,True,2,letter,1,False,False,robot_stimuli\\filler.mp4,20,,,,,,,,,0,78,78,78,,,,,,,,,,,,,636.7770227000001,637.8362979999947,,,,,,,639.8613259999984,639.8613259999984,639.8613259999984,639.8613259999984,639.8613259999984,639.8613259999984,639.8613259999984,639.8613259999984,None,None,None,,,,,,,,,,,636.7770227000001,636.7770227000001,None,,637.8362979999947,637.8362979999947,639.8613259999984,c,0.6694698000064818,636.7770227000001,636.7770227000001,,20,001,2024-07-03_10h35.54.472,robot_nback_sign,2022.2.5,60.07958141276605,
J,True,2,letter,1,False,False,robot_stimuli\\filler.mp4,20,,,,,,,,,0,79,79,79,,,,,,,,,,,,,639.8613259999984,640.9194456999976,,,,,,,643.1446270000015,643.1446270000015,643.1446270000015,643.1446270000015,643.1446270000015,643.1446270000015,643.1446270000015,643.1446270000015,None,None,None,,,,,,,,,,,639.8613259999984,639.8613259999984,None,,640.9194456999976,640.9194456999976,643.1446270000015,c,0.9535224999999627,639.8613259999984,639.8613259999984,,20,001,2024-07-03_10h35.54.472,robot_nback_sign,2022.2.5,60.07958141276605,
N,False,2,letter,1,False,False,robot_stimuli\\filler.mp4,20,,,,,,,,,0,80,80,80,,,,,,,,,,,,,643.1446270000015,644.2016181999934,,,,,,,646.4289274999901,646.4289274999901,646.4289274999901,646.4289274999901,646.4289274999901,646.4289274999901,646.4289274999901,646.4289274999901,None,None,None,,,,,,,,,,,643.1446270000015,643.1446270000015,None,,644.2016181999934,644.2016181999934,646.4289274999901,n,1.1276675000117393,643.1446270000015,643.1446270000015,,20,001,2024-07-03_10h35.54.472,robot_nback_sign,2022.2.5,60.07958141276605,
C,False,2,letter,1,False,False,robot_stimuli\\filler.mp4,20,,,,,,,,,0,81,81,81,,,,,,,,,,,,,646.4289274999901,647.4870940999972,,,,,,,649.5169356999977,649.5169356999977,649.5169356999977,649.5169356999977,649.5169356999977,649.5169356999977,649.5169356999977,649.5169356999977,None,None,None,,,,,,,,,,,646.4289274999901,646.4289274999901,None,,647.4870940999972,647.4870940999972,649.5169356999977,n,0.7767524000082631,646.4289274999901,646.4289274999901,,20,001,2024-07-03_10h35.54.472,robot_nback_sign,2022.2.5,60.07958141276605,
X,False,2,letter,1,False,False,robot_stimuli\\filler.mp4,20,,,,,,,,,0,82,82,82,,,,,,,,,,,,,649.5169356999977,650.5678572000033,,,,,,,652.8021174000023,652.8021174000023,652.8021174000023,652.8021174000023,652.8021174000023,652.8021174000023,652.8021174000023,652.8021174000023,None,None,None,,,,,,,,,,,649.5169356999977,649.5169356999977,None,,650.5678572000033,650.5678572000033,652.8021174000023,n,0.7380132999969646,649.5169356999977,649.5169356999977,,20,001,2024-07-03_10h35.54.472,robot_nback_sign,2022.2.5,60.07958141276605,
X,False,2,letter,1,False,False,robot_stimuli\\filler.mp4,20,,,,,,,,,0,83,83,83,,,,,,,,,,,,,652.8021174000023,,,,,,,,655.8931576000032,655.8931576000032,655.8931576000032,655.8931576000032,655.8931576000032,655.8931576000032,655.8931576000032,655.8931576000032,None,None,None,,,,,,,,,,,652.8021174000023,652.8021174000023,None,,653.8690669999924,653.8690669999924,655.8931576000032,n,0.9155100000061793,652.8021174000023,652.8021174000023,,20,001,2024-07-03_10h35.54.472,robot_nback_sign,2022.2.5,60.07958141276605,
J,False,2,letter,1,False,False,robot_stimuli\\filler.mp4,20,,,,,,,,,0,84,84,84,,,,,,,,,,,,,655.8931576000032,656.9515113999951,,,,,,,659.1797704999917,659.1797704999917,659.1797704999917,659.1797704999917,659.1797704999917,659.1797704999917,659.1797704999917,659.1797704999917,None,None,None,,,,,,,,,,,655.8931576000032,655.8931576000032,None,,656.9515113999951,656.9515113999951,659.1797704999917,n,1.0246526000119047,655.8931576000032,655.8931576000032,,20,001,2024-07-03_10h35.54.472,robot_nback_sign,2022.2.5,60.07958141276605,
R,False,2,letter,1,False,False,robot_stimuli\\filler.mp4,20,,,,,,,,,0,85,85,85,,,,,,,,,,,,,659.1797704999917,660.2419233999972,,,,,,,662.2697041999927,662.2697041999927,662.2697041999927,662.2697041999927,662.2697041999927,662.2697041999927,662.2697041999927,662.2697041999927,None,None,None,,,,,,,,,,,659.1797704999917,659.1797704999917,None,,660.2419233999972,660.2419233999972,662.2697041999927,n,0.774896600007196,659.1797704999917,659.1797704999917,,20,001,2024-07-03_10h35.54.472,robot_nback_sign,2022.2.5,60.07958141276605,
N,False,2,letter,1,False,False,robot_stimuli\\filler.mp4,20,,,,,,,,,0,86,86,86,,,,,,,,,,,,,662.2697041999927,663.3352749999904,,,,,,,665.5677043000032,665.5677043000032,665.5677043000032,665.5677043000032,665.5677043000032,665.5677043000032,665.5677043000032,665.5677043000032,None,None,None,,,,,,,,,,,662.2697041999927,662.2697041999927,None,,663.3352749999904,663.3352749999904,665.5677043000032,n,0.6171322000009241,662.2697041999927,662.2697041999927,,20,001,2024-07-03_10h35.54.472,robot_nback_sign,2022.2.5,60.07958141276605,
W,False,2,letter,1,False,False,robot_stimuli\\filler.mp4,20,,,,,,,,,0,87,87,87,,,,,,,,,,,,,665.5677043000032,,,,,,,,668.8603947999945,668.8603947999945,668.8603947999945,668.8603947999945,668.8603947999945,668.8603947999945,668.8603947999945,668.8603947999945,None,None,None,,,,,,,,,,,665.5677043000032,665.5677043000032,None,,666.6376977999898,666.6376977999898,668.8603947999945,n,0.707640500011621,665.5677043000032,665.5677043000032,,20,001,2024-07-03_10h35.54.472,robot_nback_sign,2022.2.5,60.07958141276605,
S,False,2,letter,1,False,False,robot_stimuli\\filler.mp4,20,,,,,,,,,0,88,88,88,,,,,,,,,,,,,668.8603947999945,669.919300900001,,,,,,,672.152634500002,672.152634500002,672.152634500002,672.152634500002,672.152634500002,672.152634500002,672.152634500002,672.152634500002,None,None,None,,,,,,,,,,,668.8603947999945,668.8603947999945,None,,669.919300900001,669.919300900001,672.152634500002,n,0.47271440000622533,668.8603947999945,668.8603947999945,,20,001,2024-07-03_10h35.54.472,robot_nback_sign,2022.2.5,60.07958141276605,
G,False,2,letter,1,False,False,robot_stimuli\\filler.mp4,20,,,,,,,,,0,89,89,89,,,,,,,,,,,,,672.152634500002,673.2195649999921,,,,,,,675.2434462999954,675.2434462999954,675.2434462999954,675.2434462999954,675.2434462999954,675.2434462999954,675.2434462999954,675.2434462999954,None,None,None,,,,,,,,,,,672.152634500002,672.152634500002,None,,673.2195649999921,673.2195649999921,675.2434462999954,n,0.8283814000023995,672.152634500002,672.152634500002,,20,001,2024-07-03_10h35.54.472,robot_nback_sign,2022.2.5,60.07958141276605,
V,False,2,letter,1,False,False,robot_stimuli\\filler.mp4,20,,,,,,,,,0,90,90,90,,,,,,,,,,,,,675.2434462999954,676.3021613000019,,,,,,,678.5305114999937,678.5305114999937,678.5305114999937,678.5305114999937,678.5305114999937,678.5305114999937,678.5305114999937,678.5305114999937,None,None,None,,,,,,,,,,,675.2434462999954,675.2434462999954,None,,676.3021613000019,676.3021613000019,678.5305114999937,n,1.0031436999997823,675.2434462999954,675.2434462999954,,20,001,2024-07-03_10h35.54.472,robot_nback_sign,2022.2.5,60.07958141276605,
M,False,2,letter,1,False,False,robot_stimuli\\filler.mp4,20,,,,,,,,,0,91,91,91,,,,,,,,,,,,,678.5305114999937,679.5856988000014,,,,,,,681.8118727999972,681.8118727999972,681.8118727999972,681.8118727999972,681.8118727999972,681.8118727999972,681.8118727999972,681.8118727999972,None,None,None,,,,,,,,,,,678.5305114999937,678.5305114999937,None,,679.5856988000014,679.5856988000014,681.8118727999972,n,0.6153874000010546,678.5305114999937,678.5305114999937,,20,001,2024-07-03_10h35.54.472,robot_nback_sign,2022.2.5,60.07958141276605,
V,True,2,letter,1,False,False,robot_stimuli\\filler.mp4,20,,,,,,,,,0,92,92,92,,,,,,,,,,,,,681.8118727999972,682.8672999999981,,,,,,,685.1003849999979,685.1003849999979,685.1003849999979,685.1003849999979,685.1003849999979,685.1003849999979,685.1003849999979,685.1003849999979,None,None,None,,,,,,,,,,,681.8118727999972,681.8118727999972,None,,682.8672999999981,682.8672999999981,685.1003849999979,c,0.9505837000033353,681.8118727999972,681.8118727999972,,20,001,2024-07-03_10h35.54.472,robot_nback_sign,2022.2.5,60.07958141276605,
R,False,2,letter,1,False,False,robot_stimuli\\filler.mp4,20,,,,,,,,,0,93,93,93,,,,,,,,,,,,,685.1003849999979,,,,,,,,688.2072194999928,688.2072194999928,688.2072194999928,688.2072194999928,688.2072194999928,688.2072194999928,688.2072194999928,688.2072194999928,None,None,None,,,,,,,,,,,685.1003849999979,685.1003849999979,None,,686.1793730999925,686.1793730999925,688.2072194999928,n,0.6860457000002498,685.1003849999979,685.1003849999979,,20,001,2024-07-03_10h35.54.472,robot_nback_sign,2022.2.5,60.07958141276605,
B,False,2,letter,1,False,False,robot_stimuli\\filler.mp4,20,,,,,,,,,0,94,94,94,,,,,,,,,,,,,688.2072194999928,689.2785581999924,,,,,,,691.3105989999895,691.3105989999895,691.3105989999895,691.3105989999895,691.3105989999895,691.3105989999895,691.3105989999895,691.3105989999895,None,None,None,,,,,,,,,,,688.2072194999928,688.2072194999928,None,,689.2785581999924,689.2785581999924,691.3105989999895,n,0.9539959000103408,688.2072194999928,688.2072194999928,,20,001,2024-07-03_10h35.54.472,robot_nback_sign,2022.2.5,60.07958141276605,
R,True,2,letter,1,False,False,robot_stimuli\\filler.mp4,20,,,,,,,,,0,95,95,95,,,,,,,,,,,,,691.3105989999895,692.3700661999901,,,,,,,694.5967422999965,694.5967422999965,694.5967422999965,694.5967422999965,694.5967422999965,694.5967422999965,694.5967422999965,694.5967422999965,None,None,None,,,,,,,,,,,691.3105989999895,691.3105989999895,None,,692.3700661999901,692.3700661999901,694.5967422999965,c,0.5835051000030944,691.3105989999895,691.3105989999895,,20,001,2024-07-03_10h35.54.472,robot_nback_sign,2022.2.5,60.07958141276605,
M,False,2,letter,1,False,False,robot_stimuli\\filler.mp4,20,,,,,,,,,0,96,96,96,,,,,,,,,,,,,694.5967422999965,695.6518263999897,,,,,,,697.8757627000014,697.8757627000014,697.8757627000014,697.8757627000014,697.8757627000014,697.8757627000014,697.8757627000014,697.8757627000014,None,None,None,,,,,,,,,,,694.5967422999965,694.5967422999965,None,,695.6518263999897,695.6518263999897,697.8757627000014,n,0.9728489000117406,694.5967422999965,694.5967422999965,,20,001,2024-07-03_10h35.54.472,robot_nback_sign,2022.2.5,60.07958141276605,
K,False,2,letter,1,False,False,robot_stimuli\\filler.mp4,20,,,,,,,,,0,97,97,97,,,,,,,,,,,,,697.8757627000014,698.9366328000033,,,,,,,701.1602083999896,701.1602083999896,701.1602083999896,701.1602083999896,701.1602083999896,701.1602083999896,701.1602083999896,701.1602083999896,None,None,None,,,,,,,,,,,697.8757627000014,697.8757627000014,None,,698.9366328000033,698.9366328000033,701.1602083999896,n,0.6954437000094913,697.8757627000014,697.8757627000014,,20,001,2024-07-03_10h35.54.472,robot_nback_sign,2022.2.5,60.07958141276605,
C,False,2,letter,1,False,False,robot_stimuli\\filler.mp4,20,,,,,,,,,0,98,98,98,,,,,,,,,,,,,701.1602083999896,702.2190333999897,,,,,,,704.4473676999914,704.4473676999914,704.4473676999914,704.4473676999914,704.4473676999914,704.4473676999914,704.4473676999914,704.4473676999914,None,None,None,,,,,,,,,,,701.1602083999896,701.1602083999896,None,,702.2190333999897,702.2190333999897,704.4473676999914,n,0.7343531999940751,701.1602083999896,701.1602083999896,,20,001,2024-07-03_10h35.54.472,robot_nback_sign,2022.2.5,60.07958141276605,
X,False,2,letter,1,False,True,robot_stimuli\\filler.mp4,20,,,,,,,,,0,99,99,99,,,,,,,,,,,,,704.4473676999914,705.5027611999976,,,,,,,707.7653509999946,716.1114170999936,707.7653509999946,716.1114170999936,707.7653509999946,716.1114170999936,707.7653509999946,716.1114170999936,32.77777777777778,6.189686500001699,space,,,,8.29117789999873,,,,,,,704.4473676999914,704.4473676999914,None,,705.5027611999976,705.5027611999976,707.7653509999946,n,0.7296291000093333,704.4473676999914,704.4473676999914,,20,001,2024-07-03_10h35.54.472,robot_nback_sign,2022.2.5,60.07958141276605,
P,False,1,letter,1,True,False,robot_stimuli\\filler.mp4,20,,,,,,,,,0,100,100,100,,,,,,,,,,,,,718.7326795999979,719.7913384999993,,,,,,,722.0094640000025,722.0094640000025,722.0094640000025,722.0094640000025,722.0094640000025,722.0094640000025,722.0094640000025,722.0094640000025,None,None,None,,,,,,,,,,,716.1114170999936,716.1114170999936,space,2.593686499996693,719.7913384999993,719.7913384999993,722.0094640000025,n,1.1613134000072023,,,,20,001,2024-07-03_10h35.54.472,robot_nback_sign,2022.2.5,60.07958141276605,
N,False,1,letter,1,False,False,robot_stimuli\\filler.mp4,20,,,,,,,,,0,101,101,101,,,,,,,,,,,,,722.0094640000025,723.0699254999927,,,,,,,725.3021421000012,725.3021421000012,725.3021421000012,725.3021421000012,725.3021421000012,725.3021421000012,725.3021421000012,725.3021421000012,None,None,None,,,,,,,,,,,722.0094640000025,722.0094640000025,None,,723.0699254999927,723.0699254999927,725.3021421000012,n,0.47536650000256486,722.0094640000025,722.0094640000025,,20,001,2024-07-03_10h35.54.472,robot_nback_sign,2022.2.5,60.07958141276605,
M,False,1,letter,1,False,False,robot_stimuli\\filler.mp4,20,,,,,,,,,0,102,102,102,,,,,,,,,,,,,725.3021421000012,,,,,,,,728.5968037999992,728.5968037999992,728.5968037999992,728.5968037999992,728.5968037999992,728.5968037999992,728.5968037999992,728.5968037999992,None,None,None,,,,,,,,,,,725.3021421000012,725.3021421000012,None,,726.3701628999988,726.3701628999988,728.5968037999992,n,0.6391425000037998,725.3021421000012,725.3021421000012,,20,001,2024-07-03_10h35.54.472,robot_nback_sign,2022.2.5,60.07958141276605,
P,False,1,letter,1,False,False,robot_stimuli\\filler.mp4,20,,,,,,,,,0,103,103,103,,,,,,,,,,,,,728.5968037999992,729.6524720000016,,,,,,,731.6834296000015,731.6834296000015,731.6834296000015,731.6834296000015,731.6834296000015,731.6834296000015,731.6834296000015,731.6834296000015,None,None,None,,,,,,,,,,,728.5968037999992,728.5968037999992,None,,729.6524720000016,729.6524720000016,731.6834296000015,n,0.65230000000156,728.5968037999992,728.5968037999992,,20,001,2024-07-03_10h35.54.472,robot_nback_sign,2022.2.5,60.07958141276605,
N,False,1,letter,1,False,False,robot_stimuli\\filler.mp4,20,,,,,,,,,0,104,104,104,,,,,,,,,,,,,731.6834296000015,732.7347980999912,,,,,,,734.9626893999957,734.9626893999957,734.9626893999957,734.9626893999957,734.9626893999957,734.9626893999957,734.9626893999957,734.9626893999957,None,None,None,,,,,,,,,,,731.6834296000015,731.6834296000015,None,,732.7347980999912,732.7347980999912,734.9626893999957,n,0.6975575999967987,731.6834296000015,731.6834296000015,,20,001,2024-07-03_10h35.54.472,robot_nback_sign,2022.2.5,60.07958141276605,
N,True,1,letter,1,False,False,robot_stimuli\\filler.mp4,20,,,,,,,,,0,105,105,105,,,,,,,,,,,,,734.9626893999957,736.018547300002,,,,,,,738.0489582000009,738.0489582000009,738.0489582000009,738.0489582000009,738.0489582000009,738.0489582000009,738.0489582000009,738.0489582000009,None,None,None,,,,,,,,,,,734.9626893999957,734.9626893999957,None,,736.018547300002,736.018547300002,738.0489582000009,c,0.5588195000018459,734.9626893999957,734.9626893999957,,20,001,2024-07-03_10h35.54.472,robot_nback_sign,2022.2.5,60.07958141276605,
F,False,1,letter,1,False,False,robot_stimuli\\filler.mp4,20,,,,,,,,,0,106,106,106,,,,,,,,,,,,,738.0489582000009,739.1024850999966,,,,,,,741.3348428000027,741.3348428000027,741.3348428000027,741.3348428000027,741.3348428000027,741.3348428000027,741.3348428000027,741.3348428000027,None,None,None,,,,,,,,,,,738.0489582000009,738.0489582000009,None,,739.1024850999966,739.1024850999966,741.3348428000027,n,0.44953650000388734,738.0489582000009,738.0489582000009,,20,001,2024-07-03_10h35.54.472,robot_nback_sign,2022.2.5,60.07958141276605,
V,False,1,letter,1,False,False,robot_stimuli\\filler.mp4,20,,,,,,,,,0,107,107,107,,,,,,,,,,,,,741.3348428000027,,,,,,,,744.6350696000009,744.6350696000009,744.6350696000009,744.6350696000009,744.6350696000009,744.6350696000009,744.6350696000009,744.6350696000009,None,None,None,,,,,,,,,,,741.3348428000027,741.3348428000027,None,,742.4019129999942,742.4019129999942,744.6350696000009,n,0.48592659999849275,741.3348428000027,741.3348428000027,,20,001,2024-07-03_10h35.54.472,robot_nback_sign,2022.2.5,60.07958141276605,
T,False,1,letter,1,False,False,robot_stimuli\\filler.mp4,20,,,,,,,,,0,108,108,108,,,,,,,,,,,,,744.6350696000009,,,,,,,,747.9349843999953,747.9349843999953,747.9349843999953,747.9349843999953,747.9349843999953,747.9349843999953,747.9349843999953,747.9349843999953,None,None,None,,,,,,,,,,,744.6350696000009,744.6350696000009,None,,745.7025944999914,745.7025944999914,747.9349843999953,n,0.5060714999999618,744.6350696000009,744.6350696000009,,20,001,2024-07-03_10h35.54.472,robot_nback_sign,2022.2.5,60.07958141276605,
P,False,1,letter,1,False,False,robot_stimuli\\filler.mp4,20,,,,,,,,,0,109,109,109,,,,,,,,,,,,,747.9349843999953,,,,,,,,751.038109599991,751.038109599991,751.038109599991,751.038109599991,751.038109599991,751.038109599991,751.038109599991,751.038109599991,None,None,None,,,,,,,,,,,747.9349843999953,747.9349843999953,None,,749.0037101999915,749.0037101999915,751.038109599991,n,0.5965187000110745,747.9349843999953,747.9349843999953,,20,001,2024-07-03_10h35.54.472,robot_nback_sign,2022.2.5,60.07958141276605,
G,False,1,letter,1,False,False,robot_stimuli\\filler.mp4,20,,,,,,,,,0,110,110,110,,,,,,,,,,,,,751.038109599991,752.1014371999918,,,,,,,754.3346187999996,754.3346187999996,754.3346187999996,754.3346187999996,754.3346187999996,754.3346187999996,754.3346187999996,754.3346187999996,None,None,None,,,,,,,,,,,751.038109599991,751.038109599991,None,,752.1014371999918,752.1014371999918,754.3346187999996,n,0.42815770000743214,751.038109599991,751.038109599991,,20,001,2024-07-03_10h35.54.472,robot_nback_sign,2022.2.5,60.07958141276605,
X,False,1,letter,1,False,False,robot_stimuli\\filler.mp4,20,,,,,,,,,0,111,111,111,,,,,,,,,,,,,754.3346187999996,,,,,,,,757.6321234999923,757.6321234999923,757.6321234999923,757.6321234999923,757.6321234999923,757.6321234999923,757.6321234999923,757.6321234999923,None,None,None,,,,,,,,,,,754.3346187999996,754.3346187999996,None,,755.4023807999911,755.4023807999911,757.6321234999923,n,0.4069770999922184,754.3346187999996,754.3346187999996,,20,001,2024-07-03_10h35.54.472,robot_nback_sign,2022.2.5,60.07958141276605,
X,True,1,letter,1,False,False,robot_stimuli\\filler.mp4,20,,,,,,,,,0,112,112,112,,,,,,,,,,,,,757.6321234999923,758.6838429999916,,,,,,,760.9157124999911,760.9157124999911,760.9157124999911,760.9157124999911,760.9157124999911,760.9157124999911,760.9157124999911,760.9157124999911,None,None,None,,,,,,,,,,,757.6321234999923,757.6321234999923,None,,758.6838429999916,758.6838429999916,760.9157124999911,c,0.5575362000090536,757.6321234999923,757.6321234999923,,20,001,2024-07-03_10h35.54.472,robot_nback_sign,2022.2.5,60.07958141276605,
V,False,1,letter,1,False,False,robot_stimuli\\filler.mp4,20,,,,,,,,,0,113,113,113,,,,,,,,,,,,,760.9157124999911,761.9699360999948,,,,,,,764.1956530000025,764.1956530000025,764.1956530000025,764.1956530000025,764.1956530000025,764.1956530000025,764.1956530000025,764.1956530000025,None,None,None,,,,,,,,,,,760.9157124999911,760.9157124999911,None,,761.9699360999948,761.9699360999948,764.1956530000025,n,0.5901048999949126,760.9157124999911,760.9157124999911,,20,001,2024-07-03_10h35.54.472,robot_nback_sign,2022.2.5,60.07958141276605,
R,False,1,letter,1,False,False,robot_stimuli\\filler.mp4,20,,,,,,,,,0,114,114,114,,,,,,,,,,,,,764.1956530000025,765.2604816999956,,,,,,,767.2927195999946,767.2927195999946,767.2927195999946,767.2927195999946,767.2927195999946,767.2927195999946,767.2927195999946,767.2927195999946,None,None,None,,,,,,,,,,,764.1956530000025,764.1956530000025,None,,765.2604816999956,765.2604816999956,767.2927195999946,n,0.39732180000282824,764.1956530000025,764.1956530000025,,20,001,2024-07-03_10h35.54.472,robot_nback_sign,2022.2.5,60.07958141276605,
J,False,1,letter,1,False,False,robot_stimuli\\filler.mp4,20,,,,,,,,,0,115,115,115,,,,,,,,,,,,,767.2927195999946,768.3523065999907,,,,,,,770.5824954999989,770.5824954999989,770.5824954999989,770.5824954999989,770.5824954999989,770.5824954999989,770.5824954999989,770.5824954999989,None,None,None,,,,,,,,,,,767.2927195999946,767.2927195999946,None,,768.3523065999907,768.3523065999907,770.5824954999989,n,0.4396930999937467,767.2927195999946,767.2927195999946,,20,001,2024-07-03_10h35.54.472,robot_nback_sign,2022.2.5,60.07958141276605,
R,False,1,letter,1,False,False,robot_stimuli\\filler.mp4,20,,,,,,,,,0,116,116,116,,,,,,,,,,,,,770.5824954999989,771.6353411000018,,,,,,,773.8674467999954,773.8674467999954,773.8674467999954,773.8674467999954,773.8674467999954,773.8674467999954,773.8674467999954,773.8674467999954,None,None,None,,,,,,,,,,,770.5824954999989,770.5824954999989,None,,771.6353411000018,771.6353411000018,773.8674467999954,c,0.678572200005874,770.5824954999989,770.5824954999989,,20,001,2024-07-03_10h35.54.472,robot_nback_sign,2022.2.5,60.07958141276605,
R,True,1,letter,1,False,False,robot_stimuli\\filler.mp4,20,,,,,,,,,0,117,117,117,,,,,,,,,,,,,773.8674467999954,,,,,,,,776.9589086999913,776.9589086999913,776.9589086999913,776.9589086999913,776.9589086999913,776.9589086999913,776.9589086999913,776.9589086999913,None,None,None,,,,,,,,,,,773.8674467999954,773.8674467999954,None,,774.9333984999976,774.9333984999976,776.9589086999913,c,0.5556575000082375,773.8674467999954,773.8674467999954,,20,001,2024-07-03_10h35.54.472,robot_nback_sign,2022.2.5,60.07958141276605,
X,False,1,letter,1,False,False,robot_stimuli\\filler.mp4,20,,,,,,,,,0,118,118,118,,,,,,,,,,,,,776.9589086999913,778.0186408000009,,,,,,,780.2431968000019,780.2431968000019,780.2431968000019,780.2431968000019,780.2431968000019,780.2431968000019,780.2431968000019,780.2431968000019,None,None,None,,,,,,,,,,,776.9589086999913,776.9589086999913,None,,778.0186408000009,778.0186408000009,780.2431968000019,n,0.6462216999934753,776.9589086999913,776.9589086999913,,20,001,2024-07-03_10h35.54.472,robot_nback_sign,2022.2.5,60.07958141276605,
S,False,1,letter,1,False,False,robot_stimuli\\filler.mp4,20,,,,,,,,,0,119,119,119,,,,,,,,,,,,,780.2431968000019,781.3025614999933,,,,,,,783.3353950000019,783.3353950000019,783.3353950000019,783.3353950000019,783.3353950000019,783.3353950000019,783.3353950000019,783.3353950000019,None,None,None,,,,,,,,,,,780.2431968000019,780.2431968000019,None,,781.3025614999933,781.3025614999933,783.3353950000019,n,0.4494363000121666,780.2431968000019,780.2431968000019,,20,001,2024-07-03_10h35.54.472,robot_nback_sign,2022.2.5,60.07958141276605,
M,False,1,letter,1,False,False,robot_stimuli\\filler.mp4,20,,,,,,,,,0,120,120,120,,,,,,,,,,,,,783.3353950000019,,,,,,,,786.6266651999904,786.6266651999904,786.6266651999904,786.6266651999904,786.6266651999904,786.6266651999904,786.6266651999904,786.6266651999904,None,None,None,,,,,,,,,,,783.3353950000019,783.3353950000019,None,,784.4021811999992,784.4021811999992,786.6266651999904,n,0.5098893000103999,783.3353950000019,783.3353950000019,,20,001,2024-07-03_10h35.54.472,robot_nback_sign,2022.2.5,60.07958141276605,
M,True,1,letter,1,False,False,robot_stimuli\\filler.mp4,20,,,,,,,,,0,121,121,121,,,,,,,,,,,,,786.6266651999904,787.6848009999958,,,,,,,789.9181380999944,789.9181380999944,789.9181380999944,789.9181380999944,789.9181380999944,789.9181380999944,789.9181380999944,789.9181380999944,None,None,None,,,,,,,,,,,786.6266651999904,786.6266651999904,None,,787.6848009999958,787.6848009999958,789.9181380999944,c,0.5794944000081159,786.6266651999904,786.6266651999904,,20,001,2024-07-03_10h35.54.472,robot_nback_sign,2022.2.5,60.07958141276605,
S,False,1,letter,1,False,False,robot_stimuli\\filler.mp4,20,,,,,,,,,0,122,122,122,,,,,,,,,,,,,789.9181380999944,,,,,,,,793.2179410999961,793.2179410999961,793.2179410999961,793.2179410999961,793.2179410999961,793.2179410999961,793.2179410999961,793.2179410999961,None,None,None,,,,,,,,,,,789.9181380999944,789.9181380999944,None,,790.9851047999982,790.9851047999982,793.2179410999961,n,0.590935600004741,789.9181380999944,789.9181380999944,,20,001,2024-07-03_10h35.54.472,robot_nback_sign,2022.2.5,60.07958141276605,
F,False,1,letter,1,False,False,robot_stimuli\\filler.mp4,20,,,,,,,,,0,123,123,123,,,,,,,,,,,,,793.2179410999961,,,,,,,,796.5104270000011,796.5104270000011,796.5104270000011,796.5104270000011,796.5104270000011,796.5104270000011,796.5104270000011,796.5104270000011,None,None,None,,,,,,,,,,,793.2179410999961,793.2179410999961,None,,794.2889070999954,794.2889070999954,796.5104270000011,n,0.5760777999967104,793.2179410999961,793.2179410999961,,20,001,2024-07-03_10h35.54.472,robot_nback_sign,2022.2.5,60.07958141276605,
C,False,1,letter,1,False,False,robot_stimuli\\filler.mp4,20,,,,,,,,,0,124,124,124,,,,,,,,,,,,,796.5104270000011,797.568922099992,,,,,,,799.5964742999931,799.5964742999931,799.5964742999931,799.5964742999931,799.5964742999931,799.5964742999931,799.5964742999931,799.5964742999931,None,None,None,,,,,,,,,,,796.5104270000011,796.5104270000011,None,,797.568922099992,797.568922099992,799.5964742999931,n,0.4888262000022223,796.5104270000011,796.5104270000011,,20,001,2024-07-03_10h35.54.472,robot_nback_sign,2022.2.5,60.07958141276605,
J,False,1,letter,1,False,False,robot_stimuli\\filler.mp4,20,,,,,,,,,0,125,125,125,,,,,,,,,,,,,799.5964742999931,800.6566409999941,,,,,,,802.6812376000016,802.6812376000016,802.6812376000016,802.6812376000016,802.6812376000016,802.6812376000016,802.6812376000016,802.6812376000016,None,None,None,,,,,,,,,,,799.5964742999931,799.5964742999931,None,,800.6566409999941,800.6566409999941,802.6812376000016,n,0.4251183000014862,799.5964742999931,799.5964742999931,,20,001,2024-07-03_10h35.54.472,robot_nback_sign,2022.2.5,60.07958141276605,
N,False,1,letter,1,False,False,robot_stimuli\\filler.mp4,20,,,,,,,,,0,126,126,126,,,,,,,,,,,,,802.6812376000016,803.7348036999902,,,,,,,805.9678706999985,805.9678706999985,805.9678706999985,805.9678706999985,805.9678706999985,805.9678706999985,805.9678706999985,805.9678706999985,None,None,None,,,,,,,,,,,802.6812376000016,802.6812376000016,None,,803.7348036999902,803.7348036999902,805.9678706999985,n,0.48991240000759717,802.6812376000016,802.6812376000016,,20,001,2024-07-03_10h35.54.472,robot_nback_sign,2022.2.5,60.07958141276605,
K,False,1,letter,1,False,False,robot_stimuli\\filler.mp4,20,,,,,,,,,0,127,127,127,,,,,,,,,,,,,805.9678706999985,,,,,,,,809.2596417000022,809.2596417000022,809.2596417000022,809.2596417000022,809.2596417000022,809.2596417000022,809.2596417000022,809.2596417000022,None,None,None,,,,,,,,,,,805.9678706999985,805.9678706999985,None,,807.0355968999938,807.0355968999938,809.2596417000022,n,0.47759430001315195,805.9678706999985,805.9678706999985,,20,001,2024-07-03_10h35.54.472,robot_nback_sign,2022.2.5,60.07958141276605,
L,False,1,letter,1,False,False,robot_stimuli\\filler.mp4,20,,,,,,,,,0,128,128,128,,,,,,,,,,,,,809.2596417000022,810.3187163999974,,,,,,,812.5508298999921,812.5508298999921,812.5508298999921,812.5508298999921,812.5508298999921,812.5508298999921,812.5508298999921,812.5508298999921,None,None,None,,,,,,,,,,,809.2596417000022,809.2596417000022,None,,810.3187163999974,810.3187163999974,812.5508298999921,n,0.45021490000362974,809.2596417000022,809.2596417000022,,20,001,2024-07-03_10h35.54.472,robot_nback_sign,2022.2.5,60.07958141276605,
R,False,1,letter,1,False,False,robot_stimuli\\filler.mp4,20,,,,,,,,,0,129,129,129,,,,,,,,,,,,,812.5508298999921,,,,,,,,815.6559159000026,815.6559159000026,815.6559159000026,815.6559159000026,815.6559159000026,815.6559159000026,815.6559159000026,815.6559159000026,None,None,None,,,,,,,,,,,812.5508298999921,812.5508298999921,None,,813.6262807000021,813.6262807000021,815.6559159000026,n,0.5830078000144567,812.5508298999921,812.5508298999921,,20,001,2024-07-03_10h35.54.472,robot_nback_sign,2022.2.5,60.07958141276605,
R,True,1,letter,1,False,False,robot_stimuli\\filler.mp4,20,,,,,,,,,0,130,130,130,,,,,,,,,,,,,815.6559159000026,816.71825179999,,,,,,,818.941820299995,818.941820299995,818.941820299995,818.941820299995,818.941820299995,818.941820299995,818.941820299995,818.941820299995,None,None,None,,,,,,,,,,,815.6559159000026,815.6559159000026,None,,816.71825179999,816.71825179999,818.941820299995,c,0.6271430999913719,815.6559159000026,815.6559159000026,,20,001,2024-07-03_10h35.54.472,robot_nback_sign,2022.2.5,60.07958141276605,
R,True,1,letter,1,False,False,robot_stimuli\\filler.mp4,20,,,,,,,,,0,131,131,131,,,,,,,,,,,,,818.941820299995,819.9993727999972,,,,,,,822.0230541999917,822.0230541999917,822.0230541999917,822.0230541999917,822.0230541999917,822.0230541999917,822.0230541999917,822.0230541999917,None,None,None,,,,,,,,,,,818.941820299995,818.941820299995,None,,819.9993727999972,819.9993727999972,822.0230541999917,c,0.5046696000063093,818.941820299995,818.941820299995,,20,001,2024-07-03_10h35.54.472,robot_nback_sign,2022.2.5,60.07958141276605,
N,False,1,letter,1,False,False,robot_stimuli\\filler.mp4,20,,,,,,,,,0,132,132,132,,,,,,,,,,,,,822.0230541999917,823.0856740000017,,,,,,,825.3113871999958,825.3113871999958,825.3113871999958,825.3113871999958,825.3113871999958,825.3113871999958,825.3113871999958,825.3113871999958,None,None,None,,,,,,,,,,,822.0230541999917,822.0230541999917,None,,823.0856740000017,823.0856740000017,825.3113871999958,n,0.41160590000799857,822.0230541999917,822.0230541999917,,20,001,2024-07-03_10h35.54.472,robot_nback_sign,2022.2.5,60.07958141276605,
N,True,1,letter,1,False,False,robot_stimuli\\filler.mp4,20,,,,,,,,,0,133,133,133,,,,,,,,,,,,,825.3113871999958,826.3673710000003,,,,,,,828.5986075999972,828.5986075999972,828.5986075999972,828.5986075999972,828.5986075999972,828.5986075999972,828.5986075999972,828.5986075999972,None,None,None,,,,,,,,,,,825.3113871999958,825.3113871999958,None,,826.3673710000003,826.3673710000003,828.5986075999972,c,0.5215932999999495,825.3113871999958,825.3113871999958,,20,001,2024-07-03_10h35.54.472,robot_nback_sign,2022.2.5,60.07958141276605,
S,False,1,letter,1,False,False,robot_stimuli\\filler.mp4,20,,,,,,,,,0,134,134,134,,,,,,,,,,,,,828.5986075999972,829.6514468999958,,,,,,,831.8846319000004,831.8846319000004,831.8846319000004,831.8846319000004,831.8846319000004,831.8846319000004,831.8846319000004,831.8846319000004,None,None,None,,,,,,,,,,,828.5986075999972,828.5986075999972,None,,829.6514468999958,829.6514468999958,831.8846319000004,n,0.3973283000086667,828.5986075999972,828.5986075999972,,20,001,2024-07-03_10h35.54.472,robot_nback_sign,2022.2.5,60.07958141276605,
S,True,1,letter,1,False,False,robot_stimuli\\filler.mp4,20,,,,,,,,,0,135,135,135,,,,,,,,,,,,,831.8846319000004,,,,,,,,834.9823430999968,834.9823430999968,834.9823430999968,834.9823430999968,834.9823430999968,834.9823430999968,834.9823430999968,834.9823430999968,None,None,None,,,,,,,,,,,831.8846319000004,831.8846319000004,None,,832.950363099997,832.950363099997,834.9823430999968,c,0.610547599993879,831.8846319000004,831.8846319000004,,20,001,2024-07-03_10h35.54.472,robot_nback_sign,2022.2.5,60.07958141276605,
T,False,1,letter,1,False,False,robot_stimuli\\filler.mp4,20,,,,,,,,,0,136,136,136,,,,,,,,,,,,,834.9823430999968,836.0363301000034,,,,,,,838.0658058999979,838.0658058999979,838.0658058999979,838.0658058999979,838.0658058999979,838.0658058999979,838.0658058999979,838.0658058999979,None,None,None,,,,,,,,,,,834.9823430999968,834.9823430999968,None,,836.0363301000034,836.0363301000034,838.0658058999979,n,0.5875564000016311,834.9823430999968,834.9823430999968,,20,001,2024-07-03_10h35.54.472,robot_nback_sign,2022.2.5,60.07958141276605,
L,False,1,letter,1,False,False,robot_stimuli\\filler.mp4,20,,,,,,,,,0,137,137,137,,,,,,,,,,,,,838.0658058999979,839.1185365999991,,,,,,,841.3455382999964,841.3455382999964,841.3455382999964,841.3455382999964,841.3455382999964,841.3455382999964,841.3455382999964,841.3455382999964,None,None,None,,,,,,,,,,,838.0658058999979,838.0658058999979,None,,839.1185365999991,839.1185365999991,841.3455382999964,n,0.9298711000010371,838.0658058999979,838.0658058999979,,20,001,2024-07-03_10h35.54.472,robot_nback_sign,2022.2.5,60.07958141276605,
S,False,1,letter,1,False,False,robot_stimuli\\filler.mp4,20,,,,,,,,,0,138,138,138,,,,,,,,,,,,,841.3455382999964,842.4015492000035,,,,,,,844.6251768999937,844.6251768999937,844.6251768999937,844.6251768999937,844.6251768999937,844.6251768999937,844.6251768999937,844.6251768999937,None,None,None,,,,,,,,,,,841.3455382999964,841.3455382999964,None,,842.4015492000035,842.4015492000035,844.6251768999937,n,1.0155437999928836,841.3455382999964,841.3455382999964,,20,001,2024-07-03_10h35.54.472,robot_nback_sign,2022.2.5,60.07958141276605,
J,False,1,letter,1,False,False,robot_stimuli\\filler.mp4,20,,,,,,,,,0,139,139,139,,,,,,,,,,,,,844.6251768999937,845.6854951999994,,,,,,,847.9091386999935,847.9091386999935,847.9091386999935,847.9091386999935,847.9091386999935,847.9091386999935,847.9091386999935,847.9091386999935,None,None,None,,,,,,,,,,,844.6251768999937,844.6251768999937,None,,845.6854951999994,845.6854951999994,847.9091386999935,n,0.5236964999930933,844.6251768999937,844.6251768999937,,20,001,2024-07-03_10h35.54.472,robot_nback_sign,2022.2.5,60.07958141276605,
B,False,1,letter,1,False,False,robot_stimuli\\filler.mp4,20,,,,,,,,,0,140,140,140,,,,,,,,,,,,,847.9091386999935,848.969883999991,,,,,,,851.2015376999916,851.2015376999916,851.2015376999916,851.2015376999916,851.2015376999916,851.2015376999916,851.2015376999916,851.2015376999916,None,None,None,,,,,,,,,,,847.9091386999935,847.9091386999935,None,,848.969883999991,848.969883999991,851.2015376999916,n,0.6875857000122778,847.9091386999935,847.9091386999935,,20,001,2024-07-03_10h35.54.472,robot_nback_sign,2022.2.5,60.07958141276605,
B,True,1,letter,1,False,False,robot_stimuli\\filler.mp4,20,,,,,,,,,0,141,141,141,,,,,,,,,,,,,851.2015376999916,,,,,,,,854.4989717999997,854.4989717999997,854.4989717999997,854.4989717999997,854.4989717999997,854.4989717999997,854.4989717999997,854.4989717999997,None,None,None,,,,,,,,,,,851.2015376999916,851.2015376999916,None,,852.2672215999919,852.2672215999919,854.4989717999997,c,0.5655871000053594,851.2015376999916,851.2015376999916,,20,001,2024-07-03_10h35.54.472,robot_nback_sign,2022.2.5,60.07958141276605,
K,False,1,letter,1,False,False,robot_stimuli\\filler.mp4,20,,,,,,,,,0,142,142,142,,,,,,,,,,,,,854.4989717999997,855.5632939999923,,,,,,,857.5872918999958,857.5872918999958,857.5872918999958,857.5872918999958,857.5872918999958,857.5872918999958,857.5872918999958,857.5872918999958,None,None,None,,,,,,,,,,,854.4989717999997,854.4989717999997,None,,855.5632939999923,855.5632939999923,857.5872918999958,n,0.6210909000074025,854.4989717999997,854.4989717999997,,20,001,2024-07-03_10h35.54.472,robot_nback_sign,2022.2.5,60.07958141276605,
J,False,1,letter,1,False,False,robot_stimuli\\filler.mp4,20,,,,,,,,,0,143,143,143,,,,,,,,,,,,,857.5872918999958,858.6516859999974,,,,,,,860.8886143999989,860.8886143999989,860.8886143999989,860.8886143999989,860.8886143999989,860.8886143999989,860.8886143999989,860.8886143999989,None,None,None,,,,,,,,,,,857.5872918999958,857.5872918999958,None,,858.6516859999974,858.6516859999974,860.8886143999989,n,0.6615261000115424,857.5872918999958,857.5872918999958,,20,001,2024-07-03_10h35.54.472,robot_nback_sign,2022.2.5,60.07958141276605,
W,False,1,letter,1,False,False,robot_stimuli\\filler.mp4,20,,,,,,,,,0,144,144,144,,,,,,,,,,,,,860.8886143999989,861.9625819999928,,,,,,,863.9890576999896,863.9890576999896,863.9890576999896,863.9890576999896,863.9890576999896,863.9890576999896,863.9890576999896,863.9890576999896,None,None,None,,,,,,,,,,,860.8886143999989,860.8886143999989,None,,861.9625819999928,861.9625819999928,863.9890576999896,n,0.5584230999957072,860.8886143999989,860.8886143999989,,20,001,2024-07-03_10h35.54.472,robot_nback_sign,2022.2.5,60.07958141276605,
P,False,1,letter,1,False,False,robot_stimuli\\filler.mp4,20,,,,,,,,,0,145,145,145,,,,,,,,,,,,,863.9890576999896,865.0522273999959,,,,,,,867.2790056999947,867.2790056999947,867.2790056999947,867.2790056999947,867.2790056999947,867.2790056999947,867.2790056999947,867.2790056999947,None,None,None,,,,,,,,,,,863.9890576999896,863.9890576999896,None,,865.0522273999959,865.0522273999959,867.2790056999947,n,0.6690991000068607,863.9890576999896,863.9890576999896,,20,001,2024-07-03_10h35.54.472,robot_nback_sign,2022.2.5,60.07958141276605,
