sequence,is_target,condition,stimuli,block,is_block_beginning,is_block_ending,fname,subject,retraining.thisRepN,retraining.thisTrialN,retraining.thisN,retraining.thisIndex,training.thisRepN,training.thisTrialN,training.thisN,training.thisIndex,trials.thisRepN,trials.thisTrialN,trials.thisN,trials.thisIndex,langage_text.started,langage_key.started,langage_key.keys,langage_key.rt,intro_text.started,intro_key.started,intro_key.keys,intro_key.rt,training_robot_intro_text.started,training_robot_intro_key.started,training_robot_intro_key.keys,training_robot_intro_key.rt,cross.started,cross.stopped,training_letter.started,training_robot_key.started,training_robot_question.started,training_robot_keys.started,training_letter.stopped,training_robot_key.keys,RSME_labels.started,RSME_labels.stopped,RSME_ticks.started,RSME_ticks.stopped,RSME_text.started,RSME_text.stopped,RSME_key.started,RSME_key.stopped,RSME_ticks.response,RSME_ticks.rt,RSME_key.keys,training_robot_intro_text.stopped,training_robot_intro_key.stopped,training_robot_key.rt,RSME_key.rt,training_robot_movie.started,experiment_beginning_text.started,experiment_beginning_keys.started,experiment_beginning_key.started,experiment_beginning_key.keys,experiment_beginning_key.rt,block_intro_text.started,block_intro_key.started,block_intro_key.keys,block_intro_key.rt,letter.started,key.started,letter.stopped,key.keys,block_intro_text.stopped,block_intro_key.stopped,key.rt,movie.started,participant,session,date,expName,psychopyVersion,frameRate,
,,,,,,,,,,,,,,,,,,,,,15.98554919999998,15.98554919999998,f,0.453669600000012,,,,,,,,,,,,,,,,,,,,,,,,,,,,,,,,,,,,,,,,,,,,,,,,,,18,001,2024-07-01_13h34.42.743,robot_nback_sign,2022.2.5,59.913066141027485,
,,,,,,,,,,,,,,,,,,,,,,,,,16.491793399999978,16.491793399999978,space,58.73832980000003,,,,,,,,,,,,,,,,,,,,,,,,,,,,,,,,,,,,,,,,,,,,,,18,001,2024-07-01_13h34.42.743,robot_nback_sign,2022.2.5,59.913066141027485,
G,False,1,letter,1,True,False,robot_stimuli\\filler.mp4,18,0,0,0,0,0,0,0,0,,,,,,,,,,,,,75.2819365,75.2819365,space,70.20503550000004,145.5070988,146.84373970000001,146.84373970000001,146.84373970000001,146.84373970000001,146.84373970000001,149.1444406,None,149.1444406,149.1444406,149.1444406,149.1444406,149.1444406,149.1444406,149.1444406,149.1444406,None,None,None,,,,,,,,,,,,,,,,,,,,,,,18,001,2024-07-01_13h34.42.743,robot_nback_sign,2022.2.5,59.913066141027485,
F,False,1,letter,1,False,False,robot_stimuli\\filler.mp4,18,0,0,0,0,0,1,1,1,,,,,,,,,,,,,149.1444406,149.1444406,None,,149.1444406,,150.2290903,150.2290903,150.2290903,150.2290903,152.2562808,None,152.2562808,152.2562808,152.2562808,152.2562808,152.2562808,152.2562808,152.2562808,152.2562808,None,None,None,149.1444406,149.1444406,,,,,,,,,,,,,,,,,,,,,18,001,2024-07-01_13h34.42.743,robot_nback_sign,2022.2.5,59.913066141027485,
G,False,1,letter,1,False,False,robot_stimuli\\filler.mp4,18,0,0,0,0,0,2,2,2,,,,,,,,,,,,,152.2562808,152.2562808,None,,152.2562808,153.32280629999997,153.32280629999997,153.32280629999997,153.32280629999997,153.32280629999997,155.3538148,None,155.3538148,155.3538148,155.3538148,155.3538148,155.3538148,155.3538148,155.3538148,155.3538148,None,None,None,152.2562808,152.2562808,,,,,,,,,,,,,,,,,,,,,18,001,2024-07-01_13h34.42.743,robot_nback_sign,2022.2.5,59.913066141027485,
S,False,1,letter,1,False,False,robot_stimuli\\filler.mp4,18,0,0,0,0,0,3,3,3,,,,,,,,,,,,,155.3538148,155.3538148,None,,155.3538148,156.42818999999997,156.42818999999997,156.42818999999997,156.42818999999997,156.42818999999997,158.46792390000002,n,158.46792390000002,158.46792390000002,158.46792390000002,158.46792390000002,158.46792390000002,158.46792390000002,158.46792390000002,158.46792390000002,None,None,None,155.3538148,155.3538148,1.675296899999978,,,,,,,,,,,,,,,,,,,,18,001,2024-07-01_13h34.42.743,robot_nback_sign,2022.2.5,59.913066141027485,
S,True,1,letter,1,False,False,robot_stimuli\\filler.mp4,18,0,0,0,0,0,4,4,4,,,,,,,,,,,,,158.46792390000002,158.46792390000002,None,,158.46792390000002,159.54655889999998,159.54655889999998,159.54655889999998,159.54655889999998,159.54655889999998,161.5803659,n,161.5803659,161.5803659,161.5803659,161.5803659,161.5803659,161.5803659,161.5803659,161.5803659,None,None,None,158.46792390000002,158.46792390000002,1.7165471000000139,,,,,,,,,,,,,,,,,,,,18,001,2024-07-01_13h34.42.743,robot_nback_sign,2022.2.5,59.913066141027485,
S,True,1,letter,1,False,True,robot_stimuli\\filler.mp4,18,0,0,0,0,0,5,5,5,,,,,,,,,,,,,161.5803659,161.5803659,None,,161.5803659,162.66414179999998,162.66414179999998,162.66414179999998,162.66414179999998,162.66414179999998,164.75189969999997,None,164.75189969999997,176.3441403,164.75189969999997,176.3441403,164.75189969999997,176.3441403,164.75189969999997,176.3441403,59.01234567901235,7.827646400000049,space,161.5803659,161.5803659,,11.534818299999984,,,,,,,,,,,,,,,,,,,18,001,2024-07-01_13h34.42.743,robot_nback_sign,2022.2.5,59.913066141027485,
M,False,2,letter,1,True,False,robot_stimuli\\filler.mp4,18,0,0,0,0,0,6,6,6,,,,,,,,,,,,,176.3441403,176.3441403,space,6.653899700000011,183.02373969999996,184.09925019999997,184.09925019999997,184.09925019999997,184.09925019999997,184.09925019999997,186.13027490000002,None,186.13027490000002,186.13027490000002,186.13027490000002,186.13027490000002,186.13027490000002,186.13027490000002,186.13027490000002,186.13027490000002,None,None,None,,,,,,,,,,,,,,,,,,,,,,,18,001,2024-07-01_13h34.42.743,robot_nback_sign,2022.2.5,59.913066141027485,
N,False,2,letter,1,False,False,robot_stimuli\\filler.mp4,18,0,0,0,0,0,7,7,7,,,,,,,,,,,,,186.13027490000002,186.13027490000002,None,,186.13027490000002,187.213905,187.213905,187.213905,187.213905,187.213905,189.24621159999998,n,189.24621159999998,189.24621159999998,189.24621159999998,189.24621159999998,189.24621159999998,189.24621159999998,189.24621159999998,189.24621159999998,None,None,None,186.13027490000002,186.13027490000002,1.1202934000000369,,,,,,,,,,,,,,,,,,,,18,001,2024-07-01_13h34.42.743,robot_nback_sign,2022.2.5,59.913066141027485,
M,True,2,letter,1,False,False,robot_stimuli\\filler.mp4,18,0,0,0,0,0,8,8,8,,,,,,,,,,,,,189.24621159999998,189.24621159999998,None,,189.24621159999998,190.32720109999997,190.32720109999997,190.32720109999997,190.32720109999997,190.32720109999997,192.5541268,c,192.5541268,192.5541268,192.5541268,192.5541268,192.5541268,192.5541268,192.5541268,192.5541268,None,None,None,189.24621159999998,189.24621159999998,1.2157923000000324,,,,,,,,,,,,,,,,,,,,18,001,2024-07-01_13h34.42.743,robot_nback_sign,2022.2.5,59.913066141027485,
V,False,2,letter,1,False,False,robot_stimuli\\filler.mp4,18,0,0,0,0,0,9,9,9,,,,,,,,,,,,,192.5541268,192.5541268,None,,192.5541268,193.62390319999997,193.62390319999997,193.62390319999997,193.62390319999997,193.62390319999997,195.65745319999996,None,195.65745319999996,195.65745319999996,195.65745319999996,195.65745319999996,195.65745319999996,195.65745319999996,195.65745319999996,195.65745319999996,None,None,None,192.5541268,192.5541268,,,,,,,,,,,,,,,,,,,,,18,001,2024-07-01_13h34.42.743,robot_nback_sign,2022.2.5,59.913066141027485,
M,True,2,letter,1,False,False,robot_stimuli\\filler.mp4,18,0,0,0,0,0,10,10,10,,,,,,,,,,,,,195.65745319999996,195.65745319999996,None,,195.65745319999996,196.73047559999998,196.73047559999998,196.73047559999998,196.73047559999998,196.73047559999998,198.760698,None,198.760698,198.760698,198.760698,198.760698,198.760698,198.760698,198.760698,198.760698,None,None,None,195.65745319999996,195.65745319999996,,,,,,,,,,,,,,,,,,,,,18,001,2024-07-01_13h34.42.743,robot_nback_sign,2022.2.5,59.913066141027485,
L,False,2,letter,1,False,True,robot_stimuli\\filler.mp4,18,0,0,0,0,0,11,11,11,,,,,,,,,,,,,198.760698,198.760698,None,,198.760698,199.84644729999997,199.84644729999997,199.84644729999997,199.84644729999997,199.84644729999997,201.9059337,None,201.9059337,205.91672469999997,201.9059337,205.91672469999997,201.9059337,205.91672469999997,201.9059337,205.91672469999997,70.58641975308642,2.956871000000035,space,198.760698,198.760698,,3.956637100000023,,,,,,,,,,,,,,,,,,,18,001,2024-07-01_13h34.42.743,robot_nback_sign,2022.2.5,59.913066141027485,
H,False,3,letter,1,True,False,robot_stimuli\\filler.mp4,18,0,0,0,0,0,12,12,12,,,,,,,,,,,,,205.91672469999997,205.91672469999997,space,4.305350599999997,210.24054619999998,211.31469119999997,211.31469119999997,211.31469119999997,211.31469119999997,211.31469119999997,213.34848599999998,None,213.34848599999998,213.34848599999998,213.34848599999998,213.34848599999998,213.34848599999998,213.34848599999998,213.34848599999998,213.34848599999998,None,None,None,,,,,,,,,,,,,,,,,,,,,,,18,001,2024-07-01_13h34.42.743,robot_nback_sign,2022.2.5,59.913066141027485,
G,False,3,letter,1,False,False,robot_stimuli\\filler.mp4,18,0,0,0,0,0,13,13,13,,,,,,,,,,,,,213.34848599999998,213.34848599999998,None,,213.34848599999998,214.42944310000001,214.42944310000001,214.42944310000001,214.42944310000001,214.42944310000001,216.660591,n,216.660591,216.660591,216.660591,216.660591,216.660591,216.660591,216.660591,216.660591,None,None,None,213.34848599999998,213.34848599999998,0.8259451000000126,,,,,,,,,,,,,,,,,,,,18,001,2024-07-01_13h34.42.743,robot_nback_sign,2022.2.5,59.913066141027485,
L,False,3,letter,1,False,False,robot_stimuli\\filler.mp4,18,0,0,0,0,0,14,14,14,,,,,,,,,,,,,216.660591,216.660591,None,,216.660591,217.7435676,217.7435676,217.7435676,217.7435676,217.7435676,219.97100039999998,n,219.97100039999998,219.97100039999998,219.97100039999998,219.97100039999998,219.97100039999998,219.97100039999998,219.97100039999998,219.97100039999998,None,None,None,216.660591,216.660591,1.2633288000000107,,,,,,,,,,,,,,,,,,,,18,001,2024-07-01_13h34.42.743,robot_nback_sign,2022.2.5,59.913066141027485,
H,True,3,letter,1,False,False,robot_stimuli\\filler.mp4,18,0,0,0,0,0,15,15,15,,,,,,,,,,,,,219.97100039999998,219.97100039999998,None,,219.97100039999998,221.0394288,221.0394288,221.0394288,221.0394288,221.0394288,223.06411930000002,c,223.06411930000002,223.06411930000002,223.06411930000002,223.06411930000002,223.06411930000002,223.06411930000002,223.06411930000002,223.06411930000002,None,None,None,219.97100039999998,219.97100039999998,0.9269014999999854,,,,,,,,,,,,,,,,,,,,18,001,2024-07-01_13h34.42.743,robot_nback_sign,2022.2.5,59.913066141027485,
G,True,3,letter,1,False,False,robot_stimuli\\filler.mp4,18,0,0,0,0,0,16,16,16,,,,,,,,,,,,,223.06411930000002,223.06411930000002,None,,223.06411930000002,224.13936869999998,224.13936869999998,224.13936869999998,224.13936869999998,224.13936869999998,226.17341679999998,None,226.17341679999998,226.17341679999998,226.17341679999998,226.17341679999998,226.17341679999998,226.17341679999998,226.17341679999998,226.17341679999998,None,None,None,223.06411930000002,223.06411930000002,,,,,,,,,,,,,,,,,,,,,18,001,2024-07-01_13h34.42.743,robot_nback_sign,2022.2.5,59.913066141027485,
P,False,3,letter,1,False,True,robot_stimuli\\filler.mp4,18,0,0,0,0,0,17,17,17,,,,,,,,,,,,,226.17341679999998,226.17341679999998,None,,226.17341679999998,227.2476451,227.2476451,227.2476451,227.2476451,227.2476451,229.3040704,n,229.3040704,233.8303628,229.3040704,233.8303628,229.3040704,233.8303628,229.3040704,233.8303628,56.85185185185185,3.249274000000014,space,226.17341679999998,226.17341679999998,1.4163116000000286,4.4860075999999935,,,,,,,,,,,,,,,,,,,18,001,2024-07-01_13h34.42.743,robot_nback_sign,2022.2.5,59.913066141027485,
R_Head_X_Back,False,1,robot,2,True,False,robot_stimuli\R_Head_X_Back.mp4,18,0,0,0,0,0,18,18,18,,,,,,,,,,,,,233.8303628,233.8303628,space,5.408726300000012,239.2573809,240.3801972,,240.3801972,240.3801972,240.3801972,,None,244.0087987,244.0087987,244.0087987,244.0087987,244.0087987,244.0087987,244.0087987,244.0087987,None,None,None,,,,,240.3801972,,,,,,,,,,,,,,,,,,18,001,2024-07-01_13h34.42.743,robot_nback_sign,2022.2.5,59.913066141027485,
R_Head_X_Back,True,1,robot,2,False,False,robot_stimuli\R_Head_X_Back.mp4,18,0,0,0,0,0,19,19,19,,,,,,,,,,,,,244.0087987,244.0087987,None,,244.0087987,,,245.1164379,245.1164379,245.1164379,,c,248.75146109999997,248.75146109999997,248.75146109999997,248.75146109999997,248.75146109999997,248.75146109999997,248.75146109999997,248.75146109999997,None,None,None,244.0087987,244.0087987,3.2985350000000153,,245.1164379,,,,,,,,,,,,,,,,,,18,001,2024-07-01_13h34.42.743,robot_nback_sign,2022.2.5,59.913066141027485,
R_Head_X_Back,True,1,robot,2,False,False,robot_stimuli\R_Head_X_Back.mp4,18,0,0,0,0,0,20,20,20,,,,,,,,,,,,,248.75146109999997,248.75146109999997,None,,248.75146109999997,249.84690940000002,,249.84690940000002,249.84690940000002,249.84690940000002,,None,253.4894815,253.4894815,253.4894815,253.4894815,253.4894815,253.4894815,253.4894815,253.4894815,None,None,None,248.75146109999997,248.75146109999997,,,249.84690940000002,,,,,,,,,,,,,,,,,,18,001,2024-07-01_13h34.42.743,robot_nback_sign,2022.2.5,59.913066141027485,
R_Torso_Z_For,False,1,robot,2,False,False,robot_stimuli\R_Torso_Z_For.mp4,18,0,0,0,0,0,21,21,21,,,,,,,,,,,,,253.4894815,253.4894815,None,,253.4894815,254.5980631,,254.5980631,254.5980631,254.5980631,,n,258.2403709,258.2403709,258.2403709,258.2403709,258.2403709,258.2403709,258.2403709,258.2403709,None,None,None,253.4894815,253.4894815,2.832997500000033,,254.5980631,,,,,,,,,,,,,,,,,,18,001,2024-07-01_13h34.42.743,robot_nback_sign,2022.2.5,59.913066141027485,
R_Base_X_Back,False,1,robot,2,False,False,robot_stimuli\R_Base_X_Back.mp4,18,0,0,0,0,0,22,22,22,,,,,,,,,,,,,258.2403709,258.2403709,None,,258.2403709,259.34052299999996,,259.34052299999996,259.34052299999996,259.34052299999996,,n,262.9846053,262.9846053,262.9846053,262.9846053,262.9846053,262.9846053,262.9846053,262.9846053,None,None,None,258.2403709,258.2403709,2.7625759000000016,,259.34052299999996,,,,,,,,,,,,,,,,,,18,001,2024-07-01_13h34.42.743,robot_nback_sign,2022.2.5,59.913066141027485,
R_Arm_Y_For,False,1,robot,2,False,True,robot_stimuli\R_Arm_Y_For.mp4,18,0,0,0,0,0,23,23,23,,,,,,,,,,,,,262.9846053,262.9846053,None,,262.9846053,264.0950166,,264.0950166,264.0950166,264.0950166,,None,267.6330882,272.8812176,267.6330882,272.8812176,267.6330882,272.8812176,267.6330882,272.8812176,25.67901234567901,3.8518685000000232,space,262.9846053,262.9846053,,5.182070100000033,264.0950166,,,,,,,,,,,,,,,,,,18,001,2024-07-01_13h34.42.743,robot_nback_sign,2022.2.5,59.913066141027485,
L_Torso_Z_Back,False,2,robot,2,True,False,robot_stimuli\L_Torso_Z_Back.mp4,18,0,0,0,0,0,24,24,24,,,,,,,,,,,,,272.8812176,272.8812176,space,3.789803900000038,276.6907941,277.7903672,,277.7903672,277.7903672,277.7903672,,None,281.3078208,281.3078208,281.3078208,281.3078208,281.3078208,281.3078208,281.3078208,281.3078208,None,None,None,,,,,277.7903672,,,,,,,,,,,,,,,,,,18,001,2024-07-01_13h34.42.743,robot_nback_sign,2022.2.5,59.913066141027485,
L_Base_Y_Back,False,2,robot,2,False,False,robot_stimuli\L_Base_Y_Back.mp4,18,0,0,0,0,0,25,25,25,,,,,,,,,,,,,281.3078208,281.3078208,None,,281.3078208,282.4063567,,282.4063567,282.4063567,282.4063567,,n,285.9908492,285.9908492,285.9908492,285.9908492,285.9908492,285.9908492,285.9908492,285.9908492,None,None,None,281.3078208,281.3078208,2.9917593000000693,,282.4063567,,,,,,,,,,,,,,,,,,18,001,2024-07-01_13h34.42.743,robot_nback_sign,2022.2.5,59.913066141027485,
L_Torso_Z_Back,True,2,robot,2,False,False,robot_stimuli\L_Torso_Z_Back.mp4,18,0,0,0,0,0,26,26,26,,,,,,,,,,,,,285.9908492,285.9908492,None,,285.9908492,287.0881531,,287.0881531,287.0881531,287.0881531,,c,290.6071988,290.6071988,290.6071988,290.6071988,290.6071988,290.6071988,290.6071988,290.6071988,None,None,None,285.9908492,285.9908492,2.1664703000000145,,287.0881531,,,,,,,,,,,,,,,,,,18,001,2024-07-01_13h34.42.743,robot_nback_sign,2022.2.5,59.913066141027485,
L_Arm_X_For,False,2,robot,2,False,False,robot_stimuli\L_Arm_X_For.mp4,18,0,0,0,0,0,27,27,27,,,,,,,,,,,,,290.6071988,290.6071988,None,,290.6071988,291.6906818,,291.6906818,291.6906818,291.6906818,,n,295.3413949,295.3413949,295.3413949,295.3413949,295.3413949,295.3413949,295.3413949,295.3413949,None,None,None,290.6071988,290.6071988,3.2594656000000555,,291.6906818,,,,,,,,,,,,,,,,,,18,001,2024-07-01_13h34.42.743,robot_nback_sign,2022.2.5,59.913066141027485,
R_Head_Y_Back,False,2,robot,2,False,False,robot_stimuli\R_Head_Y_Back.mp4,18,0,0,0,0,0,28,28,28,,,,,,,,,,,,,295.3413949,295.3413949,None,,295.3413949,296.4329882,,296.4329882,296.4329882,296.4329882,,n,300.0728104,300.0728104,300.0728104,300.0728104,300.0728104,300.0728104,300.0728104,300.0728104,None,None,None,295.3413949,295.3413949,3.045204500000011,,296.4329882,,,,,,,,,,,,,,,,,,18,001,2024-07-01_13h34.42.743,robot_nback_sign,2022.2.5,59.913066141027485,
L_Arm_X_For,True,2,robot,2,False,True,robot_stimuli\L_Arm_X_For.mp4,18,0,0,0,0,0,29,29,29,,,,,,,,,,,,,300.0728104,300.0728104,None,,300.0728104,301.1564196,,301.1564196,301.1564196,301.1564196,,None,304.8395322,314.20742609999996,304.8395322,314.20742609999996,304.8395322,314.20742609999996,304.8395322,314.20742609999996,40.49382716049382,8.22798849999998,space,300.0728104,300.0728104,,9.318637300000034,301.1564196,,,,,,,,,,,,,,,,,,18,001,2024-07-01_13h34.42.743,robot_nback_sign,2022.2.5,59.913066141027485,
L_Base_Z_For,False,3,robot,2,True,False,robot_stimuli\L_Base_Z_For.mp4,18,0,0,0,0,0,30,30,30,,,,,,,,,,,,,314.20742609999996,314.20742609999996,space,4.0554736000000275,318.2907079,319.3886777,,319.3886777,319.3886777,319.3886777,,None,323.036202,323.036202,323.036202,323.036202,323.036202,323.036202,323.036202,323.036202,None,None,None,,,,,319.3886777,,,,,,,,,,,,,,,,,,18,001,2024-07-01_13h34.42.743,robot_nback_sign,2022.2.5,59.913066141027485,
R_Arm_Z_For,False,3,robot,2,False,False,robot_stimuli\R_Arm_Z_For.mp4,18,0,0,0,0,0,31,31,31,,,,,,,,,,,,,323.036202,323.036202,None,,323.036202,324.1381004,,324.1381004,324.1381004,324.1381004,,n,327.792,327.792,327.792,327.792,327.792,327.792,327.792,327.792,None,None,None,323.036202,323.036202,3.3009338000000525,,324.1381004,,,,,,,,,,,,,,,,,,18,001,2024-07-01_13h34.42.743,robot_nback_sign,2022.2.5,59.913066141027485,
R_Head_Y_For,False,3,robot,2,False,False,robot_stimuli\R_Head_Y_For.mp4,18,0,0,0,0,0,32,32,32,,,,,,,,,,,,,327.792,327.792,None,,327.792,,,328.8985069,328.8985069,328.8985069,,None,332.538122,332.538122,332.538122,332.538122,332.538122,332.538122,332.538122,332.538122,None,None,None,327.792,327.792,,,328.8985069,,,,,,,,,,,,,,,,,,18,001,2024-07-01_13h34.42.743,robot_nback_sign,2022.2.5,59.913066141027485,
L_Base_Z_For,True,3,robot,2,False,False,robot_stimuli\L_Base_Z_For.mp4,18,0,0,0,0,0,33,33,33,,,,,,,,,,,,,332.538122,332.538122,None,,332.538122,333.6330597,,333.6330597,333.6330597,333.6330597,,c,337.2737082,337.2737082,337.2737082,337.2737082,337.2737082,337.2737082,337.2737082,337.2737082,None,None,None,332.538122,332.538122,2.6859856000000377,,333.6330597,,,,,,,,,,,,,,,,,,18,001,2024-07-01_13h34.42.743,robot_nback_sign,2022.2.5,59.913066141027485,
R_Head_X_For,False,3,robot,2,False,False,robot_stimuli\R_Head_X_For.mp4,18,0,0,0,0,0,34,34,34,,,,,,,,,,,,,337.2737082,337.2737082,None,,337.2737082,338.3555426,,338.3555426,338.3555426,338.3555426,,n,342.0080364,342.0080364,342.0080364,342.0080364,342.0080364,342.0080364,342.0080364,342.0080364,None,None,None,337.2737082,337.2737082,2.32391130000002,,338.3555426,,,,,,,,,,,,,,,,,,18,001,2024-07-01_13h34.42.743,robot_nback_sign,2022.2.5,59.913066141027485,
R_Head_Y_For,True,3,robot,2,False,True,robot_stimuli\R_Head_Y_For.mp4,18,0,0,0,0,0,35,35,35,,,,,,,,,,,,,342.0080364,342.0080364,None,,342.0080364,343.0996687,,343.0996687,343.0996687,343.0996687,,c,346.7708953,350.9538019,346.7708953,350.9538019,346.7708953,350.9538019,346.7708953,350.9538019,50.833333333333336,2.6871103999999946,space,342.0080364,342.0080364,1.9384498000000008,4.123726200000021,343.0996687,,,,,,,,,,,,,,,,,,18,001,2024-07-01_13h34.42.743,robot_nback_sign,2022.2.5,59.913066141027485,
,,,,,,,,,0,0,0,0,,,,,,,,,,,,,,,,,,,,,,,,,,,,,,,,,,,,,,,,,,,,,350.9538019,350.9538019,350.9538019,c,8.98860000000002,,,,,,,,,,,,,18,001,2024-07-01_13h34.42.743,robot_nback_sign,2022.2.5,59.913066141027485,
K,False,3,letter,1,True,False,robot_stimuli\\filler.mp4,18,,,,,,,,,0,0,0,0,,,,,,,,,,,,,365.2410127,366.311089,,,,,,,368.5363388,368.5363388,368.5363388,368.5363388,368.5363388,368.5363388,368.5363388,368.5363388,None,None,None,,,,,,,,,,,360.0139719,360.0139719,space,5.200574700000061,366.311089,366.311089,368.5363388,None,,,,,18,001,2024-07-01_13h34.42.743,robot_nback_sign,2022.2.5,59.913066141027485,
Z,False,3,letter,1,False,False,robot_stimuli\\filler.mp4,18,,,,,,,,,0,1,1,1,,,,,,,,,,,,,368.5363388,369.5936094,,,,,,,371.6234422,371.6234422,371.6234422,371.6234422,371.6234422,371.6234422,371.6234422,371.6234422,None,None,None,,,,,,,,,,,368.5363388,368.5363388,None,,369.5936094,369.5936094,371.6234422,None,368.5363388,368.5363388,,,18,001,2024-07-01_13h34.42.743,robot_nback_sign,2022.2.5,59.913066141027485,
F,False,3,letter,1,False,False,robot_stimuli\\filler.mp4,18,,,,,,,,,0,2,2,2,,,,,,,,,,,,,371.6234422,372.6762457,,,,,,,374.9044397,374.9044397,374.9044397,374.9044397,374.9044397,374.9044397,374.9044397,374.9044397,None,None,None,,,,,,,,,,,371.6234422,371.6234422,None,,372.6762457,372.6762457,374.9044397,None,371.6234422,371.6234422,,,18,001,2024-07-01_13h34.42.743,robot_nback_sign,2022.2.5,59.913066141027485,
Z,False,3,letter,1,False,False,robot_stimuli\\filler.mp4,18,,,,,,,,,0,3,3,3,,,,,,,,,,,,,374.9044397,375.96066909999996,,,,,,,378.1907097,378.1907097,378.1907097,378.1907097,378.1907097,378.1907097,378.1907097,378.1907097,None,None,None,,,,,,,,,,,374.9044397,374.9044397,None,,375.96066909999996,375.96066909999996,378.1907097,n,374.9044397,374.9044397,1.6696050000000469,,18,001,2024-07-01_13h34.42.743,robot_nback_sign,2022.2.5,59.913066141027485,
L,False,3,letter,1,False,False,robot_stimuli\\filler.mp4,18,,,,,,,,,0,4,4,4,,,,,,,,,,,,,378.1907097,379.2437013,,,,,,,381.2754008,381.2754008,381.2754008,381.2754008,381.2754008,381.2754008,381.2754008,381.2754008,None,None,None,,,,,,,,,,,378.1907097,378.1907097,None,,379.2437013,379.2437013,381.2754008,None,378.1907097,378.1907097,,,18,001,2024-07-01_13h34.42.743,robot_nback_sign,2022.2.5,59.913066141027485,
F,True,3,letter,1,False,False,robot_stimuli\\filler.mp4,18,,,,,,,,,0,5,5,5,,,,,,,,,,,,,381.2754008,,,,,,,,384.36899320000003,384.36899320000003,384.36899320000003,384.36899320000003,384.36899320000003,384.36899320000003,384.36899320000003,384.36899320000003,None,None,None,,,,,,,,,,,381.2754008,381.2754008,None,,382.34390709999997,382.34390709999997,384.36899320000003,None,381.2754008,381.2754008,,,18,001,2024-07-01_13h34.42.743,robot_nback_sign,2022.2.5,59.913066141027485,
Z,True,3,letter,1,False,False,robot_stimuli\\filler.mp4,18,,,,,,,,,0,6,6,6,,,,,,,,,,,,,384.36899320000003,385.42794499999997,,,,,,,387.4621554,387.4621554,387.4621554,387.4621554,387.4621554,387.4621554,387.4621554,387.4621554,None,None,None,,,,,,,,,,,384.36899320000003,384.36899320000003,None,,385.42794499999997,385.42794499999997,387.4621554,None,384.36899320000003,384.36899320000003,,,18,001,2024-07-01_13h34.42.743,robot_nback_sign,2022.2.5,59.913066141027485,
X,False,3,letter,1,False,False,robot_stimuli\\filler.mp4,18,,,,,,,,,0,7,7,7,,,,,,,,,,,,,387.4621554,388.5386746,,,,,,,390.5611055,390.5611055,390.5611055,390.5611055,390.5611055,390.5611055,390.5611055,390.5611055,None,None,None,,,,,,,,,,,387.4621554,387.4621554,None,,388.5386746,388.5386746,390.5611055,n,387.4621554,387.4621554,0.8924417000000062,,18,001,2024-07-01_13h34.42.743,robot_nback_sign,2022.2.5,59.913066141027485,
H,False,3,letter,1,False,False,robot_stimuli\\filler.mp4,18,,,,,,,,,0,8,8,8,,,,,,,,,,,,,390.5611055,391.63073,,,,,,,393.66010739999996,393.66010739999996,393.66010739999996,393.66010739999996,393.66010739999996,393.66010739999996,393.66010739999996,393.66010739999996,None,None,None,,,,,,,,,,,390.5611055,390.5611055,None,,391.63073,391.63073,393.66010739999996,n,390.5611055,390.5611055,1.823708300000078,,18,001,2024-07-01_13h34.42.743,robot_nback_sign,2022.2.5,59.913066141027485,
Q,False,3,letter,1,False,False,robot_stimuli\\filler.mp4,18,,,,,,,,,0,9,9,9,,,,,,,,,,,,,393.66010739999996,,,,,,,,396.7658515,396.7658515,396.7658515,396.7658515,396.7658515,396.7658515,396.7658515,396.7658515,None,None,None,,,,,,,,,,,393.66010739999996,393.66010739999996,None,,394.7362274,394.7362274,396.7658515,n,393.66010739999996,393.66010739999996,0.35063870000004727,,18,001,2024-07-01_13h34.42.743,robot_nback_sign,2022.2.5,59.913066141027485,
Z,False,3,letter,1,False,False,robot_stimuli\\filler.mp4,18,,,,,,,,,0,10,10,10,,,,,,,,,,,,,396.7658515,397.8267136,,,,,,,399.85912060000004,399.85912060000004,399.85912060000004,399.85912060000004,399.85912060000004,399.85912060000004,399.85912060000004,399.85912060000004,None,None,None,,,,,,,,,,,396.7658515,396.7658515,None,,397.8267136,397.8267136,399.85912060000004,c,396.7658515,396.7658515,1.443960200000049,,18,001,2024-07-01_13h34.42.743,robot_nback_sign,2022.2.5,59.913066141027485,
C,False,3,letter,1,False,False,robot_stimuli\\filler.mp4,18,,,,,,,,,0,11,11,11,,,,,,,,,,,,,399.85912060000004,,,,,,,,402.957422,402.957422,402.957422,402.957422,402.957422,402.957422,402.957422,402.957422,None,None,None,,,,,,,,,,,399.85912060000004,399.85912060000004,None,,400.9331358,400.9331358,402.957422,n,399.85912060000004,399.85912060000004,0.2096492000000012,,18,001,2024-07-01_13h34.42.743,robot_nback_sign,2022.2.5,59.913066141027485,
W,False,3,letter,1,False,False,robot_stimuli\\filler.mp4,18,,,,,,,,,0,12,12,12,,,,,,,,,,,,,402.957422,404.01824419999997,,,,,,,406.04683270000004,406.04683270000004,406.04683270000004,406.04683270000004,406.04683270000004,406.04683270000004,406.04683270000004,406.04683270000004,None,None,None,,,,,,,,,,,402.957422,402.957422,None,,404.01824419999997,404.01824419999997,406.04683270000004,n,402.957422,402.957422,0.9480195000000435,,18,001,2024-07-01_13h34.42.743,robot_nback_sign,2022.2.5,59.913066141027485,
Z,True,3,letter,1,False,False,robot_stimuli\\filler.mp4,18,,,,,,,,,0,13,13,13,,,,,,,,,,,,,406.04683270000004,407.11353649999995,,,,,,,409.33551529999994,409.33551529999994,409.33551529999994,409.33551529999994,409.33551529999994,409.33551529999994,409.33551529999994,409.33551529999994,None,None,None,,,,,,,,,,,406.04683270000004,406.04683270000004,None,,407.11353649999995,407.11353649999995,409.33551529999994,n,406.04683270000004,406.04683270000004,1.0377906000000507,,18,001,2024-07-01_13h34.42.743,robot_nback_sign,2022.2.5,59.913066141027485,
C,True,3,letter,1,False,False,robot_stimuli\\filler.mp4,18,,,,,,,,,0,14,14,14,,,,,,,,,,,,,409.33551529999994,410.392593,,,,,,,412.4191791,412.4191791,412.4191791,412.4191791,412.4191791,412.4191791,412.4191791,412.4191791,None,None,None,,,,,,,,,,,409.33551529999994,409.33551529999994,None,,410.392593,410.392593,412.4191791,c,409.33551529999994,409.33551529999994,0.7101941999999895,,18,001,2024-07-01_13h34.42.743,robot_nback_sign,2022.2.5,59.913066141027485,
N,False,3,letter,1,False,False,robot_stimuli\\filler.mp4,18,,,,,,,,,0,15,15,15,,,,,,,,,,,,,412.4191791,413.47673159999994,,,,,,,415.50823710000003,415.50823710000003,415.50823710000003,415.50823710000003,415.50823710000003,415.50823710000003,415.50823710000003,415.50823710000003,None,None,None,,,,,,,,,,,412.4191791,412.4191791,None,,413.47673159999994,413.47673159999994,415.50823710000003,n,412.4191791,412.4191791,1.769728100000009,,18,001,2024-07-01_13h34.42.743,robot_nback_sign,2022.2.5,59.913066141027485,
Z,True,3,letter,1,False,False,robot_stimuli\\filler.mp4,18,,,,,,,,,0,16,16,16,,,,,,,,,,,,,415.50823710000003,416.56516589999995,,,,,,,418.78980529999995,418.78980529999995,418.78980529999995,418.78980529999995,418.78980529999995,418.78980529999995,418.78980529999995,418.78980529999995,None,None,None,,,,,,,,,,,415.50823710000003,415.50823710000003,None,,416.56516589999995,416.56516589999995,418.78980529999995,n,415.50823710000003,415.50823710000003,1.5221167000000264,,18,001,2024-07-01_13h34.42.743,robot_nback_sign,2022.2.5,59.913066141027485,
Q,False,3,letter,1,False,False,robot_stimuli\\filler.mp4,18,,,,,,,,,0,17,17,17,,,,,,,,,,,,,418.78980529999995,419.8460213,,,,,,,421.8714425,421.8714425,421.8714425,421.8714425,421.8714425,421.8714425,421.8714425,421.8714425,None,None,None,,,,,,,,,,,418.78980529999995,418.78980529999995,None,,419.8460213,419.8460213,421.8714425,n,418.78980529999995,418.78980529999995,1.1127068999999778,,18,001,2024-07-01_13h34.42.743,robot_nback_sign,2022.2.5,59.913066141027485,
F,False,3,letter,1,False,False,robot_stimuli\\filler.mp4,18,,,,,,,,,0,18,18,18,,,,,,,,,,,,,421.8714425,422.93828990000003,,,,,,,424.9674204,424.9674204,424.9674204,424.9674204,424.9674204,424.9674204,424.9674204,424.9674204,None,None,None,,,,,,,,,,,421.8714425,421.8714425,None,,422.93828990000003,422.93828990000003,424.9674204,None,421.8714425,421.8714425,,,18,001,2024-07-01_13h34.42.743,robot_nback_sign,2022.2.5,59.913066141027485,
P,False,3,letter,1,False,False,robot_stimuli\\filler.mp4,18,,,,,,,,,0,19,19,19,,,,,,,,,,,,,424.9674204,426.0286467,,,,,,,428.0559302,428.0559302,428.0559302,428.0559302,428.0559302,428.0559302,428.0559302,428.0559302,None,None,None,,,,,,,,,,,424.9674204,424.9674204,None,,426.0286467,426.0286467,428.0559302,n,424.9674204,424.9674204,1.1222565999999574,,18,001,2024-07-01_13h34.42.743,robot_nback_sign,2022.2.5,59.913066141027485,
K,False,3,letter,1,False,False,robot_stimuli\\filler.mp4,18,,,,,,,,,0,20,20,20,,,,,,,,,,,,,428.0559302,429.11378840000003,,,,,,,431.33753659999996,431.33753659999996,431.33753659999996,431.33753659999996,431.33753659999996,431.33753659999996,431.33753659999996,431.33753659999996,None,None,None,,,,,,,,,,,428.0559302,428.0559302,None,,429.11378840000003,429.11378840000003,431.33753659999996,c,428.0559302,428.0559302,1.50140540000001,,18,001,2024-07-01_13h34.42.743,robot_nback_sign,2022.2.5,59.913066141027485,
Q,False,3,letter,1,False,False,robot_stimuli\\filler.mp4,18,,,,,,,,,0,21,21,21,,,,,,,,,,,,,431.33753659999996,432.39660510000004,,,,,,,434.42772010000004,434.42772010000004,434.42772010000004,434.42772010000004,434.42772010000004,434.42772010000004,434.42772010000004,434.42772010000004,None,None,None,,,,,,,,,,,431.33753659999996,431.33753659999996,None,,432.39660510000004,432.39660510000004,434.42772010000004,c,431.33753659999996,431.33753659999996,1.2898384000000647,,18,001,2024-07-01_13h34.42.743,robot_nback_sign,2022.2.5,59.913066141027485,
T,False,3,letter,1,False,False,robot_stimuli\\filler.mp4,18,,,,,,,,,0,22,22,22,,,,,,,,,,,,,434.42772010000004,435.4925751,,,,,,,437.51998469999995,437.51998469999995,437.51998469999995,437.51998469999995,437.51998469999995,437.51998469999995,437.51998469999995,437.51998469999995,None,None,None,,,,,,,,,,,434.42772010000004,434.42772010000004,None,,435.4925751,435.4925751,437.51998469999995,n,434.42772010000004,434.42772010000004,0.8821481000000517,,18,001,2024-07-01_13h34.42.743,robot_nback_sign,2022.2.5,59.913066141027485,
S,False,3,letter,1,False,False,robot_stimuli\\filler.mp4,18,,,,,,,,,0,23,23,23,,,,,,,,,,,,,437.51998469999995,438.5783074,,,,,,,440.60438489999996,440.60438489999996,440.60438489999996,440.60438489999996,440.60438489999996,440.60438489999996,440.60438489999996,440.60438489999996,None,None,None,,,,,,,,,,,437.51998469999995,437.51998469999995,None,,438.5783074,438.5783074,440.60438489999996,n,437.51998469999995,437.51998469999995,1.1484509000000003,,18,001,2024-07-01_13h34.42.743,robot_nback_sign,2022.2.5,59.913066141027485,
T,False,3,letter,1,False,False,robot_stimuli\\filler.mp4,18,,,,,,,,,0,24,24,24,,,,,,,,,,,,,440.60438489999996,441.6631398,,,,,,,443.6964002,443.6964002,443.6964002,443.6964002,443.6964002,443.6964002,443.6964002,443.6964002,None,None,None,,,,,,,,,,,440.60438489999996,440.60438489999996,None,,441.6631398,441.6631398,443.6964002,c,440.60438489999996,440.60438489999996,1.1918360000000234,,18,001,2024-07-01_13h34.42.743,robot_nback_sign,2022.2.5,59.913066141027485,
M,False,3,letter,1,False,False,robot_stimuli\\filler.mp4,18,,,,,,,,,0,25,25,25,,,,,,,,,,,,,443.6964002,444.76128709999995,,,,,,,446.7929109,446.7929109,446.7929109,446.7929109,446.7929109,446.7929109,446.7929109,446.7929109,None,None,None,,,,,,,,,,,443.6964002,443.6964002,None,,444.76128709999995,444.76128709999995,446.7929109,n,443.6964002,443.6964002,1.0540067999999678,,18,001,2024-07-01_13h34.42.743,robot_nback_sign,2022.2.5,59.913066141027485,
M,False,3,letter,1,False,False,robot_stimuli\\filler.mp4,18,,,,,,,,,0,26,26,26,,,,,,,,,,,,,446.7929109,,,,,,,,449.89514460000004,449.89514460000004,449.89514460000004,449.89514460000004,449.89514460000004,449.89514460000004,449.89514460000004,449.89514460000004,None,None,None,,,,,,,,,,,446.7929109,446.7929109,None,,447.85926079999996,447.85926079999996,449.89514460000004,n,446.7929109,446.7929109,1.2829182999999489,,18,001,2024-07-01_13h34.42.743,robot_nback_sign,2022.2.5,59.913066141027485,
Z,False,3,letter,1,False,False,robot_stimuli\\filler.mp4,18,,,,,,,,,0,27,27,27,,,,,,,,,,,,,449.89514460000004,450.96084119999995,,,,,,,452.99457609999996,452.99457609999996,452.99457609999996,452.99457609999996,452.99457609999996,452.99457609999996,452.99457609999996,452.99457609999996,None,None,None,,,,,,,,,,,449.89514460000004,449.89514460000004,None,,450.96084119999995,450.96084119999995,452.99457609999996,None,449.89514460000004,449.89514460000004,,,18,001,2024-07-01_13h34.42.743,robot_nback_sign,2022.2.5,59.913066141027485,
F,False,3,letter,1,False,False,robot_stimuli\\filler.mp4,18,,,,,,,,,0,28,28,28,,,,,,,,,,,,,452.99457609999996,454.0609741,,,,,,,456.2925263,456.2925263,456.2925263,456.2925263,456.2925263,456.2925263,456.2925263,456.2925263,None,None,None,,,,,,,,,,,452.99457609999996,452.99457609999996,None,,454.0609741,454.0609741,456.2925263,n,452.99457609999996,452.99457609999996,1.5143726000000584,,18,001,2024-07-01_13h34.42.743,robot_nback_sign,2022.2.5,59.913066141027485,
M,True,3,letter,1,False,False,robot_stimuli\\filler.mp4,18,,,,,,,,,0,29,29,29,,,,,,,,,,,,,456.2925263,,,,,,,,459.399057,459.399057,459.399057,459.399057,459.399057,459.399057,459.399057,459.399057,None,None,None,,,,,,,,,,,456.2925263,456.2925263,None,,457.3734646,457.3734646,459.399057,c,456.2925263,456.2925263,1.3217160999999464,,18,001,2024-07-01_13h34.42.743,robot_nback_sign,2022.2.5,59.913066141027485,
L,False,3,letter,1,False,False,robot_stimuli\\filler.mp4,18,,,,,,,,,0,30,30,30,,,,,,,,,,,,,459.399057,460.46220539999996,,,,,,,462.49321679999997,462.49321679999997,462.49321679999997,462.49321679999997,462.49321679999997,462.49321679999997,462.49321679999997,462.49321679999997,None,None,None,,,,,,,,,,,459.399057,459.399057,None,,460.46220539999996,460.46220539999996,462.49321679999997,n,459.399057,459.399057,0.9362860000000524,,18,001,2024-07-01_13h34.42.743,robot_nback_sign,2022.2.5,59.913066141027485,
F,True,3,letter,1,False,False,robot_stimuli\\filler.mp4,18,,,,,,,,,0,31,31,31,,,,,,,,,,,,,462.49321679999997,,,,,,,,465.80356109999997,465.80356109999997,465.80356109999997,465.80356109999997,465.80356109999997,465.80356109999997,465.80356109999997,465.80356109999997,None,None,None,,,,,,,,,,,462.49321679999997,462.49321679999997,None,,463.57782960000003,463.57782960000003,465.80356109999997,c,462.49321679999997,462.49321679999997,1.7005066000000966,,18,001,2024-07-01_13h34.42.743,robot_nback_sign,2022.2.5,59.913066141027485,
F,False,3,letter,1,False,False,robot_stimuli\\filler.mp4,18,,,,,,,,,0,32,32,32,,,,,,,,,,,,,465.80356109999997,466.86147869999996,,,,,,,469.08857759999995,469.08857759999995,469.08857759999995,469.08857759999995,469.08857759999995,469.08857759999995,469.08857759999995,469.08857759999995,None,None,None,,,,,,,,,,,465.80356109999997,465.80356109999997,None,,466.86147869999996,466.86147869999996,469.08857759999995,n,465.80356109999997,465.80356109999997,1.2970968000000198,,18,001,2024-07-01_13h34.42.743,robot_nback_sign,2022.2.5,59.913066141027485,
R,False,3,letter,1,False,False,robot_stimuli\\filler.mp4,18,,,,,,,,,0,33,33,33,,,,,,,,,,,,,469.08857759999995,470.14809640000004,,,,,,,472.1719403,472.1719403,472.1719403,472.1719403,472.1719403,472.1719403,472.1719403,472.1719403,None,None,None,,,,,,,,,,,469.08857759999995,469.08857759999995,None,,470.14809640000004,470.14809640000004,472.1719403,n,469.08857759999995,469.08857759999995,1.2753220000001306,,18,001,2024-07-01_13h34.42.743,robot_nback_sign,2022.2.5,59.913066141027485,
F,True,3,letter,1,False,False,robot_stimuli\\filler.mp4,18,,,,,,,,,0,34,34,34,,,,,,,,,,,,,472.1719403,473.22636889999995,,,,,,,475.4517491,475.4517491,475.4517491,475.4517491,475.4517491,475.4517491,475.4517491,475.4517491,None,None,None,,,,,,,,,,,472.1719403,472.1719403,None,,473.22636889999995,473.22636889999995,475.4517491,n,472.1719403,472.1719403,1.4436176000000955,,18,001,2024-07-01_13h34.42.743,robot_nback_sign,2022.2.5,59.913066141027485,
T,False,3,letter,1,False,False,robot_stimuli\\filler.mp4,18,,,,,,,,,0,35,35,35,,,,,,,,,,,,,475.4517491,476.51132549999994,,,,,,,478.5361201,478.5361201,478.5361201,478.5361201,478.5361201,478.5361201,478.5361201,478.5361201,None,None,None,,,,,,,,,,,475.4517491,475.4517491,None,,476.51132549999994,476.51132549999994,478.5361201,n,475.4517491,475.4517491,1.0165406000000416,,18,001,2024-07-01_13h34.42.743,robot_nback_sign,2022.2.5,59.913066141027485,
Z,False,3,letter,1,False,False,robot_stimuli\\filler.mp4,18,,,,,,,,,0,36,36,36,,,,,,,,,,,,,478.5361201,479.59494049999995,,,,,,,481.82797969999996,481.82797969999996,481.82797969999996,481.82797969999996,481.82797969999996,481.82797969999996,481.82797969999996,481.82797969999996,None,None,None,,,,,,,,,,,478.5361201,478.5361201,None,,479.59494049999995,479.59494049999995,481.82797969999996,n,478.5361201,478.5361201,1.2350371000000564,,18,001,2024-07-01_13h34.42.743,robot_nback_sign,2022.2.5,59.913066141027485,
M,False,3,letter,1,False,False,robot_stimuli\\filler.mp4,18,,,,,,,,,0,37,37,37,,,,,,,,,,,,,481.82797969999996,482.8984159,,,,,,,484.9180459,484.9180459,484.9180459,484.9180459,484.9180459,484.9180459,484.9180459,484.9180459,None,None,None,,,,,,,,,,,481.82797969999996,481.82797969999996,None,,482.8984159,482.8984159,484.9180459,n,481.82797969999996,481.82797969999996,1.4595110999999292,,18,001,2024-07-01_13h34.42.743,robot_nback_sign,2022.2.5,59.913066141027485,
T,True,3,letter,1,False,False,robot_stimuli\\filler.mp4,18,,,,,,,,,0,38,38,38,,,,,,,,,,,,,484.9180459,485.9827542,,,,,,,488.0074001,488.0074001,488.0074001,488.0074001,488.0074001,488.0074001,488.0074001,488.0074001,None,None,None,,,,,,,,,,,484.9180459,484.9180459,None,,485.9827542,485.9827542,488.0074001,c,484.9180459,484.9180459,0.8405385000000365,,18,001,2024-07-01_13h34.42.743,robot_nback_sign,2022.2.5,59.913066141027485,
H,False,3,letter,1,False,False,robot_stimuli\\filler.mp4,18,,,,,,,,,0,39,39,39,,,,,,,,,,,,,488.0074001,489.0706369,,,,,,,491.09708169999993,491.09708169999993,491.09708169999993,491.09708169999993,491.09708169999993,491.09708169999993,491.09708169999993,491.09708169999993,None,None,None,,,,,,,,,,,488.0074001,488.0074001,None,,489.0706369,489.0706369,491.09708169999993,n,488.0074001,488.0074001,0.7605695999999966,,18,001,2024-07-01_13h34.42.743,robot_nback_sign,2022.2.5,59.913066141027485,
N,False,3,letter,1,False,False,robot_stimuli\\filler.mp4,18,,,,,,,,,0,40,40,40,,,,,,,,,,,,,491.09708169999993,492.1593638,,,,,,,494.18363519999997,494.18363519999997,494.18363519999997,494.18363519999997,494.18363519999997,494.18363519999997,494.18363519999997,494.18363519999997,None,None,None,,,,,,,,,,,491.09708169999993,491.09708169999993,None,,492.1593638,492.1593638,494.18363519999997,n,491.09708169999993,491.09708169999993,0.8476076999999691,,18,001,2024-07-01_13h34.42.743,robot_nback_sign,2022.2.5,59.913066141027485,
S,False,3,letter,1,False,False,robot_stimuli\\filler.mp4,18,,,,,,,,,0,41,41,41,,,,,,,,,,,,,494.18363519999997,495.2452494,,,,,,,497.2689171,497.2689171,497.2689171,497.2689171,497.2689171,497.2689171,497.2689171,497.2689171,None,None,None,,,,,,,,,,,494.18363519999997,494.18363519999997,None,,495.2452494,495.2452494,497.2689171,n,494.18363519999997,494.18363519999997,0.641888100000017,,18,001,2024-07-01_13h34.42.743,robot_nback_sign,2022.2.5,59.913066141027485,
Q,False,3,letter,1,False,False,robot_stimuli\\filler.mp4,18,,,,,,,,,0,42,42,42,,,,,,,,,,,,,497.2689171,498.32802480000004,,,,,,,500.3555567,500.3555567,500.3555567,500.3555567,500.3555567,500.3555567,500.3555567,500.3555567,None,None,None,,,,,,,,,,,497.2689171,497.2689171,None,,498.32802480000004,498.32802480000004,500.3555567,n,497.2689171,497.2689171,0.9987602000000493,,18,001,2024-07-01_13h34.42.743,robot_nback_sign,2022.2.5,59.913066141027485,
P,False,3,letter,1,False,False,robot_stimuli\\filler.mp4,18,,,,,,,,,0,43,43,43,,,,,,,,,,,,,500.3555567,501.4111519,,,,,,,503.43795429999994,503.43795429999994,503.43795429999994,503.43795429999994,503.43795429999994,503.43795429999994,503.43795429999994,503.43795429999994,None,None,None,,,,,,,,,,,500.3555567,500.3555567,None,,501.4111519,501.4111519,503.43795429999994,n,500.3555567,500.3555567,1.5072968999999716,,18,001,2024-07-01_13h34.42.743,robot_nback_sign,2022.2.5,59.913066141027485,
N,False,3,letter,1,False,False,robot_stimuli\\filler.mp4,18,,,,,,,,,0,44,44,44,,,,,,,,,,,,,503.43795429999994,504.49953,,,,,,,506.530949,506.530949,506.530949,506.530949,506.530949,506.530949,506.530949,506.530949,None,None,None,,,,,,,,,,,503.43795429999994,503.43795429999994,None,,504.49953,504.49953,506.530949,n,503.43795429999994,503.43795429999994,1.339077799999984,,18,001,2024-07-01_13h34.42.743,robot_nback_sign,2022.2.5,59.913066141027485,
K,False,3,letter,1,False,False,robot_stimuli\\filler.mp4,18,,,,,,,,,0,45,45,45,,,,,,,,,,,,,506.530949,507.6043461,,,,,,,509.63316679999997,509.63316679999997,509.63316679999997,509.63316679999997,509.63316679999997,509.63316679999997,509.63316679999997,509.63316679999997,None,None,None,,,,,,,,,,,506.530949,506.530949,None,,507.6043461,507.6043461,509.63316679999997,n,506.530949,506.530949,0.6026646999999343,,18,001,2024-07-01_13h34.42.743,robot_nback_sign,2022.2.5,59.913066141027485,
P,True,3,letter,1,False,False,robot_stimuli\\filler.mp4,18,,,,,,,,,0,46,46,46,,,,,,,,,,,,,509.63316679999997,510.69420469999994,,,,,,,512.9226644,512.9226644,512.9226644,512.9226644,512.9226644,512.9226644,512.9226644,512.9226644,None,None,None,,,,,,,,,,,509.63316679999997,509.63316679999997,None,,510.69420469999994,510.69420469999994,512.9226644,c,509.63316679999997,509.63316679999997,1.1688015999999948,,18,001,2024-07-01_13h34.42.743,robot_nback_sign,2022.2.5,59.913066141027485,
X,False,3,letter,1,False,False,robot_stimuli\\filler.mp4,18,,,,,,,,,0,47,47,47,,,,,,,,,,,,,512.9226644,513.9777927,,,,,,,516.0107175,516.0107175,516.0107175,516.0107175,516.0107175,516.0107175,516.0107175,516.0107175,None,None,None,,,,,,,,,,,512.9226644,512.9226644,None,,513.9777927,513.9777927,516.0107175,n,512.9226644,512.9226644,0.7015099999999279,,18,001,2024-07-01_13h34.42.743,robot_nback_sign,2022.2.5,59.913066141027485,
B,False,3,letter,1,False,False,robot_stimuli\\filler.mp4,18,,,,,,,,,0,48,48,48,,,,,,,,,,,,,516.0107175,517.0759894,,,,,,,519.3015551999999,519.3015551999999,519.3015551999999,519.3015551999999,519.3015551999999,519.3015551999999,519.3015551999999,519.3015551999999,None,None,None,,,,,,,,,,,516.0107175,516.0107175,None,,517.0759894,517.0759894,519.3015551999999,n,516.0107175,516.0107175,0.6910532000001126,,18,001,2024-07-01_13h34.42.743,robot_nback_sign,2022.2.5,59.913066141027485,
R,False,3,letter,1,False,True,robot_stimuli\\filler.mp4,18,,,,,,,,,0,49,49,49,,,,,,,,,,,,,519.3015551999999,520.3614193999999,,,,,,,522.4258726,528.5369705999999,522.4258726,528.5369705999999,522.4258726,528.5369705999999,522.4258726,528.5369705999999,84.78395061728395,3.9030089999999973,space,,,,6.069642399999964,,,,,,,519.3015551999999,519.3015551999999,None,,520.3614193999999,520.3614193999999,522.4258726,n,519.3015551999999,519.3015551999999,1.4455814000000942,,18,001,2024-07-01_13h34.42.743,robot_nback_sign,2022.2.5,59.913066141027485,
W,False,1,letter,1,True,False,robot_stimuli\\filler.mp4,18,,,,,,,,,0,50,50,50,,,,,,,,,,,,,531.4576199999999,532.5148141,,,,,,,534.5473167,534.5473167,534.5473167,534.5473167,534.5473167,534.5473167,534.5473167,534.5473167,None,None,None,,,,,,,,,,,528.5369705999999,528.5369705999999,space,2.893402500000036,532.5148141,532.5148141,534.5473167,n,,,1.4441691999999762,,18,001,2024-07-01_13h34.42.743,robot_nback_sign,2022.2.5,59.913066141027485,
V,False,1,letter,1,False,False,robot_stimuli\\filler.mp4,18,,,,,,,,,0,51,51,51,,,,,,,,,,,,,534.5473167,535.6244228,,,,,,,537.6489746,537.6489746,537.6489746,537.6489746,537.6489746,537.6489746,537.6489746,537.6489746,None,None,None,,,,,,,,,,,534.5473167,534.5473167,None,,535.6244228,535.6244228,537.6489746,n,534.5473167,534.5473167,1.4392923999999425,,18,001,2024-07-01_13h34.42.743,robot_nback_sign,2022.2.5,59.913066141027485,
V,True,1,letter,1,False,False,robot_stimuli\\filler.mp4,18,,,,,,,,,0,52,52,52,,,,,,,,,,,,,537.6489746,538.7108330000001,,,,,,,540.9408688999999,540.9408688999999,540.9408688999999,540.9408688999999,540.9408688999999,540.9408688999999,540.9408688999999,540.9408688999999,None,None,None,,,,,,,,,,,537.6489746,537.6489746,None,,538.7108330000001,538.7108330000001,540.9408688999999,c,537.6489746,537.6489746,0.9518561000000432,,18,001,2024-07-01_13h34.42.743,robot_nback_sign,2022.2.5,59.913066141027485,
N,False,1,letter,1,False,False,robot_stimuli\\filler.mp4,18,,,,,,,,,0,53,53,53,,,,,,,,,,,,,540.9408688999999,541.9928333999999,,,,,,,544.2179557,544.2179557,544.2179557,544.2179557,544.2179557,544.2179557,544.2179557,544.2179557,None,None,None,,,,,,,,,,,540.9408688999999,540.9408688999999,None,,541.9928333999999,541.9928333999999,544.2179557,n,540.9408688999999,540.9408688999999,0.621602800000062,,18,001,2024-07-01_13h34.42.743,robot_nback_sign,2022.2.5,59.913066141027485,
B,False,1,letter,1,False,False,robot_stimuli\\filler.mp4,18,,,,,,,,,0,54,54,54,,,,,,,,,,,,,544.2179557,545.2774276,,,,,,,547.3018471,547.3018471,547.3018471,547.3018471,547.3018471,547.3018471,547.3018471,547.3018471,None,None,None,,,,,,,,,,,544.2179557,544.2179557,None,,545.2774276,545.2774276,547.3018471,n,544.2179557,544.2179557,0.7369110999999862,,18,001,2024-07-01_13h34.42.743,robot_nback_sign,2022.2.5,59.913066141027485,
B,True,1,letter,1,False,False,robot_stimuli\\filler.mp4,18,,,,,,,,,0,55,55,55,,,,,,,,,,,,,547.3018471,548.3582595,,,,,,,550.3857940999999,550.3857940999999,550.3857940999999,550.3857940999999,550.3857940999999,550.3857940999999,550.3857940999999,550.3857940999999,None,None,None,,,,,,,,,,,547.3018471,547.3018471,None,,548.3582595,548.3582595,550.3857940999999,c,547.3018471,547.3018471,1.0726490000000126,,18,001,2024-07-01_13h34.42.743,robot_nback_sign,2022.2.5,59.913066141027485,
X,False,1,letter,1,False,False,robot_stimuli\\filler.mp4,18,,,,,,,,,0,56,56,56,,,,,,,,,,,,,550.3857940999999,551.4435739999999,,,,,,,553.4788053,553.4788053,553.4788053,553.4788053,553.4788053,553.4788053,553.4788053,553.4788053,None,None,None,,,,,,,,,,,550.3857940999999,550.3857940999999,None,,551.4435739999999,551.4435739999999,553.4788053,n,550.3857940999999,550.3857940999999,0.9556958000001146,,18,001,2024-07-01_13h34.42.743,robot_nback_sign,2022.2.5,59.913066141027485,
X,True,1,letter,1,False,False,robot_stimuli\\filler.mp4,18,,,,,,,,,0,57,57,57,,,,,,,,,,,,,553.4788053,554.5418271000001,,,,,,,556.7684462,556.7684462,556.7684462,556.7684462,556.7684462,556.7684462,556.7684462,556.7684462,None,None,None,,,,,,,,,,,553.4788053,553.4788053,None,,554.5418271000001,554.5418271000001,556.7684462,c,553.4788053,553.4788053,0.7213646000000722,,18,001,2024-07-01_13h34.42.743,robot_nback_sign,2022.2.5,59.913066141027485,
F,False,1,letter,1,False,False,robot_stimuli\\filler.mp4,18,,,,,,,,,0,58,58,58,,,,,,,,,,,,,556.7684462,557.8284392,,,,,,,559.8555168,559.8555168,559.8555168,559.8555168,559.8555168,559.8555168,559.8555168,559.8555168,None,None,None,,,,,,,,,,,556.7684462,556.7684462,None,,557.8284392,557.8284392,559.8555168,n,556.7684462,556.7684462,0.8099239000000011,,18,001,2024-07-01_13h34.42.743,robot_nback_sign,2022.2.5,59.913066141027485,
V,False,1,letter,1,False,False,robot_stimuli\\filler.mp4,18,,,,,,,,,0,59,59,59,,,,,,,,,,,,,559.8555168,560.9118172000001,,,,,,,562.9352422,562.9352422,562.9352422,562.9352422,562.9352422,562.9352422,562.9352422,562.9352422,None,None,None,,,,,,,,,,,559.8555168,559.8555168,None,,560.9118172000001,560.9118172000001,562.9352422,n,559.8555168,559.8555168,0.7268627000000265,,18,001,2024-07-01_13h34.42.743,robot_nback_sign,2022.2.5,59.913066141027485,
V,True,1,letter,1,False,False,robot_stimuli\\filler.mp4,18,,,,,,,,,0,60,60,60,,,,,,,,,,,,,562.9352422,563.9919634999999,,,,,,,566.0220026,566.0220026,566.0220026,566.0220026,566.0220026,566.0220026,566.0220026,566.0220026,None,None,None,,,,,,,,,,,562.9352422,562.9352422,None,,563.9919634999999,563.9919634999999,566.0220026,c,562.9352422,562.9352422,0.6139077000000839,,18,001,2024-07-01_13h34.42.743,robot_nback_sign,2022.2.5,59.913066141027485,
V,True,1,letter,1,False,False,robot_stimuli\\filler.mp4,18,,,,,,,,,0,61,61,61,,,,,,,,,,,,,566.0220026,567.0758126999999,,,,,,,569.1011762999999,569.1011762999999,569.1011762999999,569.1011762999999,569.1011762999999,569.1011762999999,569.1011762999999,569.1011762999999,None,None,None,,,,,,,,,,,566.0220026,566.0220026,None,,567.0758126999999,567.0758126999999,569.1011762999999,c,566.0220026,566.0220026,0.6906319999999937,,18,001,2024-07-01_13h34.42.743,robot_nback_sign,2022.2.5,59.913066141027485,
V,True,1,letter,1,False,False,robot_stimuli\\filler.mp4,18,,,,,,,,,0,62,62,62,,,,,,,,,,,,,569.1011762999999,570.158643,,,,,,,572.3866959,572.3866959,572.3866959,572.3866959,572.3866959,572.3866959,572.3866959,572.3866959,None,None,None,,,,,,,,,,,569.1011762999999,569.1011762999999,None,,570.158643,570.158643,572.3866959,c,569.1011762999999,569.1011762999999,0.5519022000000291,,18,001,2024-07-01_13h34.42.743,robot_nback_sign,2022.2.5,59.913066141027485,
T,False,1,letter,1,False,False,robot_stimuli\\filler.mp4,18,,,,,,,,,0,63,63,63,,,,,,,,,,,,,572.3866959,573.444062,,,,,,,575.4738405,575.4738405,575.4738405,575.4738405,575.4738405,575.4738405,575.4738405,575.4738405,None,None,None,,,,,,,,,,,572.3866959,572.3866959,None,,573.444062,573.444062,575.4738405,n,572.3866959,572.3866959,1.105849599999999,,18,001,2024-07-01_13h34.42.743,robot_nback_sign,2022.2.5,59.913066141027485,
T,True,1,letter,1,False,False,robot_stimuli\\filler.mp4,18,,,,,,,,,0,64,64,64,,,,,,,,,,,,,575.4738405,576.5273937,,,,,,,578.760203,578.760203,578.760203,578.760203,578.760203,578.760203,578.760203,578.760203,None,None,None,,,,,,,,,,,575.4738405,575.4738405,None,,576.5273937,576.5273937,578.760203,c,575.4738405,575.4738405,1.0154812999999763,,18,001,2024-07-01_13h34.42.743,robot_nback_sign,2022.2.5,59.913066141027485,
F,False,1,letter,1,False,False,robot_stimuli\\filler.mp4,18,,,,,,,,,0,65,65,65,,,,,,,,,,,,,578.760203,,,,,,,,582.0603348,582.0603348,582.0603348,582.0603348,582.0603348,582.0603348,582.0603348,582.0603348,None,None,None,,,,,,,,,,,578.760203,578.760203,None,,579.8277697000001,579.8277697000001,582.0603348,n,578.760203,578.760203,1.754979100000071,,18,001,2024-07-01_13h34.42.743,robot_nback_sign,2022.2.5,59.913066141027485,
N,False,1,letter,1,False,False,robot_stimuli\\filler.mp4,18,,,,,,,,,0,66,66,66,,,,,,,,,,,,,582.0603348,,,,,,,,585.1577004000001,585.1577004000001,585.1577004000001,585.1577004000001,585.1577004000001,585.1577004000001,585.1577004000001,585.1577004000001,None,None,None,,,,,,,,,,,582.0603348,582.0603348,None,,583.127248,583.127248,585.1577004000001,n,582.0603348,582.0603348,1.4388207999999736,,18,001,2024-07-01_13h34.42.743,robot_nback_sign,2022.2.5,59.913066141027485,
K,False,1,letter,1,False,False,robot_stimuli\\filler.mp4,18,,,,,,,,,0,67,67,67,,,,,,,,,,,,,585.1577004000001,586.211151,,,,,,,588.2358136,588.2358136,588.2358136,588.2358136,588.2358136,588.2358136,588.2358136,588.2358136,None,None,None,,,,,,,,,,,585.1577004000001,585.1577004000001,None,,586.211151,586.211151,588.2358136,n,585.1577004000001,585.1577004000001,1.0199011000000269,,18,001,2024-07-01_13h34.42.743,robot_nback_sign,2022.2.5,59.913066141027485,
Z,False,1,letter,1,False,False,robot_stimuli\\filler.mp4,18,,,,,,,,,0,68,68,68,,,,,,,,,,,,,588.2358136,589.2940475999999,,,,,,,591.3259264999999,591.3259264999999,591.3259264999999,591.3259264999999,591.3259264999999,591.3259264999999,591.3259264999999,591.3259264999999,None,None,None,,,,,,,,,,,588.2358136,588.2358136,None,,589.2940475999999,589.2940475999999,591.3259264999999,n,588.2358136,588.2358136,0.9849650000000452,,18,001,2024-07-01_13h34.42.743,robot_nback_sign,2022.2.5,59.913066141027485,
X,False,1,letter,1,False,False,robot_stimuli\\filler.mp4,18,,,,,,,,,0,69,69,69,,,,,,,,,,,,,591.3259264999999,,,,,,,,594.4171805999999,594.4171805999999,594.4171805999999,594.4171805999999,594.4171805999999,594.4171805999999,594.4171805999999,594.4171805999999,None,None,None,,,,,,,,,,,591.3259264999999,591.3259264999999,None,,592.3945876,592.3945876,594.4171805999999,n,591.3259264999999,591.3259264999999,1.0122339000000125,,18,001,2024-07-01_13h34.42.743,robot_nback_sign,2022.2.5,59.913066141027485,
V,False,1,letter,1,False,False,robot_stimuli\\filler.mp4,18,,,,,,,,,0,70,70,70,,,,,,,,,,,,,594.4171805999999,595.4774047000001,,,,,,,597.5045204,597.5045204,597.5045204,597.5045204,597.5045204,597.5045204,597.5045204,597.5045204,None,None,None,,,,,,,,,,,594.4171805999999,594.4171805999999,None,,595.4774047000001,595.4774047000001,597.5045204,n,594.4171805999999,594.4171805999999,0.8335589000000141,,18,001,2024-07-01_13h34.42.743,robot_nback_sign,2022.2.5,59.913066141027485,
Q,False,1,letter,1,False,False,robot_stimuli\\filler.mp4,18,,,,,,,,,0,71,71,71,,,,,,,,,,,,,597.5045204,598.5596974,,,,,,,600.5865214,600.5865214,600.5865214,600.5865214,600.5865214,600.5865214,600.5865214,600.5865214,None,None,None,,,,,,,,,,,597.5045204,597.5045204,None,,598.5596974,598.5596974,600.5865214,n,597.5045204,597.5045204,0.743469800000014,,18,001,2024-07-01_13h34.42.743,robot_nback_sign,2022.2.5,59.913066141027485,
W,False,1,letter,1,False,False,robot_stimuli\\filler.mp4,18,,,,,,,,,0,72,72,72,,,,,,,,,,,,,600.5865214,601.6438831,,,,,,,603.6693147000001,603.6693147000001,603.6693147000001,603.6693147000001,603.6693147000001,603.6693147000001,603.6693147000001,603.6693147000001,None,None,None,,,,,,,,,,,600.5865214,600.5865214,None,,601.6438831,601.6438831,603.6693147000001,n,600.5865214,600.5865214,0.9548614000000839,,18,001,2024-07-01_13h34.42.743,robot_nback_sign,2022.2.5,59.913066141027485,
V,False,1,letter,1,False,False,robot_stimuli\\filler.mp4,18,,,,,,,,,0,73,73,73,,,,,,,,,,,,,603.6693147000001,604.7276156999999,,,,,,,606.7591462999999,606.7591462999999,606.7591462999999,606.7591462999999,606.7591462999999,606.7591462999999,606.7591462999999,606.7591462999999,None,None,None,,,,,,,,,,,603.6693147000001,603.6693147000001,None,,604.7276156999999,604.7276156999999,606.7591462999999,n,603.6693147000001,603.6693147000001,1.1347632999999746,,18,001,2024-07-01_13h34.42.743,robot_nback_sign,2022.2.5,59.913066141027485,
D,False,1,letter,1,False,False,robot_stimuli\\filler.mp4,18,,,,,,,,,0,74,74,74,,,,,,,,,,,,,606.7591462999999,,,,,,,,609.8603679999999,609.8603679999999,609.8603679999999,609.8603679999999,609.8603679999999,609.8603679999999,609.8603679999999,609.8603679999999,None,None,None,,,,,,,,,,,606.7591462999999,606.7591462999999,None,,607.8318345,607.8318345,609.8603679999999,n,606.7591462999999,606.7591462999999,0.8317281000000207,,18,001,2024-07-01_13h34.42.743,robot_nback_sign,2022.2.5,59.913066141027485,
D,True,1,letter,1,False,False,robot_stimuli\\filler.mp4,18,,,,,,,,,0,75,75,75,,,,,,,,,,,,,609.8603679999999,610.9252654,,,,,,,613.1568533,613.1568533,613.1568533,613.1568533,613.1568533,613.1568533,613.1568533,613.1568533,None,None,None,,,,,,,,,,,609.8603679999999,609.8603679999999,None,,610.9252654,610.9252654,613.1568533,c,609.8603679999999,609.8603679999999,0.945830199999989,,18,001,2024-07-01_13h34.42.743,robot_nback_sign,2022.2.5,59.913066141027485,
L,False,1,letter,1,False,False,robot_stimuli\\filler.mp4,18,,,,,,,,,0,76,76,76,,,,,,,,,,,,,613.1568533,614.2204852,,,,,,,616.2514017999999,616.2514017999999,616.2514017999999,616.2514017999999,616.2514017999999,616.2514017999999,616.2514017999999,616.2514017999999,None,None,None,,,,,,,,,,,613.1568533,613.1568533,None,,614.2204852,614.2204852,616.2514017999999,n,613.1568533,613.1568533,0.9628203999999982,,18,001,2024-07-01_13h34.42.743,robot_nback_sign,2022.2.5,59.913066141027485,
S,False,1,letter,1,False,False,robot_stimuli\\filler.mp4,18,,,,,,,,,0,77,77,77,,,,,,,,,,,,,616.2514017999999,617.3197038999999,,,,,,,619.3619212000001,619.3619212000001,619.3619212000001,619.3619212000001,619.3619212000001,619.3619212000001,619.3619212000001,619.3619212000001,None,None,None,,,,,,,,,,,616.2514017999999,616.2514017999999,None,,617.3197038999999,617.3197038999999,619.3619212000001,n,616.2514017999999,616.2514017999999,0.8061288000000673,,18,001,2024-07-01_13h34.42.743,robot_nback_sign,2022.2.5,59.913066141027485,
N,False,1,letter,1,False,False,robot_stimuli\\filler.mp4,18,,,,,,,,,0,78,78,78,,,,,,,,,,,,,619.3619212000001,620.4483961000001,,,,,,,622.4774043,622.4774043,622.4774043,622.4774043,622.4774043,622.4774043,622.4774043,622.4774043,None,None,None,,,,,,,,,,,619.3619212000001,619.3619212000001,None,,620.4483961000001,620.4483961000001,622.4774043,n,619.3619212000001,619.3619212000001,0.749489399999959,,18,001,2024-07-01_13h34.42.743,robot_nback_sign,2022.2.5,59.913066141027485,
D,False,1,letter,1,False,False,robot_stimuli\\filler.mp4,18,,,,,,,,,0,79,79,79,,,,,,,,,,,,,622.4774043,,,,,,,,625.5697233000001,625.5697233000001,625.5697233000001,625.5697233000001,625.5697233000001,625.5697233000001,625.5697233000001,625.5697233000001,None,None,None,,,,,,,,,,,622.4774043,622.4774043,None,,623.5431645000001,623.5431645000001,625.5697233000001,n,622.4774043,622.4774043,0.632238799999925,,18,001,2024-07-01_13h34.42.743,robot_nback_sign,2022.2.5,59.913066141027485,
R,False,1,letter,1,False,False,robot_stimuli\\filler.mp4,18,,,,,,,,,0,80,80,80,,,,,,,,,,,,,625.5697233000001,626.6302135000001,,,,,,,628.8541998000001,628.8541998000001,628.8541998000001,628.8541998000001,628.8541998000001,628.8541998000001,628.8541998000001,628.8541998000001,None,None,None,,,,,,,,,,,625.5697233000001,625.5697233000001,None,,626.6302135000001,626.6302135000001,628.8541998000001,n,625.5697233000001,625.5697233000001,0.5933625999999208,,18,001,2024-07-01_13h34.42.743,robot_nback_sign,2022.2.5,59.913066141027485,
V,False,1,letter,1,False,False,robot_stimuli\\filler.mp4,18,,,,,,,,,0,81,81,81,,,,,,,,,,,,,628.8541998000001,629.910145,,,,,,,632.1353161,632.1353161,632.1353161,632.1353161,632.1353161,632.1353161,632.1353161,632.1353161,None,None,None,,,,,,,,,,,628.8541998000001,628.8541998000001,None,,629.910145,629.910145,632.1353161,n,628.8541998000001,628.8541998000001,0.520804299999952,,18,001,2024-07-01_13h34.42.743,robot_nback_sign,2022.2.5,59.913066141027485,
Z,False,1,letter,1,False,False,robot_stimuli\\filler.mp4,18,,,,,,,,,0,82,82,82,,,,,,,,,,,,,632.1353161,633.2045091,,,,,,,635.2305377,635.2305377,635.2305377,635.2305377,635.2305377,635.2305377,635.2305377,635.2305377,None,None,None,,,,,,,,,,,632.1353161,632.1353161,None,,633.2045091,633.2045091,635.2305377,n,632.1353161,632.1353161,0.5542614999999955,,18,001,2024-07-01_13h34.42.743,robot_nback_sign,2022.2.5,59.913066141027485,
M,False,1,letter,1,False,False,robot_stimuli\\filler.mp4,18,,,,,,,,,0,83,83,83,,,,,,,,,,,,,635.2305377,636.2944818999999,,,,,,,638.3281168000001,638.3281168000001,638.3281168000001,638.3281168000001,638.3281168000001,638.3281168000001,638.3281168000001,638.3281168000001,None,None,None,,,,,,,,,,,635.2305377,635.2305377,None,,636.2944818999999,636.2944818999999,638.3281168000001,n,635.2305377,635.2305377,0.657002900000009,,18,001,2024-07-01_13h34.42.743,robot_nback_sign,2022.2.5,59.913066141027485,
C,False,1,letter,1,False,False,robot_stimuli\\filler.mp4,18,,,,,,,,,0,84,84,84,,,,,,,,,,,,,638.3281168000001,639.3951156,,,,,,,641.4200329999999,641.4200329999999,641.4200329999999,641.4200329999999,641.4200329999999,641.4200329999999,641.4200329999999,641.4200329999999,None,None,None,,,,,,,,,,,638.3281168000001,638.3281168000001,None,,639.3951156,639.3951156,641.4200329999999,n,638.3281168000001,638.3281168000001,0.5393573000000629,,18,001,2024-07-01_13h34.42.743,robot_nback_sign,2022.2.5,59.913066141027485,
V,False,1,letter,1,False,False,robot_stimuli\\filler.mp4,18,,,,,,,,,0,85,85,85,,,,,,,,,,,,,641.4200329999999,642.4782989,,,,,,,644.5048647000001,644.5048647000001,644.5048647000001,644.5048647000001,644.5048647000001,644.5048647000001,644.5048647000001,644.5048647000001,None,None,None,,,,,,,,,,,641.4200329999999,641.4200329999999,None,,642.4782989,642.4782989,644.5048647000001,n,641.4200329999999,641.4200329999999,0.38491940000000113,,18,001,2024-07-01_13h34.42.743,robot_nback_sign,2022.2.5,59.913066141027485,
C,False,1,letter,1,False,False,robot_stimuli\\filler.mp4,18,,,,,,,,,0,86,86,86,,,,,,,,,,,,,644.5048647000001,645.5620139,,,,,,,647.5881185999999,647.5881185999999,647.5881185999999,647.5881185999999,647.5881185999999,647.5881185999999,647.5881185999999,647.5881185999999,None,None,None,,,,,,,,,,,644.5048647000001,644.5048647000001,None,,645.5620139,645.5620139,647.5881185999999,n,644.5048647000001,644.5048647000001,0.252484700000025,,18,001,2024-07-01_13h34.42.743,robot_nback_sign,2022.2.5,59.913066141027485,
W,False,1,letter,1,False,False,robot_stimuli\\filler.mp4,18,,,,,,,,,0,87,87,87,,,,,,,,,,,,,647.5881185999999,648.6442013999999,,,,,,,650.8732797,650.8732797,650.8732797,650.8732797,650.8732797,650.8732797,650.8732797,650.8732797,None,None,None,,,,,,,,,,,647.5881185999999,647.5881185999999,None,,648.6442013999999,648.6442013999999,650.8732797,n,647.5881185999999,647.5881185999999,0.5062783000000195,,18,001,2024-07-01_13h34.42.743,robot_nback_sign,2022.2.5,59.913066141027485,
T,False,1,letter,1,False,False,robot_stimuli\\filler.mp4,18,,,,,,,,,0,88,88,88,,,,,,,,,,,,,650.8732797,651.9284886,,,,,,,653.9605394,653.9605394,653.9605394,653.9605394,653.9605394,653.9605394,653.9605394,653.9605394,None,None,None,,,,,,,,,,,650.8732797,650.8732797,None,,651.9284886,651.9284886,653.9605394,n,650.8732797,650.8732797,0.6543002000000229,,18,001,2024-07-01_13h34.42.743,robot_nback_sign,2022.2.5,59.913066141027485,
H,False,1,letter,1,False,False,robot_stimuli\\filler.mp4,18,,,,,,,,,0,89,89,89,,,,,,,,,,,,,653.9605394,655.0277423,,,,,,,657.0535838999999,657.0535838999999,657.0535838999999,657.0535838999999,657.0535838999999,657.0535838999999,657.0535838999999,657.0535838999999,None,None,None,,,,,,,,,,,653.9605394,653.9605394,None,,655.0277423,655.0277423,657.0535838999999,n,653.9605394,653.9605394,0.5706542999999442,,18,001,2024-07-01_13h34.42.743,robot_nback_sign,2022.2.5,59.913066141027485,
H,True,1,letter,1,False,False,robot_stimuli\\filler.mp4,18,,,,,,,,,0,90,90,90,,,,,,,,,,,,,657.0535838999999,658.1091918,,,,,,,660.335728,660.335728,660.335728,660.335728,660.335728,660.335728,660.335728,660.335728,None,None,None,,,,,,,,,,,657.0535838999999,657.0535838999999,None,,658.1091918,658.1091918,660.335728,c,657.0535838999999,657.0535838999999,0.7614536000000385,,18,001,2024-07-01_13h34.42.743,robot_nback_sign,2022.2.5,59.913066141027485,
H,True,1,letter,1,False,False,robot_stimuli\\filler.mp4,18,,,,,,,,,0,91,91,91,,,,,,,,,,,,,660.335728,661.3905139999999,,,,,,,663.4239620999999,663.4239620999999,663.4239620999999,663.4239620999999,663.4239620999999,663.4239620999999,663.4239620999999,663.4239620999999,None,None,None,,,,,,,,,,,660.335728,660.335728,None,,661.3905139999999,661.3905139999999,663.4239620999999,c,660.335728,660.335728,0.5996801000000573,,18,001,2024-07-01_13h34.42.743,robot_nback_sign,2022.2.5,59.913066141027485,
W,False,1,letter,1,False,False,robot_stimuli\\filler.mp4,18,,,,,,,,,0,92,92,92,,,,,,,,,,,,,663.4239620999999,664.4815295999999,,,,,,,666.5085976999999,666.5085976999999,666.5085976999999,666.5085976999999,666.5085976999999,666.5085976999999,666.5085976999999,666.5085976999999,None,None,None,,,,,,,,,,,663.4239620999999,663.4239620999999,None,,664.4815295999999,664.4815295999999,666.5085976999999,n,663.4239620999999,663.4239620999999,1.0365816000000336,,18,001,2024-07-01_13h34.42.743,robot_nback_sign,2022.2.5,59.913066141027485,
C,False,1,letter,1,False,False,robot_stimuli\\filler.mp4,18,,,,,,,,,0,93,93,93,,,,,,,,,,,,,666.5085976999999,667.561385,,,,,,,669.5911873,669.5911873,669.5911873,669.5911873,669.5911873,669.5911873,669.5911873,669.5911873,None,None,None,,,,,,,,,,,666.5085976999999,666.5085976999999,None,,667.561385,667.561385,669.5911873,n,666.5085976999999,666.5085976999999,0.5342642999999612,,18,001,2024-07-01_13h34.42.743,robot_nback_sign,2022.2.5,59.913066141027485,
Z,False,1,letter,1,False,False,robot_stimuli\\filler.mp4,18,,,,,,,,,0,94,94,94,,,,,,,,,,,,,669.5911873,670.6452608,,,,,,,672.6792378,672.6792378,672.6792378,672.6792378,672.6792378,672.6792378,672.6792378,672.6792378,None,None,None,,,,,,,,,,,669.5911873,669.5911873,None,,670.6452608,670.6452608,672.6792378,n,669.5911873,669.5911873,0.6336663000000158,,18,001,2024-07-01_13h34.42.743,robot_nback_sign,2022.2.5,59.913066141027485,
F,False,1,letter,1,False,False,robot_stimuli\\filler.mp4,18,,,,,,,,,0,95,95,95,,,,,,,,,,,,,672.6792378,673.7434289999999,,,,,,,675.7710294000001,675.7710294000001,675.7710294000001,675.7710294000001,675.7710294000001,675.7710294000001,675.7710294000001,675.7710294000001,None,None,None,,,,,,,,,,,672.6792378,672.6792378,None,,673.7434289999999,673.7434289999999,675.7710294000001,n,672.6792378,672.6792378,0.8151660000000334,,18,001,2024-07-01_13h34.42.743,robot_nback_sign,2022.2.5,59.913066141027485,
X,False,1,letter,1,False,False,robot_stimuli\\filler.mp4,18,,,,,,,,,0,96,96,96,,,,,,,,,,,,,675.7710294000001,676.8276658,,,,,,,678.8578951,678.8578951,678.8578951,678.8578951,678.8578951,678.8578951,678.8578951,678.8578951,None,None,None,,,,,,,,,,,675.7710294000001,675.7710294000001,None,,676.8276658,676.8276658,678.8578951,n,675.7710294000001,675.7710294000001,0.5063260000000014,,18,001,2024-07-01_13h34.42.743,robot_nback_sign,2022.2.5,59.913066141027485,
P,False,1,letter,1,False,False,robot_stimuli\\filler.mp4,18,,,,,,,,,0,97,97,97,,,,,,,,,,,,,678.8578951,679.9103812000001,,,,,,,681.944041,681.944041,681.944041,681.944041,681.944041,681.944041,681.944041,681.944041,None,None,None,,,,,,,,,,,678.8578951,678.8578951,None,,679.9103812000001,679.9103812000001,681.944041,n,678.8578951,678.8578951,0.45660760000004075,,18,001,2024-07-01_13h34.42.743,robot_nback_sign,2022.2.5,59.913066141027485,
L,False,1,letter,1,False,False,robot_stimuli\\filler.mp4,18,,,,,,,,,0,98,98,98,,,,,,,,,,,,,681.944041,683.0116277,,,,,,,685.0390485,685.0390485,685.0390485,685.0390485,685.0390485,685.0390485,685.0390485,685.0390485,None,None,None,,,,,,,,,,,681.944041,681.944041,None,,683.0116277,683.0116277,685.0390485,n,681.944041,681.944041,0.48337410000004866,,18,001,2024-07-01_13h34.42.743,robot_nback_sign,2022.2.5,59.913066141027485,
D,False,1,letter,1,False,True,robot_stimuli\\filler.mp4,18,,,,,,,,,0,99,99,99,,,,,,,,,,,,,685.0390485,686.0946448,,,,,,,688.1562392999999,697.8280402999999,688.1562392999999,697.8280402999999,688.1562392999999,697.8280402999999,688.1562392999999,697.8280402999999,25.061728395061728,8.22273759999996,space,,,,9.625563399999976,,,,,,,685.0390485,685.0390485,None,,686.0946448,686.0946448,688.1562392999999,n,685.0390485,685.0390485,0.31966610000011997,,18,001,2024-07-01_13h34.42.743,robot_nback_sign,2022.2.5,59.913066141027485,
L,False,2,letter,1,True,False,robot_stimuli\\filler.mp4,18,,,,,,,,,0,100,100,100,,,,,,,,,,,,,744.0743181,745.1301165,,,,,,,747.3574877000001,747.3574877000001,747.3574877000001,747.3574877000001,747.3574877000001,747.3574877000001,747.3574877000001,747.3574877000001,None,None,None,,,,,,,,,,,697.8280402999999,697.8280402999999,space,46.226671700000054,745.1301165,745.1301165,747.3574877000001,n,,,0.7884469999999624,,18,001,2024-07-01_13h34.42.743,robot_nback_sign,2022.2.5,59.913066141027485,
J,False,2,letter,1,False,False,robot_stimuli\\filler.mp4,18,,,,,,,,,0,101,101,101,,,,,,,,,,,,,747.3574877000001,748.4140832999999,,,,,,,750.4409376000001,750.4409376000001,750.4409376000001,750.4409376000001,750.4409376000001,750.4409376000001,750.4409376000001,750.4409376000001,None,None,None,,,,,,,,,,,747.3574877000001,747.3574877000001,None,,748.4140832999999,748.4140832999999,750.4409376000001,n,747.3574877000001,747.3574877000001,0.4649462000000426,,18,001,2024-07-01_13h34.42.743,robot_nback_sign,2022.2.5,59.913066141027485,
H,False,2,letter,1,False,False,robot_stimuli\\filler.mp4,18,,,,,,,,,0,102,102,102,,,,,,,,,,,,,750.4409376000001,751.4934625000001,,,,,,,753.7256307,753.7256307,753.7256307,753.7256307,753.7256307,753.7256307,753.7256307,753.7256307,None,None,None,,,,,,,,,,,750.4409376000001,750.4409376000001,None,,751.4934625000001,751.4934625000001,753.7256307,n,750.4409376000001,750.4409376000001,0.9364453000000026,,18,001,2024-07-01_13h34.42.743,robot_nback_sign,2022.2.5,59.913066141027485,
L,False,2,letter,1,False,False,robot_stimuli\\filler.mp4,18,,,,,,,,,0,103,103,103,,,,,,,,,,,,,753.7256307,,,,,,,,756.8293136,756.8293136,756.8293136,756.8293136,756.8293136,756.8293136,756.8293136,756.8293136,None,None,None,,,,,,,,,,,753.7256307,753.7256307,None,,754.7957411,754.7957411,756.8293136,n,753.7256307,753.7256307,1.6341994000001137,,18,001,2024-07-01_13h34.42.743,robot_nback_sign,2022.2.5,59.913066141027485,
H,True,2,letter,1,False,False,robot_stimuli\\filler.mp4,18,,,,,,,,,0,104,104,104,,,,,,,,,,,,,756.8293136,757.8943657,,,,,,,759.9219341999999,759.9219341999999,759.9219341999999,759.9219341999999,759.9219341999999,759.9219341999999,759.9219341999999,759.9219341999999,None,None,None,,,,,,,,,,,756.8293136,756.8293136,None,,757.8943657,757.8943657,759.9219341999999,None,756.8293136,756.8293136,,,18,001,2024-07-01_13h34.42.743,robot_nback_sign,2022.2.5,59.913066141027485,
Q,False,2,letter,1,False,False,robot_stimuli\\filler.mp4,18,,,,,,,,,0,105,105,105,,,,,,,,,,,,,759.9219341999999,760.9817063,,,,,,,763.0023851000001,763.0023851000001,763.0023851000001,763.0023851000001,763.0023851000001,763.0023851000001,763.0023851000001,763.0023851000001,None,None,None,,,,,,,,,,,759.9219341999999,759.9219341999999,None,,760.9817063,760.9817063,763.0023851000001,None,759.9219341999999,759.9219341999999,,,18,001,2024-07-01_13h34.42.743,robot_nback_sign,2022.2.5,59.913066141027485,
Z,False,2,letter,1,False,False,robot_stimuli\\filler.mp4,18,,,,,,,,,0,106,106,106,,,,,,,,,,,,,763.0023851000001,764.0618261,,,,,,,766.0921754999999,766.0921754999999,766.0921754999999,766.0921754999999,766.0921754999999,766.0921754999999,766.0921754999999,766.0921754999999,None,None,None,,,,,,,,,,,763.0023851000001,763.0023851000001,None,,764.0618261,764.0618261,766.0921754999999,n,763.0023851000001,763.0023851000001,1.6566432999999847,,18,001,2024-07-01_13h34.42.743,robot_nback_sign,2022.2.5,59.913066141027485,
Q,True,2,letter,1,False,False,robot_stimuli\\filler.mp4,18,,,,,,,,,0,107,107,107,,,,,,,,,,,,,766.0921754999999,,,,,,,,769.1875153000001,769.1875153000001,769.1875153000001,769.1875153000001,769.1875153000001,769.1875153000001,769.1875153000001,769.1875153000001,None,None,None,,,,,,,,,,,766.0921754999999,766.0921754999999,None,,767.1622791,767.1622791,769.1875153000001,c,766.0921754999999,766.0921754999999,0.9327008000000774,,18,001,2024-07-01_13h34.42.743,robot_nback_sign,2022.2.5,59.913066141027485,
T,False,2,letter,1,False,False,robot_stimuli\\filler.mp4,18,,,,,,,,,0,108,108,108,,,,,,,,,,,,,769.1875153000001,770.2442927,,,,,,,772.2728001,772.2728001,772.2728001,772.2728001,772.2728001,772.2728001,772.2728001,772.2728001,None,None,None,,,,,,,,,,,769.1875153000001,769.1875153000001,None,,770.2442927,770.2442927,772.2728001,n,769.1875153000001,769.1875153000001,1.9944433000000004,,18,001,2024-07-01_13h34.42.743,robot_nback_sign,2022.2.5,59.913066141027485,
Q,True,2,letter,1,False,False,robot_stimuli\\filler.mp4,18,,,,,,,,,0,109,109,109,,,,,,,,,,,,,772.2728001,773.3296344999999,,,,,,,775.3581815,775.3581815,775.3581815,775.3581815,775.3581815,775.3581815,775.3581815,775.3581815,None,None,None,,,,,,,,,,,772.2728001,772.2728001,None,,773.3296344999999,773.3296344999999,775.3581815,None,772.2728001,772.2728001,,,18,001,2024-07-01_13h34.42.743,robot_nback_sign,2022.2.5,59.913066141027485,
T,True,2,letter,1,False,False,robot_stimuli\\filler.mp4,18,,,,,,,,,0,110,110,110,,,,,,,,,,,,,775.3581815,776.4093869000001,,,,,,,778.4384316000001,778.4384316000001,778.4384316000001,778.4384316000001,778.4384316000001,778.4384316000001,778.4384316000001,778.4384316000001,None,None,None,,,,,,,,,,,775.3581815,775.3581815,None,,776.4093869000001,776.4093869000001,778.4384316000001,None,775.3581815,775.3581815,,,18,001,2024-07-01_13h34.42.743,robot_nback_sign,2022.2.5,59.913066141027485,
V,False,2,letter,1,False,False,robot_stimuli\\filler.mp4,18,,,,,,,,,0,111,111,111,,,,,,,,,,,,,778.4384316000001,779.4956076999999,,,,,,,781.5199058999999,781.5199058999999,781.5199058999999,781.5199058999999,781.5199058999999,781.5199058999999,781.5199058999999,781.5199058999999,None,None,None,,,,,,,,,,,778.4384316000001,778.4384316000001,None,,779.4956076999999,779.4956076999999,781.5199058999999,None,778.4384316000001,778.4384316000001,,,18,001,2024-07-01_13h34.42.743,robot_nback_sign,2022.2.5,59.913066141027485,
M,False,2,letter,1,False,False,robot_stimuli\\filler.mp4,18,,,,,,,,,0,112,112,112,,,,,,,,,,,,,781.5199058999999,782.5770399,,,,,,,784.8094008999999,784.8094008999999,784.8094008999999,784.8094008999999,784.8094008999999,784.8094008999999,784.8094008999999,784.8094008999999,None,None,None,,,,,,,,,,,781.5199058999999,781.5199058999999,None,,782.5770399,782.5770399,784.8094008999999,n,781.5199058999999,781.5199058999999,1.3489132000000268,,18,001,2024-07-01_13h34.42.743,robot_nback_sign,2022.2.5,59.913066141027485,
H,False,2,letter,1,False,False,robot_stimuli\\filler.mp4,18,,,,,,,,,0,113,113,113,,,,,,,,,,,,,784.8094008999999,,,,,,,,787.9099134,787.9099134,787.9099134,787.9099134,787.9099134,787.9099134,787.9099134,787.9099134,None,None,None,,,,,,,,,,,784.8094008999999,784.8094008999999,None,,785.8787411999999,785.8787411999999,787.9099134,n,784.8094008999999,784.8094008999999,1.991708200000005,,18,001,2024-07-01_13h34.42.743,robot_nback_sign,2022.2.5,59.913066141027485,
T,False,2,letter,1,False,False,robot_stimuli\\filler.mp4,18,,,,,,,,,0,114,114,114,,,,,,,,,,,,,787.9099134,,,,,,,,791.0031991000001,791.0031991000001,791.0031991000001,791.0031991000001,791.0031991000001,791.0031991000001,791.0031991000001,791.0031991000001,None,None,None,,,,,,,,,,,787.9099134,787.9099134,None,,788.9775921,788.9775921,791.0031991000001,n,787.9099134,787.9099134,1.781071700000041,,18,001,2024-07-01_13h34.42.743,robot_nback_sign,2022.2.5,59.913066141027485,
T,False,2,letter,1,False,False,robot_stimuli\\filler.mp4,18,,,,,,,,,0,115,115,115,,,,,,,,,,,,,791.0031991000001,792.0598631999999,,,,,,,794.2937175,794.2937175,794.2937175,794.2937175,794.2937175,794.2937175,794.2937175,794.2937175,None,None,None,,,,,,,,,,,791.0031991000001,791.0031991000001,None,,792.0598631999999,792.0598631999999,794.2937175,None,791.0031991000001,791.0031991000001,,,18,001,2024-07-01_13h34.42.743,robot_nback_sign,2022.2.5,59.913066141027485,
T,True,2,letter,1,False,False,robot_stimuli\\filler.mp4,18,,,,,,,,,0,116,116,116,,,,,,,,,,,,,794.2937175,,,,,,,,797.5854036000001,797.5854036000001,797.5854036000001,797.5854036000001,797.5854036000001,797.5854036000001,797.5854036000001,797.5854036000001,None,None,None,,,,,,,,,,,794.2937175,794.2937175,None,,795.3597617999999,795.3597617999999,797.5854036000001,c,794.2937175,794.2937175,1.83096919999997,,18,001,2024-07-01_13h34.42.743,robot_nback_sign,2022.2.5,59.913066141027485,
Z,False,2,letter,1,False,False,robot_stimuli\\filler.mp4,18,,,,,,,,,0,117,117,117,,,,,,,,,,,,,797.5854036000001,798.6458382000001,,,,,,,800.6695009,800.6695009,800.6695009,800.6695009,800.6695009,800.6695009,800.6695009,800.6695009,None,None,None,,,,,,,,,,,797.5854036000001,797.5854036000001,None,,798.6458382000001,798.6458382000001,800.6695009,None,797.5854036000001,797.5854036000001,,,18,001,2024-07-01_13h34.42.743,robot_nback_sign,2022.2.5,59.913066141027485,
R,False,2,letter,1,False,False,robot_stimuli\\filler.mp4,18,,,,,,,,,0,118,118,118,,,,,,,,,,,,,800.6695009,801.7280928,,,,,,,803.7555070999999,803.7555070999999,803.7555070999999,803.7555070999999,803.7555070999999,803.7555070999999,803.7555070999999,803.7555070999999,None,None,None,,,,,,,,,,,800.6695009,800.6695009,None,,801.7280928,801.7280928,803.7555070999999,n,800.6695009,800.6695009,1.622322200000042,,18,001,2024-07-01_13h34.42.743,robot_nback_sign,2022.2.5,59.913066141027485,
C,False,2,letter,1,False,False,robot_stimuli\\filler.mp4,18,,,,,,,,,0,119,119,119,,,,,,,,,,,,,803.7555070999999,804.8104966000001,,,,,,,806.8408942000001,806.8408942000001,806.8408942000001,806.8408942000001,806.8408942000001,806.8408942000001,806.8408942000001,806.8408942000001,None,None,None,,,,,,,,,,,803.7555070999999,803.7555070999999,None,,804.8104966000001,804.8104966000001,806.8408942000001,n,803.7555070999999,803.7555070999999,1.9404619000001162,,18,001,2024-07-01_13h34.42.743,robot_nback_sign,2022.2.5,59.913066141027485,
V,False,2,letter,1,False,False,robot_stimuli\\filler.mp4,18,,,,,,,,,0,120,120,120,,,,,,,,,,,,,806.8408942000001,807.8952750000001,,,,,,,809.9206105999999,809.9206105999999,809.9206105999999,809.9206105999999,809.9206105999999,809.9206105999999,809.9206105999999,809.9206105999999,None,None,None,,,,,,,,,,,806.8408942000001,806.8408942000001,None,,807.8952750000001,807.8952750000001,809.9206105999999,None,806.8408942000001,806.8408942000001,,,18,001,2024-07-01_13h34.42.743,robot_nback_sign,2022.2.5,59.913066141027485,
B,False,2,letter,1,False,False,robot_stimuli\\filler.mp4,18,,,,,,,,,0,121,121,121,,,,,,,,,,,,,809.9206105999999,810.9774708,,,,,,,813.0126697000001,813.0126697000001,813.0126697000001,813.0126697000001,813.0126697000001,813.0126697000001,813.0126697000001,813.0126697000001,None,None,None,,,,,,,,,,,809.9206105999999,809.9206105999999,None,,810.9774708,810.9774708,813.0126697000001,None,809.9206105999999,809.9206105999999,,,18,001,2024-07-01_13h34.42.743,robot_nback_sign,2022.2.5,59.913066141027485,
Z,False,2,letter,1,False,False,robot_stimuli\\filler.mp4,18,,,,,,,,,0,122,122,122,,,,,,,,,,,,,813.0126697000001,814.0775246000001,,,,,,,816.1130370999999,816.1130370999999,816.1130370999999,816.1130370999999,816.1130370999999,816.1130370999999,816.1130370999999,816.1130370999999,None,None,None,,,,,,,,,,,813.0126697000001,813.0126697000001,None,,814.0775246000001,814.0775246000001,816.1130370999999,None,813.0126697000001,813.0126697000001,,,18,001,2024-07-01_13h34.42.743,robot_nback_sign,2022.2.5,59.913066141027485,
M,False,2,letter,1,False,False,robot_stimuli\\filler.mp4,18,,,,,,,,,0,123,123,123,,,,,,,,,,,,,816.1130370999999,817.1858715000001,,,,,,,819.2167873000001,819.2167873000001,819.2167873000001,819.2167873000001,819.2167873000001,819.2167873000001,819.2167873000001,819.2167873000001,None,None,None,,,,,,,,,,,816.1130370999999,816.1130370999999,None,,817.1858715000001,817.1858715000001,819.2167873000001,n,816.1130370999999,816.1130370999999,1.8124209000000633,,18,001,2024-07-01_13h34.42.743,robot_nback_sign,2022.2.5,59.913066141027485,
W,False,2,letter,1,False,False,robot_stimuli\\filler.mp4,18,,,,,,,,,0,124,124,124,,,,,,,,,,,,,819.2167873000001,820.2932768000001,,,,,,,822.5276148,822.5276148,822.5276148,822.5276148,822.5276148,822.5276148,822.5276148,822.5276148,None,None,None,,,,,,,,,,,819.2167873000001,819.2167873000001,None,,820.2932768000001,820.2932768000001,822.5276148,n,819.2167873000001,819.2167873000001,1.5303250999999705,,18,001,2024-07-01_13h34.42.743,robot_nback_sign,2022.2.5,59.913066141027485,
P,False,2,letter,1,False,False,robot_stimuli\\filler.mp4,18,,,,,,,,,0,125,125,125,,,,,,,,,,,,,822.5276148,823.6042539,,,,,,,825.6312026999999,825.6312026999999,825.6312026999999,825.6312026999999,825.6312026999999,825.6312026999999,825.6312026999999,825.6312026999999,None,None,None,,,,,,,,,,,822.5276148,822.5276148,None,,823.6042539,823.6042539,825.6312026999999,n,822.5276148,822.5276148,1.2899742000000174,,18,001,2024-07-01_13h34.42.743,robot_nback_sign,2022.2.5,59.913066141027485,
N,False,2,letter,1,False,False,robot_stimuli\\filler.mp4,18,,,,,,,,,0,126,126,126,,,,,,,,,,,,,825.6312026999999,826.6939328999999,,,,,,,828.9194256999999,828.9194256999999,828.9194256999999,828.9194256999999,828.9194256999999,828.9194256999999,828.9194256999999,828.9194256999999,None,None,None,,,,,,,,,,,825.6312026999999,825.6312026999999,None,,826.6939328999999,826.6939328999999,828.9194256999999,None,825.6312026999999,825.6312026999999,,,18,001,2024-07-01_13h34.42.743,robot_nback_sign,2022.2.5,59.913066141027485,
H,False,2,letter,1,False,False,robot_stimuli\\filler.mp4,18,,,,,,,,,0,127,127,127,,,,,,,,,,,,,828.9194256999999,829.9787179,,,,,,,832.0047380999999,832.0047380999999,832.0047380999999,832.0047380999999,832.0047380999999,832.0047380999999,832.0047380999999,832.0047380999999,None,None,None,,,,,,,,,,,828.9194256999999,828.9194256999999,None,,829.9787179,829.9787179,832.0047380999999,None,828.9194256999999,828.9194256999999,,,18,001,2024-07-01_13h34.42.743,robot_nback_sign,2022.2.5,59.913066141027485,
M,False,2,letter,1,False,False,robot_stimuli\\filler.mp4,18,,,,,,,,,0,128,128,128,,,,,,,,,,,,,832.0047380999999,833.0610445,,,,,,,835.0978932999999,835.0978932999999,835.0978932999999,835.0978932999999,835.0978932999999,835.0978932999999,835.0978932999999,835.0978932999999,None,None,None,,,,,,,,,,,832.0047380999999,832.0047380999999,None,,833.0610445,833.0610445,835.0978932999999,None,832.0047380999999,832.0047380999999,,,18,001,2024-07-01_13h34.42.743,robot_nback_sign,2022.2.5,59.913066141027485,
W,False,2,letter,1,False,False,robot_stimuli\\filler.mp4,18,,,,,,,,,0,129,129,129,,,,,,,,,,,,,835.0978932999999,836.1625145999999,,,,,,,838.1901121999999,838.1901121999999,838.1901121999999,838.1901121999999,838.1901121999999,838.1901121999999,838.1901121999999,838.1901121999999,None,None,None,,,,,,,,,,,835.0978932999999,835.0978932999999,None,,836.1625145999999,836.1625145999999,838.1901121999999,None,835.0978932999999,835.0978932999999,,,18,001,2024-07-01_13h34.42.743,robot_nback_sign,2022.2.5,59.913066141027485,
M,True,2,letter,1,False,False,robot_stimuli\\filler.mp4,18,,,,,,,,,0,130,130,130,,,,,,,,,,,,,838.1901121999999,839.2437534999999,,,,,,,841.4700498,841.4700498,841.4700498,841.4700498,841.4700498,841.4700498,841.4700498,841.4700498,None,None,None,,,,,,,,,,,838.1901121999999,838.1901121999999,None,,839.2437534999999,839.2437534999999,841.4700498,c,838.1901121999999,838.1901121999999,1.4667208000000187,,18,001,2024-07-01_13h34.42.743,robot_nback_sign,2022.2.5,59.913066141027485,
J,False,2,letter,1,False,False,robot_stimuli\\filler.mp4,18,,,,,,,,,0,131,131,131,,,,,,,,,,,,,841.4700498,842.5280720999999,,,,,,,844.5593274999999,844.5593274999999,844.5593274999999,844.5593274999999,844.5593274999999,844.5593274999999,844.5593274999999,844.5593274999999,None,None,None,,,,,,,,,,,841.4700498,841.4700498,None,,842.5280720999999,842.5280720999999,844.5593274999999,None,841.4700498,841.4700498,,,18,001,2024-07-01_13h34.42.743,robot_nback_sign,2022.2.5,59.913066141027485,
D,False,2,letter,1,False,False,robot_stimuli\\filler.mp4,18,,,,,,,,,0,132,132,132,,,,,,,,,,,,,844.5593274999999,,,,,,,,847.8525668,847.8525668,847.8525668,847.8525668,847.8525668,847.8525668,847.8525668,847.8525668,None,None,None,,,,,,,,,,,844.5593274999999,844.5593274999999,None,,845.6268686000001,845.6268686000001,847.8525668,n,844.5593274999999,844.5593274999999,1.8037259999999264,,18,001,2024-07-01_13h34.42.743,robot_nback_sign,2022.2.5,59.913066141027485,
X,False,2,letter,1,False,False,robot_stimuli\\filler.mp4,18,,,,,,,,,0,133,133,133,,,,,,,,,,,,,847.8525668,848.9114345,,,,,,,850.9410694000001,850.9410694000001,850.9410694000001,850.9410694000001,850.9410694000001,850.9410694000001,850.9410694000001,850.9410694000001,None,None,None,,,,,,,,,,,847.8525668,847.8525668,None,,848.9114345,848.9114345,850.9410694000001,n,847.8525668,847.8525668,1.486881100000062,,18,001,2024-07-01_13h34.42.743,robot_nback_sign,2022.2.5,59.913066141027485,
C,False,2,letter,1,False,False,robot_stimuli\\filler.mp4,18,,,,,,,,,0,134,134,134,,,,,,,,,,,,,850.9410694000001,851.9937674,,,,,,,854.0273764000001,854.0273764000001,854.0273764000001,854.0273764000001,854.0273764000001,854.0273764000001,854.0273764000001,854.0273764000001,None,None,None,,,,,,,,,,,850.9410694000001,850.9410694000001,None,,851.9937674,851.9937674,854.0273764000001,n,850.9410694000001,850.9410694000001,1.1411953999999582,,18,001,2024-07-01_13h34.42.743,robot_nback_sign,2022.2.5,59.913066141027485,
P,False,2,letter,1,False,False,robot_stimuli\\filler.mp4,18,,,,,,,,,0,135,135,135,,,,,,,,,,,,,854.0273764000001,855.0939483,,,,,,,857.1200759000001,857.1200759000001,857.1200759000001,857.1200759000001,857.1200759000001,857.1200759000001,857.1200759000001,857.1200759000001,None,None,None,,,,,,,,,,,854.0273764000001,854.0273764000001,None,,855.0939483,855.0939483,857.1200759000001,n,854.0273764000001,854.0273764000001,1.8725777999999877,,18,001,2024-07-01_13h34.42.743,robot_nback_sign,2022.2.5,59.913066141027485,
D,False,2,letter,1,False,False,robot_stimuli\\filler.mp4,18,,,,,,,,,0,136,136,136,,,,,,,,,,,,,857.1200759000001,858.1770085,,,,,,,860.4092234,860.4092234,860.4092234,860.4092234,860.4092234,860.4092234,860.4092234,860.4092234,None,None,None,,,,,,,,,,,857.1200759000001,857.1200759000001,None,,858.1770085,858.1770085,860.4092234,n,857.1200759000001,857.1200759000001,1.245188300000052,,18,001,2024-07-01_13h34.42.743,robot_nback_sign,2022.2.5,59.913066141027485,
R,False,2,letter,1,False,False,robot_stimuli\\filler.mp4,18,,,,,,,,,0,137,137,137,,,,,,,,,,,,,860.4092234,,,,,,,,863.5145445,863.5145445,863.5145445,863.5145445,863.5145445,863.5145445,863.5145445,863.5145445,None,None,None,,,,,,,,,,,860.4092234,860.4092234,None,,861.4776915,861.4776915,863.5145445,n,860.4092234,860.4092234,1.5607315999999969,,18,001,2024-07-01_13h34.42.743,robot_nback_sign,2022.2.5,59.913066141027485,
W,False,2,letter,1,False,False,robot_stimuli\\filler.mp4,18,,,,,,,,,0,138,138,138,,,,,,,,,,,,,863.5145445,864.5781993999999,,,,,,,866.6076876,866.6076876,866.6076876,866.6076876,866.6076876,866.6076876,866.6076876,866.6076876,None,None,None,,,,,,,,,,,863.5145445,863.5145445,None,,864.5781993999999,864.5781993999999,866.6076876,n,863.5145445,863.5145445,1.3963249000000246,,18,001,2024-07-01_13h34.42.743,robot_nback_sign,2022.2.5,59.913066141027485,
R,True,2,letter,1,False,False,robot_stimuli\\filler.mp4,18,,,,,,,,,0,139,139,139,,,,,,,,,,,,,866.6076876,867.6608824,,,,,,,869.6871592,869.6871592,869.6871592,869.6871592,869.6871592,869.6871592,869.6871592,869.6871592,None,None,None,,,,,,,,,,,866.6076876,866.6076876,None,,867.6608824,867.6608824,869.6871592,c,866.6076876,866.6076876,0.9859159000000659,,18,001,2024-07-01_13h34.42.743,robot_nback_sign,2022.2.5,59.913066141027485,
W,True,2,letter,1,False,False,robot_stimuli\\filler.mp4,18,,,,,,,,,0,140,140,140,,,,,,,,,,,,,869.6871592,870.7433182,,,,,,,872.7756038,872.7756038,872.7756038,872.7756038,872.7756038,872.7756038,872.7756038,872.7756038,None,None,None,,,,,,,,,,,869.6871592,869.6871592,None,,870.7433182,870.7433182,872.7756038,c,869.6871592,869.6871592,1.583484500000111,,18,001,2024-07-01_13h34.42.743,robot_nback_sign,2022.2.5,59.913066141027485,
X,False,2,letter,1,False,False,robot_stimuli\\filler.mp4,18,,,,,,,,,0,141,141,141,,,,,,,,,,,,,872.7756038,,,,,,,,875.8753262,875.8753262,875.8753262,875.8753262,875.8753262,875.8753262,875.8753262,875.8753262,None,None,None,,,,,,,,,,,872.7756038,872.7756038,None,,873.846098,873.846098,875.8753262,None,872.7756038,872.7756038,,,18,001,2024-07-01_13h34.42.743,robot_nback_sign,2022.2.5,59.913066141027485,
Q,False,2,letter,1,False,False,robot_stimuli\\filler.mp4,18,,,,,,,,,0,142,142,142,,,,,,,,,,,,,875.8753262,876.9344318999999,,,,,,,878.9550311999999,878.9550311999999,878.9550311999999,878.9550311999999,878.9550311999999,878.9550311999999,878.9550311999999,878.9550311999999,None,None,None,,,,,,,,,,,875.8753262,875.8753262,None,,876.9344318999999,876.9344318999999,878.9550311999999,n,875.8753262,875.8753262,1.849016400000039,,18,001,2024-07-01_13h34.42.743,robot_nback_sign,2022.2.5,59.913066141027485,
X,True,2,letter,1,False,False,robot_stimuli\\filler.mp4,18,,,,,,,,,0,143,143,143,,,,,,,,,,,,,878.9550311999999,880.0119881999999,,,,,,,882.0470258,882.0470258,882.0470258,882.0470258,882.0470258,882.0470258,882.0470258,882.0470258,None,None,None,,,,,,,,,,,878.9550311999999,878.9550311999999,None,,880.0119881999999,880.0119881999999,882.0470258,c,878.9550311999999,878.9550311999999,1.3544356000000448,,18,001,2024-07-01_13h34.42.743,robot_nback_sign,2022.2.5,59.913066141027485,
N,False,2,letter,1,False,False,robot_stimuli\\filler.mp4,18,,,,,,,,,0,144,144,144,,,,,,,,,,,,,882.0470258,883.1121651000001,,,,,,,885.1388316,885.1388316,885.1388316,885.1388316,885.1388316,885.1388316,885.1388316,885.1388316,None,None,None,,,,,,,,,,,882.0470258,882.0470258,None,,883.1121651000001,883.1121651000001,885.1388316,n,882.0470258,882.0470258,0.8137022999999886,,18,001,2024-07-01_13h34.42.743,robot_nback_sign,2022.2.5,59.913066141027485,
G,False,2,letter,1,False,False,robot_stimuli\\filler.mp4,18,,,,,,,,,0,145,145,145,,,,,,,,,,,,,885.1388316,886.198324,,,,,,,888.2203446000001,888.2203446000001,888.2203446000001,888.2203446000001,888.2203446000001,888.2203446000001,888.2203446000001,888.2203446000001,None,None,None,,,,,,,,,,,885.1388316,885.1388316,None,,886.198324,886.198324,888.2203446000001,n,885.1388316,885.1388316,0.776482200000089,,18,001,2024-07-01_13h34.42.743,robot_nback_sign,2022.2.5,59.913066141027485,
D,False,2,letter,1,False,False,robot_stimuli\\filler.mp4,18,,,,,,,,,0,146,146,146,,,,,,,,,,,,,888.2203446000001,889.2782336,,,,,,,891.3067623,891.3067623,891.3067623,891.3067623,891.3067623,891.3067623,891.3067623,891.3067623,None,None,None,,,,,,,,,,,888.2203446000001,888.2203446000001,None,,889.2782336,889.2782336,891.3067623,n,888.2203446000001,888.2203446000001,1.8084330000000932,,18,001,2024-07-01_13h34.42.743,robot_nback_sign,2022.2.5,59.913066141027485,
G,True,2,letter,1,False,False,robot_stimuli\\filler.mp4,18,,,,,,,,,0,147,147,147,,,,,,,,,,,,,891.3067623,892.3674388,,,,,,,894.4021428000001,894.4021428000001,894.4021428000001,894.4021428000001,894.4021428000001,894.4021428000001,894.4021428000001,894.4021428000001,None,None,None,,,,,,,,,,,891.3067623,891.3067623,None,,892.3674388,892.3674388,894.4021428000001,c,891.3067623,891.3067623,1.1190314999999487,,18,001,2024-07-01_13h34.42.743,robot_nback_sign,2022.2.5,59.913066141027485,
J,False,2,letter,1,False,False,robot_stimuli\\filler.mp4,18,,,,,,,,,0,148,148,148,,,,,,,,,,,,,894.4021428000001,895.4605996999999,,,,,,,897.6862349999999,897.6862349999999,897.6862349999999,897.6862349999999,897.6862349999999,897.6862349999999,897.6862349999999,897.6862349999999,None,None,None,,,,,,,,,,,894.4021428000001,894.4021428000001,None,,895.4605996999999,895.4605996999999,897.6862349999999,n,894.4021428000001,894.4021428000001,1.9859989999999357,,18,001,2024-07-01_13h34.42.743,robot_nback_sign,2022.2.5,59.913066141027485,
M,False,2,letter,1,False,True,robot_stimuli\\filler.mp4,18,,,,,,,,,0,149,149,149,,,,,,,,,,,,,897.6862349999999,898.7448264,,,,,,,900.800794,907.6433155,900.800794,907.6433155,900.800794,907.6433155,900.800794,907.6433155,64.25925925925927,4.0223698999998305,space,,,,6.7815749000000665,,,,,,,897.6862349999999,897.6862349999999,None,,898.7448264,898.7448264,900.800794,n,897.6862349999999,897.6862349999999,1.3894991999999888,,18,001,2024-07-01_13h34.42.743,robot_nback_sign,2022.2.5,59.913066141027485,
L_Head_Z_Back,False,2,robot,2,True,False,robot_stimuli\L_Head_Z_Back.mp4,18,,,,,,,,,0,150,150,150,,,,,,,,,,,,,945.8245288999999,946.9091615999998,,,,,,,950.5606508999999,950.5606508999999,950.5606508999999,950.5606508999999,950.5606508999999,950.5606508999999,950.5606508999999,950.5606508999999,None,None,None,,,,,,,,,,,907.6433155,907.6433155,space,38.163323100000014,,946.9091615999998,,None,,,,946.9091615999998,18,001,2024-07-01_13h34.42.743,robot_nback_sign,2022.2.5,59.913066141027485,
R_Base_Z_For,False,2,robot,2,False,False,robot_stimuli\R_Base_Z_For.mp4,18,,,,,,,,,0,151,151,151,,,,,,,,,,,,,950.5606508999999,,,,,,,,955.3080399,955.3080399,955.3080399,955.3080399,955.3080399,955.3080399,955.3080399,955.3080399,None,None,None,,,,,,,,,,,950.5606508999999,950.5606508999999,None,,,951.6684258,,n,950.5606508999999,950.5606508999999,0.09854690000014443,951.6684258,18,001,2024-07-01_13h34.42.743,robot_nback_sign,2022.2.5,59.913066141027485,
L_Head_Z_Back,True,2,robot,2,False,False,robot_stimuli\L_Head_Z_Back.mp4,18,,,,,,,,,0,152,152,152,,,,,,,,,,,,,955.3080399,956.3988353999998,,,,,,,960.0378558,960.0378558,960.0378558,960.0378558,960.0378558,960.0378558,960.0378558,960.0378558,None,None,None,,,,,,,,,,,955.3080399,955.3080399,None,,,956.3988353999998,,c,955.3080399,955.3080399,3.2875602999999387,956.3988353999998,18,001,2024-07-01_13h34.42.743,robot_nback_sign,2022.2.5,59.913066141027485,
R_Base_Z_For,True,2,robot,2,False,False,robot_stimuli\R_Base_Z_For.mp4,18,,,,,,,,,0,153,153,153,,,,,,,,,,,,,960.0378558,961.1232691999999,,,,,,,964.773074,964.773074,964.773074,964.773074,964.773074,964.773074,964.773074,964.773074,None,None,None,,,,,,,,,,,960.0378558,960.0378558,None,,,961.1232691999999,,c,960.0378558,960.0378558,2.2043326999998385,961.1232691999999,18,001,2024-07-01_13h34.42.743,robot_nback_sign,2022.2.5,59.913066141027485,
L_Head_Y_For,False,2,robot,2,False,False,robot_stimuli\L_Head_Y_For.mp4,18,,,,,,,,,0,154,154,154,,,,,,,,,,,,,964.773074,965.8547738,,,,,,,969.5047018999999,969.5047018999999,969.5047018999999,969.5047018999999,969.5047018999999,969.5047018999999,969.5047018999999,969.5047018999999,None,None,None,,,,,,,,,,,964.773074,964.773074,None,,,965.8547738,,c,964.773074,964.773074,2.968786800000032,965.8547738,18,001,2024-07-01_13h34.42.743,robot_nback_sign,2022.2.5,59.913066141027485,
L_Head_Z_Back,False,2,robot,2,False,False,robot_stimuli\L_Head_Z_Back.mp4,18,,,,,,,,,0,155,155,155,,,,,,,,,,,,,969.5047018999999,970.5842347999999,,,,,,,974.2246324999999,974.2246324999999,974.2246324999999,974.2246324999999,974.2246324999999,974.2246324999999,974.2246324999999,974.2246324999999,None,None,None,,,,,,,,,,,969.5047018999999,969.5047018999999,None,,,970.5842347999999,,n,969.5047018999999,969.5047018999999,3.2472208000000933,970.5842347999999,18,001,2024-07-01_13h34.42.743,robot_nback_sign,2022.2.5,59.913066141027485,
R_Head_X_For,False,2,robot,2,False,False,robot_stimuli\R_Head_X_For.mp4,18,,,,,,,,,0,156,156,156,,,,,,,,,,,,,974.2246324999999,975.3024677999999,,,,,,,978.9501089999999,978.9501089999999,978.9501089999999,978.9501089999999,978.9501089999999,978.9501089999999,978.9501089999999,978.9501089999999,None,None,None,,,,,,,,,,,974.2246324999999,974.2246324999999,None,,,975.3024677999999,,n,974.2246324999999,974.2246324999999,3.3834173000001897,975.3024677999999,18,001,2024-07-01_13h34.42.743,robot_nback_sign,2022.2.5,59.913066141027485,
L_Arm_Y_For,False,2,robot,2,False,False,robot_stimuli\L_Arm_Y_For.mp4,18,,,,,,,,,0,157,157,157,,,,,,,,,,,,,978.9501089999999,980.0398705,,,,,,,983.6817647,983.6817647,983.6817647,983.6817647,983.6817647,983.6817647,983.6817647,983.6817647,None,None,None,,,,,,,,,,,978.9501089999999,978.9501089999999,None,,,980.0398705,,None,978.9501089999999,978.9501089999999,,980.0398705,18,001,2024-07-01_13h34.42.743,robot_nback_sign,2022.2.5,59.913066141027485,
R_Arm_Y_Back,False,2,robot,2,False,False,robot_stimuli\R_Arm_Y_Back.mp4,18,,,,,,,,,0,158,158,158,,,,,,,,,,,,,983.6817647,984.7730448,,,,,,,988.4207695999999,988.4207695999999,988.4207695999999,988.4207695999999,988.4207695999999,988.4207695999999,988.4207695999999,988.4207695999999,None,None,None,,,,,,,,,,,983.6817647,983.6817647,None,,,984.7730448,,n,983.6817647,983.6817647,2.969537099999968,984.7730448,18,001,2024-07-01_13h34.42.743,robot_nback_sign,2022.2.5,59.913066141027485,
R_Base_Z_Back,False,2,robot,2,False,False,robot_stimuli\R_Base_Z_Back.mp4,18,,,,,,,,,0,159,159,159,,,,,,,,,,,,,988.4207695999999,989.5059816999999,,,,,,,993.0549165,993.0549165,993.0549165,993.0549165,993.0549165,993.0549165,993.0549165,993.0549165,None,None,None,,,,,,,,,,,988.4207695999999,988.4207695999999,None,,,989.5059816999999,,n,988.4207695999999,988.4207695999999,2.324695300000201,989.5059816999999,18,001,2024-07-01_13h34.42.743,robot_nback_sign,2022.2.5,59.913066141027485,
R_Base_Z_For,False,2,robot,2,False,False,robot_stimuli\R_Base_Z_For.mp4,18,,,,,,,,,0,160,160,160,,,,,,,,,,,,,993.0549165,994.1409122,,,,,,,997.7913954999999,997.7913954999999,997.7913954999999,997.7913954999999,997.7913954999999,997.7913954999999,997.7913954999999,997.7913954999999,None,None,None,,,,,,,,,,,993.0549165,993.0549165,None,,,994.1409122,,n,993.0549165,993.0549165,2.2901599999999576,994.1409122,18,001,2024-07-01_13h34.42.743,robot_nback_sign,2022.2.5,59.913066141027485,
L_Arm_Y_Back,False,2,robot,2,False,False,robot_stimuli\L_Arm_Y_Back.mp4,18,,,,,,,,,0,161,161,161,,,,,,,,,,,,,997.7913954999999,998.8724144999999,,,,,,,1002.5225069999999,1002.5225069999999,1002.5225069999999,1002.5225069999999,1002.5225069999999,1002.5225069999999,1002.5225069999999,1002.5225069999999,None,None,None,,,,,,,,,,,997.7913954999999,997.7913954999999,None,,,998.8724144999999,,n,997.7913954999999,997.7913954999999,2.717507199999943,998.8724144999999,18,001,2024-07-01_13h34.42.743,robot_nback_sign,2022.2.5,59.913066141027485,
L_Arm_Z_Back,False,2,robot,2,False,False,robot_stimuli\L_Arm_Z_Back.mp4,18,,,,,,,,,0,162,162,162,,,,,,,,,,,,,1002.5225069999999,1003.6074079,,,,,,,1007.2557989,1007.2557989,1007.2557989,1007.2557989,1007.2557989,1007.2557989,1007.2557989,1007.2557989,None,None,None,,,,,,,,,,,1002.5225069999999,1002.5225069999999,None,,,1003.6074079,,None,1002.5225069999999,1002.5225069999999,,1003.6074079,18,001,2024-07-01_13h34.42.743,robot_nback_sign,2022.2.5,59.913066141027485,
L_Head_Z_Back,False,2,robot,2,False,False,robot_stimuli\L_Head_Z_Back.mp4,18,,,,,,,,,0,163,163,163,,,,,,,,,,,,,1007.2557989,1008.3310534999998,,,,,,,1011.9716867,1011.9716867,1011.9716867,1011.9716867,1011.9716867,1011.9716867,1011.9716867,1011.9716867,None,None,None,,,,,,,,,,,1007.2557989,1007.2557989,None,,,1008.3310534999998,,n,1007.2557989,1007.2557989,3.059449000000029,1008.3310534999998,18,001,2024-07-01_13h34.42.743,robot_nback_sign,2022.2.5,59.913066141027485,
R_Torso_X_For,False,2,robot,2,False,False,robot_stimuli\R_Torso_X_For.mp4,18,,,,,,,,,0,164,164,164,,,,,,,,,,,,,1011.9716867,1013.0559997999999,,,,,,,1016.7056398,1016.7056398,1016.7056398,1016.7056398,1016.7056398,1016.7056398,1016.7056398,1016.7056398,None,None,None,,,,,,,,,,,1011.9716867,1011.9716867,None,,,1013.0559997999999,,n,1011.9716867,1011.9716867,2.6224857999999927,1013.0559997999999,18,001,2024-07-01_13h34.42.743,robot_nback_sign,2022.2.5,59.913066141027485,
L_Head_Z_Back,True,2,robot,2,False,False,robot_stimuli\L_Head_Z_Back.mp4,18,,,,,,,,,0,165,165,165,,,,,,,,,,,,,1016.7056398,1017.7891281999998,,,,,,,1021.4391463,1021.4391463,1021.4391463,1021.4391463,1021.4391463,1021.4391463,1021.4391463,1021.4391463,None,None,None,,,,,,,,,,,1016.7056398,1016.7056398,None,,,1017.7891281999998,,c,1016.7056398,1016.7056398,2.226456799999994,1017.7891281999998,18,001,2024-07-01_13h34.42.743,robot_nback_sign,2022.2.5,59.913066141027485,
