sequence,odd_ones,parameter,choices,target,target_idx,condition,stimuli,block,is_block_beginning,is_block_ending,sequence_fnames,target_fname,subject,retraining.thisRepN,retraining.thisTrialN,retraining.thisN,retraining.thisIndex,training.thisRepN,training.thisTrialN,training.thisN,training.thisIndex,training_sequence_loop.thisRepN,training_sequence_loop.thisTrialN,training_sequence_loop.thisN,training_sequence_loop.thisIndex,trials.thisRepN,trials.thisTrialN,trials.thisN,trials.thisIndex,sequence_loop.thisRepN,sequence_loop.thisTrialN,sequence_loop.thisN,sequence_loop.thisIndex,langage_text.started,langage_key.started,langage_key.keys,langage_key.rt,intro_text.started,intro_key.started,intro_key.keys,intro_key.rt,training_intro_text.started,training_intro_key.started,training_intro_key.keys,training_intro_key.rt,polygon.started,cue_before_text.started,training_presentation_letter.started,training_presentation_letter.stopped,recall_key.started,recall_question.started,recall_answer.started,recall_key.keys,recall_key.rt,RSME_labels.started,RSME_labels.stopped,RSME_ticks.started,RSME_ticks.stopped,RSME_text.started,RSME_text.stopped,RSME_key.started,RSME_key.stopped,RSME_ticks.response,RSME_ticks.rt,RSME_key.keys,training_intro_text.stopped,training_intro_key.stopped,polygon.stopped,cue_before_text.stopped,RSME_key.rt,training_presentation_movie.started,experiment_beginning_text.started,experiment_beginning_keys.started,experiment_beginning_key.started,experiment_beginning_key.keys,experiment_beginning_key.rt,block_intro_text.started,block_intro_key.started,block_intro_key.keys,block_intro_key.rt,presentation_movie.started,block_intro_text.stopped,block_intro_key.stopped,presentation_letter.started,presentation_letter.stopped,participant,session,date,expName,psychopyVersion,frameRate,
,,,,,,,,,,,,,,,,,,,,,,,,,,,,,,,,,,12.391228400170803,12.391228400170803,f,15.010866399854422,,,,,,,,,,,,,,,,,,,,,,,,,,,,,,,,,,,,,,,,,,,,,,,,,15,001,2024-09-09_15h54.46.895,robot_cogshifting_sign,2022.2.5,59.87418051244051,
,,,,,,,,,,,,,,,,,,,,,,,,,,,,,,,,,,,,,,27.45348360016942,27.45348360016942,space,23.900461399927735,,,,,,,,,,,,,,,,,,,,,,,,,,,,,,,,,,,,,,,,,,,,,15,001,2024-09-09_15h54.46.895,robot_cogshifting_sign,2022.2.5,59.87418051244051,
"['red_bottom_T_0', 'red_right_Z_45', 'red_right_H_0', 'blue_right_N_0']","{'color': 'blue_right_N_0', 'position': 'red_bottom_T_0', 'orientation': 'red_right_Z_45'}",position,['position'],red_bottom_T_0,0,1,letter,2,True,False,"['robot_stimuli\\\\filler.mp4', 'robot_stimuli\\\\filler.mp4', 'robot_stimuli\\\\filler.mp4', 'robot_stimuli\\\\filler.mp4']",robot_stimuli\\filler.mp4,15,0,0,0,0,0,0,0,0,,,,,,,,,,,,,,,,,,,,,51.417346000205725,51.417346000205725,space,11.24874860001728,62.68951639998704,63.69150640023872,74.16215420002118,76.38308700034395,76.38308700034395,76.38308700034395,76.38308700034395,1,1.1625545998103917,77.60220700036734,77.60220700036734,77.60220700036734,77.60220700036734,77.60220700036734,77.60220700036734,77.60220700036734,77.60220700036734,None,None,None,,,,,,,,,,,,,,,,,,,,,15,001,2024-09-09_15h54.46.895,robot_cogshifting_sign,2022.2.5,59.87418051244051,
"['blue_bottom_Q_45', 'red_bottom_M_45', 'red_bottom_K_0', 'red_right_Z_45']","{'color': 'blue_bottom_Q_45', 'position': 'red_right_Z_45', 'orientation': 'red_bottom_K_0'}",color,['color'],blue_bottom_Q_45,0,1,letter,2,False,False,"['robot_stimuli\\\\filler.mp4', 'robot_stimuli\\\\filler.mp4', 'robot_stimuli\\\\filler.mp4', 'robot_stimuli\\\\filler.mp4']",robot_stimuli\\filler.mp4,15,0,0,0,0,0,1,1,1,,,,,,,,,,,,,,,,,,,,,77.60220700036734,77.60220700036734,None,,77.60220700036734,78.60416990006343,87.1878372002393,89.20837120013312,89.20837120013312,89.20837120013312,89.20837120013312,1,0.9387978999875486,90.17691190028563,90.17691190028563,90.17691190028563,90.17691190028563,90.17691190028563,90.17691190028563,90.17691190028563,90.17691190028563,None,None,None,77.60220700036734,77.60220700036734,78.60416990006343,80.67491410020739,,,,,,,,,,,,,,,,,15,001,2024-09-09_15h54.46.895,robot_cogshifting_sign,2022.2.5,59.87418051244051,
"['red_left_F_0', 'red_top_D_45', 'blue_left_Q_45', 'red_left_P_45']","{'color': 'blue_left_Q_45', 'position': 'red_top_D_45', 'orientation': 'red_left_F_0'}",orientation,['orientation'],red_left_F_0,0,1,letter,2,False,True,"['robot_stimuli\\\\filler.mp4', 'robot_stimuli\\\\filler.mp4', 'robot_stimuli\\\\filler.mp4', 'robot_stimuli\\\\filler.mp4']",robot_stimuli\\filler.mp4,15,0,0,0,0,0,2,2,2,,,,,,,,,,,,,,,,,,,,,90.17691190028563,90.17691190028563,None,,90.17691190028563,91.17891529994085,99.96288509992883,102.18390560010448,102.18390560010448,102.18390560010448,102.18390560010448,1,0.6495310999453068,102.9019622001797,109.88233540020883,102.9019622001797,109.88233540020883,102.9019622001797,109.88233540020883,102.9019622001797,109.88233540020883,37.6984126984127,6.138299600221217,space,90.17691190028563,90.17691190028563,91.17891529994085,93.24963590037078,6.924763899762183,,,,,,,,,,,,,,,,15,001,2024-09-09_15h54.46.895,robot_cogshifting_sign,2022.2.5,59.87418051244051,
"['red_left_L_45', 'red_top_P_0', 'blue_top_P_45', 'red_top_C_45']","{'color': 'blue_top_P_45', 'position': 'red_left_L_45', 'orientation': 'red_top_P_0'}",color,"['color', 'position']",blue_top_P_45,2,2,letter,2,True,False,"['robot_stimuli\\\\filler.mp4', 'robot_stimuli\\\\filler.mp4', 'robot_stimuli\\\\filler.mp4', 'robot_stimuli\\\\filler.mp4']",robot_stimuli\\filler.mp4,15,0,0,0,0,0,3,3,3,,,,,,,,,,,,,,,,,,,,,109.88233540020883,109.88233540020883,space,2.9513714998029172,112.85493190027773,113.85688140010461,122.44043399998918,124.66144260019064,124.66144260019064,124.66144260019064,124.66144260019064,3,2.78803399996832,127.46697220019996,127.46697220019996,127.46697220019996,127.46697220019996,127.46697220019996,127.46697220019996,127.46697220019996,127.46697220019996,None,None,None,,,,,,,,,,,,,,,,,,,,,15,001,2024-09-09_15h54.46.895,robot_cogshifting_sign,2022.2.5,59.87418051244051,
"['blue_right_M_45', 'blue_right_G_0', 'red_right_N_45', 'blue_bottom_G_45']","{'color': 'red_right_N_45', 'position': 'blue_bottom_G_45', 'orientation': 'blue_right_G_0'}",orientation,"['color', 'orientation']",blue_right_G_0,1,2,letter,2,False,False,"['robot_stimuli\\\\filler.mp4', 'robot_stimuli\\\\filler.mp4', 'robot_stimuli\\\\filler.mp4', 'robot_stimuli\\\\filler.mp4']",robot_stimuli\\filler.mp4,15,0,0,0,0,0,4,4,4,,,,,,,,,,,,,,,,,,,,,127.46697220019996,127.46697220019996,None,,127.46697220019996,128.4689480001107,137.03578410018235,139.07316670008004,139.07316670008004,139.07316670008004,139.07316670008004,2,1.8244088999927044,140.92682819999754,140.92682819999754,140.92682819999754,140.92682819999754,140.92682819999754,140.92682819999754,140.92682819999754,140.92682819999754,None,None,None,127.46697220019996,127.46697220019996,128.4689480001107,130.53966729994863,,,,,,,,,,,,,,,,,15,001,2024-09-09_15h54.46.895,robot_cogshifting_sign,2022.2.5,59.87418051244051,
"['blue_left_P_0', 'blue_left_P_45', 'blue_top_C_45', 'red_left_S_45']","{'color': 'red_left_S_45', 'position': 'blue_top_C_45', 'orientation': 'blue_left_P_0'}",position,"['color', 'position']",blue_top_C_45,2,2,letter,2,False,True,"['robot_stimuli\\\\filler.mp4', 'robot_stimuli\\\\filler.mp4', 'robot_stimuli\\\\filler.mp4', 'robot_stimuli\\\\filler.mp4']",robot_stimuli\\filler.mp4,15,0,0,0,0,0,5,5,5,,,,,,,,,,,,,,,,,,,,,140.92682819999754,140.92682819999754,None,,140.92682819999754,141.92875090008602,150.6960591999814,152.91704660002142,152.91704660002142,152.91704660002142,152.91704660002142,1,1.501177600119263,154.47014200035483,159.07922320021316,154.47014200035483,159.07922320021316,154.47014200035483,159.07922320021316,154.47014200035483,159.07922320021316,49.76190476190476,2.9149965001270175,space,140.92682819999754,140.92682819999754,141.92875090008602,143.99951150035486,4.5561166000552475,,,,,,,,,,,,,,,,15,001,2024-09-09_15h54.46.895,robot_cogshifting_sign,2022.2.5,59.87418051244051,
"['blue_top_S_0', 'blue_top_T_45', 'red_top_C_0', 'blue_left_W_0']","{'color': 'red_top_C_0', 'position': 'blue_left_W_0', 'orientation': 'blue_top_T_45'}",color,"['color', 'orientation', 'position']",red_top_C_0,2,3,letter,2,True,False,"['robot_stimuli\\\\filler.mp4', 'robot_stimuli\\\\filler.mp4', 'robot_stimuli\\\\filler.mp4', 'robot_stimuli\\\\filler.mp4']",robot_stimuli\\filler.mp4,15,0,0,0,0,0,6,6,6,,,,,,,,,,,,,,,,,,,,,159.07922320021316,159.07922320021316,space,2.754465099889785,161.85139239998534,162.85327930003405,171.23649429995567,173.44081069994718,173.44081069994718,173.44081069994718,173.44081069994718,3,5.272754099685699,178.7345485999249,178.7345485999249,178.7345485999249,178.7345485999249,178.7345485999249,178.7345485999249,178.7345485999249,178.7345485999249,None,None,None,,,,,,,,,,,,,,,,,,,,,15,001,2024-09-09_15h54.46.895,robot_cogshifting_sign,2022.2.5,59.87418051244051,
"['blue_bottom_X_0', 'red_bottom_L_0', 'blue_left_D_0', 'blue_bottom_D_45']","{'color': 'red_bottom_L_0', 'position': 'blue_left_D_0', 'orientation': 'blue_bottom_D_45'}",position,"['color', 'orientation', 'position']",blue_left_D_0,2,3,letter,2,False,False,"['robot_stimuli\\\\filler.mp4', 'robot_stimuli\\\\filler.mp4', 'robot_stimuli\\\\filler.mp4', 'robot_stimuli\\\\filler.mp4']",robot_stimuli\\filler.mp4,15,0,0,0,0,0,7,7,7,,,,,,,,,,,,,,,,,,,,,178.7345485999249,178.7345485999249,None,,178.7345485999249,179.73648140020669,188.28685729997233,190.32402350008488,190.32402350008488,190.32402350008488,190.32402350008488,3,2.5975779998116195,192.94583890028298,192.94583890028298,192.94583890028298,192.94583890028298,192.94583890028298,192.94583890028298,192.94583890028298,192.94583890028298,None,None,None,178.7345485999249,178.7345485999249,179.73648140020669,181.8073313999921,,,,,,,,,,,,,,,,,15,001,2024-09-09_15h54.46.895,robot_cogshifting_sign,2022.2.5,59.87418051244051,
"['blue_left_S_45', 'red_left_B_45', 'red_right_X_45', 'red_left_T_0']","{'color': 'blue_left_S_45', 'position': 'red_right_X_45', 'orientation': 'red_left_T_0'}",orientation,"['color', 'orientation', 'position']",red_left_T_0,3,3,letter,2,False,True,"['robot_stimuli\\\\filler.mp4', 'robot_stimuli\\\\filler.mp4', 'robot_stimuli\\\\filler.mp4', 'robot_stimuli\\\\filler.mp4']",robot_stimuli\\filler.mp4,15,0,0,0,0,0,8,8,8,,,,,,,,,,,,,,,,,,,,,192.94583890028298,192.94583890028298,None,,192.94583890028298,193.94779970031232,202.6984027000144,204.91941360011697,204.91941360011697,204.91941360011697,204.91941360011697,4,2.5383720002137125,207.50784610025585,210.7809347002767,207.50784610025585,210.7809347002767,207.50784610025585,210.7809347002767,207.50784610025585,210.7809347002767,65.7936507936508,2.2641808995977044,space,192.94583890028298,192.94583890028298,193.94779970031232,196.01855259994045,3.2215815000236034,,,,,,,,,,,,,,,,15,001,2024-09-09_15h54.46.895,robot_cogshifting_sign,2022.2.5,59.87418051244051,
"['R_Arm_Z_Back', 'L_Arm_Z_For', 'L_Base_Z_For', 'L_Arm_X_For']","{'laterality': 'R_Arm_Z_Back', 'localisation': 'L_Base_Z_For', 'movement': 'L_Arm_X_For'}",movement,['movement'],L_Arm_X_For,3,1,robot,1,True,False,"['robot_stimuli\\R_Arm_Z_Back.mp4', 'robot_stimuli\\L_Arm_Z_For.mp4', 'robot_stimuli\\L_Base_Z_For.mp4', 'robot_stimuli\\L_Arm_X_For.mp4']",robot_stimuli\L_Arm_X_For.mp4,15,0,0,0,0,0,9,9,9,,,,,,,,,,,,,,,,,,,,,210.7809347002767,210.7809347002767,space,5.5165756000205874,216.32519830018282,217.32717470033094,,,234.24455340020359,234.24455340020359,234.24455340020359,4,3.5171552998945117,237.78406170010567,237.78406170010567,237.78406170010567,237.78406170010567,237.78406170010567,237.78406170010567,237.78406170010567,237.78406170010567,None,None,None,,,,,,230.60326950019225,,,,,,,,,,,,,,,15,001,2024-09-09_15h54.46.895,robot_cogshifting_sign,2022.2.5,59.87418051244051,
"['L_Torso_Y_Back', 'R_Torso_Y_Back', 'L_Torso_Z_For', 'L_Base_Y_For']","{'laterality': 'R_Torso_Y_Back', 'localisation': 'L_Base_Y_For', 'movement': 'L_Torso_Z_For'}",localisation,['localisation'],L_Base_Y_For,3,1,robot,1,False,False,"['robot_stimuli\\L_Torso_Y_Back.mp4', 'robot_stimuli\\R_Torso_Y_Back.mp4', 'robot_stimuli\\L_Torso_Z_For.mp4', 'robot_stimuli\\L_Base_Y_For.mp4']",robot_stimuli\L_Base_Y_For.mp4,15,0,0,0,0,0,10,10,10,,,,,,,,,,,,,,,,,,,,,237.78406170010567,237.78406170010567,None,,237.78406170010567,238.78609250020236,,,255.45217780023813,255.45217780023813,255.45217780023813,4,11.054116999730468,266.52397230034694,266.52397230034694,266.52397230034694,266.52397230034694,266.52397230034694,266.52397230034694,266.52397230034694,266.52397230034694,None,None,None,237.78406170010567,237.78406170010567,238.78609250020236,240.87348970025778,,251.9119130000472,,,,,,,,,,,,,,,15,001,2024-09-09_15h54.46.895,robot_cogshifting_sign,2022.2.5,59.87418051244051,
"['L_Base_Z_For', 'R_Torso_Z_For', 'L_Torso_Y_Back', 'L_Torso_Z_Back']","{'laterality': 'R_Torso_Z_For', 'localisation': 'L_Base_Z_For', 'movement': 'L_Torso_Y_Back'}",laterality,['laterality'],R_Torso_Z_For,1,1,robot,1,False,True,"['robot_stimuli\\L_Base_Z_For.mp4', 'robot_stimuli\\R_Torso_Z_For.mp4', 'robot_stimuli\\L_Torso_Y_Back.mp4', 'robot_stimuli\\L_Torso_Z_Back.mp4']",robot_stimuli\R_Torso_Z_For.mp4,15,0,0,0,0,0,11,11,11,,,,,,,,,,,,,,,,,,,,,266.52397230034694,266.52397230034694,None,,266.52397230034694,267.5259469002485,,,284.1920622000471,284.1920622000471,284.1920622000471,2,0.8892827001400292,285.14395340019837,288.09977490035817,285.14395340019837,288.09977490035817,285.14395340019837,288.09977490035817,285.14395340019837,288.09977490035817,40.55555555555556,2.4642111998982728,space,266.52397230034694,266.52397230034694,267.5259469002485,269.630135900341,2.905421799980104,280.6852535000071,,,,,,,,,,,,,,,15,001,2024-09-09_15h54.46.895,robot_cogshifting_sign,2022.2.5,59.87418051244051,
"['R_Torso_X_For', 'R_Torso_Z_For', 'R_Head_Z_Back', 'L_Torso_Z_Back']","{'laterality': 'L_Torso_Z_Back', 'localisation': 'R_Head_Z_Back', 'movement': 'R_Torso_X_For'}",laterality,"['laterality', 'movement']",L_Torso_Z_Back,3,2,robot,1,True,False,"['robot_stimuli\\R_Torso_X_For.mp4', 'robot_stimuli\\R_Torso_Z_For.mp4', 'robot_stimuli\\R_Head_Z_Back.mp4', 'robot_stimuli\\L_Torso_Z_Back.mp4']",robot_stimuli\L_Torso_Z_Back.mp4,15,0,0,0,0,0,12,12,12,,,,,,,,,,,,,,,,,,,,,288.09977490035817,288.09977490035817,space,1.125456599984318,289.252036599908,290.2540331003256,,,307.03707429999486,307.03707429999486,307.03707429999486,4,2.1407395000569522,309.20801299996674,309.20801299996674,309.20801299996674,309.20801299996674,309.20801299996674,309.20801299996674,309.20801299996674,309.20801299996674,None,None,None,,,,,,303.51344260014594,,,,,,,,,,,,,,,15,001,2024-09-09_15h54.46.895,robot_cogshifting_sign,2022.2.5,59.87418051244051,
"['R_Arm_Y_For', 'R_Arm_Z_Back', 'L_Arm_Z_For', 'R_Head_Z_For']","{'laterality': 'L_Arm_Z_For', 'localisation': 'R_Head_Z_For', 'movement': 'R_Arm_Y_For'}",localisation,"['laterality', 'localisation']",R_Head_Z_For,3,2,robot,1,False,False,"['robot_stimuli\\R_Arm_Y_For.mp4', 'robot_stimuli\\R_Arm_Z_Back.mp4', 'robot_stimuli\\L_Arm_Z_For.mp4', 'robot_stimuli\\R_Head_Z_For.mp4']",robot_stimuli\R_Head_Z_For.mp4,15,0,0,0,0,0,13,13,13,,,,,,,,,,,,,,,,,,,,,309.20801299996674,309.20801299996674,None,,309.20801299996674,310.2099816002883,,,327.0097290002741,327.0097290002741,327.0097290002741,4,4.200025900267065,331.2346872999333,331.2346872999333,331.2346872999333,331.2346872999333,331.2346872999333,331.2346872999333,331.2346872999333,331.2346872999333,None,None,None,309.20801299996674,309.20801299996674,310.2099816002883,312.29742170032114,,323.35253329994157,,,,,,,,,,,,,,,15,001,2024-09-09_15h54.46.895,robot_cogshifting_sign,2022.2.5,59.87418051244051,
"['R_Arm_Y_For', 'L_Arm_X_For', 'R_Torso_X_Back', 'R_Arm_X_Back']","{'laterality': 'L_Arm_X_For', 'localisation': 'R_Torso_X_Back', 'movement': 'R_Arm_Y_For'}",movement,"['laterality', 'movement']",R_Arm_Y_For,0,2,robot,1,False,True,"['robot_stimuli\\R_Arm_Y_For.mp4', 'robot_stimuli\\L_Arm_X_For.mp4', 'robot_stimuli\\R_Torso_X_Back.mp4', 'robot_stimuli\\R_Arm_X_Back.mp4']",robot_stimuli\R_Arm_Y_For.mp4,15,0,0,0,0,0,14,14,14,,,,,,,,,,,,,,,,,,,,,331.2346872999333,331.2346872999333,None,,331.2346872999333,332.23666250007227,,,349.0030471999198,349.0030471999198,349.0030471999198,4,3.582577900029719,352.6434729001485,355.2820164002478,352.6434729001485,355.2820164002478,352.6434729001485,355.2820164002478,352.6434729001485,355.2820164002478,55.47619047619048,2.080056699924171,space,331.2346872999333,331.2346872999333,332.23666250007227,334.3241461003199,2.582101999782026,345.3457816001028,,,,,,,,,,,,,,,15,001,2024-09-09_15h54.46.895,robot_cogshifting_sign,2022.2.5,59.87418051244051,
"['L_Base_Z_For', 'R_Base_Z_For', 'L_Head_Z_For', 'L_Base_X_Back']","{'laterality': 'R_Base_Z_For', 'localisation': 'L_Head_Z_For', 'movement': 'L_Base_X_Back'}",laterality,"['laterality', 'localisation', 'movement']",R_Base_Z_For,1,3,robot,1,True,False,"['robot_stimuli\\L_Base_Z_For.mp4', 'robot_stimuli\\R_Base_Z_For.mp4', 'robot_stimuli\\L_Head_Z_For.mp4', 'robot_stimuli\\L_Base_X_Back.mp4']",robot_stimuli\R_Base_Z_For.mp4,15,0,0,0,0,0,15,15,15,,,,,,,,,,,,,,,,,,,,,355.2820164002478,355.2820164002478,space,2.407926000189036,357.7201587003656,358.7221065000631,,,375.5886527001858,375.5886527001858,375.5886527001858,2,3.060738699976355,378.67806489998475,378.67806489998475,378.67806489998475,378.67806489998475,378.67806489998475,378.67806489998475,378.67806489998475,378.67806489998475,None,None,None,,,,,,371.9648676002398,,,,,,,,,,,,,,,15,001,2024-09-09_15h54.46.895,robot_cogshifting_sign,2022.2.5,59.87418051244051,
"['L_Base_Y_For', 'L_Base_Z_For', 'L_Torso_Z_Back', 'R_Base_Z_Back']","{'laterality': 'R_Base_Z_Back', 'localisation': 'L_Torso_Z_Back', 'movement': 'L_Base_Y_For'}",localisation,"['laterality', 'localisation', 'movement']",L_Torso_Z_Back,2,3,robot,1,False,False,"['robot_stimuli\\L_Base_Y_For.mp4', 'robot_stimuli\\L_Base_Z_For.mp4', 'robot_stimuli\\L_Torso_Z_Back.mp4', 'robot_stimuli\\R_Base_Z_Back.mp4']",robot_stimuli\L_Torso_Z_Back.mp4,15,0,0,0,0,0,16,16,16,,,,,,,,,,,,,,,,,,,,,378.67806489998475,378.67806489998475,None,,378.67806489998475,379.6800819002092,,,396.26269200025126,396.26269200025126,396.26269200025126,1,3.6188650000840425,399.90319700026885,399.90319700026885,399.90319700026885,399.90319700026885,399.90319700026885,399.90319700026885,399.90319700026885,399.90319700026885,None,None,None,378.67806489998475,378.67806489998475,379.6800819002092,381.7842157999985,,392.7057094001211,,,,,,,,,,,,,,,15,001,2024-09-09_15h54.46.895,robot_cogshifting_sign,2022.2.5,59.87418051244051,
"['R_Base_X_For', 'L_Base_Z_For', 'L_Base_X_Back', 'L_Torso_X_For']","{'laterality': 'R_Base_X_For', 'localisation': 'L_Torso_X_For', 'movement': 'L_Base_Z_For'}",movement,"['laterality', 'localisation', 'movement']",L_Base_Z_For,1,3,robot,1,False,True,"['robot_stimuli\\R_Base_X_For.mp4', 'robot_stimuli\\L_Base_Z_For.mp4', 'robot_stimuli\\L_Base_X_Back.mp4', 'robot_stimuli\\L_Torso_X_For.mp4']",robot_stimuli\L_Base_Z_For.mp4,15,0,0,0,0,0,17,17,17,,,,,,,,,,,,,,,,,,,,,399.90319700026885,399.90319700026885,None,,399.90319700026885,400.9051880999468,,,417.68819870008156,417.68819870008156,417.68819870008156,2,3.9531263997778296,421.69611340016127,423.9338349001482,421.69611340016127,423.9338349001482,421.69611340016127,423.9338349001482,421.69611340016127,423.9338349001482,68.80952380952381,1.9131909999996424,space,399.90319700026885,399.90319700026885,400.9051880999468,403.00941490009427,2.1692818999290466,414.03100710036233,,,,,,,,,,,,,,,15,001,2024-09-09_15h54.46.895,robot_cogshifting_sign,2022.2.5,59.87418051244051,
,,,,,,,,,,,,,,0,0,0,0,,,,,,,,,,,,,,,,,,,,,,,,,,,,,,,,,,,,,,,,,,,,,,,,,,,,,,,423.9338349001482,423.9338349001482,423.9338349001482,c,49.67551810014993,,,,,,,,,,15,001,2024-09-09_15h54.46.895,robot_cogshifting_sign,2022.2.5,59.87418051244051,
"['L_Head_X_For', 'L_Arm_Z_For', 'R_Head_Z_For', 'L_Head_Z_Back']","{'laterality': 'R_Head_Z_For', 'localisation': 'L_Arm_Z_For', 'movement': 'L_Head_X_For'}",laterality,['laterality'],R_Head_Z_For,2,1,robot,1,True,False,"['robot_stimuli\\L_Head_X_For.mp4', 'robot_stimuli\\L_Arm_Z_For.mp4', 'robot_stimuli\\R_Head_Z_For.mp4', 'robot_stimuli\\L_Head_Z_Back.mp4']",robot_stimuli\R_Head_Z_For.mp4,15,,,,,,,,,,,,,0,0,0,0,,,,,,,,,,,,,,,,,,476.93815350020304,,,493.78799210023135,493.78799210023135,493.78799210023135,3,0.4056736999191344,494.2222301000729,494.2222301000729,494.2222301000729,494.2222301000729,494.2222301000729,494.2222301000729,494.2222301000729,494.2222301000729,None,None,None,,,,,,,,,,,,473.6650833999738,473.6650833999738,space,3.2563892998732626,490.1474979999475,,,,,15,001,2024-09-09_15h54.46.895,robot_cogshifting_sign,2022.2.5,59.87418051244051,
"['R_Head_Z_For', 'R_Torso_X_Back', 'L_Torso_Z_Back', 'R_Torso_Z_Back']","{'laterality': 'L_Torso_Z_Back', 'localisation': 'R_Head_Z_For', 'movement': 'R_Torso_X_Back'}",laterality,['laterality'],L_Torso_Z_Back,2,1,robot,1,False,False,"['robot_stimuli\\R_Head_Z_For.mp4', 'robot_stimuli\\R_Torso_X_Back.mp4', 'robot_stimuli\\L_Torso_Z_Back.mp4', 'robot_stimuli\\R_Torso_Z_Back.mp4']",robot_stimuli\L_Torso_Z_Back.mp4,15,,,,,,,,,,,,,0,1,1,1,,,,,,,,,,,,,,,,,,494.2222301000729,,,510.9718315000646,510.9718315000646,510.9718315000646,3,0.789822000078857,511.790118700359,511.790118700359,511.790118700359,511.790118700359,511.790118700359,511.790118700359,511.790118700359,511.790118700359,None,None,None,,,,496.309673700016,,,,,,,,494.2222301000729,494.2222301000729,None,,507.3313337001018,494.2222301000729,494.2222301000729,,,15,001,2024-09-09_15h54.46.895,robot_cogshifting_sign,2022.2.5,59.87418051244051,
"['R_Arm_Z_For', 'L_Arm_X_For', 'L_Head_Z_For', 'L_Arm_Z_Back']","{'laterality': 'R_Arm_Z_For', 'localisation': 'L_Head_Z_For', 'movement': 'L_Arm_X_For'}",localisation,['localisation'],L_Head_Z_For,2,1,robot,1,False,False,"['robot_stimuli\\R_Arm_Z_For.mp4', 'robot_stimuli\\L_Arm_X_For.mp4', 'robot_stimuli\\L_Head_Z_For.mp4', 'robot_stimuli\\L_Arm_Z_Back.mp4']",robot_stimuli\L_Head_Z_For.mp4,15,,,,,,,,,,,,,0,2,2,2,,,,,,,,,,,,,,,,,,511.790118700359,,,528.6900296001695,528.6900296001695,528.6900296001695,3,0.6555088995955884,529.3747245003469,529.3747245003469,529.3747245003469,529.3747245003469,529.3747245003469,529.3747245003469,529.3747245003469,529.3747245003469,None,None,None,,,,513.877562600188,,,,,,,,511.790118700359,511.790118700359,None,,525.0328951999545,511.790118700359,511.790118700359,,,15,001,2024-09-09_15h54.46.895,robot_cogshifting_sign,2022.2.5,59.87418051244051,
"['L_Head_X_Back', 'L_Base_X_For', 'L_Head_Z_Back', 'R_Head_X_For']","{'laterality': 'R_Head_X_For', 'localisation': 'L_Base_X_For', 'movement': 'L_Head_Z_Back'}",laterality,['laterality'],R_Head_X_For,3,1,robot,1,False,False,"['robot_stimuli\\L_Head_X_Back.mp4', 'robot_stimuli\\L_Base_X_For.mp4', 'robot_stimuli\\L_Head_Z_Back.mp4', 'robot_stimuli\\R_Head_X_For.mp4']",robot_stimuli\R_Head_X_For.mp4,15,,,,,,,,,,,,,0,3,3,3,,,,,,,,,,,,,,,,,,529.3747245003469,,,546.2078531999141,546.2078531999141,546.2078531999141,4,0.7052694000303745,546.9426303002983,546.9426303002983,546.9426303002983,546.9426303002983,546.9426303002983,546.9426303002983,546.9426303002983,546.9426303002983,None,None,None,,,,531.4622341003269,,,,,,,,529.3747245003469,529.3747245003469,None,,542.5506820003502,529.3747245003469,529.3747245003469,,,15,001,2024-09-09_15h54.46.895,robot_cogshifting_sign,2022.2.5,59.87418051244051,
"['L_Base_Y_Back', 'R_Base_Y_For', 'R_Head_Y_For', 'R_Base_X_Back']","{'laterality': 'L_Base_Y_Back', 'localisation': 'R_Head_Y_For', 'movement': 'R_Base_X_Back'}",movement,['movement'],R_Base_X_Back,3,1,robot,1,False,False,"['robot_stimuli\\L_Base_Y_Back.mp4', 'robot_stimuli\\R_Base_Y_For.mp4', 'robot_stimuli\\R_Head_Y_For.mp4', 'robot_stimuli\\R_Base_X_Back.mp4']",robot_stimuli\R_Base_X_Back.mp4,15,,,,,,,,,,,,,0,4,4,4,,,,,,,,,,,,,,,,,,546.9426303002983,,,563.7757767001167,563.7757767001167,563.7757767001167,4,0.5540843000635505,564.3602484003641,564.3602484003641,564.3602484003641,564.3602484003641,564.3602484003641,564.3602484003641,564.3602484003641,564.3602484003641,None,None,None,,,,549.0301288003102,,,,,,,,546.9426303002983,546.9426303002983,None,,560.1352955000475,546.9426303002983,546.9426303002983,,,15,001,2024-09-09_15h54.46.895,robot_cogshifting_sign,2022.2.5,59.87418051244051,
"['R_Arm_Z_Back', 'L_Arm_X_Back', 'R_Base_X_Back', 'R_Arm_X_For']","{'laterality': 'L_Arm_X_Back', 'localisation': 'R_Base_X_Back', 'movement': 'R_Arm_Z_Back'}",movement,['movement'],R_Arm_Z_Back,0,1,robot,1,False,False,"['robot_stimuli\\R_Arm_Z_Back.mp4', 'robot_stimuli\\L_Arm_X_Back.mp4', 'robot_stimuli\\R_Base_X_Back.mp4', 'robot_stimuli\\R_Arm_X_For.mp4']",robot_stimuli\R_Arm_Z_Back.mp4,15,,,,,,,,,,,,,0,5,5,5,,,,,,,,,,,,,,,,,,564.3602484003641,,,581.2435174002312,581.2435174002312,581.2435174002312,4,2.5031829001381993,583.7651215000078,583.7651215000078,583.7651215000078,583.7651215000078,583.7651215000078,583.7651215000078,583.7651215000078,583.7651215000078,None,None,None,,,,566.4477730002254,,,,,,,,564.3602484003641,564.3602484003641,None,,577.6030403999612,564.3602484003641,564.3602484003641,,,15,001,2024-09-09_15h54.46.895,robot_cogshifting_sign,2022.2.5,59.87418051244051,
"['L_Torso_Z_Back', 'R_Torso_Z_Back', 'L_Arm_Z_For', 'L_Torso_Y_Back']","{'laterality': 'R_Torso_Z_Back', 'localisation': 'L_Arm_Z_For', 'movement': 'L_Torso_Y_Back'}",localisation,['localisation'],L_Arm_Z_For,2,1,robot,1,False,False,"['robot_stimuli\\L_Torso_Z_Back.mp4', 'robot_stimuli\\R_Torso_Z_Back.mp4', 'robot_stimuli\\L_Arm_Z_For.mp4', 'robot_stimuli\\L_Torso_Y_Back.mp4']",robot_stimuli\L_Arm_Z_For.mp4,15,,,,,,,,,,,,,0,6,6,6,,,,,,,,,,,,,,,,,,583.7651215000078,,,600.39786919998,600.39786919998,600.39786919998,3,1.979131099767983,602.4018195001408,602.4018195001408,602.4018195001408,602.4018195001408,602.4018195001408,602.4018195001408,602.4018195001408,602.4018195001408,None,None,None,,,,585.8525944002904,,,,,,,,583.7651215000078,583.7651215000078,None,,596.8910062001087,583.7651215000078,583.7651215000078,,,15,001,2024-09-09_15h54.46.895,robot_cogshifting_sign,2022.2.5,59.87418051244051,
"['L_Torso_Z_Back', 'R_Torso_Y_For', 'L_Head_Y_For', 'L_Torso_Y_For']","{'laterality': 'R_Torso_Y_For', 'localisation': 'L_Head_Y_For', 'movement': 'L_Torso_Z_Back'}",localisation,['localisation'],L_Head_Y_For,2,1,robot,1,False,False,"['robot_stimuli\\L_Torso_Z_Back.mp4', 'robot_stimuli\\R_Torso_Y_For.mp4', 'robot_stimuli\\L_Head_Y_For.mp4', 'robot_stimuli\\L_Torso_Y_For.mp4']",robot_stimuli\L_Head_Y_For.mp4,15,,,,,,,,,,,,,0,7,7,7,,,,,,,,,,,,,,,,,,602.4018195001408,,,619.1514560002834,619.1514560002834,619.1514560002834,3,3.9221775997430086,623.0925402999856,623.0925402999856,623.0925402999856,623.0925402999856,623.0925402999856,623.0925402999856,623.0925402999856,623.0925402999856,None,None,None,,,,604.4892617999576,,,,,,,,602.4018195001408,602.4018195001408,None,,615.5109944003634,602.4018195001408,602.4018195001408,,,15,001,2024-09-09_15h54.46.895,robot_cogshifting_sign,2022.2.5,59.87418051244051,
"['R_Torso_Y_For', 'R_Head_Z_For', 'R_Head_Y_For', 'L_Head_Y_For']","{'laterality': 'L_Head_Y_For', 'localisation': 'R_Torso_Y_For', 'movement': 'R_Head_Z_For'}",movement,['movement'],R_Head_Z_For,1,1,robot,1,False,True,"['robot_stimuli\\R_Torso_Y_For.mp4', 'robot_stimuli\\R_Head_Z_For.mp4', 'robot_stimuli\\R_Head_Y_For.mp4', 'robot_stimuli\\L_Head_Y_For.mp4']",robot_stimuli\R_Head_Z_For.mp4,15,,,,,,,,,,,,,0,8,8,8,,,,,,,,,,,,,,,,,,623.0925402999856,,,639.9757354999892,639.9757354999892,639.9757354999892,2,0.9931931002065539,641.0278716003522,643.8166450001299,641.0278716003522,643.8166450001299,641.0278716003522,643.8166450001299,641.0278716003522,643.8166450001299,46.904761904761905,2.4309040000662208,space,,,,625.1799864000641,2.717676400206983,,,,,,,623.0925402999856,623.0925402999856,None,,636.3352882000618,623.0925402999856,623.0925402999856,,,15,001,2024-09-09_15h54.46.895,robot_cogshifting_sign,2022.2.5,59.87418051244051,
"['L_Head_Z_Back', 'L_Base_Z_Back', 'L_Base_X_Back', 'R_Base_Z_Back']","{'laterality': 'R_Base_Z_Back', 'localisation': 'L_Head_Z_Back', 'movement': 'L_Base_X_Back'}",laterality,"['laterality', 'movement']",R_Base_Z_Back,3,2,robot,1,True,False,"['robot_stimuli\\L_Head_Z_Back.mp4', 'robot_stimuli\\L_Base_Z_Back.mp4', 'robot_stimuli\\L_Base_X_Back.mp4', 'robot_stimuli\\R_Base_Z_Back.mp4']",robot_stimuli\R_Base_Z_Back.mp4,15,,,,,,,,,,,,,0,9,9,9,,,,,,,,,,,,,,,,,,645.8206404000521,,,662.5704668001272,662.5704668001272,662.5704668001272,4,3.182663000188768,665.7765498999506,665.7765498999506,665.7765498999506,665.7765498999506,665.7765498999506,665.7765498999506,665.7765498999506,665.7765498999506,None,None,None,,,,,,,,,,,,643.8166450001299,643.8166450001299,space,1.9843573002144694,659.0299427001737,,,,,15,001,2024-09-09_15h54.46.895,robot_cogshifting_sign,2022.2.5,59.87418051244051,
"['R_Arm_X_Back', 'L_Arm_X_For', 'L_Head_X_For', 'L_Arm_Y_For']","{'laterality': 'R_Arm_X_Back', 'localisation': 'L_Head_X_For', 'movement': 'L_Arm_Y_For'}",movement,"['localisation', 'movement']",L_Arm_Y_For,3,2,robot,1,False,False,"['robot_stimuli\\R_Arm_X_Back.mp4', 'robot_stimuli\\L_Arm_X_For.mp4', 'robot_stimuli\\L_Head_X_For.mp4', 'robot_stimuli\\L_Arm_Y_For.mp4']",robot_stimuli\L_Arm_Y_For.mp4,15,,,,,,,,,,,,,0,10,10,10,,,,,,,,,,,,,,,,,,665.7765498999506,,,682.5930042001419,682.5930042001419,682.5930042001419,4,3.592713300138712,686.2168129002675,686.2168129002675,686.2168129002675,686.2168129002675,686.2168129002675,686.2168129002675,686.2168129002675,686.2168129002675,None,None,None,,,,667.8640133002773,,,,,,,,665.7765498999506,665.7765498999506,None,,678.9525387003087,665.7765498999506,665.7765498999506,,,15,001,2024-09-09_15h54.46.895,robot_cogshifting_sign,2022.2.5,59.87418051244051,
"['R_Base_X_Back', 'L_Base_X_For', 'R_Arm_X_For', 'R_Base_Z_For']","{'laterality': 'L_Base_X_For', 'localisation': 'R_Arm_X_For', 'movement': 'R_Base_Z_For'}",laterality,"['laterality', 'localisation']",L_Base_X_For,1,2,robot,1,False,False,"['robot_stimuli\\R_Base_X_Back.mp4', 'robot_stimuli\\L_Base_X_For.mp4', 'robot_stimuli\\R_Arm_X_For.mp4', 'robot_stimuli\\R_Base_Z_For.mp4']",robot_stimuli\L_Base_X_For.mp4,15,,,,,,,,,,,,,0,11,11,11,,,,,,,,,,,,,,,,,,686.2168129002675,,,703.0666388999671,703.0666388999671,703.0666388999671,2,0.8866221001371741,703.9850925002247,703.9850925002247,703.9850925002247,703.9850925002247,703.9850925002247,703.9850925002247,703.9850925002247,703.9850925002247,None,None,None,,,,688.30427339999,,,,,,,,686.2168129002675,686.2168129002675,None,,699.4262191001326,686.2168129002675,686.2168129002675,,,15,001,2024-09-09_15h54.46.895,robot_cogshifting_sign,2022.2.5,59.87418051244051,
"['R_Arm_X_For', 'R_Head_X_Back', 'R_Arm_Z_For', 'L_Arm_X_Back']","{'laterality': 'L_Arm_X_Back', 'localisation': 'R_Head_X_Back', 'movement': 'R_Arm_Z_For'}",movement,"['laterality', 'movement']",R_Arm_Z_For,2,2,robot,1,False,False,"['robot_stimuli\\R_Arm_X_For.mp4', 'robot_stimuli\\R_Head_X_Back.mp4', 'robot_stimuli\\R_Arm_Z_For.mp4', 'robot_stimuli\\L_Arm_X_Back.mp4']",robot_stimuli\R_Arm_Z_For.mp4,15,,,,,,,,,,,,,0,12,12,12,,,,,,,,,,,,,,,,,,703.9850925002247,,,720.9017190001905,720.9017190001905,720.9017190001905,3,1.283817999996245,722.2043053000234,722.2043053000234,722.2043053000234,722.2043053000234,722.2043053000234,722.2043053000234,722.2043053000234,722.2043053000234,None,None,None,,,,706.0892737000249,,,,,,,,703.9850925002247,703.9850925002247,None,,717.261255200021,703.9850925002247,703.9850925002247,,,15,001,2024-09-09_15h54.46.895,robot_cogshifting_sign,2022.2.5,59.87418051244051,
"['L_Base_Y_Back', 'L_Torso_Y_Back', 'L_Torso_X_For', 'R_Torso_Y_Back']","{'laterality': 'R_Torso_Y_Back', 'localisation': 'L_Base_Y_Back', 'movement': 'L_Torso_X_For'}",localisation,"['localisation', 'movement']",L_Base_Y_Back,0,2,robot,1,False,False,"['robot_stimuli\\L_Base_Y_Back.mp4', 'robot_stimuli\\L_Torso_Y_Back.mp4', 'robot_stimuli\\L_Torso_X_For.mp4', 'robot_stimuli\\R_Torso_Y_Back.mp4']",robot_stimuli\L_Base_Y_Back.mp4,15,,,,,,,,,,,,,0,13,13,13,,,,,,,,,,,,,,,,,,722.2043053000234,,,738.887158700265,738.887158700265,738.887158700265,1,2.6340172002092004,741.5423747999594,741.5423747999594,741.5423747999594,741.5423747999594,741.5423747999594,741.5423747999594,741.5423747999594,741.5423747999594,None,None,None,,,,724.2917754002847,,,,,,,,722.2043053000234,722.2043053000234,None,,735.2633322002366,722.2043053000234,722.2043053000234,,,15,001,2024-09-09_15h54.46.895,robot_cogshifting_sign,2022.2.5,59.87418051244051,
"['R_Base_Y_For', 'L_Base_X_Back', 'L_Base_Y_Back', 'L_Head_Y_For']","{'laterality': 'R_Base_Y_For', 'localisation': 'L_Head_Y_For', 'movement': 'L_Base_X_Back'}",laterality,"['laterality', 'movement']",R_Base_Y_For,0,2,robot,1,False,False,"['robot_stimuli\\R_Base_Y_For.mp4', 'robot_stimuli\\L_Base_X_Back.mp4', 'robot_stimuli\\L_Base_Y_Back.mp4', 'robot_stimuli\\L_Head_Y_For.mp4']",robot_stimuli\R_Base_Y_For.mp4,15,,,,,,,,,,,,,0,14,14,14,,,,,,,,,,,,,,,,,,741.5423747999594,,,758.3421102003194,758.3421102003194,758.3421102003194,1,1.0596797000616789,759.4275619001128,759.4275619001128,759.4275619001128,759.4275619001128,759.4275619001128,759.4275619001128,759.4275619001128,759.4275619001128,None,None,None,,,,743.6298695001751,,,,,,,,741.5423747999594,741.5423747999594,None,,754.6849345001392,741.5423747999594,741.5423747999594,,,15,001,2024-09-09_15h54.46.895,robot_cogshifting_sign,2022.2.5,59.87418051244051,
"['L_Torso_X_Back', 'L_Head_Y_Back', 'L_Head_X_Back', 'R_Head_X_Back']","{'laterality': 'R_Head_X_Back', 'localisation': 'L_Torso_X_Back', 'movement': 'L_Head_Y_Back'}",movement,"['localisation', 'movement']",L_Head_Y_Back,1,2,robot,1,False,False,"['robot_stimuli\\L_Torso_X_Back.mp4', 'robot_stimuli\\L_Head_Y_Back.mp4', 'robot_stimuli\\L_Head_X_Back.mp4', 'robot_stimuli\\R_Head_X_Back.mp4']",robot_stimuli\L_Head_Y_Back.mp4,15,,,,,,,,,,,,,0,15,15,15,,,,,,,,,,,,,,,,,,759.4275619001128,,,776.3108393000439,776.3108393000439,776.3108393000439,2,1.2901041000150144,777.6300922003575,777.6300922003575,777.6300922003575,777.6300922003575,777.6300922003575,777.6300922003575,777.6300922003575,777.6300922003575,None,None,None,,,,761.5150776002556,,,,,,,,759.4275619001128,759.4275619001128,None,,772.6870563002303,759.4275619001128,759.4275619001128,,,15,001,2024-09-09_15h54.46.895,robot_cogshifting_sign,2022.2.5,59.87418051244051,
"['L_Arm_Y_For', 'R_Arm_X_For', 'L_Base_X_For', 'L_Arm_X_Back']","{'laterality': 'R_Arm_X_For', 'localisation': 'L_Base_X_For', 'movement': 'L_Arm_Y_For'}",localisation,"['laterality', 'localisation']",L_Base_X_For,2,2,robot,1,False,False,"['robot_stimuli\\L_Arm_Y_For.mp4', 'robot_stimuli\\R_Arm_X_For.mp4', 'robot_stimuli\\L_Base_X_For.mp4', 'robot_stimuli\\L_Arm_X_Back.mp4']",robot_stimuli\L_Base_X_For.mp4,15,,,,,,,,,,,,,0,16,16,16,,,,,,,,,,,,,,,,,,777.6300922003575,,,794.463212300092,794.463212300092,794.463212300092,3,1.794355799909681,796.2834837003611,796.2834837003611,796.2834837003611,796.2834837003611,796.2834837003611,796.2834837003611,796.2834837003611,796.2834837003611,None,None,None,,,,779.7175302999094,,,,,,,,777.6300922003575,777.6300922003575,None,,790.8060385002755,777.6300922003575,777.6300922003575,,,15,001,2024-09-09_15h54.46.895,robot_cogshifting_sign,2022.2.5,59.87418051244051,
"['L_Torso_X_Back', 'R_Base_X_For', 'L_Base_Z_Back', 'L_Base_X_Back']","{'laterality': 'R_Base_X_For', 'localisation': 'L_Torso_X_Back', 'movement': 'L_Base_Z_Back'}",localisation,"['laterality', 'localisation']",L_Torso_X_Back,0,2,robot,1,False,True,"['robot_stimuli\\L_Torso_X_Back.mp4', 'robot_stimuli\\R_Base_X_For.mp4', 'robot_stimuli\\L_Base_Z_Back.mp4', 'robot_stimuli\\L_Base_X_Back.mp4']",robot_stimuli\L_Torso_X_Back.mp4,15,,,,,,,,,,,,,0,17,17,17,,,,,,,,,,,,,,,,,,796.2834837003611,,,813.0498001999222,813.0498001999222,813.0498001999222,1,2.0950977001339197,815.2040298003703,818.2600595001131,815.2040298003703,818.2600595001131,815.2040298003703,818.2600595001131,815.2040298003703,818.2600595001131,65.31746031746032,2.096831100061536,space,,,,798.3709289999679,2.981769699603319,,,,,,,796.2834837003611,796.2834837003611,None,,809.4260992999189,796.2834837003611,796.2834837003611,,,15,001,2024-09-09_15h54.46.895,robot_cogshifting_sign,2022.2.5,59.87418051244051,
"['L_Base_X_For', 'L_Torso_Y_Back', 'R_Base_Y_For', 'L_Base_Y_For']","{'laterality': 'R_Base_Y_For', 'localisation': 'L_Torso_Y_Back', 'movement': 'L_Base_X_For'}",laterality,"['laterality', 'localisation', 'movement']",R_Base_Y_For,2,3,robot,1,True,False,"['robot_stimuli\\L_Base_X_For.mp4', 'robot_stimuli\\L_Torso_Y_Back.mp4', 'robot_stimuli\\R_Base_Y_For.mp4', 'robot_stimuli\\L_Base_Y_For.mp4']",robot_stimuli\R_Base_Y_For.mp4,15,,,,,,,,,,,,,0,18,18,18,,,,,,,,,,,,,,,,,,820.2139141000807,,,836.8132414999418,836.8132414999418,836.8132414999418,3,1.8924527997151017,838.7337067001499,838.7337067001499,838.7337067001499,838.7337067001499,838.7337067001499,838.7337067001499,838.7337067001499,838.7337067001499,None,None,None,,,,,,,,,,,,818.2600595001131,818.2600595001131,space,1.9253278002142906,833.2729571000673,,,,,15,001,2024-09-09_15h54.46.895,robot_cogshifting_sign,2022.2.5,59.87418051244051,
"['R_Arm_Y_Back', 'R_Arm_X_Back', 'R_Torso_Y_Back', 'L_Arm_Y_Back']","{'laterality': 'L_Arm_Y_Back', 'localisation': 'R_Torso_Y_Back', 'movement': 'R_Arm_X_Back'}",movement,"['laterality', 'localisation', 'movement']",R_Arm_X_Back,1,3,robot,1,False,False,"['robot_stimuli\\R_Arm_Y_Back.mp4', 'robot_stimuli\\R_Arm_X_Back.mp4', 'robot_stimuli\\R_Torso_Y_Back.mp4', 'robot_stimuli\\L_Arm_Y_Back.mp4']",robot_stimuli\R_Arm_X_Back.mp4,15,,,,,,,,,,,,,0,19,19,19,,,,,,,,,,,,,,,,,,838.7337067001499,,,855.633637000341,855.633637000341,855.633637000341,2,2.527880599722266,858.1886444003321,858.1886444003321,858.1886444003321,858.1886444003321,858.1886444003321,858.1886444003321,858.1886444003321,858.1886444003321,None,None,None,,,,840.821176300291,,,,,,,,838.7337067001499,838.7337067001499,None,,851.9764694999903,838.7337067001499,838.7337067001499,,,15,001,2024-09-09_15h54.46.895,robot_cogshifting_sign,2022.2.5,59.87418051244051,
"['R_Arm_X_Back', 'L_Torso_X_Back', 'R_Torso_X_For', 'R_Torso_Z_For']","{'laterality': 'L_Torso_X_Back', 'localisation': 'R_Arm_X_Back', 'movement': 'R_Torso_Z_For'}",localisation,"['laterality', 'localisation', 'movement']",R_Arm_X_Back,0,3,robot,1,False,False,"['robot_stimuli\\R_Arm_X_Back.mp4', 'robot_stimuli\\L_Torso_X_Back.mp4', 'robot_stimuli\\R_Torso_X_For.mp4', 'robot_stimuli\\R_Torso_Z_For.mp4']",robot_stimuli\R_Arm_X_Back.mp4,15,,,,,,,,,,,,,0,20,20,20,,,,,,,,,,,,,,,,,,858.1886444003321,,,875.0556761003099,875.0556761003099,875.0556761003099,1,5.489643199834973,880.5660538999364,880.5660538999364,880.5660538999364,880.5660538999364,880.5660538999364,880.5660538999364,880.5660538999364,880.5660538999364,None,None,None,,,,860.2761091003194,,,,,,,,858.1886444003321,858.1886444003321,None,,871.4314136002213,858.1886444003321,858.1886444003321,,,15,001,2024-09-09_15h54.46.895,robot_cogshifting_sign,2022.2.5,59.87418051244051,
"['R_Torso_X_Back', 'R_Torso_Y_Back', 'L_Torso_X_For', 'R_Head_X_Back']","{'laterality': 'L_Torso_X_For', 'localisation': 'R_Head_X_Back', 'movement': 'R_Torso_Y_Back'}",laterality,"['laterality', 'localisation', 'movement']",L_Torso_X_For,2,3,robot,1,False,False,"['robot_stimuli\\R_Torso_X_Back.mp4', 'robot_stimuli\\R_Torso_Y_Back.mp4', 'robot_stimuli\\L_Torso_X_For.mp4', 'robot_stimuli\\R_Head_X_Back.mp4']",robot_stimuli\L_Torso_X_For.mp4,15,,,,,,,,,,,,,0,21,21,21,,,,,,,,,,,,,,,,,,880.5660538999364,,,897.449286099989,897.449286099989,897.449286099989,3,1.8480968996882439,899.3196529000998,899.3196529000998,899.3196529000998,899.3196529000998,899.3196529000998,899.3196529000998,899.3196529000998,899.3196529000998,None,None,None,,,,882.653479100205,,,,,,,,880.5660538999364,880.5660538999364,None,,893.8087889002636,880.5660538999364,880.5660538999364,,,15,001,2024-09-09_15h54.46.895,robot_cogshifting_sign,2022.2.5,59.87418051244051,
"['R_Base_Y_For', 'R_Torso_X_Back', 'R_Base_X_Back', 'L_Base_X_Back']","{'laterality': 'L_Base_X_Back', 'localisation': 'R_Torso_X_Back', 'movement': 'R_Base_Y_For'}",laterality,"['laterality', 'localisation', 'movement']",L_Base_X_Back,3,3,robot,1,False,False,"['robot_stimuli\\R_Base_Y_For.mp4', 'robot_stimuli\\R_Torso_X_Back.mp4', 'robot_stimuli\\R_Base_X_Back.mp4', 'robot_stimuli\\L_Base_X_Back.mp4']",robot_stimuli\L_Base_X_Back.mp4,15,,,,,,,,,,,,,0,22,22,22,,,,,,,,,,,,,,,,,,899.3196529000998,,,916.1861669002101,916.1861669002101,916.1861669002101,4,3.8953586001880467,920.1105634002015,920.1105634002015,920.1105634002015,920.1105634002015,920.1105634002015,920.1105634002015,920.1105634002015,920.1105634002015,None,None,None,,,,901.4070816002786,,,,,,,,899.3196529000998,899.3196529000998,None,,912.579084600322,899.3196529000998,899.3196529000998,,,15,001,2024-09-09_15h54.46.895,robot_cogshifting_sign,2022.2.5,59.87418051244051,
"['L_Head_X_Back', 'R_Head_X_For', 'R_Arm_X_Back', 'R_Head_Y_Back']","{'laterality': 'L_Head_X_Back', 'localisation': 'R_Arm_X_Back', 'movement': 'R_Head_Y_Back'}",movement,"['laterality', 'localisation', 'movement']",R_Head_Y_Back,3,3,robot,1,False,False,"['robot_stimuli\\L_Head_X_Back.mp4', 'robot_stimuli\\R_Head_X_For.mp4', 'robot_stimuli\\R_Arm_X_Back.mp4', 'robot_stimuli\\R_Head_Y_Back.mp4']",robot_stimuli\R_Head_Y_Back.mp4,15,,,,,,,,,,,,,0,23,23,23,,,,,,,,,,,,,,,,,,920.1105634002015,,,937.0106025999412,937.0106025999412,937.0106025999412,4,5.231094399932772,942.2708898000419,942.2708898000419,942.2708898000419,942.2708898000419,942.2708898000419,942.2708898000419,942.2708898000419,942.2708898000419,None,None,None,,,,922.1980540999211,,,,,,,,920.1105634002015,920.1105634002015,None,,933.3700338001363,920.1105634002015,920.1105634002015,,,15,001,2024-09-09_15h54.46.895,robot_cogshifting_sign,2022.2.5,59.87418051244051,
"['L_Torso_X_For', 'L_Head_Y_Back', 'L_Torso_Y_Back', 'R_Torso_Y_For']","{'laterality': 'R_Torso_Y_For', 'localisation': 'L_Head_Y_Back', 'movement': 'L_Torso_X_For'}",localisation,"['laterality', 'localisation', 'movement']",L_Head_Y_Back,1,3,robot,1,False,False,"['robot_stimuli\\L_Torso_X_For.mp4', 'robot_stimuli\\L_Head_Y_Back.mp4', 'robot_stimuli\\L_Torso_Y_Back.mp4', 'robot_stimuli\\R_Torso_Y_For.mp4']",robot_stimuli\L_Head_Y_Back.mp4,15,,,,,,,,,,,,,0,24,24,24,,,,,,,,,,,,,,,,,,942.2708898000419,,,959.0538957002573,959.0538957002573,959.0538957002573,4,5.539512500166893,964.6148419003002,964.6148419003002,964.6148419003002,964.6148419003002,964.6148419003002,964.6148419003002,964.6148419003002,964.6148419003002,None,None,None,,,,944.3583395001478,,,,,,,,942.2708898000419,942.2708898000419,None,,955.4300926001742,942.2708898000419,942.2708898000419,,,15,001,2024-09-09_15h54.46.895,robot_cogshifting_sign,2022.2.5,59.87418051244051,
"['L_Torso_X_Back', 'R_Base_X_For', 'R_Torso_Y_For', 'R_Torso_X_Back']","{'laterality': 'L_Torso_X_Back', 'localisation': 'R_Base_X_For', 'movement': 'R_Torso_Y_For'}",movement,"['laterality', 'localisation', 'movement']",R_Torso_Y_For,2,3,robot,1,False,False,"['robot_stimuli\\L_Torso_X_Back.mp4', 'robot_stimuli\\R_Base_X_For.mp4', 'robot_stimuli\\R_Torso_Y_For.mp4', 'robot_stimuli\\R_Torso_X_Back.mp4']",robot_stimuli\R_Torso_Y_For.mp4,15,,,,,,,,,,,,,0,25,25,25,,,,,,,,,,,,,,,,,,964.6148419003002,,,981.431255100295,981.431255100295,981.431255100295,3,1.8502799002453685,983.3016385999508,983.3016385999508,983.3016385999508,983.3016385999508,983.3016385999508,983.3016385999508,983.3016385999508,983.3016385999508,None,None,None,,,,966.7023004000075,,,,,,,,964.6148419003002,964.6148419003002,None,,977.790799499955,964.6148419003002,964.6148419003002,,,15,001,2024-09-09_15h54.46.895,robot_cogshifting_sign,2022.2.5,59.87418051244051,
"['R_Head_X_For', 'L_Base_X_For', 'R_Base_Z_For', 'R_Base_X_Back']","{'laterality': 'L_Base_X_For', 'localisation': 'R_Head_X_For', 'movement': 'R_Base_Z_For'}",localisation,"['laterality', 'localisation', 'movement']",R_Head_X_For,0,3,robot,1,False,True,"['robot_stimuli\\R_Head_X_For.mp4', 'robot_stimuli\\L_Base_X_For.mp4', 'robot_stimuli\\R_Base_Z_For.mp4', 'robot_stimuli\\R_Base_X_Back.mp4']",robot_stimuli\R_Head_X_For.mp4,15,,,,,,,,,,,,,0,26,26,26,,,,,,,,,,,,,,,,,,983.3016385999508,,,1000.1180398003198,1000.1180398003198,1000.1180398003198,1,5.18704229965806,1005.3616923000664,1009.7369968001731,1005.3616923000664,1009.7369968001731,1005.3616923000664,1009.7369968001731,1005.3616923000664,1009.7369968001731,79.92063492063492,3.7835850003175437,space,,,,985.3890897003002,4.319710400421172,,,,,,,983.3016385999508,983.3016385999508,None,,996.4775719000027,983.3016385999508,983.3016385999508,,,15,001,2024-09-09_15h54.46.895,robot_cogshifting_sign,2022.2.5,59.87418051244051,
"['blue_top_Q_45', 'blue_right_B_45', 'red_right_B_45', 'blue_right_R_0']","{'color': 'red_right_B_45', 'position': 'blue_top_Q_45', 'orientation': 'blue_right_R_0'}",position,"['color', 'orientation', 'position']",blue_top_Q_45,0,3,letter,2,True,False,"['robot_stimuli\\\\filler.mp4', 'robot_stimuli\\\\filler.mp4', 'robot_stimuli\\\\filler.mp4', 'robot_stimuli\\\\filler.mp4']",robot_stimuli\\filler.mp4,15,,,,,,,,,,,,,0,27,27,27,,,,,,,,,,,,,,,,,,1016.5504046999849,,,1027.2881975001656,1027.2881975001656,1027.2881975001656,1,2.2731968997977674,1029.5927483001724,1029.5927483001724,1029.5927483001724,1029.5927483001724,1029.5927483001724,1029.5927483001724,1029.5927483001724,1029.5927483001724,None,None,None,,,,,,,,,,,,1009.7369968001731,1009.7369968001731,space,6.78409649990499,,,,1025.06731329998,1027.2881975001656,15,001,2024-09-09_15h54.46.895,robot_cogshifting_sign,2022.2.5,59.87418051244051,
"['blue_right_J_45', 'blue_right_R_0', 'blue_bottom_H_0', 'red_right_S_0']","{'color': 'red_right_S_0', 'position': 'blue_bottom_H_0', 'orientation': 'blue_right_J_45'}",color,"['color', 'orientation', 'position']",red_right_S_0,3,3,letter,2,False,False,"['robot_stimuli\\\\filler.mp4', 'robot_stimuli\\\\filler.mp4', 'robot_stimuli\\\\filler.mp4', 'robot_stimuli\\\\filler.mp4']",robot_stimuli\\filler.mp4,15,,,,,,,,,,,,,0,28,28,28,,,,,,,,,,,,,,,,,,1029.5927483001724,,,1040.1301607000642,1040.1301607000642,1040.1301607000642,4,1.263180200010538,1041.4160313000903,1041.4160313000903,1041.4160313000903,1041.4160313000903,1041.4160313000903,1041.4160313000903,1041.4160313000903,1041.4160313000903,None,None,None,,,,1031.6635443000123,,,,,,,,1029.5927483001724,1029.5927483001724,None,,,1029.5927483001724,1029.5927483001724,1038.093506500125,1040.1301607000642,15,001,2024-09-09_15h54.46.895,robot_cogshifting_sign,2022.2.5,59.87418051244051,
"['blue_bottom_X_45', 'blue_left_C_0', 'blue_bottom_D_0', 'red_bottom_Z_0']","{'color': 'red_bottom_Z_0', 'position': 'blue_left_C_0', 'orientation': 'blue_bottom_X_45'}",orientation,"['color', 'orientation', 'position']",blue_bottom_X_45,0,3,letter,2,False,False,"['robot_stimuli\\\\filler.mp4', 'robot_stimuli\\\\filler.mp4', 'robot_stimuli\\\\filler.mp4', 'robot_stimuli\\\\filler.mp4']",robot_stimuli\\filler.mp4,15,,,,,,,,,,,,,0,29,29,29,,,,,,,,,,,,,,,,,,1041.4160313000903,,,1052.1538082002662,1052.1538082002662,1052.1538082002662,1,5.359042400028557,1057.5310772000812,1057.5310772000812,1057.5310772000812,1057.5310772000812,1057.5310772000812,1057.5310772000812,1057.5310772000812,1057.5310772000812,None,None,None,,,,1043.4867977001704,,,,,,,,1041.4160313000903,1041.4160313000903,None,,,1041.4160313000903,1041.4160313000903,1050.1332363002002,1052.1538082002662,15,001,2024-09-09_15h54.46.895,robot_cogshifting_sign,2022.2.5,59.87418051244051,
"['blue_left_L_45', 'red_left_H_0', 'blue_left_Z_0', 'blue_bottom_D_0']","{'color': 'red_left_H_0', 'position': 'blue_bottom_D_0', 'orientation': 'blue_left_L_45'}",orientation,"['color', 'orientation', 'position']",blue_left_L_45,0,3,letter,2,False,False,"['robot_stimuli\\\\filler.mp4', 'robot_stimuli\\\\filler.mp4', 'robot_stimuli\\\\filler.mp4', 'robot_stimuli\\\\filler.mp4']",robot_stimuli\\filler.mp4,15,,,,,,,,,,,,,0,30,30,30,,,,,,,,,,,,,,,,,,1057.5310772000812,,,1068.4692862001248,1068.4692862001248,1068.4692862001248,1,2.8035305002704263,1071.2914768001065,1071.2914768001065,1071.2914768001065,1071.2914768001065,1071.2914768001065,1071.2914768001065,1071.2914768001065,1071.2914768001065,None,None,None,,,,1059.60182860028,,,,,,,,1057.5310772000812,1057.5310772000812,None,,,1057.5310772000812,1057.5310772000812,1066.2482973001897,1068.4692862001248,15,001,2024-09-09_15h54.46.895,robot_cogshifting_sign,2022.2.5,59.87418051244051,
"['blue_bottom_P_0', 'red_bottom_X_45', 'blue_top_S_45', 'blue_bottom_S_45']","{'color': 'red_bottom_X_45', 'position': 'blue_top_S_45', 'orientation': 'blue_bottom_P_0'}",orientation,"['color', 'orientation', 'position']",blue_bottom_P_0,0,3,letter,2,False,False,"['robot_stimuli\\\\filler.mp4', 'robot_stimuli\\\\filler.mp4', 'robot_stimuli\\\\filler.mp4', 'robot_stimuli\\\\filler.mp4']",robot_stimuli\\filler.mp4,15,,,,,,,,,,,,,0,31,31,31,,,,,,,,,,,,,,,,,,1071.2914768001065,,,1082.2297175000422,1082.2297175000422,1082.2297175000422,1,2.0989935998804867,1084.3505306001753,1084.3505306001753,1084.3505306001753,1084.3505306001753,1084.3505306001753,1084.3505306001753,1084.3505306001753,1084.3505306001753,None,None,None,,,,1073.3622600003146,,,,,,,,1071.2914768001065,1071.2914768001065,None,,,1071.2914768001065,1071.2914768001065,1080.0087415003218,1082.2297175000422,15,001,2024-09-09_15h54.46.895,robot_cogshifting_sign,2022.2.5,59.87418051244051,
"['red_bottom_M_0', 'red_bottom_K_45', 'blue_bottom_S_45', 'red_right_R_45']","{'color': 'blue_bottom_S_45', 'position': 'red_right_R_45', 'orientation': 'red_bottom_M_0'}",color,"['color', 'orientation', 'position']",blue_bottom_S_45,2,3,letter,2,False,False,"['robot_stimuli\\\\filler.mp4', 'robot_stimuli\\\\filler.mp4', 'robot_stimuli\\\\filler.mp4', 'robot_stimuli\\\\filler.mp4']",robot_stimuli\\filler.mp4,15,,,,,,,,,,,,,0,32,32,32,,,,,,,,,,,,,,,,,,1084.3505306001753,,,1094.887970900163,1094.887970900163,1094.887970900163,3,1.4727483997121453,1096.390912100207,1096.390912100207,1096.390912100207,1096.390912100207,1096.390912100207,1096.390912100207,1096.390912100207,1096.390912100207,None,None,None,,,,1086.4045583000407,,,,,,,,1084.3505306001753,1084.3505306001753,None,,,1084.3505306001753,1084.3505306001753,1092.8684283001348,1094.887970900163,15,001,2024-09-09_15h54.46.895,robot_cogshifting_sign,2022.2.5,59.87418051244051,
"['blue_bottom_K_45', 'red_top_D_45', 'blue_top_C_45', 'blue_top_S_0']","{'color': 'red_top_D_45', 'position': 'blue_bottom_K_45', 'orientation': 'blue_top_S_0'}",position,"['color', 'orientation', 'position']",blue_bottom_K_45,0,3,letter,2,False,False,"['robot_stimuli\\\\filler.mp4', 'robot_stimuli\\\\filler.mp4', 'robot_stimuli\\\\filler.mp4', 'robot_stimuli\\\\filler.mp4']",robot_stimuli\\filler.mp4,15,,,,,,,,,,,,,0,33,33,33,,,,,,,,,,,,,,,,,,1096.390912100207,,,1107.1287148003466,1107.1287148003466,1107.1287148003466,1,3.360581200104207,1110.518711199984,1110.518711199984,1110.518711199984,1110.518711199984,1110.518711199984,1110.518711199984,1110.518711199984,1110.518711199984,None,None,None,,,,1098.4616622002795,,,,,,,,1096.390912100207,1096.390912100207,None,,,1096.390912100207,1096.390912100207,1104.9077265001833,1107.1287148003466,15,001,2024-09-09_15h54.46.895,robot_cogshifting_sign,2022.2.5,59.87418051244051,
"['red_bottom_X_0', 'blue_top_V_0', 'red_top_H_0', 'red_top_H_45']","{'color': 'blue_top_V_0', 'position': 'red_bottom_X_0', 'orientation': 'red_top_H_45'}",color,"['color', 'orientation', 'position']",blue_top_V_0,1,3,letter,2,False,False,"['robot_stimuli\\\\filler.mp4', 'robot_stimuli\\\\filler.mp4', 'robot_stimuli\\\\filler.mp4', 'robot_stimuli\\\\filler.mp4']",robot_stimuli\\filler.mp4,15,,,,,,,,,,,,,0,34,34,34,,,,,,,,,,,,,,,,,,1110.518711199984,,,1121.2565063000657,1121.2565063000657,1121.2565063000657,2,1.1600820999592543,1122.4421268003061,1122.4421268003061,1122.4421268003061,1122.4421268003061,1122.4421268003061,1122.4421268003061,1122.4421268003061,1122.4421268003061,None,None,None,,,,1112.5894221002236,,,,,,,,1110.518711199984,1110.518711199984,None,,,1110.518711199984,1110.518711199984,1119.2192528001033,1121.2565063000657,15,001,2024-09-09_15h54.46.895,robot_cogshifting_sign,2022.2.5,59.87418051244051,
"['red_top_C_0', 'blue_top_S_45', 'blue_top_J_0', 'blue_right_M_0']","{'color': 'red_top_C_0', 'position': 'blue_right_M_0', 'orientation': 'blue_top_S_45'}",position,"['color', 'orientation', 'position']",blue_right_M_0,3,3,letter,2,False,True,"['robot_stimuli\\\\filler.mp4', 'robot_stimuli\\\\filler.mp4', 'robot_stimuli\\\\filler.mp4', 'robot_stimuli\\\\filler.mp4']",robot_stimuli\\filler.mp4,15,,,,,,,,,,,,,0,35,35,35,,,,,,,,,,,,,,,,,,1122.4421268003061,,,1133.3803685000166,1133.3803685000166,1133.3803685000166,4,1.3567006001248956,1134.7998394002207,1138.4570335000753,1134.7998394002207,1138.4570335000753,1134.7998394002207,1138.4570335000753,1134.7998394002207,1138.4570335000753,50.079365079365076,3.0655828998424113,space,,,,1124.5130115002394,3.5933719002641737,,,,,,,1122.4421268003061,1122.4421268003061,None,,,1122.4421268003061,1122.4421268003061,1131.3598234001547,1133.3803685000166,15,001,2024-09-09_15h54.46.895,robot_cogshifting_sign,2022.2.5,59.87418051244051,
"['blue_left_L_45', 'blue_bottom_C_45', 'red_left_Z_45', 'blue_left_M_0']","{'color': 'red_left_Z_45', 'position': 'blue_bottom_C_45', 'orientation': 'blue_left_M_0'}",position,['position'],blue_bottom_C_45,1,1,letter,2,True,False,"['robot_stimuli\\\\filler.mp4', 'robot_stimuli\\\\filler.mp4', 'robot_stimuli\\\\filler.mp4', 'robot_stimuli\\\\filler.mp4']",robot_stimuli\\filler.mp4,15,,,,,,,,,,,,,0,36,36,36,,,,,,,,,,,,,,,,,,1139.8097132002003,,,1150.1634121001698,1150.1634121001698,1150.1634121001698,2,0.365762900095433,1150.5474726003595,1150.5474726003595,1150.5474726003595,1150.5474726003595,1150.5474726003595,1150.5474726003595,1150.5474726003595,1150.5474726003595,None,None,None,,,,,,,,,,,,1138.4570335000753,1138.4570335000753,space,1.3275986001826823,,,,1148.1428185002878,1150.1634121001698,15,001,2024-09-09_15h54.46.895,robot_cogshifting_sign,2022.2.5,59.87418051244051,
"['red_right_N_0', 'blue_left_K_0', 'blue_right_F_0', 'blue_right_J_45']","{'color': 'red_right_N_0', 'position': 'blue_left_K_0', 'orientation': 'blue_right_J_45'}",color,['color'],red_right_N_0,0,1,letter,2,False,False,"['robot_stimuli\\\\filler.mp4', 'robot_stimuli\\\\filler.mp4', 'robot_stimuli\\\\filler.mp4', 'robot_stimuli\\\\filler.mp4']",robot_stimuli\\filler.mp4,15,,,,,,,,,,,,,0,37,37,37,,,,,,,,,,,,,,,,,,1150.5474726003595,,,1161.5191112002358,1161.5191112002358,1161.5191112002358,1,0.4424936999566853,1161.9866834003478,1161.9866834003478,1161.9866834003478,1161.9866834003478,1161.9866834003478,1161.9866834003478,1161.9866834003478,1161.9866834003478,None,None,None,,,,1152.618283800315,,,,,,,,1150.5474726003595,1150.5474726003595,None,,,1150.5474726003595,1150.5474726003595,1159.281392100267,1161.5191112002358,15,001,2024-09-09_15h54.46.895,robot_cogshifting_sign,2022.2.5,59.87418051244051,
"['blue_left_M_0', 'blue_top_P_45', 'red_top_N_0', 'blue_top_F_0']","{'color': 'red_top_N_0', 'position': 'blue_left_M_0', 'orientation': 'blue_top_P_45'}",position,['position'],blue_left_M_0,0,1,letter,2,False,False,"['robot_stimuli\\\\filler.mp4', 'robot_stimuli\\\\filler.mp4', 'robot_stimuli\\\\filler.mp4', 'robot_stimuli\\\\filler.mp4']",robot_stimuli\\filler.mp4,15,,,,,,,,,,,,,0,38,38,38,,,,,,,,,,,,,,,,,,1161.9866834003478,,,1172.5240716002882,1172.5240716002882,1172.5240716002882,1,0.5328609002754092,1173.0756716001779,1173.0756716001779,1173.0756716001779,1173.0756716001779,1173.0756716001779,1173.0756716001779,1173.0756716001779,1173.0756716001779,None,None,None,,,,1164.0575140002184,,,,,,,,1161.9866834003478,1161.9866834003478,None,,,1161.9866834003478,1161.9866834003478,1170.503535900265,1172.5240716002882,15,001,2024-09-09_15h54.46.895,robot_cogshifting_sign,2022.2.5,59.87418051244051,
"['blue_left_B_45', 'red_left_Z_45', 'blue_bottom_Q_45', 'blue_left_M_0']","{'color': 'red_left_Z_45', 'position': 'blue_bottom_Q_45', 'orientation': 'blue_left_M_0'}",color,['color'],red_left_Z_45,1,1,letter,2,False,False,"['robot_stimuli\\\\filler.mp4', 'robot_stimuli\\\\filler.mp4', 'robot_stimuli\\\\filler.mp4', 'robot_stimuli\\\\filler.mp4']",robot_stimuli\\filler.mp4,15,,,,,,,,,,,,,0,39,39,39,,,,,,,,,,,,,,,,,,1173.0756716001779,,,1183.9966808999889,1183.9966808999889,1183.9966808999889,2,0.35581269999966025,1184.3807586003095,1184.3807586003095,1184.3807586003095,1184.3807586003095,1184.3807586003095,1184.3807586003095,1184.3807586003095,1184.3807586003095,None,None,None,,,,1175.145964700263,,,,,,,,1173.0756716001779,1173.0756716001779,None,,,1173.0756716001779,1173.0756716001779,1181.7924983999692,1183.9966808999889,15,001,2024-09-09_15h54.46.895,robot_cogshifting_sign,2022.2.5,59.87418051244051,
"['red_bottom_M_0', 'red_bottom_H_45', 'blue_bottom_F_45', 'red_right_T_45']","{'color': 'blue_bottom_F_45', 'position': 'red_right_T_45', 'orientation': 'red_bottom_M_0'}",position,['position'],red_right_T_45,3,1,letter,2,False,False,"['robot_stimuli\\\\filler.mp4', 'robot_stimuli\\\\filler.mp4', 'robot_stimuli\\\\filler.mp4', 'robot_stimuli\\\\filler.mp4']",robot_stimuli\\filler.mp4,15,,,,,,,,,,,,,0,40,40,40,,,,,,,,,,,,,,,,,,1184.3807586003095,,,1195.318958800286,1195.318958800286,1195.318958800286,4,1.2033338998444378,1196.5547202001326,1196.5547202001326,1196.5547202001326,1196.5547202001326,1196.5547202001326,1196.5547202001326,1196.5547202001326,1196.5547202001326,None,None,None,,,,1186.4515545000322,,,,,,,,1184.3807586003095,1184.3807586003095,None,,,1184.3807586003095,1184.3807586003095,1193.2983217001893,1195.318958800286,15,001,2024-09-09_15h54.46.895,robot_cogshifting_sign,2022.2.5,59.87418051244051,
"['blue_left_V_0', 'blue_right_G_0', 'blue_right_R_45', 'red_right_R_0']","{'color': 'red_right_R_0', 'position': 'blue_left_V_0', 'orientation': 'blue_right_R_45'}",orientation,['orientation'],blue_right_R_45,2,1,letter,2,False,False,"['robot_stimuli\\\\filler.mp4', 'robot_stimuli\\\\filler.mp4', 'robot_stimuli\\\\filler.mp4', 'robot_stimuli\\\\filler.mp4']",robot_stimuli\\filler.mp4,15,,,,,,,,,,,,,0,41,41,41,,,,,,,,,,,,,,,,,,1196.5547202001326,,,1207.292512900196,1207.292512900196,1207.292512900196,3,0.6922490000724792,1208.0105846002698,1208.0105846002698,1208.0105846002698,1208.0105846002698,1208.0105846002698,1208.0105846002698,1208.0105846002698,1208.0105846002698,None,None,None,,,,1198.6255487003364,,,,,,,,1196.5547202001326,1196.5547202001326,None,,,1196.5547202001326,1196.5547202001326,1205.2552328999154,1207.292512900196,15,001,2024-09-09_15h54.46.895,robot_cogshifting_sign,2022.2.5,59.87418051244051,
"['red_bottom_B_45', 'red_top_X_0', 'red_top_J_45', 'blue_top_X_45']","{'color': 'blue_top_X_45', 'position': 'red_bottom_B_45', 'orientation': 'red_top_X_0'}",color,['color'],blue_top_X_45,3,1,letter,2,False,False,"['robot_stimuli\\\\filler.mp4', 'robot_stimuli\\\\filler.mp4', 'robot_stimuli\\\\filler.mp4', 'robot_stimuli\\\\filler.mp4']",robot_stimuli\\filler.mp4,15,,,,,,,,,,,,,0,42,42,42,,,,,,,,,,,,,,,,,,1208.0105846002698,,,1218.7483605002053,1218.7483605002053,1218.7483605002053,4,0.47713600005954504,1219.2493738001212,1219.2493738001212,1219.2493738001212,1219.2493738001212,1219.2493738001212,1219.2493738001212,1219.2493738001212,1219.2493738001212,None,None,None,,,,1210.0813808999956,,,,,,,,1208.0105846002698,1208.0105846002698,None,,,1208.0105846002698,1208.0105846002698,1216.7278917999938,1218.7483605002053,15,001,2024-09-09_15h54.46.895,robot_cogshifting_sign,2022.2.5,59.87418051244051,
"['blue_bottom_R_0', 'red_bottom_R_0', 'red_bottom_F_45', 'red_right_N_0']","{'color': 'blue_bottom_R_0', 'position': 'red_right_N_0', 'orientation': 'red_bottom_F_45'}",orientation,['orientation'],red_bottom_F_45,2,1,letter,2,False,False,"['robot_stimuli\\\\filler.mp4', 'robot_stimuli\\\\filler.mp4', 'robot_stimuli\\\\filler.mp4', 'robot_stimuli\\\\filler.mp4']",robot_stimuli\\filler.mp4,15,,,,,,,,,,,,,0,43,43,43,,,,,,,,,,,,,,,,,,1219.2493738001212,,,1230.0039939000271,1230.0039939000271,1230.0039939000271,3,0.4447310999967158,1230.4714929000475,1230.4714929000475,1230.4714929000475,1230.4714929000475,1230.4714929000475,1230.4714929000475,1230.4714929000475,1230.4714929000475,None,None,None,,,,1221.3201959002763,,,,,,,,1219.2493738001212,1219.2493738001212,None,,,1219.2493738001212,1219.2493738001212,1227.966749300249,1230.0039939000271,15,001,2024-09-09_15h54.46.895,robot_cogshifting_sign,2022.2.5,59.87418051244051,
"['blue_right_T_0', 'red_left_N_0', 'red_right_T_45', 'red_right_S_0']","{'color': 'blue_right_T_0', 'position': 'red_left_N_0', 'orientation': 'red_right_T_45'}",orientation,['orientation'],red_right_T_45,2,1,letter,2,False,True,"['robot_stimuli\\\\filler.mp4', 'robot_stimuli\\\\filler.mp4', 'robot_stimuli\\\\filler.mp4', 'robot_stimuli\\\\filler.mp4']",robot_stimuli\\filler.mp4,15,,,,,,,,,,,,,0,44,44,44,,,,,,,,,,,,,,,,,,1230.4714929000475,,,1241.6101143001579,1241.6101143001579,1241.6101143001579,3,1.0547421998344362,1242.7289422000758,1247.6720096003264,1242.7289422000758,1247.6720096003264,1242.7289422000758,1247.6720096003264,1242.7289422000758,1247.6720096003264,31.98412698412698,3.5850722999311984,space,,,,1232.5422792001627,4.87169099971652,,,,,,,1230.4714929000475,1230.4714929000475,None,,,1230.4714929000475,1230.4714929000475,1239.3891917001456,1241.6101143001579,15,001,2024-09-09_15h54.46.895,robot_cogshifting_sign,2022.2.5,59.87418051244051,
"['blue_top_W_0', 'red_top_L_45', 'blue_top_F_45', 'blue_bottom_K_45']","{'color': 'red_top_L_45', 'position': 'blue_bottom_K_45', 'orientation': 'blue_top_W_0'}",position,"['color', 'position']",blue_bottom_K_45,3,2,letter,2,True,False,"['robot_stimuli\\\\filler.mp4', 'robot_stimuli\\\\filler.mp4', 'robot_stimuli\\\\filler.mp4', 'robot_stimuli\\\\filler.mp4']",robot_stimuli\\filler.mp4,15,,,,,,,,,,,,,0,45,45,45,,,,,,,,,,,,,,,,,,1252.7820727000944,,,1263.3194769001566,1263.3194769001566,1263.3194769001566,4,1.6016855998896062,1264.9393329001032,1264.9393329001032,1264.9393329001032,1264.9393329001032,1264.9393329001032,1264.9393329001032,1264.9393329001032,1264.9393329001032,None,None,None,,,,,,,,,,,,1247.6720096003264,1247.6720096003264,space,5.081865000072867,,,,1261.299002200365,1263.3194769001566,15,001,2024-09-09_15h54.46.895,robot_cogshifting_sign,2022.2.5,59.87418051244051,
"['red_right_M_0', 'red_top_N_0', 'blue_right_R_0', 'red_right_F_45']","{'color': 'blue_right_R_0', 'position': 'red_top_N_0', 'orientation': 'red_right_F_45'}",color,"['color', 'orientation']",blue_right_R_0,2,2,letter,2,False,False,"['robot_stimuli\\\\filler.mp4', 'robot_stimuli\\\\filler.mp4', 'robot_stimuli\\\\filler.mp4', 'robot_stimuli\\\\filler.mp4']",robot_stimuli\\filler.mp4,15,,,,,,,,,,,,,0,46,46,46,,,,,,,,,,,,,,,,,,1264.9393329001032,,,1275.877508000005,1275.877508000005,1275.877508000005,3,1.6437425999902189,1277.547470800113,1277.547470800113,1277.547470800113,1277.547470800113,1277.547470800113,1277.547470800113,1277.547470800113,1277.547470800113,None,None,None,,,,1267.010165499989,,,,,,,,1264.9393329001032,1264.9393329001032,None,,,1264.9393329001032,1264.9393329001032,1273.6564739001915,1275.877508000005,15,001,2024-09-09_15h54.46.895,robot_cogshifting_sign,2022.2.5,59.87418051244051,
"['red_top_D_0', 'blue_top_K_0', 'blue_top_S_45', 'blue_right_G_0']","{'color': 'red_top_D_0', 'position': 'blue_right_G_0', 'orientation': 'blue_top_S_45'}",color,"['color', 'position']",red_top_D_0,0,2,letter,2,False,False,"['robot_stimuli\\\\filler.mp4', 'robot_stimuli\\\\filler.mp4', 'robot_stimuli\\\\filler.mp4', 'robot_stimuli\\\\filler.mp4']",robot_stimuli\\filler.mp4,15,,,,,,,,,,,,,0,47,47,47,,,,,,,,,,,,,,,,,,1277.547470800113,,,1288.5023650000803,1288.5023650000803,1288.5023650000803,1,1.0906380000524223,1289.6212417003699,1289.6212417003699,1289.6212417003699,1289.6212417003699,1289.6212417003699,1289.6212417003699,1289.6212417003699,1289.6212417003699,None,None,None,,,,1279.6183364000171,,,,,,,,1277.547470800113,1277.547470800113,None,,,1277.547470800113,1277.547470800113,1286.2980162999593,1288.5023650000803,15,001,2024-09-09_15h54.46.895,robot_cogshifting_sign,2022.2.5,59.87418051244051,
"['red_right_B_0', 'red_bottom_F_45', 'red_right_J_45', 'blue_right_N_45']","{'color': 'blue_right_N_45', 'position': 'red_bottom_F_45', 'orientation': 'red_right_B_0'}",orientation,"['orientation', 'position']",red_right_B_0,0,2,letter,2,False,False,"['robot_stimuli\\\\filler.mp4', 'robot_stimuli\\\\filler.mp4', 'robot_stimuli\\\\filler.mp4', 'robot_stimuli\\\\filler.mp4']",robot_stimuli\\filler.mp4,15,,,,,,,,,,,,,0,48,48,48,,,,,,,,,,,,,,,,,,1289.6212417003699,,,1300.576144900173,1300.576144900173,1300.576144900173,1,3.1927738999947906,1303.7991289999336,1303.7991289999336,1303.7991289999336,1303.7991289999336,1303.7991289999336,1303.7991289999336,1303.7991289999336,1303.7991289999336,None,None,None,,,,1291.6920651001856,,,,,,,,1289.6212417003699,1289.6212417003699,None,,,1289.6212417003699,1289.6212417003699,1298.5388814001344,1300.576144900173,15,001,2024-09-09_15h54.46.895,robot_cogshifting_sign,2022.2.5,59.87418051244051,
"['blue_right_K_45', 'red_right_T_0', 'blue_right_N_0', 'blue_bottom_H_0']","{'color': 'red_right_T_0', 'position': 'blue_bottom_H_0', 'orientation': 'blue_right_K_45'}",position,"['orientation', 'position']",blue_bottom_H_0,3,2,letter,2,False,False,"['robot_stimuli\\\\filler.mp4', 'robot_stimuli\\\\filler.mp4', 'robot_stimuli\\\\filler.mp4', 'robot_stimuli\\\\filler.mp4']",robot_stimuli\\filler.mp4,15,,,,,,,,,,,,,0,49,49,49,,,,,,,,,,,,,,,,,,1303.7991289999336,,,1314.9544263002463,1314.9544263002463,1314.9544263002463,4,1.4783168002031744,1316.4573925002478,1316.4573925002478,1316.4573925002478,1316.4573925002478,1316.4573925002478,1316.4573925002478,1316.4573925002478,1316.4573925002478,None,None,None,,,,1305.8699380001053,,,,,,,,1303.7991289999336,1303.7991289999336,None,,,1303.7991289999336,1303.7991289999336,1312.7334314002655,1314.9544263002463,15,001,2024-09-09_15h54.46.895,robot_cogshifting_sign,2022.2.5,59.87418051244051,
"['red_bottom_M_45', 'red_right_Q_0', 'blue_bottom_P_0', 'red_bottom_P_0']","{'color': 'blue_bottom_P_0', 'position': 'red_right_Q_0', 'orientation': 'red_bottom_M_45'}",position,"['orientation', 'position']",red_right_Q_0,1,2,letter,2,False,False,"['robot_stimuli\\\\filler.mp4', 'robot_stimuli\\\\filler.mp4', 'robot_stimuli\\\\filler.mp4', 'robot_stimuli\\\\filler.mp4']",robot_stimuli\\filler.mp4,15,,,,,,,,,,,,,0,50,50,50,,,,,,,,,,,,,,,,,,1316.4573925002478,,,1327.3955797003582,1327.3955797003582,1327.3955797003582,2,1.4785704002715647,1328.8985203001648,1328.8985203001648,1328.8985203001648,1328.8985203001648,1328.8985203001648,1328.8985203001648,1328.8985203001648,1328.8985203001648,None,None,None,,,,1318.5282331001945,,,,,,,,1316.4573925002478,1316.4573925002478,None,,,1316.4573925002478,1316.4573925002478,1325.375066000037,1327.3955797003582,15,001,2024-09-09_15h54.46.895,robot_cogshifting_sign,2022.2.5,59.87418051244051,
"['red_top_S_45', 'blue_top_R_0', 'blue_top_H_45', 'blue_left_W_45']","{'color': 'red_top_S_45', 'position': 'blue_left_W_45', 'orientation': 'blue_top_R_0'}",color,"['color', 'position']",red_top_S_45,0,2,letter,2,False,False,"['robot_stimuli\\\\filler.mp4', 'robot_stimuli\\\\filler.mp4', 'robot_stimuli\\\\filler.mp4', 'robot_stimuli\\\\filler.mp4']",robot_stimuli\\filler.mp4,15,,,,,,,,,,,,,0,51,51,51,,,,,,,,,,,,,,,,,,1328.8985203001648,,,1339.452666300349,1339.452666300349,1339.452666300349,1,1.284328700043261,1340.7551942002028,1340.7551942002028,1340.7551942002028,1340.7551942002028,1340.7551942002028,1340.7551942002028,1340.7551942002028,1340.7551942002028,None,None,None,,,,1330.969347300008,,,,,,,,1328.8985203001648,1328.8985203001648,None,,,1328.8985203001648,1328.8985203001648,1337.4322625002824,1339.452666300349,15,001,2024-09-09_15h54.46.895,robot_cogshifting_sign,2022.2.5,59.87418051244051,
"['red_left_K_45', 'red_top_J_0', 'red_left_D_0', 'blue_left_D_0']","{'color': 'blue_left_D_0', 'position': 'red_top_J_0', 'orientation': 'red_left_K_45'}",orientation,"['orientation', 'position']",red_left_K_45,0,2,letter,2,False,False,"['robot_stimuli\\\\filler.mp4', 'robot_stimuli\\\\filler.mp4', 'robot_stimuli\\\\filler.mp4', 'robot_stimuli\\\\filler.mp4']",robot_stimuli\\filler.mp4,15,,,,,,,,,,,,,0,52,52,52,,,,,,,,,,,,,,,,,,1340.7551942002028,,,1351.3093548002653,1351.3093548002653,1351.3093548002653,1,1.115623400080949,1352.444884300232,1352.444884300232,1352.444884300232,1352.444884300232,1352.444884300232,1352.444884300232,1352.444884300232,1352.444884300232,None,None,None,,,,1342.8259696001187,,,,,,,,1340.7551942002028,1340.7551942002028,None,,,1340.7551942002028,1340.7551942002028,1349.2727055000141,1351.3093548002653,15,001,2024-09-09_15h54.46.895,robot_cogshifting_sign,2022.2.5,59.87418051244051,
"['blue_right_W_0', 'blue_top_V_0', 'red_right_B_0', 'blue_right_P_45']","{'color': 'red_right_B_0', 'position': 'blue_top_V_0', 'orientation': 'blue_right_P_45'}",orientation,"['color', 'orientation']",blue_right_P_45,3,2,letter,2,False,True,"['robot_stimuli\\\\filler.mp4', 'robot_stimuli\\\\filler.mp4', 'robot_stimuli\\\\filler.mp4', 'robot_stimuli\\\\filler.mp4']",robot_stimuli\\filler.mp4,15,,,,,,,,,,,,,0,53,53,53,,,,,,,,,,,,,,,,,,1352.444884300232,,,1362.982279700227,1362.982279700227,1362.982279700227,4,7.106040499638766,1370.1463939002715,1375.1228585001081,1370.1463939002715,1375.1228585001081,1370.1463939002715,1375.1228585001081,1370.1463939002715,1375.1228585001081,57.06349206349206,4.218496200162917,space,,,,1354.4989897003397,4.910133100114763,,,,,,,1352.444884300232,1352.444884300232,None,,,1352.444884300232,1352.444884300232,1360.9618441001512,1362.982279700227,15,001,2024-09-09_15h54.46.895,robot_cogshifting_sign,2022.2.5,59.87418051244051,
"['R_Arm_Z_For', 'R_Arm_X_Back', 'L_Arm_X_For', 'R_Torso_X_For']","{'laterality': 'L_Arm_X_For', 'localisation': 'R_Torso_X_For', 'movement': 'R_Arm_Z_For'}",movement,"['laterality', 'localisation', 'movement']",R_Arm_Z_For,0,3,robot,3,True,False,"['robot_stimuli\\R_Arm_Z_For.mp4', 'robot_stimuli\\R_Arm_X_Back.mp4', 'robot_stimuli\\L_Arm_X_For.mp4', 'robot_stimuli\\R_Torso_X_For.mp4']",robot_stimuli\R_Arm_Z_For.mp4,15,,,,,,,,,,,,,0,54,54,54,,,,,,,,,,,,,,,,,,1387.1298299003392,,,1404.046408600174,1404.046408600174,1404.046408600174,1,6.617950400337577,1410.6928803003393,1410.6928803003393,1410.6928803003393,1410.6928803003393,1410.6928803003393,1410.6928803003393,1410.6928803003393,1410.6928803003393,None,None,None,,,,,,,,,,,,1375.1228585001081,1375.1228585001081,space,11.99043140001595,1400.3892864002846,,,,,15,001,2024-09-09_15h54.46.895,robot_cogshifting_sign,2022.2.5,59.87418051244051,
"['R_Head_Z_For', 'L_Head_X_Back', 'R_Torso_X_Back', 'R_Head_X_For']","{'laterality': 'L_Head_X_Back', 'localisation': 'R_Torso_X_Back', 'movement': 'R_Head_Z_For'}",localisation,"['laterality', 'localisation', 'movement']",R_Torso_X_Back,2,3,robot,3,False,False,"['robot_stimuli\\R_Head_Z_For.mp4', 'robot_stimuli\\L_Head_X_Back.mp4', 'robot_stimuli\\R_Torso_X_Back.mp4', 'robot_stimuli\\R_Head_X_For.mp4']",robot_stimuli\R_Torso_X_Back.mp4,15,,,,,,,,,,,,,0,55,55,55,,,,,,,,,,,,,,,,,,1410.6928803003393,,,1427.5927732000127,1427.5927732000127,1427.5927732000127,3,2.0235513001680374,1429.646844400093,1429.646844400093,1429.646844400093,1429.646844400093,1429.646844400093,1429.646844400093,1429.646844400093,1429.646844400093,None,None,None,,,,1412.7803282001987,,,,,,,,1410.6928803003393,1410.6928803003393,None,,1423.9523082999513,1410.6928803003393,1410.6928803003393,,,15,001,2024-09-09_15h54.46.895,robot_cogshifting_sign,2022.2.5,59.87418051244051,
"['L_Head_Z_Back', 'L_Arm_Z_Back', 'L_Arm_X_For', 'R_Arm_Z_For']","{'laterality': 'R_Arm_Z_For', 'localisation': 'L_Head_Z_Back', 'movement': 'L_Arm_X_For'}",movement,"['laterality', 'localisation', 'movement']",L_Arm_X_For,2,3,robot,3,False,False,"['robot_stimuli\\L_Head_Z_Back.mp4', 'robot_stimuli\\L_Arm_Z_Back.mp4', 'robot_stimuli\\L_Arm_X_For.mp4', 'robot_stimuli\\R_Arm_Z_For.mp4']",robot_stimuli\L_Arm_X_For.mp4,15,,,,,,,,,,,,,0,56,56,56,,,,,,,,,,,,,,,,,,1429.646844400093,,,1446.530069600325,1446.530069600325,1446.530069600325,3,5.287262899801135,1451.8404721003026,1451.8404721003026,1451.8404721003026,1451.8404721003026,1451.8404721003026,1451.8404721003026,1451.8404721003026,1451.8404721003026,None,None,None,,,,1431.7343393000774,,,,,,,,1429.646844400093,1429.646844400093,None,,1442.889587700367,1429.646844400093,1429.646844400093,,,15,001,2024-09-09_15h54.46.895,robot_cogshifting_sign,2022.2.5,59.87418051244051,
"['R_Torso_Y_Back', 'L_Torso_Z_Back', 'L_Base_Y_Back', 'L_Torso_Y_For']","{'laterality': 'R_Torso_Y_Back', 'localisation': 'L_Base_Y_Back', 'movement': 'L_Torso_Z_Back'}",laterality,"['laterality', 'localisation', 'movement']",R_Torso_Y_Back,0,3,robot,3,False,False,"['robot_stimuli\\R_Torso_Y_Back.mp4', 'robot_stimuli\\L_Torso_Z_Back.mp4', 'robot_stimuli\\L_Base_Y_Back.mp4', 'robot_stimuli\\L_Torso_Y_For.mp4']",robot_stimuli\R_Torso_Y_Back.mp4,15,,,,,,,,,,,,,0,57,57,57,,,,,,,,,,,,,,,,,,1451.8404721003026,,,1468.5400765002705,1468.5400765002705,1468.5400765002705,1,1.7809534003026783,1470.3436310999095,1470.3436310999095,1470.3436310999095,1470.3436310999095,1470.3436310999095,1470.3436310999095,1470.3436310999095,1470.3436310999095,None,None,None,,,,1453.9279883001,,,,,,,,1451.8404721003026,1451.8404721003026,None,,1464.8996003000066,1451.8404721003026,1451.8404721003026,,,15,001,2024-09-09_15h54.46.895,robot_cogshifting_sign,2022.2.5,59.87418051244051,
"['L_Arm_Z_For', 'L_Head_X_For', 'R_Head_Z_For', 'L_Head_Z_For']","{'laterality': 'R_Head_Z_For', 'localisation': 'L_Arm_Z_For', 'movement': 'L_Head_X_For'}",movement,"['laterality', 'localisation', 'movement']",L_Head_X_For,1,3,robot,3,False,False,"['robot_stimuli\\L_Arm_Z_For.mp4', 'robot_stimuli\\L_Head_X_For.mp4', 'robot_stimuli\\R_Head_Z_For.mp4', 'robot_stimuli\\L_Head_Z_For.mp4']",robot_stimuli\L_Head_X_For.mp4,15,,,,,,,,,,,,,0,58,58,58,,,,,,,,,,,,,,,,,,1470.3436310999095,,,1487.1767115001567,1487.1767115001567,1487.1767115001567,2,2.3284916998818517,1489.531347699929,1489.531347699929,1489.531347699929,1489.531347699929,1489.531347699929,1489.531347699929,1489.531347699929,1489.531347699929,None,None,None,,,,1472.4310393002816,,,,,,,,1470.3436310999095,1470.3436310999095,None,,1483.5362724000588,1470.3436310999095,1470.3436310999095,,,15,001,2024-09-09_15h54.46.895,robot_cogshifting_sign,2022.2.5,59.87418051244051,
"['L_Head_Y_Back', 'L_Torso_X_For', 'R_Torso_Y_For', 'L_Torso_Y_Back']","{'laterality': 'R_Torso_Y_For', 'localisation': 'L_Head_Y_Back', 'movement': 'L_Torso_X_For'}",localisation,"['laterality', 'localisation', 'movement']",L_Head_Y_Back,0,3,robot,3,False,False,"['robot_stimuli\\L_Head_Y_Back.mp4', 'robot_stimuli\\L_Torso_X_For.mp4', 'robot_stimuli\\R_Torso_Y_For.mp4', 'robot_stimuli\\L_Torso_Y_Back.mp4']",robot_stimuli\L_Head_Y_Back.mp4,15,,,,,,,,,,,,,0,59,59,59,,,,,,,,,,,,,,,,,,1489.531347699929,,,1506.2977114999667,1506.2977114999667,1506.2977114999667,1,1.2628957000561059,1507.5835977001116,1507.5835977001116,1507.5835977001116,1507.5835977001116,1507.5835977001116,1507.5835977001116,1507.5835977001116,1507.5835977001116,None,None,None,,,,1491.6188089000061,,,,,,,,1489.531347699929,1489.531347699929,None,,1502.774151599966,1489.531347699929,1489.531347699929,,,15,001,2024-09-09_15h54.46.895,robot_cogshifting_sign,2022.2.5,59.87418051244051,
"['L_Base_Y_Back', 'L_Base_Z_Back', 'R_Base_Z_Back', 'L_Torso_Z_For']","{'laterality': 'R_Base_Z_Back', 'localisation': 'L_Torso_Z_For', 'movement': 'L_Base_Y_Back'}",laterality,"['laterality', 'localisation', 'movement']",R_Base_Z_Back,2,3,robot,3,False,False,"['robot_stimuli\\L_Base_Y_Back.mp4', 'robot_stimuli\\L_Base_Z_Back.mp4', 'robot_stimuli\\R_Base_Z_Back.mp4', 'robot_stimuli\\L_Torso_Z_For.mp4']",robot_stimuli\R_Base_Z_Back.mp4,15,,,,,,,,,,,,,0,60,60,60,,,,,,,,,,,,,,,,,,1507.5835977001116,,,1524.3499195999466,1524.3499195999466,1524.3499195999466,3,1.9155096001923084,1526.2870509000495,1526.2870509000495,1526.2870509000495,1526.2870509000495,1526.2870509000495,1526.2870509000495,1526.2870509000495,1526.2870509000495,None,None,None,,,,1509.671056699939,,,,,,,,1507.5835977001116,1507.5835977001116,None,,1520.6927404999733,1507.5835977001116,1507.5835977001116,,,15,001,2024-09-09_15h54.46.895,robot_cogshifting_sign,2022.2.5,59.87418051244051,
"['L_Torso_X_Back', 'L_Head_Z_For', 'R_Head_X_For', 'L_Head_X_For']","{'laterality': 'R_Head_X_For', 'localisation': 'L_Torso_X_Back', 'movement': 'L_Head_Z_For'}",localisation,"['laterality', 'localisation', 'movement']",L_Torso_X_Back,0,3,robot,3,False,False,"['robot_stimuli\\L_Torso_X_Back.mp4', 'robot_stimuli\\L_Head_Z_For.mp4', 'robot_stimuli\\R_Head_X_For.mp4', 'robot_stimuli\\L_Head_X_For.mp4']",robot_stimuli\L_Torso_X_Back.mp4,15,,,,,,,,,,,,,0,61,61,61,,,,,,,,,,,,,,,,,,1526.2870509000495,,,1543.1201790999621,1543.1201790999621,1543.1201790999621,1,1.480733399745077,1544.6231486001052,1544.6231486001052,1544.6231486001052,1544.6231486001052,1544.6231486001052,1544.6231486001052,1544.6231486001052,1544.6231486001052,None,None,None,,,,1528.374526000116,,,,,,,,1526.2870509000495,1526.2870509000495,None,,1539.5465015000664,1526.2870509000495,1526.2870509000495,,,15,001,2024-09-09_15h54.46.895,robot_cogshifting_sign,2022.2.5,59.87418051244051,
"['R_Torso_Y_Back', 'L_Torso_Y_For', 'R_Head_Y_Back', 'R_Torso_X_For']","{'laterality': 'L_Torso_Y_For', 'localisation': 'R_Head_Y_Back', 'movement': 'R_Torso_X_For'}",laterality,"['laterality', 'localisation', 'movement']",L_Torso_Y_For,1,3,robot,3,False,True,"['robot_stimuli\\R_Torso_Y_Back.mp4', 'robot_stimuli\\L_Torso_Y_For.mp4', 'robot_stimuli\\R_Head_Y_Back.mp4', 'robot_stimuli\\R_Torso_X_For.mp4']",robot_stimuli\L_Torso_Y_For.mp4,15,,,,,,,,,,,,,0,62,62,62,,,,,,,,,,,,,,,,,,1544.6231486001052,,,1561.506372100208,1561.506372100208,1561.506372100208,2,4.430695899762213,1565.9985646000132,1568.754001900088,1565.9985646000132,1568.754001900088,1565.9985646000132,1568.754001900088,1565.9985646000132,1568.754001900088,75.7936507936508,2.030932900030166,space,,,,1546.7106353999116,2.690086000133306,,,,,,,1544.6231486001052,1544.6231486001052,None,,1557.8658994999714,1544.6231486001052,1544.6231486001052,,,15,001,2024-09-09_15h54.46.895,robot_cogshifting_sign,2022.2.5,59.87418051244051,
"['L_Head_Y_For', 'R_Torso_Y_Back', 'R_Head_Y_For', 'R_Head_X_Back']","{'laterality': 'L_Head_Y_For', 'localisation': 'R_Torso_Y_Back', 'movement': 'R_Head_X_Back'}",movement,['movement'],R_Head_X_Back,3,1,robot,3,True,False,"['robot_stimuli\\L_Head_Y_For.mp4', 'robot_stimuli\\R_Torso_Y_Back.mp4', 'robot_stimuli\\R_Head_Y_For.mp4', 'robot_stimuli\\R_Head_X_Back.mp4']",robot_stimuli\R_Head_X_Back.mp4,15,,,,,,,,,,,,,0,63,63,63,,,,,,,,,,,,,,,,,,1570.440642000176,,,1587.34057520004,1587.34057520004,1587.34057520004,4,0.7804407998919487,1588.1421213001013,1588.1421213001013,1588.1421213001013,1588.1421213001013,1588.1421213001013,1588.1421213001013,1588.1421213001013,1588.1421213001013,None,None,None,,,,,,,,,,,,1568.754001900088,1568.754001900088,space,1.6630611000582576,1583.7001014002599,,,,,15,001,2024-09-09_15h54.46.895,robot_cogshifting_sign,2022.2.5,59.87418051244051,
"['R_Arm_Z_Back', 'R_Torso_X_For', 'L_Torso_Z_Back', 'R_Torso_Z_For']","{'laterality': 'L_Torso_Z_Back', 'localisation': 'R_Arm_Z_Back', 'movement': 'R_Torso_X_For'}",laterality,['laterality'],L_Torso_Z_Back,2,1,robot,3,False,False,"['robot_stimuli\\R_Arm_Z_Back.mp4', 'robot_stimuli\\R_Torso_X_For.mp4', 'robot_stimuli\\L_Torso_Z_Back.mp4', 'robot_stimuli\\R_Torso_Z_For.mp4']",robot_stimuli\L_Torso_Z_Back.mp4,15,,,,,,,,,,,,,0,64,64,64,,,,,,,,,,,,,,,,,,1588.1421213001013,,,1604.908469100017,1604.908469100017,1604.908469100017,3,0.3408532999455929,1605.2758785001934,1605.2758785001934,1605.2758785001934,1605.2758785001934,1605.2758785001934,1605.2758785001934,1605.2758785001934,1605.2758785001934,None,None,None,,,,1590.2296162000857,,,,,,,,1588.1421213001013,1588.1421213001013,None,,1601.2680275002494,1588.1421213001013,1588.1421213001013,,,15,001,2024-09-09_15h54.46.895,robot_cogshifting_sign,2022.2.5,59.87418051244051,
"['L_Head_X_Back', 'R_Arm_X_Back', 'R_Head_Y_For', 'R_Head_X_For']","{'laterality': 'L_Head_X_Back', 'localisation': 'R_Arm_X_Back', 'movement': 'R_Head_Y_For'}",laterality,['laterality'],L_Head_X_Back,0,1,robot,3,False,False,"['robot_stimuli\\L_Head_X_Back.mp4', 'robot_stimuli\\R_Arm_X_Back.mp4', 'robot_stimuli\\R_Head_Y_For.mp4', 'robot_stimuli\\R_Head_X_For.mp4']",robot_stimuli\L_Head_X_Back.mp4,15,,,,,,,,,,,,,0,65,65,65,,,,,,,,,,,,,,,,,,1605.2758785001934,,,1622.1590845999308,1622.1590845999308,1622.1590845999308,1,0.8898534001782537,1623.077581200283,1623.077581200283,1623.077581200283,1623.077581200283,1623.077581200283,1623.077581200283,1623.077581200283,1623.077581200283,None,None,None,,,,1607.363307100255,,,,,,,,1605.2758785001934,1605.2758785001934,None,,1618.535326400306,1605.2758785001934,1605.2758785001934,,,15,001,2024-09-09_15h54.46.895,robot_cogshifting_sign,2022.2.5,59.87418051244051,
"['L_Head_Y_For', 'R_Head_X_For', 'L_Arm_X_Back', 'L_Head_X_For']","{'laterality': 'R_Head_X_For', 'localisation': 'L_Arm_X_Back', 'movement': 'L_Head_Y_For'}",laterality,['laterality'],R_Head_X_For,1,1,robot,3,False,False,"['robot_stimuli\\L_Head_Y_For.mp4', 'robot_stimuli\\R_Head_X_For.mp4', 'robot_stimuli\\L_Arm_X_Back.mp4', 'robot_stimuli\\L_Head_X_For.mp4']",robot_stimuli\R_Head_X_For.mp4,15,,,,,,,,,,,,,0,66,66,66,,,,,,,,,,,,,,,,,,1623.077581200283,,,1639.9107524999417,1639.9107524999417,1639.9107524999417,2,0.4496104996651411,1640.3782838000916,1640.3782838000916,1640.3782838000916,1640.3782838000916,1640.3782838000916,1640.3782838000916,1640.3782838000916,1640.3782838000916,None,None,None,,,,1625.165036899969,,,,,,,,1623.077581200283,1623.077581200283,None,,1636.3370557003655,1623.077581200283,1623.077581200283,,,15,001,2024-09-09_15h54.46.895,robot_cogshifting_sign,2022.2.5,59.87418051244051,
"['L_Torso_Y_For', 'L_Arm_X_Back', 'L_Arm_Y_Back', 'R_Arm_Y_Back']","{'laterality': 'R_Arm_Y_Back', 'localisation': 'L_Torso_Y_For', 'movement': 'L_Arm_X_Back'}",localisation,['localisation'],L_Torso_Y_For,0,1,robot,3,False,False,"['robot_stimuli\\L_Torso_Y_For.mp4', 'robot_stimuli\\L_Arm_X_Back.mp4', 'robot_stimuli\\L_Arm_Y_Back.mp4', 'robot_stimuli\\R_Arm_Y_Back.mp4']",robot_stimuli\L_Torso_Y_For.mp4,15,,,,,,,,,,,,,0,67,67,67,,,,,,,,,,,,,,,,,,1640.3782838000916,,,1657.2782434001565,1657.2782434001565,1657.2782434001565,1,0.8344761999323964,1658.129915300291,1658.129915300291,1658.129915300291,1658.129915300291,1658.129915300291,1658.129915300291,1658.129915300291,1658.129915300291,None,None,None,,,,1642.4657431999221,,,,,,,,1640.3782838000916,1640.3782838000916,None,,1653.6210456001572,1640.3782838000916,1640.3782838000916,,,15,001,2024-09-09_15h54.46.895,robot_cogshifting_sign,2022.2.5,59.87418051244051,
"['R_Base_Z_Back', 'L_Arm_Z_For', 'R_Arm_Z_Back', 'R_Arm_X_Back']","{'laterality': 'L_Arm_Z_For', 'localisation': 'R_Base_Z_Back', 'movement': 'R_Arm_X_Back'}",movement,['movement'],R_Arm_X_Back,3,1,robot,3,False,False,"['robot_stimuli\\R_Base_Z_Back.mp4', 'robot_stimuli\\L_Arm_Z_For.mp4', 'robot_stimuli\\R_Arm_Z_Back.mp4', 'robot_stimuli\\R_Arm_X_Back.mp4']",robot_stimuli\R_Arm_X_Back.mp4,15,,,,,,,,,,,,,0,68,68,68,,,,,,,,,,,,,,,,,,1658.129915300291,,,1674.9129405999556,1674.9129405999556,1674.9129405999556,4,0.8319143000990152,1675.764619000256,1675.764619000256,1675.764619000256,1675.764619000256,1675.764619000256,1675.764619000256,1675.764619000256,1675.764619000256,None,None,None,,,,1660.217358800117,,,,,,,,1658.129915300291,1658.129915300291,None,,1671.2724502999336,1658.129915300291,1658.129915300291,,,15,001,2024-09-09_15h54.46.895,robot_cogshifting_sign,2022.2.5,59.87418051244051,
"['L_Base_X_Back', 'R_Base_X_For', 'L_Base_Y_Back', 'L_Arm_X_For']","{'laterality': 'R_Base_X_For', 'localisation': 'L_Arm_X_For', 'movement': 'L_Base_Y_Back'}",localisation,['localisation'],L_Arm_X_For,3,1,robot,3,False,False,"['robot_stimuli\\L_Base_X_Back.mp4', 'robot_stimuli\\R_Base_X_For.mp4', 'robot_stimuli\\L_Base_Y_Back.mp4', 'robot_stimuli\\L_Arm_X_For.mp4']",robot_stimuli\L_Arm_X_For.mp4,15,,,,,,,,,,,,,0,69,69,69,,,,,,,,,,,,,,,,,,1675.764619000256,,,1692.4642103002407,1692.4642103002407,1692.4642103002407,4,0.4405204998329282,1692.9317335002124,1692.9317335002124,1692.9317335002124,1692.9317335002124,1692.9317335002124,1692.9317335002124,1692.9317335002124,1692.9317335002124,None,None,None,,,,1677.8521372000687,,,,,,,,1675.764619000256,1675.764619000256,None,,1688.8069699001499,1675.764619000256,1675.764619000256,,,15,001,2024-09-09_15h54.46.895,robot_cogshifting_sign,2022.2.5,59.87418051244051,
"['L_Arm_Z_For', 'L_Arm_Y_Back', 'L_Base_Y_Back', 'R_Arm_Y_For']","{'laterality': 'R_Arm_Y_For', 'localisation': 'L_Base_Y_Back', 'movement': 'L_Arm_Z_For'}",localisation,['localisation'],L_Base_Y_Back,2,1,robot,3,False,False,"['robot_stimuli\\L_Arm_Z_For.mp4', 'robot_stimuli\\L_Arm_Y_Back.mp4', 'robot_stimuli\\L_Base_Y_Back.mp4', 'robot_stimuli\\R_Arm_Y_For.mp4']",robot_stimuli\L_Base_Y_Back.mp4,15,,,,,,,,,,,,,0,70,70,70,,,,,,,,,,,,,,,,,,1692.9317335002124,,,1709.6312839002348,1709.6312839002348,1709.6312839002348,3,0.8659097999334335,1710.516363200266,1710.516363200266,1710.516363200266,1710.516363200266,1710.516363200266,1710.516363200266,1710.516363200266,1710.516363200266,None,None,None,,,,1695.019317700062,,,,,,,,1692.9317335002124,1692.9317335002124,None,,1706.1077004000545,1692.9317335002124,1692.9317335002124,,,15,001,2024-09-09_15h54.46.895,robot_cogshifting_sign,2022.2.5,59.87418051244051,
"['L_Torso_Z_Back', 'R_Torso_Z_For', 'R_Torso_Y_For', 'R_Arm_Z_Back']","{'laterality': 'L_Torso_Z_Back', 'localisation': 'R_Arm_Z_Back', 'movement': 'R_Torso_Y_For'}",movement,['movement'],R_Torso_Y_For,2,1,robot,3,False,True,"['robot_stimuli\\L_Torso_Z_Back.mp4', 'robot_stimuli\\R_Torso_Z_For.mp4', 'robot_stimuli\\R_Torso_Y_For.mp4', 'robot_stimuli\\R_Arm_Z_Back.mp4']",robot_stimuli\R_Torso_Y_For.mp4,15,,,,,,,,,,,,,0,71,71,71,,,,,,,,,,,,,,,,,,1710.516363200266,,,1727.2659538001753,1727.2659538001753,1727.2659538001753,3,0.26287780003622174,1727.5833173999563,1730.088203100022,1727.5833173999563,1730.088203100022,1727.5833173999563,1730.088203100022,1727.5833173999563,1730.088203100022,43.57142857142857,2.0134469997137785,space,,,,1712.6038069003262,2.4417674001306295,,,,,,,1710.516363200266,1710.516363200266,None,,1723.6255124001764,1710.516363200266,1710.516363200266,,,15,001,2024-09-09_15h54.46.895,robot_cogshifting_sign,2022.2.5,59.87418051244051,
"['L_Torso_Y_Back', 'R_Head_Y_Back', 'L_Head_Y_Back', 'L_Head_X_Back']","{'laterality': 'R_Head_Y_Back', 'localisation': 'L_Torso_Y_Back', 'movement': 'L_Head_X_Back'}",movement,"['localisation', 'movement']",L_Head_X_Back,3,2,robot,3,True,False,"['robot_stimuli\\L_Torso_Y_Back.mp4', 'robot_stimuli\\R_Head_Y_Back.mp4', 'robot_stimuli\\L_Head_Y_Back.mp4', 'robot_stimuli\\L_Head_X_Back.mp4']",robot_stimuli\L_Head_X_Back.mp4,15,,,,,,,,,,,,,0,72,72,72,,,,,,,,,,,,,,,,,,1731.8583904001862,,,1748.5913256001659,1748.5913256001659,1748.5913256001659,4,1.5769850998185575,1750.194483899977,1750.194483899977,1750.194483899977,1750.194483899977,1750.194483899977,1750.194483899977,1750.194483899977,1750.194483899977,None,None,None,,,,,,,,,,,,1730.088203100022,1730.088203100022,space,1.744104899931699,1744.9675022000447,,,,,15,001,2024-09-09_15h54.46.895,robot_cogshifting_sign,2022.2.5,59.87418051244051,
"['L_Head_X_Back', 'R_Head_Z_For', 'R_Arm_X_For', 'R_Head_X_For']","{'laterality': 'L_Head_X_Back', 'localisation': 'R_Arm_X_For', 'movement': 'R_Head_Z_For'}",laterality,"['laterality', 'movement']",L_Head_X_Back,0,2,robot,3,False,False,"['robot_stimuli\\L_Head_X_Back.mp4', 'robot_stimuli\\R_Head_Z_For.mp4', 'robot_stimuli\\R_Arm_X_For.mp4', 'robot_stimuli\\R_Head_X_For.mp4']",robot_stimuli\L_Head_X_Back.mp4,15,,,,,,,,,,,,,0,73,73,73,,,,,,,,,,,,,,,,,,1750.194483899977,,,1767.1110976999626,1767.1110976999626,1767.1110976999626,2,2.601683000102639,1769.7329557002522,1769.7329557002522,1769.7329557002522,1769.7329557002522,1769.7329557002522,1769.7329557002522,1769.7329557002522,1769.7329557002522,None,None,None,,,,1752.2819261001423,,,,,,,,1750.194483899977,1750.194483899977,None,,1763.4706017002463,1750.194483899977,1750.194483899977,,,15,001,2024-09-09_15h54.46.895,robot_cogshifting_sign,2022.2.5,59.87418051244051,
"['R_Base_Z_Back', 'R_Base_X_For', 'R_Head_Z_For', 'L_Base_Z_For']","{'laterality': 'L_Base_Z_For', 'localisation': 'R_Head_Z_For', 'movement': 'R_Base_X_For'}",localisation,"['localisation', 'movement']",R_Head_Z_For,2,2,robot,3,False,False,"['robot_stimuli\\R_Base_Z_Back.mp4', 'robot_stimuli\\R_Base_X_For.mp4', 'robot_stimuli\\R_Head_Z_For.mp4', 'robot_stimuli\\L_Base_Z_For.mp4']",robot_stimuli\R_Head_Z_For.mp4,15,,,,,,,,,,,,,0,74,74,74,,,,,,,,,,,,,,,,,,1769.7329557002522,,,1786.4492136002518,1786.4492136002518,1786.4492136002518,3,1.455660100094974,1787.9354276000522,1787.9354276000522,1787.9354276000522,1787.9354276000522,1787.9354276000522,1787.9354276000522,1787.9354276000522,1787.9354276000522,None,None,None,,,,1771.8204219001345,,,,,,,,1769.7329557002522,1769.7329557002522,None,,1782.8087361003272,1769.7329557002522,1769.7329557002522,,,15,001,2024-09-09_15h54.46.895,robot_cogshifting_sign,2022.2.5,59.87418051244051,
"['L_Torso_Y_Back', 'R_Torso_Z_Back', 'L_Torso_Z_For', 'L_Arm_Z_Back']","{'laterality': 'R_Torso_Z_Back', 'localisation': 'L_Arm_Z_Back', 'movement': 'L_Torso_Y_Back'}",movement,"['localisation', 'movement']",L_Torso_Y_Back,0,2,robot,3,False,False,"['robot_stimuli\\L_Torso_Y_Back.mp4', 'robot_stimuli\\R_Torso_Z_Back.mp4', 'robot_stimuli\\L_Torso_Z_For.mp4', 'robot_stimuli\\L_Arm_Z_Back.mp4']",robot_stimuli\L_Torso_Y_Back.mp4,15,,,,,,,,,,,,,0,75,75,75,,,,,,,,,,,,,,,,,,1787.9354276000522,,,1804.718485600315,1804.718485600315,1804.718485600315,1,2.5458941999822855,1807.2901825001463,1807.2901825001463,1807.2901825001463,1807.2901825001463,1807.2901825001463,1807.2901825001463,1807.2901825001463,1807.2901825001463,None,None,None,,,,1790.0228810003027,,,,,,,,1787.9354276000522,1787.9354276000522,None,,1801.0779943000525,1787.9354276000522,1787.9354276000522,,,15,001,2024-09-09_15h54.46.895,robot_cogshifting_sign,2022.2.5,59.87418051244051,
"['R_Torso_Y_Back', 'R_Base_Y_Back', 'L_Torso_Y_For', 'R_Torso_Z_Back']","{'laterality': 'L_Torso_Y_For', 'localisation': 'R_Base_Y_Back', 'movement': 'R_Torso_Z_Back'}",localisation,"['localisation', 'movement']",R_Base_Y_Back,1,2,robot,3,False,False,"['robot_stimuli\\R_Torso_Y_Back.mp4', 'robot_stimuli\\R_Base_Y_Back.mp4', 'robot_stimuli\\L_Torso_Y_For.mp4', 'robot_stimuli\\R_Torso_Z_Back.mp4']",robot_stimuli\R_Base_Y_Back.mp4,15,,,,,,,,,,,,,0,76,76,76,,,,,,,,,,,,,,,,,,1807.2901825001463,,,1824.173417800106,1824.173417800106,1824.173417800106,2,2.9388624001294374,1827.129233600106,1827.129233600106,1827.129233600106,1827.129233600106,1827.129233600106,1827.129233600106,1827.129233600106,1827.129233600106,None,None,None,,,,1809.3776782001369,,,,,,,,1807.2901825001463,1807.2901825001463,None,,1820.5496474001557,1807.2901825001463,1807.2901825001463,,,15,001,2024-09-09_15h54.46.895,robot_cogshifting_sign,2022.2.5,59.87418051244051,
"['R_Head_X_Back', 'L_Base_X_Back', 'L_Head_X_For', 'L_Head_Y_For']","{'laterality': 'R_Head_X_Back', 'localisation': 'L_Base_X_Back', 'movement': 'L_Head_Y_For'}",laterality,"['laterality', 'movement']",R_Head_X_Back,0,2,robot,3,False,False,"['robot_stimuli\\R_Head_X_Back.mp4', 'robot_stimuli\\L_Base_X_Back.mp4', 'robot_stimuli\\L_Head_X_For.mp4', 'robot_stimuli\\L_Head_Y_For.mp4']",robot_stimuli\R_Head_X_Back.mp4,15,,,,,,,,,,,,,0,77,77,77,,,,,,,,,,,,,,,,,,1827.129233600106,,,1843.9289685999975,1843.9289685999975,1843.9289685999975,1,1.1116113997995853,1845.06455880031,1845.06455880031,1845.06455880031,1845.06455880031,1845.06455880031,1845.06455880031,1845.06455880031,1845.06455880031,None,None,None,,,,1829.2166929002851,,,,,,,,1827.129233600106,1827.129233600106,None,,1840.2718076002784,1827.129233600106,1827.129233600106,,,15,001,2024-09-09_15h54.46.895,robot_cogshifting_sign,2022.2.5,59.87418051244051,
"['L_Arm_Z_Back', 'R_Arm_Y_For', 'L_Head_Y_Back', 'L_Arm_Y_Back']","{'laterality': 'R_Arm_Y_For', 'localisation': 'L_Head_Y_Back', 'movement': 'L_Arm_Z_Back'}",localisation,"['laterality', 'localisation']",L_Head_Y_Back,2,2,robot,3,False,False,"['robot_stimuli\\L_Arm_Z_Back.mp4', 'robot_stimuli\\R_Arm_Y_For.mp4', 'robot_stimuli\\L_Head_Y_Back.mp4', 'robot_stimuli\\L_Arm_Y_Back.mp4']",robot_stimuli\L_Head_Y_Back.mp4,15,,,,,,,,,,,,,0,78,78,78,,,,,,,,,,,,,,,,,,1845.06455880031,,,1861.8142400002107,1861.8142400002107,1861.8142400002107,3,1.6262257997877896,1863.4674682002515,1863.4674682002515,1863.4674682002515,1863.4674682002515,1863.4674682002515,1863.4674682002515,1863.4674682002515,1863.4674682002515,None,None,None,,,,1847.152025599964,,,,,,,,1845.06455880031,1845.06455880031,None,,1858.1736854999326,1845.06455880031,1845.06455880031,,,15,001,2024-09-09_15h54.46.895,robot_cogshifting_sign,2022.2.5,59.87418051244051,
"['R_Base_Y_Back', 'L_Arm_Y_For', 'L_Base_Y_For', 'L_Base_Z_For']","{'laterality': 'R_Base_Y_Back', 'localisation': 'L_Arm_Y_For', 'movement': 'L_Base_Z_For'}",movement,"['laterality', 'movement']",L_Base_Z_For,3,2,robot,3,False,False,"['robot_stimuli\\R_Base_Y_Back.mp4', 'robot_stimuli\\L_Arm_Y_For.mp4', 'robot_stimuli\\L_Base_Y_For.mp4', 'robot_stimuli\\L_Base_Z_For.mp4']",robot_stimuli\L_Base_Z_For.mp4,15,,,,,,,,,,,,,0,79,79,79,,,,,,,,,,,,,,,,,,1863.4674682002515,,,1880.2671906999312,1880.2671906999312,1880.2671906999312,4,1.5657580997794867,1881.8536481000483,1881.8536481000483,1881.8536481000483,1881.8536481000483,1881.8536481000483,1881.8536481000483,1881.8536481000483,1881.8536481000483,None,None,None,,,,1865.5548919001594,,,,,,,,1863.4674682002515,1863.4674682002515,None,,1876.610035400372,1863.4674682002515,1863.4674682002515,,,15,001,2024-09-09_15h54.46.895,robot_cogshifting_sign,2022.2.5,59.87418051244051,
"['R_Torso_X_For', 'L_Head_X_For', 'R_Head_X_For', 'R_Head_Y_For']","{'laterality': 'L_Head_X_For', 'localisation': 'R_Torso_X_For', 'movement': 'R_Head_Y_For'}",laterality,"['laterality', 'movement']",L_Head_X_For,1,2,robot,3,False,True,"['robot_stimuli\\R_Torso_X_For.mp4', 'robot_stimuli\\L_Head_X_For.mp4', 'robot_stimuli\\R_Head_X_For.mp4', 'robot_stimuli\\R_Head_Y_For.mp4']",robot_stimuli\L_Head_X_For.mp4,15,,,,,,,,,,,,,0,80,80,80,,,,,,,,,,,,,,,,,,1881.8536481000483,,,1898.686754300259,1898.686754300259,1898.686754300259,2,1.018083999864757,1899.7555479002185,1902.7614708002657,1899.7555479002185,1902.7614708002657,1899.7555479002185,1902.7614708002657,1899.7555479002185,1902.7614708002657,53.09523809523809,2.2473555002361536,space,,,,1883.941151500214,2.9332767999731004,,,,,,,1881.8536481000483,1881.8536481000483,None,,1895.0462879003026,1881.8536481000483,1881.8536481000483,,,15,001,2024-09-09_15h54.46.895,robot_cogshifting_sign,2022.2.5,59.87418051244051,
"['red_left_B_45', 'red_bottom_V_45', 'blue_bottom_X_45', 'red_bottom_P_0']","{'color': 'blue_bottom_X_45', 'position': 'red_left_B_45', 'orientation': 'red_bottom_P_0'}",position,"['color', 'position']",red_left_B_45,0,2,letter,4,True,False,"['robot_stimuli\\\\filler.mp4', 'robot_stimuli\\\\filler.mp4', 'robot_stimuli\\\\filler.mp4', 'robot_stimuli\\\\filler.mp4']",robot_stimuli\\filler.mp4,15,,,,,,,,,,,,,0,81,81,81,,,,,,,,,,,,,,,,,,1909.6249807002023,,,1920.1623806999996,1920.1623806999996,1920.1623806999996,3,1.7982745999470353,1921.9826794001274,1921.9826794001274,1921.9826794001274,1921.9826794001274,1921.9826794001274,1921.9826794001274,1921.9826794001274,1921.9826794001274,None,None,None,,,,,,,,,,,,1902.7614708002657,1902.7614708002657,space,6.839648500084877,,,,1918.1419886001386,1920.1623806999996,15,001,2024-09-09_15h54.46.895,robot_cogshifting_sign,2022.2.5,59.87418051244051,
"['blue_top_Z_45', 'blue_left_K_0', 'blue_left_G_45', 'red_left_K_45']","{'color': 'red_left_K_45', 'position': 'blue_top_Z_45', 'orientation': 'blue_left_K_0'}",position,"['orientation', 'position']",blue_top_Z_45,0,2,letter,4,False,False,"['robot_stimuli\\\\filler.mp4', 'robot_stimuli\\\\filler.mp4', 'robot_stimuli\\\\filler.mp4', 'robot_stimuli\\\\filler.mp4']",robot_stimuli\\filler.mp4,15,,,,,,,,,,,,,0,82,82,82,,,,,,,,,,,,,,,,,,1921.9826794001274,,,1932.9375121002086,1932.9375121002086,1932.9375121002086,1,1.1107247998006642,1934.0731035000645,1934.0731035000645,1934.0731035000645,1934.0731035000645,1934.0731035000645,1934.0731035000645,1934.0731035000645,1934.0731035000645,None,None,None,,,,1924.0534328003414,,,,,,,,1921.9826794001274,1921.9826794001274,None,,,1921.9826794001274,1921.9826794001274,1930.7165785999969,1932.9375121002086,15,001,2024-09-09_15h54.46.895,robot_cogshifting_sign,2022.2.5,59.87418051244051,
"['red_bottom_Z_0', 'red_bottom_S_45', 'blue_bottom_V_0', 'red_left_F_0']","{'color': 'blue_bottom_V_0', 'position': 'red_left_F_0', 'orientation': 'red_bottom_S_45'}",color,"['color', 'orientation']",blue_bottom_V_0,2,2,letter,4,False,False,"['robot_stimuli\\\\filler.mp4', 'robot_stimuli\\\\filler.mp4', 'robot_stimuli\\\\filler.mp4', 'robot_stimuli\\\\filler.mp4']",robot_stimuli\\filler.mp4,15,,,,,,,,,,,,,0,83,83,83,,,,,,,,,,,,,,,,,,1934.0731035000645,,,1945.2284105001017,1945.2284105001017,1945.2284105001017,3,1.7318676998838782,1946.981828900054,1946.981828900054,1946.981828900054,1946.981828900054,1946.981828900054,1946.981828900054,1946.981828900054,1946.981828900054,None,None,None,,,,1936.1439273003489,,,,,,,,1934.0731035000645,1934.0731035000645,None,,,1934.0731035000645,1934.0731035000645,1943.0073894001544,1945.2284105001017,15,001,2024-09-09_15h54.46.895,robot_cogshifting_sign,2022.2.5,59.87418051244051,
"['blue_bottom_L_0', 'red_bottom_B_0', 'blue_bottom_W_45', 'blue_left_H_0']","{'color': 'red_bottom_B_0', 'position': 'blue_left_H_0', 'orientation': 'blue_bottom_W_45'}",color,"['color', 'position']",red_bottom_B_0,1,2,letter,4,False,False,"['robot_stimuli\\\\filler.mp4', 'robot_stimuli\\\\filler.mp4', 'robot_stimuli\\\\filler.mp4', 'robot_stimuli\\\\filler.mp4']",robot_stimuli\\filler.mp4,15,,,,,,,,,,,,,0,84,84,84,,,,,,,,,,,,,,,,,,1946.981828900054,,,1957.3188598002307,1957.3188598002307,1957.3188598002307,2,1.0497814998961985,1958.3876356002875,1958.3876356002875,1958.3876356002875,1958.3876356002875,1958.3876356002875,1958.3876356002875,1958.3876356002875,1958.3876356002875,None,None,None,,,,1949.0362316002138,,,,,,,,1946.981828900054,1946.981828900054,None,,,1946.981828900054,1946.981828900054,1955.2983583002351,1957.3188598002307,15,001,2024-09-09_15h54.46.895,robot_cogshifting_sign,2022.2.5,59.87418051244051,
"['red_bottom_Z_0', 'red_bottom_K_45', 'red_left_Z_0', 'blue_bottom_J_0']","{'color': 'blue_bottom_J_0', 'position': 'red_left_Z_0', 'orientation': 'red_bottom_K_45'}",orientation,"['orientation', 'position']",red_bottom_K_45,1,2,letter,4,False,False,"['robot_stimuli\\\\filler.mp4', 'robot_stimuli\\\\filler.mp4', 'robot_stimuli\\\\filler.mp4', 'robot_stimuli\\\\filler.mp4']",robot_stimuli\\filler.mp4,15,,,,,,,,,,,,,0,85,85,85,,,,,,,,,,,,,,,,,,1958.3876356002875,,,1969.125528600067,1969.125528600067,1969.125528600067,2,1.251004799734801,1970.3946152003482,1970.3946152003482,1970.3946152003482,1970.3946152003482,1970.3946152003482,1970.3946152003482,1970.3946152003482,1970.3946152003482,None,None,None,,,,1960.4584067999385,,,,,,,,1958.3876356002875,1958.3876356002875,None,,,1958.3876356002875,1958.3876356002875,1967.1049819001928,1969.125528600067,15,001,2024-09-09_15h54.46.895,robot_cogshifting_sign,2022.2.5,59.87418051244051,
