sequence,is_true,target,condition,stimuli,block,is_block_beginning,is_block_ending,sequence_fnames,target_fname,subject,retraining.thisRepN,retraining.thisTrialN,retraining.thisN,retraining.thisIndex,training.thisRepN,training.thisTrialN,training.thisN,training.thisIndex,training_sequence_loop.thisRepN,training_sequence_loop.thisTrialN,training_sequence_loop.thisN,training_sequence_loop.thisIndex,trials.thisRepN,trials.thisTrialN,trials.thisN,trials.thisIndex,sequence_loop.thisRepN,sequence_loop.thisTrialN,sequence_loop.thisN,sequence_loop.thisIndex,langage_text.started,langage_key.started,langage_key.keys,langage_key.rt,intro_text.started,intro_key.started,intro_key.keys,intro_key.rt,training_intro_text.started,training_intro_key.started,training_intro_key.keys,training_intro_key.rt,polygon.started,polygon.stopped,training_presentation_letter.started,training_presentation_letter.stopped,training_recall_letter.started,training_recall_key.started,training_recall_question.started,training_recall_answer.started,training_recall_key.keys,training_recall_key.rt,RSME_labels.started,RSME_labels.stopped,RSME_ticks.started,RSME_ticks.stopped,RSME_text.started,RSME_text.stopped,RSME_key.started,RSME_key.stopped,RSME_ticks.response,RSME_ticks.rt,RSME_key.keys,training_intro_text.stopped,training_intro_key.stopped,RSME_key.rt,training_presentation_movie.started,training_recall_movie.started,experiment_beginning_text.started,experiment_beginning_keys.started,experiment_beginning_key.started,experiment_beginning_key.keys,experiment_beginning_key.rt,block_intro_text.started,block_intro_key.started,block_intro_key.keys,block_intro_key.rt,presentation_letter.started,presentation_letter.stopped,recall_letter.started,recall_key.started,recall_question.started,recall_answer.started,recall_key.keys,recall_key.rt,block_intro_text.stopped,block_intro_key.stopped,presentation_movie.started,recall_movie.started,participant,session,date,expName,psychopyVersion,frameRate,
,,,,,,,,,,,,,,,,,,,,,,,,,,,,,,,15.615352399999892,15.615352399999892,f,1.372481000000107,,,,,,,,,,,,,,,,,,,,,,,,,,,,,,,,,,,,,,,,,,,,,,,,,,,,,,,,10,001,2024-07-03_14h19.00.223,robot_sternberg_sign,2022.2.5,60.029702696898596,
,,,,,,,,,,,,,,,,,,,,,,,,,,,,,,,,,,,17.059587399999828,17.059587399999828,space,97.73733879999986,,,,,,,,,,,,,,,,,,,,,,,,,,,,,,,,,,,,,,,,,,,,,,,,,,,,10,001,2024-07-03_14h19.00.223,robot_sternberg_sign,2022.2.5,60.029702696898596,
"['Z', 'J']",True,J,2,letter,1,True,False,"['robot_stimuli\\\\filler.mp4', 'robot_stimuli\\\\filler.mp4']",robot_stimuli\\filler.mp4,10,0,0,0,0,0,0,0,0,,,,,,,,,,,,,,,,,,,,,114.83352179999997,114.83352179999997,space,6.866937700000108,127.49842259999991,128.59234149999997,125.28693399999997,127.49842259999991,128.59234149999997,128.59234149999997,128.59234149999997,128.59234149999997,c,1.7076933000000736,130.50752839999996,130.50752839999996,130.50752839999996,130.50752839999996,130.50752839999996,130.50752839999996,130.50752839999996,130.50752839999996,None,None,None,,,,,,,,,,,,,,,,,,,,,,,,,,,10,001,2024-07-03_14h19.00.223,robot_sternberg_sign,2022.2.5,60.029702696898596,
"['P', 'W']",True,P,2,letter,1,False,False,"['robot_stimuli\\\\filler.mp4', 'robot_stimuli\\\\filler.mp4']",robot_stimuli\\filler.mp4,10,0,0,0,0,0,1,1,1,,,,,,,,,,,,,,,,,,,,,130.50752839999996,130.50752839999996,None,,135.90591169999993,136.98457340000004,133.68843679999986,135.90591169999993,136.98457340000004,136.98457340000004,136.98457340000004,136.98457340000004,c,1.235307199999852,138.41347189999988,138.41347189999988,138.41347189999988,138.41347189999988,138.41347189999988,138.41347189999988,138.41347189999988,138.41347189999988,None,None,None,130.50752839999996,130.50752839999996,,,,,,,,,,,,,,,,,,,,,,,,,10,001,2024-07-03_14h19.00.223,robot_sternberg_sign,2022.2.5,60.029702696898596,
"['V', 'L']",False,X,2,letter,1,False,True,"['robot_stimuli\\\\filler.mp4', 'robot_stimuli\\\\filler.mp4']",robot_stimuli\\filler.mp4,10,0,0,0,0,0,2,2,2,,,,,,,,,,,,,,,,,,,,,138.41347189999988,138.41347189999988,None,,144.0345588,145.10755870000003,141.82514919999994,144.0345588,145.10755870000003,145.10755870000003,145.10755870000003,145.10755870000003,n,1.639579200000071,146.98927119999985,164.16631429999984,146.98927119999985,164.16631429999984,146.98927119999985,164.16631429999984,146.98927119999985,164.16631429999984,35.401234567901234,13.956521000000066,space,138.41347189999988,138.41347189999988,17.118775599999935,,,,,,,,,,,,,,,,,,,,,,,,10,001,2024-07-03_14h19.00.223,robot_sternberg_sign,2022.2.5,60.029702696898596,
"['P', 'C', 'K', 'Q']",False,M,4,letter,1,True,False,"['robot_stimuli\\\\filler.mp4', 'robot_stimuli\\\\filler.mp4', 'robot_stimuli\\\\filler.mp4', 'robot_stimuli\\\\filler.mp4']",robot_stimuli\\filler.mp4,10,0,0,0,0,0,3,3,3,,,,,,,,,,,,,,,,,,,,,164.16631429999984,164.16631429999984,space,4.374610999999959,178.17160220000005,169.63572299999987,176.15188839999996,178.17160220000005,179.2538844999999,179.2538844999999,179.2538844999999,179.2538844999999,n,1.3750860000000102,180.6815795,180.6815795,180.6815795,180.6815795,180.6815795,180.6815795,180.6815795,180.6815795,None,None,None,,,,,,,,,,,,,,,,,,,,,,,,,,,10,001,2024-07-03_14h19.00.223,robot_sternberg_sign,2022.2.5,60.029702696898596,
"['C', 'S', 'L', 'M']",True,M,4,letter,1,False,False,"['robot_stimuli\\\\filler.mp4', 'robot_stimuli\\\\filler.mp4', 'robot_stimuli\\\\filler.mp4', 'robot_stimuli\\\\filler.mp4']",robot_stimuli\\filler.mp4,10,0,0,0,0,0,4,4,4,,,,,,,,,,,,,,,,,,,,,180.6815795,180.6815795,None,,190.29375119999986,191.36422029999994,188.26878639999995,190.29375119999986,191.36422029999994,191.36422029999994,191.36422029999994,191.36422029999994,c,1.8478806000000532,193.39244599999984,193.39244599999984,193.39244599999984,193.39244599999984,193.39244599999984,193.39244599999984,193.39244599999984,193.39244599999984,None,None,None,180.6815795,180.6815795,,,,,,,,,,,,,,,,,,,,,,,,,10,001,2024-07-03_14h19.00.223,robot_sternberg_sign,2022.2.5,60.029702696898596,
"['V', 'W', 'Q', 'S']",True,S,4,letter,1,False,True,"['robot_stimuli\\\\filler.mp4', 'robot_stimuli\\\\filler.mp4', 'robot_stimuli\\\\filler.mp4', 'robot_stimuli\\\\filler.mp4']",robot_stimuli\\filler.mp4,10,0,0,0,0,0,5,5,5,,,,,,,,,,,,,,,,,,,,,193.39244599999984,193.39244599999984,None,,203.00206559999992,204.06808039999987,200.9818502999999,203.00206559999992,204.06808039999987,204.06808039999987,204.06808039999987,204.06808039999987,c,2.0324020000000473,206.32593099999985,226.5651972999999,206.32593099999985,226.5651972999999,206.32593099999985,226.5651972999999,206.32593099999985,226.5651972999999,40.03086419753087,8.390497399999958,space,193.39244599999984,193.39244599999984,20.181491699999924,,,,,,,,,,,,,,,,,,,,,,,,10,001,2024-07-03_14h19.00.223,robot_sternberg_sign,2022.2.5,60.029702696898596,
"['C', 'Z', 'B', 'N', 'L', 'J']",False,R,6,letter,1,True,False,"['robot_stimuli\\\\filler.mp4', 'robot_stimuli\\\\filler.mp4', 'robot_stimuli\\\\filler.mp4', 'robot_stimuli\\\\filler.mp4', 'robot_stimuli\\\\filler.mp4', 'robot_stimuli\\\\filler.mp4']",robot_stimuli\\filler.mp4,10,0,0,0,0,0,6,6,6,,,,,,,,,,,,,,,,,,,,,226.5651972999999,226.5651972999999,space,3.0863842999999633,244.05908369999997,245.13927739999986,241.83905329999993,244.05908369999997,245.13927739999986,245.13927739999986,245.13927739999986,245.13927739999986,n,1.5534428000000844,246.76324739999995,246.76324739999995,246.76324739999995,246.76324739999995,246.76324739999995,246.76324739999995,246.76324739999995,246.76324739999995,None,None,None,,,,,,,,,,,,,,,,,,,,,,,,,,,10,001,2024-07-03_14h19.00.223,robot_sternberg_sign,2022.2.5,60.029702696898596,
"['B', 'V', 'Q', 'M', 'S', 'N']",True,B,6,letter,1,False,False,"['robot_stimuli\\\\filler.mp4', 'robot_stimuli\\\\filler.mp4', 'robot_stimuli\\\\filler.mp4', 'robot_stimuli\\\\filler.mp4', 'robot_stimuli\\\\filler.mp4', 'robot_stimuli\\\\filler.mp4']",robot_stimuli\\filler.mp4,10,0,0,0,0,0,7,7,7,,,,,,,,,,,,,,,,,,,,,246.76324739999995,246.76324739999995,None,,260.73996509999984,261.80966390000003,258.7247399999999,260.73996509999984,261.80966390000003,261.80966390000003,261.80966390000003,261.80966390000003,n,3.2587186000000656,265.24210289999996,265.24210289999996,265.24210289999996,265.24210289999996,265.24210289999996,265.24210289999996,265.24210289999996,265.24210289999996,None,None,None,246.76324739999995,246.76324739999995,,,,,,,,,,,,,,,,,,,,,,,,,10,001,2024-07-03_14h19.00.223,robot_sternberg_sign,2022.2.5,60.029702696898596,
"['D', 'S', 'B', 'M', 'K', 'C']",True,B,6,letter,1,False,True,"['robot_stimuli\\\\filler.mp4', 'robot_stimuli\\\\filler.mp4', 'robot_stimuli\\\\filler.mp4', 'robot_stimuli\\\\filler.mp4', 'robot_stimuli\\\\filler.mp4', 'robot_stimuli\\\\filler.mp4']",robot_stimuli\\filler.mp4,10,0,0,0,0,0,8,8,8,,,,,,,,,,,,,,,,,,,,,265.24210289999996,265.24210289999996,None,,279.5811131999999,280.65109340000004,277.5624736999998,279.5811131999999,280.65109340000004,280.65109340000004,280.65109340000004,280.65109340000004,c,1.5047128000001067,282.3047013999999,288.98051080000005,282.3047013999999,288.98051080000005,282.3047013999999,288.98051080000005,282.3047013999999,288.98051080000005,51.75925925925927,4.608714299999974,space,265.24210289999996,265.24210289999996,6.6038681,,,,,,,,,,,,,,,,,,,,,,,,10,001,2024-07-03_14h19.00.223,robot_sternberg_sign,2022.2.5,60.029702696898596,
"['L_Base_X_For', 'L_Torso_X_For']",False,R_Torso_Y_Back,2,robot,2,True,False,"['robot_stimuli\\L_Base_X_For.mp4', 'robot_stimuli\\L_Torso_X_For.mp4']",robot_stimuli\R_Torso_Y_Back.mp4,10,0,0,0,0,0,9,9,9,,,,,,,,,,,,,,,,,,,,,288.98051080000005,288.98051080000005,space,12.974813699999913,310.3722407,311.47962269999994,,,,311.47962269999994,311.47962269999994,311.47962269999994,n,2.9816107000001466,315.11905260000003,315.11905260000003,315.11905260000003,315.11905260000003,315.11905260000003,315.11905260000003,315.11905260000003,315.11905260000003,None,None,None,,,,306.74206019999997,311.47962269999994,,,,,,,,,,,,,,,,,,,,,,10,001,2024-07-03_14h19.00.223,robot_sternberg_sign,2022.2.5,60.029702696898596,
"['L_Head_Z_For', 'R_Base_Z_For']",True,R_Base_Z_For,2,robot,2,False,False,"['robot_stimuli\\L_Head_Z_For.mp4', 'robot_stimuli\\R_Base_Z_For.mp4']",robot_stimuli\R_Base_Z_For.mp4,10,0,0,0,0,0,10,10,10,,,,,,,,,,,,,,,,,,,,,315.11905260000003,315.11905260000003,None,,323.57692829999996,324.67044639999995,,,,324.67044639999995,324.67044639999995,324.67044639999995,n,5.533181700000114,330.23391879999986,330.23391879999986,330.23391879999986,330.23391879999986,330.23391879999986,330.23391879999986,330.23391879999986,330.23391879999986,None,None,None,315.11905260000003,315.11905260000003,,319.93757549999987,324.67044639999995,,,,,,,,,,,,,,,,,,,,,,10,001,2024-07-03_14h19.00.223,robot_sternberg_sign,2022.2.5,60.029702696898596,
"['L_Arm_X_Back', 'R_Head_Z_For']",True,L_Arm_X_Back,2,robot,2,False,True,"['robot_stimuli\\L_Arm_X_Back.mp4', 'robot_stimuli\\R_Head_Z_For.mp4']",robot_stimuli\L_Arm_X_Back.mp4,10,0,0,0,0,0,11,11,11,,,,,,,,,,,,,,,,,,,,,330.23391879999986,330.23391879999986,None,,338.68809269999997,331.31546719999983,,,,339.79190429999994,339.79190429999994,339.79190429999994,n,5.076570500000116,344.9310049999999,349.2592680999999,344.9310049999999,349.2592680999999,344.9310049999999,349.2592680999999,344.9310049999999,349.2592680999999,26.141975308641975,2.9838701999999557,space,330.23391879999986,330.23391879999986,4.272582400000147,335.05294359999994,339.79190429999994,,,,,,,,,,,,,,,,,,,,,,10,001,2024-07-03_14h19.00.223,robot_sternberg_sign,2022.2.5,60.029702696898596,
"['R_Base_Y_For', 'R_Head_Z_Back', 'L_Head_Z_Back', 'R_Arm_X_For']",False,R_Arm_Z_For,4,robot,2,True,False,"['robot_stimuli\\R_Base_Y_For.mp4', 'robot_stimuli\\R_Head_Z_Back.mp4', 'robot_stimuli\\L_Head_Z_Back.mp4', 'robot_stimuli\\R_Arm_X_For.mp4']",robot_stimuli\R_Arm_Z_For.mp4,10,0,0,0,0,0,12,12,12,,,,,,,,,,,,,,,,,,,,,349.2592680999999,349.2592680999999,space,5.52010220000011,370.71890399999984,371.80197109999995,,,,371.80197109999995,371.80197109999995,371.80197109999995,n,4.738354000000072,376.57982049999987,376.57982049999987,376.57982049999987,376.57982049999987,376.57982049999987,376.57982049999987,376.57982049999987,376.57982049999987,None,None,None,,,,367.08671809999987,371.80197109999995,,,,,,,,,,,,,,,,,,,,,,10,001,2024-07-03_14h19.00.223,robot_sternberg_sign,2022.2.5,60.029702696898596,
"['L_Head_X_Back', 'L_Torso_X_Back', 'R_Torso_Z_For', 'R_Head_X_Back']",True,R_Torso_Z_For,4,robot,2,False,False,"['robot_stimuli\\L_Head_X_Back.mp4', 'robot_stimuli\\L_Torso_X_Back.mp4', 'robot_stimuli\\R_Torso_Z_For.mp4', 'robot_stimuli\\R_Head_X_Back.mp4']",robot_stimuli\R_Torso_Z_For.mp4,10,0,0,0,0,0,13,13,13,,,,,,,,,,,,,,,,,,,,,376.57982049999987,376.57982049999987,None,,392.47708049999983,393.5656377999999,,,,393.5656377999999,393.5656377999999,393.5656377999999,c,4.871617100000094,398.46871309999983,398.46871309999983,398.46871309999983,398.46871309999983,398.46871309999983,398.46871309999983,398.46871309999983,398.46871309999983,None,None,None,376.57982049999987,376.57982049999987,,388.82831639999995,393.5656377999999,,,,,,,,,,,,,,,,,,,,,,10,001,2024-07-03_14h19.00.223,robot_sternberg_sign,2022.2.5,60.029702696898596,
"['L_Base_Z_Back', 'L_Head_X_For', 'R_Arm_Y_For', 'L_Base_X_Back']",True,R_Arm_Y_For,4,robot,2,False,True,"['robot_stimuli\\L_Base_Z_Back.mp4', 'robot_stimuli\\L_Head_X_For.mp4', 'robot_stimuli\\R_Arm_Y_For.mp4', 'robot_stimuli\\L_Base_X_Back.mp4']",robot_stimuli\R_Arm_Y_For.mp4,10,0,0,0,0,0,14,14,14,,,,,,,,,,,,,,,,,,,,,398.46871309999983,398.46871309999983,None,,414.14434859999983,415.2305024,,,,415.2305024,415.2305024,415.2305024,n,2.118490999999949,418.76604829999997,423.12043930000004,418.76604829999997,423.12043930000004,418.76604829999997,423.12043930000004,418.76604829999997,423.12043930000004,26.913580246913572,2.61205259999997,space,398.46871309999983,398.46871309999983,4.301797099999931,410.54620339999997,415.2305024,,,,,,,,,,,,,,,,,,,,,,10,001,2024-07-03_14h19.00.223,robot_sternberg_sign,2022.2.5,60.029702696898596,
"['R_Arm_Z_Back', 'L_Torso_X_Back', 'L_Head_Y_Back', 'L_Base_X_Back', 'R_Base_X_Back', 'L_Base_Y_Back']",True,L_Torso_X_Back,6,robot,2,True,False,"['robot_stimuli\\R_Arm_Z_Back.mp4', 'robot_stimuli\\L_Torso_X_Back.mp4', 'robot_stimuli\\L_Head_Y_Back.mp4', 'robot_stimuli\\L_Base_X_Back.mp4', 'robot_stimuli\\R_Base_X_Back.mp4', 'robot_stimuli\\L_Base_Y_Back.mp4']",robot_stimuli\L_Torso_X_Back.mp4,10,0,0,0,0,0,15,15,15,,,,,,,,,,,,,,,,,,,,,423.12043930000004,423.12043930000004,space,6.228705499999933,452.64407089999986,453.7451108999999,,,,453.7451108999999,453.7451108999999,453.7451108999999,n,5.236013400000047,459.0152734999999,459.0152734999999,459.0152734999999,459.0152734999999,459.0152734999999,459.0152734999999,459.0152734999999,459.0152734999999,None,None,None,,,,449.0640142999998,453.7451108999999,,,,,,,,,,,,,,,,,,,,,,10,001,2024-07-03_14h19.00.223,robot_sternberg_sign,2022.2.5,60.029702696898596,
"['L_Base_Z_Back', 'R_Torso_Y_Back', 'R_Head_X_Back', 'L_Head_Y_For', 'L_Arm_Z_Back', 'R_Arm_X_For']",True,L_Head_Y_For,6,robot,2,False,False,"['robot_stimuli\\L_Base_Z_Back.mp4', 'robot_stimuli\\R_Torso_Y_Back.mp4', 'robot_stimuli\\R_Head_X_Back.mp4', 'robot_stimuli\\L_Head_Y_For.mp4', 'robot_stimuli\\L_Arm_Z_Back.mp4', 'robot_stimuli\\R_Arm_X_For.mp4']",robot_stimuli\L_Head_Y_For.mp4,10,0,0,0,0,0,16,16,16,,,,,,,,,,,,,,,,,,,,,459.0152734999999,459.0152734999999,None,,482.34250669999983,483.43058329999985,,,,483.43058329999985,483.43058329999985,483.43058329999985,c,4.886925799999972,488.34559339999987,488.34559339999987,488.34559339999987,488.34559339999987,488.34559339999987,488.34559339999987,488.34559339999987,488.34559339999987,None,None,None,459.0152734999999,459.0152734999999,,478.7073115999999,483.43058329999985,,,,,,,,,,,,,,,,,,,,,,10,001,2024-07-03_14h19.00.223,robot_sternberg_sign,2022.2.5,60.029702696898596,
"['R_Torso_Y_Back', 'L_Head_Y_Back', 'R_Base_Z_Back', 'L_Base_Z_For', 'L_Head_X_For', 'R_Arm_Y_For']",False,R_Base_Y_For,6,robot,2,False,True,"['robot_stimuli\\R_Torso_Y_Back.mp4', 'robot_stimuli\\L_Head_Y_Back.mp4', 'robot_stimuli\\R_Base_Z_Back.mp4', 'robot_stimuli\\L_Base_Z_For.mp4', 'robot_stimuli\\L_Head_X_For.mp4', 'robot_stimuli\\R_Arm_Y_For.mp4']",robot_stimuli\R_Base_Y_For.mp4,10,0,0,0,0,0,17,17,17,,,,,,,,,,,,,,,,,,,,,488.34559339999987,488.34559339999987,None,,511.38945390000003,512.4777793999999,,,,512.4777793999999,512.4777793999999,512.4777793999999,n,4.127181599999858,516.6604582,527.3668012999999,516.6604582,527.3668012999999,516.6604582,527.3668012999999,516.6604582,527.3668012999999,39.72222222222223,9.07711990000007,space,488.34559339999987,488.34559339999987,10.6398764999999,507.8812072999999,512.4777793999999,,,,,,,,,,,,,,,,,,,,,,10,001,2024-07-03_14h19.00.223,robot_sternberg_sign,2022.2.5,60.029702696898596,
,,,,,,,,,,,0,0,0,0,,,,,,,,,,,,,,,,,,,,,,,,,,,,,,,,,,,,,,,,,,,,,,,,,,,,,,,527.3668012999999,527.3668012999999,527.3668012999999,c,12.40640069999995,,,,,,,,,,,,,,,,,10,001,2024-07-03_14h19.00.223,robot_sternberg_sign,2022.2.5,60.029702696898596,
"['G', 'C', 'T', 'Z', 'V', 'L']",False,H,6,letter,1,True,False,"['robot_stimuli\\\\filler.mp4', 'robot_stimuli\\\\filler.mp4', 'robot_stimuli\\\\filler.mp4', 'robot_stimuli\\\\filler.mp4', 'robot_stimuli\\\\filler.mp4', 'robot_stimuli\\\\filler.mp4']",robot_stimuli\\filler.mp4,10,,,,,,,,,,,,,0,0,0,0,,,,,,,,,,,,,,,,,559.8545657,547.0199920999999,,,,,,,,,562.7547772,562.7547772,562.7547772,562.7547772,562.7547772,562.7547772,562.7547772,562.7547772,None,None,None,,,,,,,,,,,539.8169608999999,539.8169608999999,space,6.1149542999999085,557.8454646,559.8545657,560.9489997999999,560.9489997999999,560.9489997999999,560.9489997999999,n,1.6717530999999326,,,,,10,001,2024-07-03_14h19.00.223,robot_sternberg_sign,2022.2.5,60.029702696898596,
"['D', 'G', 'V', 'M', 'Q', 'T']",False,P,6,letter,1,False,False,"['robot_stimuli\\\\filler.mp4', 'robot_stimuli\\\\filler.mp4', 'robot_stimuli\\\\filler.mp4', 'robot_stimuli\\\\filler.mp4', 'robot_stimuli\\\\filler.mp4', 'robot_stimuli\\\\filler.mp4']",robot_stimuli\\filler.mp4,10,,,,,,,,,,,,,0,1,1,1,,,,,,,,,,,,,,,,,576.6889529999999,,,,,,,,,,578.7841472999999,578.7841472999999,578.7841472999999,578.7841472999999,578.7841472999999,578.7841472999999,578.7841472999999,578.7841472999999,None,None,None,,,,,,,,,,,562.7547772,562.7547772,None,,574.6663736,576.6889529999999,577.7603474,577.7603474,577.7603474,577.7603474,n,0.9566969999998491,562.7547772,562.7547772,,,10,001,2024-07-03_14h19.00.223,robot_sternberg_sign,2022.2.5,60.029702696898596,
"['K', 'W', 'X', 'T', 'Q', 'M']",True,X,6,letter,1,False,False,"['robot_stimuli\\\\filler.mp4', 'robot_stimuli\\\\filler.mp4', 'robot_stimuli\\\\filler.mp4', 'robot_stimuli\\\\filler.mp4', 'robot_stimuli\\\\filler.mp4', 'robot_stimuli\\\\filler.mp4']",robot_stimuli\\filler.mp4,10,,,,,,,,,,,,,0,2,2,2,,,,,,,,,,,,,,,,,592.7122305999999,593.7730919999999,,,,,,,,,597.2055934,597.2055934,597.2055934,597.2055934,597.2055934,597.2055934,597.2055934,597.2055934,None,None,None,,,,,,,,,,,578.7841472999999,578.7841472999999,None,,590.696514,592.7122305999999,593.7730919999999,593.7730919999999,593.7730919999999,593.7730919999999,c,3.3921732000001157,578.7841472999999,578.7841472999999,,,10,001,2024-07-03_14h19.00.223,robot_sternberg_sign,2022.2.5,60.029702696898596,
"['W', 'P', 'Z', 'G', 'V', 'N']",False,L,6,letter,1,False,False,"['robot_stimuli\\\\filler.mp4', 'robot_stimuli\\\\filler.mp4', 'robot_stimuli\\\\filler.mp4', 'robot_stimuli\\\\filler.mp4', 'robot_stimuli\\\\filler.mp4', 'robot_stimuli\\\\filler.mp4']",robot_stimuli\\filler.mp4,10,,,,,,,,,,,,,0,3,3,3,,,,,,,,,,,,,,,,,610.9595718,612.0409969999998,,,,,,,,,613.2657148999999,613.2657148999999,613.2657148999999,613.2657148999999,613.2657148999999,613.2657148999999,613.2657148999999,613.2657148999999,None,None,None,,,,,,,,,,,597.2055934,597.2055934,None,,608.9316692,610.9595718,612.0409969999998,612.0409969999998,612.0409969999998,612.0409969999998,n,1.0280710000001818,597.2055934,597.2055934,,,10,001,2024-07-03_14h19.00.223,robot_sternberg_sign,2022.2.5,60.029702696898596,
"['D', 'S', 'Z', 'P', 'W', 'B']",True,B,6,letter,1,False,False,"['robot_stimuli\\\\filler.mp4', 'robot_stimuli\\\\filler.mp4', 'robot_stimuli\\\\filler.mp4', 'robot_stimuli\\\\filler.mp4', 'robot_stimuli\\\\filler.mp4', 'robot_stimuli\\\\filler.mp4']",robot_stimuli\\filler.mp4,10,,,,,,,,,,,,,0,4,4,4,,,,,,,,,,,,,,,,,627.2024547999999,628.256736,,,,,,,,,629.888201,629.888201,629.888201,629.888201,629.888201,629.888201,629.888201,629.888201,None,None,None,,,,,,,,,,,613.2657148999999,613.2657148999999,None,,624.9877996999999,627.2024547999999,628.256736,628.256736,628.256736,628.256736,n,1.475271199999952,613.2657148999999,613.2657148999999,,,10,001,2024-07-03_14h19.00.223,robot_sternberg_sign,2022.2.5,60.029702696898596,
"['T', 'D', 'X', 'L', 'M', 'S']",False,P,6,letter,1,False,False,"['robot_stimuli\\\\filler.mp4', 'robot_stimuli\\\\filler.mp4', 'robot_stimuli\\\\filler.mp4', 'robot_stimuli\\\\filler.mp4', 'robot_stimuli\\\\filler.mp4', 'robot_stimuli\\\\filler.mp4']",robot_stimuli\\filler.mp4,10,,,,,,,,,,,,,0,5,5,5,,,,,,,,,,,,,,,,,644.0298716999998,645.0906419999999,,,,,,,,,646.7129654,646.7129654,646.7129654,646.7129654,646.7129654,646.7129654,646.7129654,646.7129654,None,None,None,,,,,,,,,,,629.888201,629.888201,None,,642.0152742,644.0298716999998,645.0906419999999,645.0906419999999,645.0906419999999,645.0906419999999,n,1.442385300000069,629.888201,629.888201,,,10,001,2024-07-03_14h19.00.223,robot_sternberg_sign,2022.2.5,60.029702696898596,
"['X', 'N', 'V', 'K', 'L', 'S']",True,L,6,letter,1,False,False,"['robot_stimuli\\\\filler.mp4', 'robot_stimuli\\\\filler.mp4', 'robot_stimuli\\\\filler.mp4', 'robot_stimuli\\\\filler.mp4', 'robot_stimuli\\\\filler.mp4', 'robot_stimuli\\\\filler.mp4']",robot_stimuli\\filler.mp4,10,,,,,,,,,,,,,0,6,6,6,,,,,,,,,,,,,,,,,660.4231729999999,661.4959772,,,,,,,,,664.3197312,664.3197312,664.3197312,664.3197312,664.3197312,664.3197312,664.3197312,664.3197312,None,None,None,,,,,,,,,,,646.7129654,646.7129654,None,,658.2078544999999,660.4231729999999,661.4959772,661.4959772,661.4959772,661.4959772,n,2.7406064999997852,646.7129654,646.7129654,,,10,001,2024-07-03_14h19.00.223,robot_sternberg_sign,2022.2.5,60.029702696898596,
"['F', 'B', 'J', 'G', 'L', 'M']",True,L,6,letter,1,False,False,"['robot_stimuli\\\\filler.mp4', 'robot_stimuli\\\\filler.mp4', 'robot_stimuli\\\\filler.mp4', 'robot_stimuli\\\\filler.mp4', 'robot_stimuli\\\\filler.mp4', 'robot_stimuli\\\\filler.mp4']",robot_stimuli\\filler.mp4,10,,,,,,,,,,,,,0,7,7,7,,,,,,,,,,,,,,,,,678.8281092,679.8882477,,,,,,,,,681.920136,681.920136,681.920136,681.920136,681.920136,681.920136,681.920136,681.920136,None,None,None,,,,,,,,,,,664.3197312,664.3197312,None,,676.6105206,678.8281092,679.8882477,679.8882477,679.8882477,679.8882477,c,1.8119215000001532,664.3197312,664.3197312,,,10,001,2024-07-03_14h19.00.223,robot_sternberg_sign,2022.2.5,60.029702696898596,
"['W', 'C', 'M', 'X', 'T', 'P']",True,P,6,letter,1,False,False,"['robot_stimuli\\\\filler.mp4', 'robot_stimuli\\\\filler.mp4', 'robot_stimuli\\\\filler.mp4', 'robot_stimuli\\\\filler.mp4', 'robot_stimuli\\\\filler.mp4', 'robot_stimuli\\\\filler.mp4']",robot_stimuli\\filler.mp4,10,,,,,,,,,,,,,0,8,8,8,,,,,,,,,,,,,,,,,696.0410342999999,697.1100947999998,,,,,,,,,698.7334423,698.7334423,698.7334423,698.7334423,698.7334423,698.7334423,698.7334423,698.7334423,None,None,None,,,,,,,,,,,681.920136,681.920136,None,,693.8220120999999,696.0410342999999,697.1100947999998,697.1100947999998,697.1100947999998,697.1100947999998,n,1.4550423999999111,681.920136,681.920136,,,10,001,2024-07-03_14h19.00.223,robot_sternberg_sign,2022.2.5,60.029702696898596,
"['M', 'N', 'C', 'W', 'D', 'T']",False,R,6,letter,1,False,True,"['robot_stimuli\\\\filler.mp4', 'robot_stimuli\\\\filler.mp4', 'robot_stimuli\\\\filler.mp4', 'robot_stimuli\\\\filler.mp4', 'robot_stimuli\\\\filler.mp4', 'robot_stimuli\\\\filler.mp4']",robot_stimuli\\filler.mp4,10,,,,,,,,,,,,,0,9,9,9,,,,,,,,,,,,,,,,,712.4452211,713.5073703999999,,,,,,,,,714.3656827,722.0359587999999,714.3656827,722.0359587999999,714.3656827,722.0359587999999,714.3656827,722.0359587999999,33.24074074074074,6.188918199999989,space,,,7.606642299999976,,,,,,,,698.7334423,698.7334423,None,,710.4309031999999,712.4452211,713.5073703999999,713.5073703999999,713.5073703999999,713.5073703999999,n,0.7054530000000341,698.7334423,698.7334423,,,10,001,2024-07-03_14h19.00.223,robot_sternberg_sign,2022.2.5,60.029702696898596,
"['Q', 'D']",True,D,2,letter,1,True,False,"['robot_stimuli\\\\filler.mp4', 'robot_stimuli\\\\filler.mp4']",robot_stimuli\\filler.mp4,10,,,,,,,,,,,,,0,10,10,10,,,,,,,,,,,,,,,,,732.7666872,733.8235096999999,,,,,,,,,735.2457448,735.2457448,735.2457448,735.2457448,735.2457448,735.2457448,735.2457448,735.2457448,None,None,None,,,,,,,,,,,722.0359587999999,722.0359587999999,space,5.361280800000031,730.5602667999999,732.7666872,733.8235096999999,733.8235096999999,733.8235096999999,733.8235096999999,c,1.2291333000000577,,,,,10,001,2024-07-03_14h19.00.223,robot_sternberg_sign,2022.2.5,60.029702696898596,
"['Q', 'C']",False,R,2,letter,1,False,False,"['robot_stimuli\\\\filler.mp4', 'robot_stimuli\\\\filler.mp4']",robot_stimuli\\filler.mp4,10,,,,,,,,,,,,,0,11,11,11,,,,,,,,,,,,,,,,,740.4285548,741.4905363999999,,,,,,,,,743.1245044,743.1245044,743.1245044,743.1245044,743.1245044,743.1245044,743.1245044,743.1245044,None,None,None,,,,,,,,,,,735.2457448,735.2457448,None,,738.412552,740.4285548,741.4905363999999,741.4905363999999,741.4905363999999,741.4905363999999,n,1.5306304000000637,735.2457448,735.2457448,,,10,001,2024-07-03_14h19.00.223,robot_sternberg_sign,2022.2.5,60.029702696898596,
"['N', 'V']",False,C,2,letter,1,False,False,"['robot_stimuli\\\\filler.mp4', 'robot_stimuli\\\\filler.mp4']",robot_stimuli\\filler.mp4,10,,,,,,,,,,,,,0,12,12,12,,,,,,,,,,,,,,,,,748.300156,749.3578969,,,,,,,,,750.9803548999998,750.9803548999998,750.9803548999998,750.9803548999998,750.9803548999998,750.9803548999998,750.9803548999998,750.9803548999998,None,None,None,,,,,,,,,,,743.1245044,743.1245044,None,,746.2860662999999,748.300156,749.3578969,749.3578969,749.3578969,749.3578969,n,1.5355727999999544,743.1245044,743.1245044,,,10,001,2024-07-03_14h19.00.223,robot_sternberg_sign,2022.2.5,60.029702696898596,
"['N', 'Q']",True,Q,2,letter,1,False,False,"['robot_stimuli\\\\filler.mp4', 'robot_stimuli\\\\filler.mp4']",robot_stimuli\\filler.mp4,10,,,,,,,,,,,,,0,13,13,13,,,,,,,,,,,,,,,,,756.1517375999999,757.2062529,,,,,,,,,758.8307232,758.8307232,758.8307232,758.8307232,758.8307232,758.8307232,758.8307232,758.8307232,None,None,None,,,,,,,,,,,750.9803548999998,750.9803548999998,None,,754.1312943999999,756.1517375999999,757.2062529,757.2062529,757.2062529,757.2062529,c,1.5433921000001192,750.9803548999998,750.9803548999998,,,10,001,2024-07-03_14h19.00.223,robot_sternberg_sign,2022.2.5,60.029702696898596,
"['Z', 'F']",False,C,2,letter,1,False,False,"['robot_stimuli\\\\filler.mp4', 'robot_stimuli\\\\filler.mp4']",robot_stimuli\\filler.mp4,10,,,,,,,,,,,,,0,14,14,14,,,,,,,,,,,,,,,,,764.2106554,765.2730497999999,,,,,,,,,766.4962215,766.4962215,766.4962215,766.4962215,766.4962215,766.4962215,766.4962215,766.4962215,None,None,None,,,,,,,,,,,758.8307232,758.8307232,None,,762.1976382,764.2106554,765.2730497999999,765.2730497999999,765.2730497999999,765.2730497999999,n,1.1072082000000592,758.8307232,758.8307232,,,10,001,2024-07-03_14h19.00.223,robot_sternberg_sign,2022.2.5,60.029702696898596,
"['Z', 'M']",True,Z,2,letter,1,False,False,"['robot_stimuli\\\\filler.mp4', 'robot_stimuli\\\\filler.mp4']",robot_stimuli\\filler.mp4,10,,,,,,,,,,,,,0,15,15,15,,,,,,,,,,,,,,,,,772.074768,773.1405694,,,,,,,,,774.3643121,774.3643121,774.3643121,774.3643121,774.3643121,774.3643121,774.3643121,774.3643121,None,None,None,,,,,,,,,,,766.4962215,766.4962215,None,,769.8570132999998,772.074768,773.1405694,773.1405694,773.1405694,773.1405694,c,1.1757245000001149,766.4962215,766.4962215,,,10,001,2024-07-03_14h19.00.223,robot_sternberg_sign,2022.2.5,60.029702696898596,
"['H', 'N']",True,H,2,letter,1,False,False,"['robot_stimuli\\\\filler.mp4', 'robot_stimuli\\\\filler.mp4']",robot_stimuli\\filler.mp4,10,,,,,,,,,,,,,0,16,16,16,,,,,,,,,,,,,,,,,779.7283055,780.7928910999999,,,,,,,,,782.8163447,782.8163447,782.8163447,782.8163447,782.8163447,782.8163447,782.8163447,782.8163447,None,None,None,,,,,,,,,,,774.3643121,774.3643121,None,,777.7188999999998,779.7283055,780.7928910999999,780.7928910999999,780.7928910999999,780.7928910999999,c,1.85313670000005,774.3643121,774.3643121,,,10,001,2024-07-03_14h19.00.223,robot_sternberg_sign,2022.2.5,60.029702696898596,
"['M', 'N']",True,M,2,letter,1,False,False,"['robot_stimuli\\\\filler.mp4', 'robot_stimuli\\\\filler.mp4']",robot_stimuli\\filler.mp4,10,,,,,,,,,,,,,0,17,17,17,,,,,,,,,,,,,,,,,788.1838988,789.240149,,,,,,,,,790.6627954999999,790.6627954999999,790.6627954999999,790.6627954999999,790.6627954999999,790.6627954999999,790.6627954999999,790.6627954999999,None,None,None,,,,,,,,,,,782.8163447,782.8163447,None,,786.1693029,788.1838988,789.240149,789.240149,789.240149,789.240149,c,1.316406200000074,782.8163447,782.8163447,,,10,001,2024-07-03_14h19.00.223,robot_sternberg_sign,2022.2.5,60.029702696898596,
"['M', 'R']",False,V,2,letter,1,False,False,"['robot_stimuli\\\\filler.mp4', 'robot_stimuli\\\\filler.mp4']",robot_stimuli\\filler.mp4,10,,,,,,,,,,,,,0,18,18,18,,,,,,,,,,,,,,,,,796.2228717,791.7275709999999,,,,,,,,,798.7189865,798.7189865,798.7189865,798.7189865,798.7189865,798.7189865,798.7189865,798.7189865,None,None,None,,,,,,,,,,,790.6627954999999,790.6627954999999,None,,794.0108579,796.2228717,797.2901904,797.2901904,797.2901904,797.2901904,n,1.3147957999999562,790.6627954999999,790.6627954999999,,,10,001,2024-07-03_14h19.00.223,robot_sternberg_sign,2022.2.5,60.029702696898596,
"['D', 'Q']",False,Z,2,letter,1,False,True,"['robot_stimuli\\\\filler.mp4', 'robot_stimuli\\\\filler.mp4']",robot_stimuli\\filler.mp4,10,,,,,,,,,,,,,0,19,19,19,,,,,,,,,,,,,,,,,804.277002,805.3411028999999,,,,,,,,,806.5958395,813.581997,806.5958395,813.581997,806.5958395,813.581997,806.5958395,813.581997,18.2716049382716,5.5887431999999535,space,,,6.922104999999874,,,,,,,,798.7189865,798.7189865,None,,802.0596846999999,804.277002,805.3411028999999,805.3411028999999,805.3411028999999,805.3411028999999,n,1.111701999999923,798.7189865,798.7189865,,,10,001,2024-07-03_14h19.00.223,robot_sternberg_sign,2022.2.5,60.029702696898596,
"['G', 'Z', 'V', 'F']",True,G,4,letter,1,True,False,"['robot_stimuli\\\\filler.mp4', 'robot_stimuli\\\\filler.mp4', 'robot_stimuli\\\\filler.mp4', 'robot_stimuli\\\\filler.mp4']",robot_stimuli\\filler.mp4,10,,,,,,,,,,,,,0,20,20,20,,,,,,,,,,,,,,,,,852.3012216,853.3601669,,,,,,,,,854.7816888,854.7816888,854.7816888,854.7816888,854.7816888,854.7816888,854.7816888,854.7816888,None,None,None,,,,,,,,,,,813.581997,813.581997,space,29.15969259999997,850.2852745999999,852.3012216,853.3601669,853.3601669,853.3601669,853.3601669,c,1.316708399999925,,,,,10,001,2024-07-03_14h19.00.223,robot_sternberg_sign,2022.2.5,60.029702696898596,
"['B', 'S', 'M', 'J']",False,R,4,letter,1,False,False,"['robot_stimuli\\\\filler.mp4', 'robot_stimuli\\\\filler.mp4', 'robot_stimuli\\\\filler.mp4', 'robot_stimuli\\\\filler.mp4']",robot_stimuli\\filler.mp4,10,,,,,,,,,,,,,0,21,21,21,,,,,,,,,,,,,,,,,864.5246884999999,865.5905422999999,,,,,,,,,867.0196618,867.0196618,867.0196618,867.0196618,867.0196618,867.0196618,867.0196618,867.0196618,None,None,None,,,,,,,,,,,854.7816888,854.7816888,None,,862.3113444,864.5246884999999,865.5905422999999,865.5905422999999,865.5905422999999,865.5905422999999,n,1.2945801999999276,854.7816888,854.7816888,,,10,001,2024-07-03_14h19.00.223,robot_sternberg_sign,2022.2.5,60.029702696898596,
"['K', 'F', 'B', 'J']",False,P,4,letter,1,False,False,"['robot_stimuli\\\\filler.mp4', 'robot_stimuli\\\\filler.mp4', 'robot_stimuli\\\\filler.mp4', 'robot_stimuli\\\\filler.mp4']",robot_stimuli\\filler.mp4,10,,,,,,,,,,,,,0,22,22,22,,,,,,,,,,,,,,,,,876.7557844999999,868.0761691,,,,,,,,,880.0548758,880.0548758,880.0548758,880.0548758,880.0548758,880.0548758,880.0548758,880.0548758,None,None,None,,,,,,,,,,,867.0196618,867.0196618,None,,874.5456729999999,876.7557844999999,877.8263331999999,877.8263331999999,877.8263331999999,877.8263331999999,n,2.1391495999998824,867.0196618,867.0196618,,,10,001,2024-07-03_14h19.00.223,robot_sternberg_sign,2022.2.5,60.029702696898596,
"['T', 'K', 'L', 'P']",False,Z,4,letter,1,False,False,"['robot_stimuli\\\\filler.mp4', 'robot_stimuli\\\\filler.mp4', 'robot_stimuli\\\\filler.mp4', 'robot_stimuli\\\\filler.mp4']",robot_stimuli\\filler.mp4,10,,,,,,,,,,,,,0,23,23,23,,,,,,,,,,,,,,,,,889.9788389,891.0475701999999,,,,,,,,,892.4735441,892.4735441,892.4735441,892.4735441,892.4735441,892.4735441,892.4735441,892.4735441,None,None,None,,,,,,,,,,,880.0548758,880.0548758,None,,887.9641035,889.9788389,891.0475701999999,891.0475701999999,891.0475701999999,891.0475701999999,n,1.1889955999999984,880.0548758,880.0548758,,,10,001,2024-07-03_14h19.00.223,robot_sternberg_sign,2022.2.5,60.029702696898596,
"['M', 'Z', 'C', 'G']",True,Z,4,letter,1,False,False,"['robot_stimuli\\\\filler.mp4', 'robot_stimuli\\\\filler.mp4', 'robot_stimuli\\\\filler.mp4', 'robot_stimuli\\\\filler.mp4']",robot_stimuli\\filler.mp4,10,,,,,,,,,,,,,0,24,24,24,,,,,,,,,,,,,,,,,902.2382367,903.2888949999999,,,,,,,,,905.7166072999999,905.7166072999999,905.7166072999999,905.7166072999999,905.7166072999999,905.7166072999999,905.7166072999999,905.7166072999999,None,None,None,,,,,,,,,,,892.4735441,892.4735441,None,,900.0261688999999,902.2382367,903.2888949999999,903.2888949999999,903.2888949999999,903.2888949999999,c,2.381110099999887,892.4735441,892.4735441,,,10,001,2024-07-03_14h19.00.223,robot_sternberg_sign,2022.2.5,60.029702696898596,
"['P', 'V', 'R', 'G']",False,W,4,letter,1,False,False,"['robot_stimuli\\\\filler.mp4', 'robot_stimuli\\\\filler.mp4', 'robot_stimuli\\\\filler.mp4', 'robot_stimuli\\\\filler.mp4']",robot_stimuli\\filler.mp4,10,,,,,,,,,,,,,0,25,25,25,,,,,,,,,,,,,,,,,915.2556153,906.7774012999998,,,,,,,,,917.7488376000001,917.7488376000001,917.7488376000001,917.7488376000001,917.7488376000001,917.7488376000001,917.7488376000001,917.7488376000001,None,None,None,,,,,,,,,,,905.7166072999999,905.7166072999999,None,,913.2367067999999,915.2556153,916.3239180999999,916.3239180999999,916.3239180999999,916.3239180999999,n,1.1859976999999162,905.7166072999999,905.7166072999999,,,10,001,2024-07-03_14h19.00.223,robot_sternberg_sign,2022.2.5,60.029702696898596,
"['F', 'W', 'T', 'Q']",False,X,4,letter,1,False,False,"['robot_stimuli\\\\filler.mp4', 'robot_stimuli\\\\filler.mp4', 'robot_stimuli\\\\filler.mp4', 'robot_stimuli\\\\filler.mp4']",robot_stimuli\\filler.mp4,10,,,,,,,,,,,,,0,26,26,26,,,,,,,,,,,,,,,,,927.4957153999999,928.5621317,,,,,,,,,929.7817169,929.7817169,929.7817169,929.7817169,929.7817169,929.7817169,929.7817169,929.7817169,None,None,None,,,,,,,,,,,917.7488376000001,917.7488376000001,None,,925.4876159999999,927.4957153999999,928.5621317,928.5621317,928.5621317,928.5621317,n,1.0428998000002139,917.7488376000001,917.7488376000001,,,10,001,2024-07-03_14h19.00.223,robot_sternberg_sign,2022.2.5,60.029702696898596,
"['L', 'M', 'S', 'R']",True,S,4,letter,1,False,False,"['robot_stimuli\\\\filler.mp4', 'robot_stimuli\\\\filler.mp4', 'robot_stimuli\\\\filler.mp4', 'robot_stimuli\\\\filler.mp4']",robot_stimuli\\filler.mp4,10,,,,,,,,,,,,,0,27,27,27,,,,,,,,,,,,,,,,,939.5112048999999,940.5778199000001,,,,,,,,,942.6052389000001,942.6052389000001,942.6052389000001,942.6052389000001,942.6052389000001,942.6052389000001,942.6052389000001,942.6052389000001,None,None,None,,,,,,,,,,,929.7817169,929.7817169,None,,937.2932689999998,939.5112048999999,940.5778199000001,940.5778199000001,940.5778199000001,940.5778199000001,c,1.9321513999998388,929.7817169,929.7817169,,,10,001,2024-07-03_14h19.00.223,robot_sternberg_sign,2022.2.5,60.029702696898596,
"['T', 'F', 'D', 'X']",True,T,4,letter,1,False,False,"['robot_stimuli\\\\filler.mp4', 'robot_stimuli\\\\filler.mp4', 'robot_stimuli\\\\filler.mp4', 'robot_stimuli\\\\filler.mp4']",robot_stimuli\\filler.mp4,10,,,,,,,,,,,,,0,28,28,28,,,,,,,,,,,,,,,,,952.3627425,953.4247514999997,,,,,,,,,954.8490487999998,954.8490487999998,954.8490487999998,954.8490487999998,954.8490487999998,954.8490487999998,954.8490487999998,954.8490487999998,None,None,None,,,,,,,,,,,942.6052389000001,942.6052389000001,None,,950.3436142999999,952.3627425,953.4247514999997,953.4247514999997,953.4247514999997,953.4247514999997,c,1.3572042000000692,942.6052389000001,942.6052389000001,,,10,001,2024-07-03_14h19.00.223,robot_sternberg_sign,2022.2.5,60.029702696898596,
"['B', 'C', 'Q', 'G']",True,G,4,letter,1,False,True,"['robot_stimuli\\\\filler.mp4', 'robot_stimuli\\\\filler.mp4', 'robot_stimuli\\\\filler.mp4', 'robot_stimuli\\\\filler.mp4']",robot_stimuli\\filler.mp4,10,,,,,,,,,,,,,0,29,29,29,,,,,,,,,,,,,,,,,964.3824704999997,965.4426377999998,,,,,,,,,966.9011449999998,975.8414382999999,966.9011449999998,975.8414382999999,966.9011449999998,975.8414382999999,966.9011449999998,975.8414382999999,37.098765432098766,6.275667800000065,space,,,8.872374400000353,,,,,,,,954.8490487999998,954.8490487999998,None,,962.3717811000001,964.3824704999997,965.4426377999998,965.4426377999998,965.4426377999998,965.4426377999998,c,1.3301967999996123,954.8490487999998,954.8490487999998,,,10,001,2024-07-03_14h19.00.223,robot_sternberg_sign,2022.2.5,60.029702696898596,
"['L_Torso_Z_Back', 'R_Arm_Y_Back', 'L_Head_X_For', 'L_Arm_Y_For']",True,R_Arm_Y_Back,4,robot,2,True,False,"['robot_stimuli\\L_Torso_Z_Back.mp4', 'robot_stimuli\\R_Arm_Y_Back.mp4', 'robot_stimuli\\L_Head_X_For.mp4', 'robot_stimuli\\L_Arm_Y_For.mp4']",robot_stimuli\R_Arm_Y_Back.mp4,10,,,,,,,,,,,,,0,30,30,30,,,,,,,,,,,,,,,,,1025.4738214,1010.8534224,,,,,,,,,1031.2864905000001,1031.2864905000001,1031.2864905000001,1031.2864905000001,1031.2864905000001,1031.2864905000001,1031.2864905000001,1031.2864905000001,None,None,None,,,,,,,,,,,975.8414382999999,975.8414382999999,space,33.90819640000018,,,,1026.5817588999998,1026.5817588999998,1026.5817588999998,c,4.671632399999908,,,1021.8481389999997,1026.5817588999998,10,001,2024-07-03_14h19.00.223,robot_sternberg_sign,2022.2.5,60.029702696898596,
"['L_Torso_Y_For', 'L_Torso_X_Back', 'R_Head_Z_For', 'L_Arm_X_Back']",True,L_Arm_X_Back,4,robot,2,False,False,"['robot_stimuli\\L_Torso_Y_For.mp4', 'robot_stimuli\\L_Torso_X_Back.mp4', 'robot_stimuli\\R_Head_Z_For.mp4', 'robot_stimuli\\L_Arm_X_Back.mp4']",robot_stimuli\L_Arm_X_Back.mp4,10,,,,,,,,,,,,,0,31,31,31,,,,,,,,,,,,,,,,,1047.1758771,1048.2648966000002,,,,,,,,,1052.4855982999998,1052.4855982999998,1052.4855982999998,1052.4855982999998,1052.4855982999998,1052.4855982999998,1052.4855982999998,1052.4855982999998,None,None,None,,,,,,,,,,,1031.2864905000001,1031.2864905000001,None,,,,,1048.2648966000002,1048.2648966000002,1048.2648966000002,c,4.181450399999903,1031.2864905000001,1031.2864905000001,1043.5289158,1048.2648966000002,10,001,2024-07-03_14h19.00.223,robot_sternberg_sign,2022.2.5,60.029702696898596,
"['L_Arm_X_Back', 'R_Torso_Y_Back', 'L_Base_Y_Back', 'R_Head_X_For']",True,L_Base_Y_Back,4,robot,2,False,False,"['robot_stimuli\\L_Arm_X_Back.mp4', 'robot_stimuli\\R_Torso_Y_Back.mp4', 'robot_stimuli\\L_Base_Y_Back.mp4', 'robot_stimuli\\R_Head_X_For.mp4']",robot_stimuli\L_Base_Y_Back.mp4,10,,,,,,,,,,,,,0,32,32,32,,,,,,,,,,,,,,,,,1068.2877241,1069.3650106,,,,,,,,,1073.9987502999998,1073.9987502999998,1073.9987502999998,1073.9987502999998,1073.9987502999998,1073.9987502999998,1073.9987502999998,1073.9987502999998,None,None,None,,,,,,,,,,,1052.4855982999998,1052.4855982999998,None,,,,,1069.3650106,1069.3650106,1069.3650106,c,4.601552200000242,1052.4855982999998,1052.4855982999998,1064.6635017999997,1069.3650106,10,001,2024-07-03_14h19.00.223,robot_sternberg_sign,2022.2.5,60.029702696898596,
"['R_Arm_Y_For', 'R_Torso_Z_Back', 'L_Base_Z_Back', 'L_Head_Y_For']",False,L_Base_X_Back,4,robot,2,False,False,"['robot_stimuli\\R_Arm_Y_For.mp4', 'robot_stimuli\\R_Torso_Z_Back.mp4', 'robot_stimuli\\L_Base_Z_Back.mp4', 'robot_stimuli\\L_Head_Y_For.mp4']",robot_stimuli\L_Base_X_Back.mp4,10,,,,,,,,,,,,,0,33,33,33,,,,,,,,,,,,,,,,,1089.7381933000001,1090.8135246000002,,,,,,,,,1095.8979313,1095.8979313,1095.8979313,1095.8979313,1095.8979313,1095.8979313,1095.8979313,1095.8979313,None,None,None,,,,,,,,,,,1073.9987502999998,1073.9987502999998,None,,,,,1090.8135246000002,1090.8135246000002,1090.8135246000002,c,5.0564878999998655,1073.9987502999998,1073.9987502999998,1086.1057113000002,1090.8135246000002,10,001,2024-07-03_14h19.00.223,robot_sternberg_sign,2022.2.5,60.029702696898596,
"['R_Head_Y_For', 'L_Base_Z_Back', 'L_Torso_Z_For', 'L_Head_Y_For']",True,L_Base_Z_Back,4,robot,2,False,False,"['robot_stimuli\\R_Head_Y_For.mp4', 'robot_stimuli\\L_Base_Z_Back.mp4', 'robot_stimuli\\L_Torso_Z_For.mp4', 'robot_stimuli\\L_Head_Y_For.mp4']",robot_stimuli\L_Base_Z_Back.mp4,10,,,,,,,,,,,,,0,34,34,34,,,,,,,,,,,,,,,,,1111.7737204,1096.9810846999999,,,,,,,,,1118.7021679999998,1118.7021679999998,1118.7021679999998,1118.7021679999998,1118.7021679999998,1118.7021679999998,1118.7021679999998,1118.7021679999998,None,None,None,,,,,,,,,,,1095.8979313,1095.8979313,None,,,,,1112.8669467999998,1112.8669467999998,1112.8669467999998,c,5.8032139000001735,1095.8979313,1095.8979313,1108.1422724,1112.8669467999998,10,001,2024-07-03_14h19.00.223,robot_sternberg_sign,2022.2.5,60.029702696898596,
"['R_Arm_Y_For', 'L_Head_Y_For', 'L_Arm_Y_Back', 'L_Arm_Y_For']",True,R_Arm_Y_For,4,robot,2,False,False,"['robot_stimuli\\R_Arm_Y_For.mp4', 'robot_stimuli\\L_Head_Y_For.mp4', 'robot_stimuli\\L_Arm_Y_Back.mp4', 'robot_stimuli\\L_Arm_Y_For.mp4']",robot_stimuli\R_Arm_Y_For.mp4,10,,,,,,,,,,,,,0,35,35,35,,,,,,,,,,,,,,,,,1134.4378873,1135.5186634000002,,,,,,,,,1140.9278209,1140.9278209,1140.9278209,1140.9278209,1140.9278209,1140.9278209,1140.9278209,1140.9278209,None,None,None,,,,,,,,,,,1118.7021679999998,1118.7021679999998,None,,,,,1135.5186634000002,1135.5186634000002,1135.5186634000002,n,5.374107500000264,1118.7021679999998,1118.7021679999998,1130.8132061000001,1135.5186634000002,10,001,2024-07-03_14h19.00.223,robot_sternberg_sign,2022.2.5,60.029702696898596,
"['L_Base_X_For', 'R_Head_Y_Back', 'R_Torso_X_Back', 'R_Arm_X_For']",False,R_Base_X_For,4,robot,2,False,False,"['robot_stimuli\\L_Base_X_For.mp4', 'robot_stimuli\\R_Head_Y_Back.mp4', 'robot_stimuli\\R_Torso_X_Back.mp4', 'robot_stimuli\\R_Arm_X_For.mp4']",robot_stimuli\R_Base_X_For.mp4,10,,,,,,,,,,,,,0,36,36,36,,,,,,,,,,,,,,,,,1156.7546584000002,1157.8301215000001,,,,,,,,,1161.8694842,1161.8694842,1161.8694842,1161.8694842,1161.8694842,1161.8694842,1161.8694842,1161.8694842,None,None,None,,,,,,,,,,,1140.9278209,1140.9278209,None,,,,,1157.8301215000001,1157.8301215000001,1157.8301215000001,n,4.007056599999942,1140.9278209,1140.9278209,1153.1314125999997,1157.8301215000001,10,001,2024-07-03_14h19.00.223,robot_sternberg_sign,2022.2.5,60.029702696898596,
"['L_Base_Y_Back', 'L_Base_X_Back', 'R_Arm_Z_Back', 'L_Arm_Y_Back']",False,R_Base_Y_For,4,robot,2,False,False,"['robot_stimuli\\L_Base_Y_Back.mp4', 'robot_stimuli\\L_Base_X_Back.mp4', 'robot_stimuli\\R_Arm_Z_Back.mp4', 'robot_stimuli\\L_Arm_Y_Back.mp4']",robot_stimuli\R_Base_Y_For.mp4,10,,,,,,,,,,,,,0,37,37,37,,,,,,,,,,,,,,,,,1177.6215161999999,1178.6996989999998,,,,,,,,,1184.5958984,1184.5958984,1184.5958984,1184.5958984,1184.5958984,1184.5958984,1184.5958984,1184.5958984,None,None,None,,,,,,,,,,,1161.8694842,1161.8694842,None,,,,,1178.6996989999998,1178.6996989999998,1178.6996989999998,n,5.873291000000336,1161.8694842,1161.8694842,1173.9971492,1178.6996989999998,10,001,2024-07-03_14h19.00.223,robot_sternberg_sign,2022.2.5,60.029702696898596,
"['L_Base_Y_For', 'R_Base_X_Back', 'L_Head_Z_Back', 'R_Torso_X_Back']",False,R_Arm_Y_Back,4,robot,2,False,False,"['robot_stimuli\\L_Base_Y_For.mp4', 'robot_stimuli\\R_Base_X_Back.mp4', 'robot_stimuli\\L_Head_Z_Back.mp4', 'robot_stimuli\\R_Torso_X_Back.mp4']",robot_stimuli\R_Arm_Y_Back.mp4,10,,,,,,,,,,,,,0,38,38,38,,,,,,,,,,,,,,,,,1200.3927626999998,1201.4839538,,,,,,,,,1205.1334017999998,1205.1334017999998,1205.1334017999998,1205.1334017999998,1205.1334017999998,1205.1334017999998,1205.1334017999998,1205.1334017999998,None,None,None,,,,,,,,,,,1184.5958984,1184.5958984,None,,,,,1201.4839538,1201.4839538,1201.4839538,n,2.585976700000174,1184.5958984,1184.5958984,1196.7612030999999,1201.4839538,10,001,2024-07-03_14h19.00.223,robot_sternberg_sign,2022.2.5,60.029702696898596,
"['R_Arm_X_For', 'R_Arm_X_Back', 'R_Base_X_For', 'L_Base_Z_For']",False,L_Torso_Y_Back,4,robot,2,False,True,"['robot_stimuli\\R_Arm_X_For.mp4', 'robot_stimuli\\R_Arm_X_Back.mp4', 'robot_stimuli\\R_Base_X_For.mp4', 'robot_stimuli\\L_Base_Z_For.mp4']",robot_stimuli\L_Torso_Y_Back.mp4,10,,,,,,,,,,,,,0,39,39,39,,,,,,,,,,,,,,,,,1220.9263483999998,1222.0234571,,,,,,,,,1228.0660767999998,1234.8318442,1228.0660767999998,1234.8318442,1228.0660767999998,1234.8318442,1228.0660767999998,1234.8318442,53.76543209876544,3.9430591000000277,space,,,6.708514699999796,,,,,,,,1205.1334017999998,1205.1334017999998,None,,,,,1222.0234571,1222.0234571,1222.0234571,c,5.9824838999998065,1205.1334017999998,1205.1334017999998,1217.2836272999998,1222.0234571,10,001,2024-07-03_14h19.00.223,robot_sternberg_sign,2022.2.5,60.029702696898596,
"['R_Arm_X_Back', 'L_Base_X_For']",False,R_Head_X_For,2,robot,2,True,False,"['robot_stimuli\\R_Arm_X_Back.mp4', 'robot_stimuli\\L_Base_X_For.mp4']",robot_stimuli\R_Head_X_For.mp4,10,,,,,,,,,,,,,0,40,40,40,,,,,,,,,,,,,,,,,1246.8715893999997,1247.9440762,,,,,,,,,1251.5849113999998,1251.5849113999998,1251.5849113999998,1251.5849113999998,1251.5849113999998,1251.5849113999998,1251.5849113999998,1251.5849113999998,None,None,None,,,,,,,,,,,1234.8318442,1234.8318442,space,3.6451750000001084,,,,1247.9440762,1247.9440762,1247.9440762,n,2.077469299999848,,,1243.3076809,1247.9440762,10,001,2024-07-03_14h19.00.223,robot_sternberg_sign,2022.2.5,60.029702696898596,
"['L_Base_X_Back', 'R_Base_Y_For']",True,R_Base_Y_For,2,robot,2,False,False,"['robot_stimuli\\L_Base_X_Back.mp4', 'robot_stimuli\\R_Base_Y_For.mp4']",robot_stimuli\R_Base_Y_For.mp4,10,,,,,,,,,,,,,0,41,41,41,,,,,,,,,,,,,,,,,1259.9931652999999,1261.0839058000001,,,,,,,,,1264.7132301000001,1264.7132301000001,1264.7132301000001,1264.7132301000001,1264.7132301000001,1264.7132301000001,1264.7132301000001,1264.7132301000001,None,None,None,,,,,,,,,,,1251.5849113999998,1251.5849113999998,None,,,,,1261.0839058000001,1261.0839058000001,1261.0839058000001,c,3.0898606000000655,1251.5849113999998,1251.5849113999998,1256.3516203,1261.0839058000001,10,001,2024-07-03_14h19.00.223,robot_sternberg_sign,2022.2.5,60.029702696898596,
"['R_Head_Y_For', 'L_Base_Z_Back']",True,L_Base_Z_Back,2,robot,2,False,False,"['robot_stimuli\\R_Head_Y_For.mp4', 'robot_stimuli\\L_Base_Z_Back.mp4']",robot_stimuli\L_Base_Z_Back.mp4,10,,,,,,,,,,,,,0,42,42,42,,,,,,,,,,,,,,,,,1273.1458647,1274.2336031,,,,,,,,,1277.8634490999998,1277.8634490999998,1277.8634490999998,1277.8634490999998,1277.8634490999998,1277.8634490999998,1277.8634490999998,1277.8634490999998,None,None,None,,,,,,,,,,,1264.7132301000001,1264.7132301000001,None,,,,,1274.2336031,1274.2336031,1274.2336031,c,3.3481362999996236,1264.7132301000001,1264.7132301000001,1269.5161149,1274.2336031,10,001,2024-07-03_14h19.00.223,robot_sternberg_sign,2022.2.5,60.029702696898596,
"['R_Torso_Y_For', 'L_Head_Y_Back']",True,R_Torso_Y_For,2,robot,2,False,False,"['robot_stimuli\\R_Torso_Y_For.mp4', 'robot_stimuli\\L_Head_Y_Back.mp4']",robot_stimuli\R_Torso_Y_For.mp4,10,,,,,,,,,,,,,0,43,43,43,,,,,,,,,,,,,,,,,1286.3255387999998,1287.4164750999998,,,,,,,,,1292.2019089,1292.2019089,1292.2019089,1292.2019089,1292.2019089,1292.2019089,1292.2019089,1292.2019089,None,None,None,,,,,,,,,,,1277.8634490999998,1277.8634490999998,None,,,,,1287.4164750999998,1287.4164750999998,1287.4164750999998,c,4.749626199999966,1277.8634490999998,1277.8634490999998,1282.684198,1287.4164750999998,10,001,2024-07-03_14h19.00.223,robot_sternberg_sign,2022.2.5,60.029702696898596,
"['L_Arm_X_Back', 'R_Base_Z_Back']",False,L_Head_Z_Back,2,robot,2,False,False,"['robot_stimuli\\L_Arm_X_Back.mp4', 'robot_stimuli\\R_Base_Z_Back.mp4']",robot_stimuli\L_Head_Z_Back.mp4,10,,,,,,,,,,,,,0,44,44,44,,,,,,,,,,,,,,,,,1300.5217988,1301.6015653999998,,,,,,,,,1305.2506009999997,1305.2506009999997,1305.2506009999997,1305.2506009999997,1305.2506009999997,1305.2506009999997,1305.2506009999997,1305.2506009999997,None,None,None,,,,,,,,,,,1292.2019089,1292.2019089,None,,,,,1301.6015653999998,1301.6015653999998,1301.6015653999998,n,1.9013349000001654,1292.2019089,1292.2019089,1297.0015451999998,1301.6015653999998,10,001,2024-07-03_14h19.00.223,robot_sternberg_sign,2022.2.5,60.029702696898596,
"['R_Base_Z_For', 'R_Base_Y_Back']",False,R_Torso_X_For,2,robot,2,False,False,"['robot_stimuli\\R_Base_Z_For.mp4', 'robot_stimuli\\R_Base_Y_Back.mp4']",robot_stimuli\R_Torso_X_For.mp4,10,,,,,,,,,,,,,0,45,45,45,,,,,,,,,,,,,,,,,1313.6788078999998,1314.7654919000001,,,,,,,,,1318.4046186,1318.4046186,1318.4046186,1318.4046186,1318.4046186,1318.4046186,1318.4046186,1318.4046186,None,None,None,,,,,,,,,,,1305.2506009999997,1305.2506009999997,None,,,,,1314.7654919000001,1314.7654919000001,1314.7654919000001,n,2.5058672999998635,1305.2506009999997,1305.2506009999997,1310.0505644999998,1314.7654919000001,10,001,2024-07-03_14h19.00.223,robot_sternberg_sign,2022.2.5,60.029702696898596,
"['R_Torso_X_For', 'L_Arm_Z_Back']",True,L_Arm_Z_Back,2,robot,2,False,False,"['robot_stimuli\\R_Torso_X_For.mp4', 'robot_stimuli\\L_Arm_Z_Back.mp4']",robot_stimuli\L_Arm_Z_Back.mp4,10,,,,,,,,,,,,,0,46,46,46,,,,,,,,,,,,,,,,,1326.827718,1327.9179221999998,,,,,,,,,1331.5554834999998,1331.5554834999998,1331.5554834999998,1331.5554834999998,1331.5554834999998,1331.5554834999998,1331.5554834999998,1331.5554834999998,None,None,None,,,,,,,,,,,1318.4046186,1318.4046186,None,,,,,1327.9179221999998,1327.9179221999998,1327.9179221999998,n,3.5034805999998753,1318.4046186,1318.4046186,1323.1997188999999,1327.9179221999998,10,001,2024-07-03_14h19.00.223,robot_sternberg_sign,2022.2.5,60.029702696898596,
"['R_Head_X_For', 'L_Head_Y_For']",False,R_Head_Z_Back,2,robot,2,False,False,"['robot_stimuli\\R_Head_X_For.mp4', 'robot_stimuli\\L_Head_Y_For.mp4']",robot_stimuli\R_Head_Z_Back.mp4,10,,,,,,,,,,,,,0,47,47,47,,,,,,,,,,,,,,,,,1340.0119438000002,1341.0989194999997,,,,,,,,,1344.7409137,1344.7409137,1344.7409137,1344.7409137,1344.7409137,1344.7409137,1344.7409137,1344.7409137,None,None,None,,,,,,,,,,,1331.5554834999998,1331.5554834999998,None,,,,,1341.0989194999997,1341.0989194999997,1341.0989194999997,n,2.9558716999999888,1331.5554834999998,1331.5554834999998,1336.3812561,1341.0989194999997,10,001,2024-07-03_14h19.00.223,robot_sternberg_sign,2022.2.5,60.029702696898596,
"['L_Torso_Z_Back', 'R_Arm_Z_Back']",True,L_Torso_Z_Back,2,robot,2,False,False,"['robot_stimuli\\L_Torso_Z_Back.mp4', 'robot_stimuli\\R_Arm_Z_Back.mp4']",robot_stimuli\L_Torso_Z_Back.mp4,10,,,,,,,,,,,,,0,48,48,48,,,,,,,,,,,,,,,,,1353.0582147999999,,,,,,,,,,1357.6676068000002,1357.6676068000002,1357.6676068000002,1357.6676068000002,1357.6676068000002,1357.6676068000002,1357.6676068000002,1357.6676068000002,None,None,None,,,,,,,,,,,1344.7409137,1344.7409137,None,,,,,1354.1506415,1354.1506415,1354.1506415,n,3.2319500000003245,1344.7409137,1344.7409137,1349.4293573999998,1354.1506415,10,001,2024-07-03_14h19.00.223,robot_sternberg_sign,2022.2.5,60.029702696898596,
"['R_Base_X_Back', 'R_Head_X_Back']",False,R_Torso_Z_Back,2,robot,2,False,True,"['robot_stimuli\\R_Base_X_Back.mp4', 'robot_stimuli\\R_Head_X_Back.mp4']",robot_stimuli\R_Torso_Z_Back.mp4,10,,,,,,,,,,,,,0,49,49,49,,,,,,,,,,,,,,,,,1366.1093277,1367.1994842999998,,,,,,,,,1371.2873445999999,1378.3720002,1371.2873445999999,1378.3720002,1371.2873445999999,1378.3720002,1371.2873445999999,1378.3720002,33.24074074074074,3.6717811000003167,space,,,7.03889990000016,,,,,,,,1357.6676068000002,1357.6676068000002,None,,,,,1367.1994842999998,1367.1994842999998,1367.1994842999998,n,4.015552800000023,1357.6676068000002,1357.6676068000002,1362.4695146,1367.1994842999998,10,001,2024-07-03_14h19.00.223,robot_sternberg_sign,2022.2.5,60.029702696898596,
"['L_Arm_Y_For', 'R_Arm_Y_For', 'L_Torso_Y_Back', 'R_Base_Z_Back', 'L_Base_Z_Back', 'R_Base_X_For']",False,L_Torso_Z_For,6,robot,2,True,False,"['robot_stimuli\\L_Arm_Y_For.mp4', 'robot_stimuli\\R_Arm_Y_For.mp4', 'robot_stimuli\\L_Torso_Y_Back.mp4', 'robot_stimuli\\R_Base_Z_Back.mp4', 'robot_stimuli\\L_Base_Z_Back.mp4', 'robot_stimuli\\R_Base_X_For.mp4']",robot_stimuli\L_Torso_Z_For.mp4,10,,,,,,,,,,,,,0,50,50,50,,,,,,,,,,,,,,,,,1425.6784594,1426.7673946,,,,,,,,,1430.4048738000001,1430.4048738000001,1430.4048738000001,1430.4048738000001,1430.4048738000001,1430.4048738000001,1430.4048738000001,1430.4048738000001,None,None,None,,,,,,,,,,,1378.3720002,1378.3720002,space,24.418470399999933,,,,1426.7673946,1426.7673946,1426.7673946,n,2.510029900000063,,,1422.1468581,1426.7673946,10,001,2024-07-03_14h19.00.223,robot_sternberg_sign,2022.2.5,60.029702696898596,
"['R_Base_X_Back', 'R_Base_Y_Back', 'L_Head_Y_For', 'R_Arm_X_Back', 'R_Torso_Z_Back', 'R_Torso_Z_For']",True,R_Base_Y_Back,6,robot,2,False,False,"['robot_stimuli\\R_Base_X_Back.mp4', 'robot_stimuli\\R_Base_Y_Back.mp4', 'robot_stimuli\\L_Head_Y_For.mp4', 'robot_stimuli\\R_Arm_X_Back.mp4', 'robot_stimuli\\R_Torso_Z_Back.mp4', 'robot_stimuli\\R_Torso_Z_For.mp4']",robot_stimuli\R_Base_Y_Back.mp4,10,,,,,,,,,,,,,0,51,51,51,,,,,,,,,,,,,,,,,1453.7093439,1454.8083858999998,,,,,,,,,1459.0525420999998,1459.0525420999998,1459.0525420999998,1459.0525420999998,1459.0525420999998,1459.0525420999998,1459.0525420999998,1459.0525420999998,None,None,None,,,,,,,,,,,1430.4048738000001,1430.4048738000001,None,,,,,1454.8083858999998,1454.8083858999998,1454.8083858999998,n,4.213638700000047,1430.4048738000001,1430.4048738000001,1450.0761748,1454.8083858999998,10,001,2024-07-03_14h19.00.223,robot_sternberg_sign,2022.2.5,60.029702696898596,
"['R_Head_Y_Back', 'R_Arm_X_Back', 'L_Base_Y_For', 'R_Base_Y_Back', 'L_Base_Z_For', 'R_Base_Y_For']",False,R_Torso_X_For,6,robot,2,False,False,"['robot_stimuli\\R_Head_Y_Back.mp4', 'robot_stimuli\\R_Arm_X_Back.mp4', 'robot_stimuli\\L_Base_Y_For.mp4', 'robot_stimuli\\R_Base_Y_Back.mp4', 'robot_stimuli\\L_Base_Z_For.mp4', 'robot_stimuli\\R_Base_Y_For.mp4']",robot_stimuli\R_Torso_X_For.mp4,10,,,,,,,,,,,,,0,52,52,52,,,,,,,,,,,,,,,,,1482.2465395,1483.3347285999998,,,,,,,,,1487.6814593,1487.6814593,1487.6814593,1487.6814593,1487.6814593,1487.6814593,1487.6814593,1487.6814593,None,None,None,,,,,,,,,,,1459.0525420999998,1459.0525420999998,None,,,,,1483.3347285999998,1483.3347285999998,1483.3347285999998,n,4.311774400000104,1459.0525420999998,1459.0525420999998,1478.6129677999998,1483.3347285999998,10,001,2024-07-03_14h19.00.223,robot_sternberg_sign,2022.2.5,60.029702696898596,
"['L_Head_Y_Back', 'R_Head_Y_Back', 'R_Head_Z_For', 'R_Head_Z_Back', 'L_Base_Z_Back', 'L_Arm_Z_For']",True,R_Head_Y_Back,6,robot,2,False,False,"['robot_stimuli\\L_Head_Y_Back.mp4', 'robot_stimuli\\R_Head_Y_Back.mp4', 'robot_stimuli\\R_Head_Z_For.mp4', 'robot_stimuli\\R_Head_Z_Back.mp4', 'robot_stimuli\\L_Base_Z_Back.mp4', 'robot_stimuli\\L_Arm_Z_For.mp4']",robot_stimuli\R_Head_Y_Back.mp4,10,,,,,,,,,,,,,0,53,53,53,,,,,,,,,,,,,,,,,1510.9933035999998,1512.0849598,,,,,,,,,1517.3022461,1517.3022461,1517.3022461,1517.3022461,1517.3022461,1517.3022461,1517.3022461,1517.3022461,None,None,None,,,,,,,,,,,1487.6814593,1487.6814593,None,,,,,1512.0849598,1512.0849598,1512.0849598,c,5.185751399999845,1487.6814593,1487.6814593,1507.3615925,1512.0849598,10,001,2024-07-03_14h19.00.223,robot_sternberg_sign,2022.2.5,60.029702696898596,
"['L_Head_Z_Back', 'L_Head_X_Back', 'R_Base_X_Back', 'L_Torso_Z_Back', 'R_Head_X_Back', 'R_Torso_Z_For']",True,R_Base_X_Back,6,robot,2,False,False,"['robot_stimuli\\L_Head_Z_Back.mp4', 'robot_stimuli\\L_Head_X_Back.mp4', 'robot_stimuli\\R_Base_X_Back.mp4', 'robot_stimuli\\L_Torso_Z_Back.mp4', 'robot_stimuli\\R_Head_X_Back.mp4', 'robot_stimuli\\R_Torso_Z_For.mp4']",robot_stimuli\R_Base_X_Back.mp4,10,,,,,,,,,,,,,0,54,54,54,,,,,,,,,,,,,,,,,1540.4741257,1518.3768936000001,,,,,,,,,1545.2210211000001,1545.2210211000001,1545.2210211000001,1545.2210211000001,1545.2210211000001,1545.2210211000001,1545.2210211000001,1545.2210211000001,None,None,None,,,,,,,,,,,1517.3022461,1517.3022461,None,,,,,1541.5698708,1541.5698708,1541.5698708,c,3.4439275999998245,1517.3022461,1517.3022461,1536.8386826,1541.5698708,10,001,2024-07-03_14h19.00.223,robot_sternberg_sign,2022.2.5,60.029702696898596,
"['R_Arm_X_Back', 'R_Head_X_Back', 'L_Torso_Z_For', 'L_Torso_X_Back', 'R_Torso_X_Back', 'R_Head_Z_For']",True,L_Torso_X_Back,6,robot,2,False,False,"['robot_stimuli\\R_Arm_X_Back.mp4', 'robot_stimuli\\R_Head_X_Back.mp4', 'robot_stimuli\\L_Torso_Z_For.mp4', 'robot_stimuli\\L_Torso_X_Back.mp4', 'robot_stimuli\\R_Torso_X_Back.mp4', 'robot_stimuli\\R_Head_Z_For.mp4']",robot_stimuli\L_Torso_X_Back.mp4,10,,,,,,,,,,,,,0,55,55,55,,,,,,,,,,,,,,,,,1568.5422502000001,1546.298053,,,,,,,,,1573.4844116,1573.4844116,1573.4844116,1573.4844116,1573.4844116,1573.4844116,1573.4844116,1573.4844116,None,None,None,,,,,,,,,,,1545.2210211000001,1545.2210211000001,None,,,,,1569.6346288999998,1569.6346288999998,1569.6346288999998,n,3.820038299999851,1545.2210211000001,1545.2210211000001,1564.9080564,1569.6346288999998,10,001,2024-07-03_14h19.00.223,robot_sternberg_sign,2022.2.5,60.029702696898596,
"['R_Head_Y_Back', 'R_Torso_Z_Back', 'L_Torso_Z_For', 'R_Torso_Z_For', 'L_Base_X_For', 'R_Head_Z_Back']",False,L_Base_Y_For,6,robot,2,False,False,"['robot_stimuli\\R_Head_Y_Back.mp4', 'robot_stimuli\\R_Torso_Z_Back.mp4', 'robot_stimuli\\L_Torso_Z_For.mp4', 'robot_stimuli\\R_Torso_Z_For.mp4', 'robot_stimuli\\L_Base_X_For.mp4', 'robot_stimuli\\R_Head_Z_Back.mp4']",robot_stimuli\L_Base_Y_For.mp4,10,,,,,,,,,,,,,0,56,56,56,,,,,,,,,,,,,,,,,1596.7620194,1597.8498383,,,,,,,,,1601.3879711999998,1601.3879711999998,1601.3879711999998,1601.3879711999998,1601.3879711999998,1601.3879711999998,1601.3879711999998,1601.3879711999998,None,None,None,,,,,,,,,,,1573.4844116,1573.4844116,None,,,,,1597.8498383,1597.8498383,1597.8498383,n,3.244472799999585,1573.4844116,1573.4844116,1593.1291474999998,1597.8498383,10,001,2024-07-03_14h19.00.223,robot_sternberg_sign,2022.2.5,60.029702696898596,
"['L_Torso_Y_For', 'L_Base_Z_For', 'L_Torso_X_Back', 'R_Base_Y_For', 'L_Torso_Y_Back', 'L_Arm_Y_Back']",False,L_Head_Z_For,6,robot,2,False,False,"['robot_stimuli\\L_Torso_Y_For.mp4', 'robot_stimuli\\L_Base_Z_For.mp4', 'robot_stimuli\\L_Torso_X_Back.mp4', 'robot_stimuli\\R_Base_Y_For.mp4', 'robot_stimuli\\L_Torso_Y_Back.mp4', 'robot_stimuli\\L_Arm_Y_Back.mp4']",robot_stimuli\L_Head_Z_For.mp4,10,,,,,,,,,,,,,0,57,57,57,,,,,,,,,,,,,,,,,1624.5754127999999,1602.4631838,,,,,,,,,1629.3178546,1629.3178546,1629.3178546,1629.3178546,1629.3178546,1629.3178546,1629.3178546,1629.3178546,None,None,None,,,,,,,,,,,1601.3879711999998,1601.3879711999998,None,,,,,1625.6687754999998,1625.6687754999998,1625.6687754999998,n,2.2821038000001863,1601.3879711999998,1601.3879711999998,1620.9338158,1625.6687754999998,10,001,2024-07-03_14h19.00.223,robot_sternberg_sign,2022.2.5,60.029702696898596,
"['L_Head_Y_Back', 'R_Arm_Y_For', 'R_Head_Z_For', 'L_Head_Z_Back', 'R_Base_Z_Back', 'L_Base_Z_For']",True,L_Head_Z_Back,6,robot,2,False,False,"['robot_stimuli\\L_Head_Y_Back.mp4', 'robot_stimuli\\R_Arm_Y_For.mp4', 'robot_stimuli\\R_Head_Z_For.mp4', 'robot_stimuli\\L_Head_Z_Back.mp4', 'robot_stimuli\\R_Base_Z_Back.mp4', 'robot_stimuli\\L_Base_Z_For.mp4']",robot_stimuli\L_Head_Z_Back.mp4,10,,,,,,,,,,,,,0,58,58,58,,,,,,,,,,,,,,,,,1652.407871,1630.397187,,,,,,,,,1657.1304977999998,1657.1304977999998,1657.1304977999998,1657.1304977999998,1657.1304977999998,1657.1304977999998,1657.1304977999998,1657.1304977999998,None,None,None,,,,,,,,,,,1629.3178546,1629.3178546,None,,,,,1653.5016070000001,1653.5016070000001,1653.5016070000001,n,3.0732170000001133,1629.3178546,1629.3178546,1648.7662464,1653.5016070000001,10,001,2024-07-03_14h19.00.223,robot_sternberg_sign,2022.2.5,60.029702696898596,
"['R_Torso_X_Back', 'L_Arm_Y_Back', 'R_Head_Y_Back', 'R_Head_Z_For', 'R_Base_Z_For', 'R_Base_Y_Back']",False,R_Base_Z_Back,6,robot,2,False,True,"['robot_stimuli\\R_Torso_X_Back.mp4', 'robot_stimuli\\L_Arm_Y_Back.mp4', 'robot_stimuli\\R_Head_Y_Back.mp4', 'robot_stimuli\\R_Head_Z_For.mp4', 'robot_stimuli\\R_Base_Z_For.mp4', 'robot_stimuli\\R_Base_Y_Back.mp4']",robot_stimuli\R_Base_Z_Back.mp4,10,,,,,,,,,,,,,0,59,59,59,,,,,,,,,,,,,,,,,1680.4606576,1681.5508144,,,,,,,,,1685.3170581,1698.6942232000001,1685.3170581,1698.6942232000001,1685.3170581,1698.6942232000001,1685.3170581,1698.6942232000001,55.617283950617285,9.075579199999993,space,,,13.305097499999647,,,,,,,,1657.1304977999998,1657.1304977999998,None,,,,,1681.5508144,1681.5508144,1681.5508144,n,3.6963181999999506,1657.1304977999998,1657.1304977999998,1676.8189478,1681.5508144,10,001,2024-07-03_14h19.00.223,robot_sternberg_sign,2022.2.5,60.029702696898596,
"['W', 'L']",False,C,2,letter,3,True,False,"['robot_stimuli\\\\filler.mp4', 'robot_stimuli\\\\filler.mp4']",robot_stimuli\\filler.mp4,10,,,,,,,,,,,,,0,60,60,60,,,,,,,,,,,,,,,,,1708.4249013999997,1704.1269822,,,,,,,,,1710.5160405000001,1710.5160405000001,1710.5160405000001,1710.5160405000001,1710.5160405000001,1710.5160405000001,1710.5160405000001,1710.5160405000001,None,None,None,,,,,,,,,,,1698.6942232000001,1698.6942232000001,space,4.361225800000284,1706.4200775,1708.4249013999997,1709.4945299,1709.4945299,1709.4945299,1709.4945299,n,0.919440300000133,,,,,10,001,2024-07-03_14h19.00.223,robot_sternberg_sign,2022.2.5,60.029702696898596,
"['S', 'X']",False,V,2,letter,3,False,False,"['robot_stimuli\\\\filler.mp4', 'robot_stimuli\\\\filler.mp4']",robot_stimuli\\filler.mp4,10,,,,,,,,,,,,,0,61,61,61,,,,,,,,,,,,,,,,,1715.6860047999999,1716.7435074,,,,,,,,,1717.5716069999999,1717.5716069999999,1717.5716069999999,1717.5716069999999,1717.5716069999999,1717.5716069999999,1717.5716069999999,1717.5716069999999,None,None,None,,,,,,,,,,,1710.5160405000001,1710.5160405000001,None,,1713.6628565,1715.6860047999999,1716.7435074,1716.7435074,1716.7435074,1716.7435074,n,0.6556541999998444,1710.5160405000001,1710.5160405000001,,,10,001,2024-07-03_14h19.00.223,robot_sternberg_sign,2022.2.5,60.029702696898596,
"['R', 'Z']",True,R,2,letter,3,False,False,"['robot_stimuli\\\\filler.mp4', 'robot_stimuli\\\\filler.mp4']",robot_stimuli\\filler.mp4,10,,,,,,,,,,,,,0,62,62,62,,,,,,,,,,,,,,,,,1722.9331297999997,1723.9923580999998,,,,,,,,,1725.8184256,1725.8184256,1725.8184256,1725.8184256,1725.8184256,1725.8184256,1725.8184256,1725.8184256,None,None,None,,,,,,,,,,,1717.5716069999999,1717.5716069999999,None,,1720.9123651999998,1722.9331297999997,1723.9923580999998,1723.9923580999998,1723.9923580999998,1723.9923580999998,c,1.742770500000006,1717.5716069999999,1717.5716069999999,,,10,001,2024-07-03_14h19.00.223,robot_sternberg_sign,2022.2.5,60.029702696898596,
"['N', 'Q']",True,Q,2,letter,3,False,False,"['robot_stimuli\\\\filler.mp4', 'robot_stimuli\\\\filler.mp4']",robot_stimuli\\filler.mp4,10,,,,,,,,,,,,,0,63,63,63,,,,,,,,,,,,,,,,,1731.3783445999998,1732.4425019999999,,,,,,,,,1733.4752967999998,1733.4752967999998,1733.4752967999998,1733.4752967999998,1733.4752967999998,1733.4752967999998,1733.4752967999998,1733.4752967999998,None,None,None,,,,,,,,,,,1725.8184256,1725.8184256,None,,1729.1607238000001,1731.3783445999998,1732.4425019999999,1732.4425019999999,1732.4425019999999,1732.4425019999999,c,0.9325653999999304,1725.8184256,1725.8184256,,,10,001,2024-07-03_14h19.00.223,robot_sternberg_sign,2022.2.5,60.029702696898596,
"['V', 'H']",False,M,2,letter,3,False,False,"['robot_stimuli\\\\filler.mp4', 'robot_stimuli\\\\filler.mp4']",robot_stimuli\\filler.mp4,10,,,,,,,,,,,,,0,64,64,64,,,,,,,,,,,,,,,,,1739.0398007,1740.0950407999999,,,,,,,,,1741.1248574,1741.1248574,1741.1248574,1741.1248574,1741.1248574,1741.1248574,1741.1248574,1741.1248574,None,None,None,,,,,,,,,,,1733.4752967999998,1733.4752967999998,None,,1736.8294397,1739.0398007,1740.0950407999999,1740.0950407999999,1740.0950407999999,1740.0950407999999,n,0.8720845000002555,1733.4752967999998,1733.4752967999998,,,10,001,2024-07-03_14h19.00.223,robot_sternberg_sign,2022.2.5,60.029702696898596,
"['P', 'N']",True,P,2,letter,3,False,False,"['robot_stimuli\\\\filler.mp4', 'robot_stimuli\\\\filler.mp4']",robot_stimuli\\filler.mp4,10,,,,,,,,,,,,,0,65,65,65,,,,,,,,,,,,,,,,,1746.6919429,,,,,,,,,,1748.9880558,1748.9880558,1748.9880558,1748.9880558,1748.9880558,1748.9880558,1748.9880558,1748.9880558,None,None,None,,,,,,,,,,,1741.1248574,1741.1248574,None,,1744.4798437999998,1746.6919429,1747.7597495,1747.7597495,1747.7597495,1747.7597495,c,1.0872174000000996,1741.1248574,1741.1248574,,,10,001,2024-07-03_14h19.00.223,robot_sternberg_sign,2022.2.5,60.029702696898596,
"['C', 'J']",True,C,2,letter,3,False,False,"['robot_stimuli\\\\filler.mp4', 'robot_stimuli\\\\filler.mp4']",robot_stimuli\\filler.mp4,10,,,,,,,,,,,,,0,66,66,66,,,,,,,,,,,,,,,,,1754.1491029,1755.2099239999998,,,,,,,,,1756.4301495999998,1756.4301495999998,1756.4301495999998,1756.4301495999998,1756.4301495999998,1756.4301495999998,1756.4301495999998,1756.4301495999998,None,None,None,,,,,,,,,,,1748.9880558,1748.9880558,None,,1752.1374947999998,1754.1491029,1755.2099239999998,1755.2099239999998,1755.2099239999998,1755.2099239999998,c,1.0612961000001633,1748.9880558,1748.9880558,,,10,001,2024-07-03_14h19.00.223,robot_sternberg_sign,2022.2.5,60.029702696898596,
"['C', 'N']",False,W,2,letter,3,False,False,"['robot_stimuli\\\\filler.mp4', 'robot_stimuli\\\\filler.mp4']",robot_stimuli\\filler.mp4,10,,,,,,,,,,,,,0,67,67,67,,,,,,,,,,,,,,,,,1762.0102220999997,1763.0775869999998,,,,,,,,,1764.1001843999998,1764.1001843999998,1764.1001843999998,1764.1001843999998,1764.1001843999998,1764.1001843999998,1764.1001843999998,1764.1001843999998,None,None,None,,,,,,,,,,,1756.4301495999998,1756.4301495999998,None,,1759.7916801000001,1762.0102220999997,1763.0775869999998,1763.0775869999998,1763.0775869999998,1763.0775869999998,n,0.9763547999996263,1756.4301495999998,1756.4301495999998,,,10,001,2024-07-03_14h19.00.223,robot_sternberg_sign,2022.2.5,60.029702696898596,
"['V', 'P']",True,P,2,letter,3,False,False,"['robot_stimuli\\\\filler.mp4', 'robot_stimuli\\\\filler.mp4']",robot_stimuli\\filler.mp4,10,,,,,,,,,,,,,0,68,68,68,,,,,,,,,,,,,,,,,1769.2825222000001,1770.3442949,,,,,,,,,1771.9681503000002,1771.9681503000002,1771.9681503000002,1771.9681503000002,1771.9681503000002,1771.9681503000002,1771.9681503000002,1771.9681503000002,None,None,None,,,,,,,,,,,1764.1001843999998,1764.1001843999998,None,,1767.267663,1769.2825222000001,1770.3442949,1770.3442949,1770.3442949,1770.3442949,c,1.5030141000002004,1764.1001843999998,1764.1001843999998,,,10,001,2024-07-03_14h19.00.223,robot_sternberg_sign,2022.2.5,60.029702696898596,
"['H', 'S']",False,K,2,letter,3,False,True,"['robot_stimuli\\\\filler.mp4', 'robot_stimuli\\\\filler.mp4']",robot_stimuli\\filler.mp4,10,,,,,,,,,,,,,0,69,69,69,,,,,,,,,,,,,,,,,1777.3353367,1778.4024547,,,,,,,,,1779.6618195,1784.5314987000002,1779.6618195,1784.5314987000002,1779.6618195,1784.5314987000002,1779.6618195,1784.5314987000002,20.432098765432094,2.713644000000386,space,,,4.807984099999885,,,,,,,,1771.9681503000002,1771.9681503000002,None,,1775.3185330000001,1777.3353367,1778.4024547,1778.4024547,1778.4024547,1778.4024547,n,1.0202423000000636,1771.9681503000002,1771.9681503000002,,,10,001,2024-07-03_14h19.00.223,robot_sternberg_sign,2022.2.5,60.029702696898596,
"['K', 'G', 'R', 'H', 'T', 'S']",True,S,6,letter,3,True,False,"['robot_stimuli\\\\filler.mp4', 'robot_stimuli\\\\filler.mp4', 'robot_stimuli\\\\filler.mp4', 'robot_stimuli\\\\filler.mp4', 'robot_stimuli\\\\filler.mp4', 'robot_stimuli\\\\filler.mp4']",robot_stimuli\\filler.mp4,10,,,,,,,,,,,,,0,70,70,70,,,,,,,,,,,,,,,,,1811.8838286999999,1812.9465824999997,,,,,,,,,1815.9838903,1815.9838903,1815.9838903,1815.9838903,1815.9838903,1815.9838903,1815.9838903,1815.9838903,None,None,None,,,,,,,,,,,1784.5314987000002,1784.5314987000002,space,13.635678199999802,1809.8691826999998,1811.8838286999999,1812.9465824999997,1812.9465824999997,1812.9465824999997,1812.9465824999997,n,2.9155531000001247,,,,,10,001,2024-07-03_14h19.00.223,robot_sternberg_sign,2022.2.5,60.029702696898596,
"['T', 'B', 'G', 'R', 'M', 'N']",True,R,6,letter,3,False,False,"['robot_stimuli\\\\filler.mp4', 'robot_stimuli\\\\filler.mp4', 'robot_stimuli\\\\filler.mp4', 'robot_stimuli\\\\filler.mp4', 'robot_stimuli\\\\filler.mp4', 'robot_stimuli\\\\filler.mp4']",robot_stimuli\\filler.mp4,10,,,,,,,,,,,,,0,71,71,71,,,,,,,,,,,,,,,,,1829.8777396,1830.9431601000001,,,,,,,,,1832.1721831,1832.1721831,1832.1721831,1832.1721831,1832.1721831,1832.1721831,1832.1721831,1832.1721831,None,None,None,,,,,,,,,,,1815.9838903,1815.9838903,None,,1827.6594286999998,1829.8777396,1830.9431601000001,1830.9431601000001,1830.9431601000001,1830.9431601000001,c,1.0152569000001677,1815.9838903,1815.9838903,,,10,001,2024-07-03_14h19.00.223,robot_sternberg_sign,2022.2.5,60.029702696898596,
"['Z', 'N', 'W', 'S', 'M', 'B']",False,Q,6,letter,3,False,False,"['robot_stimuli\\\\filler.mp4', 'robot_stimuli\\\\filler.mp4', 'robot_stimuli\\\\filler.mp4', 'robot_stimuli\\\\filler.mp4', 'robot_stimuli\\\\filler.mp4', 'robot_stimuli\\\\filler.mp4']",robot_stimuli\\filler.mp4,10,,,,,,,,,,,,,0,72,72,72,,,,,,,,,,,,,,,,,1846.074309,1847.1267263999998,,,,,,,,,1852.5605148999998,1852.5605148999998,1852.5605148999998,1852.5605148999998,1852.5605148999998,1852.5605148999998,1852.5605148999998,1852.5605148999998,None,None,None,,,,,,,,,,,1832.1721831,1832.1721831,None,,1844.0518081,1846.074309,1847.1267263999998,1847.1267263999998,1847.1267263999998,1847.1267263999998,c,5.288989000000129,1832.1721831,1832.1721831,,,10,001,2024-07-03_14h19.00.223,robot_sternberg_sign,2022.2.5,60.029702696898596,
"['C', 'Q', 'G', 'M', 'V', 'H']",True,M,6,letter,3,False,False,"['robot_stimuli\\\\filler.mp4', 'robot_stimuli\\\\filler.mp4', 'robot_stimuli\\\\filler.mp4', 'robot_stimuli\\\\filler.mp4', 'robot_stimuli\\\\filler.mp4', 'robot_stimuli\\\\filler.mp4']",robot_stimuli\\filler.mp4,10,,,,,,,,,,,,,0,73,73,73,,,,,,,,,,,,,,,,,1866.4974087,1867.5611123999997,,,,,,,,,1868.3836754,1868.3836754,1868.3836754,1868.3836754,1868.3836754,1868.3836754,1868.3836754,1868.3836754,None,None,None,,,,,,,,,,,1852.5605148999998,1852.5605148999998,None,,1864.2782312999998,1866.4974087,1867.5611123999997,1867.5611123999997,1867.5611123999997,1867.5611123999997,n,0.7344213999999738,1852.5605148999998,1852.5605148999998,,,10,001,2024-07-03_14h19.00.223,robot_sternberg_sign,2022.2.5,60.029702696898596,
"['B', 'M', 'D', 'R', 'L', 'V']",False,J,6,letter,3,False,False,"['robot_stimuli\\\\filler.mp4', 'robot_stimuli\\\\filler.mp4', 'robot_stimuli\\\\filler.mp4', 'robot_stimuli\\\\filler.mp4', 'robot_stimuli\\\\filler.mp4', 'robot_stimuli\\\\filler.mp4']",robot_stimuli\\filler.mp4,10,,,,,,,,,,,,,0,74,74,74,,,,,,,,,,,,,,,,,1882.0833053000001,1883.143318,,,,,,,,,1884.1710131,1884.1710131,1884.1710131,1884.1710131,1884.1710131,1884.1710131,1884.1710131,1884.1710131,None,None,None,,,,,,,,,,,1868.3836754,1868.3836754,None,,1880.0736447,1882.0833053000001,1883.143318,1883.143318,1883.143318,1883.143318,n,0.8390383999999358,1868.3836754,1868.3836754,,,10,001,2024-07-03_14h19.00.223,robot_sternberg_sign,2022.2.5,60.029702696898596,
"['R', 'J', 'Q', 'Z', 'N', 'G']",True,G,6,letter,3,False,False,"['robot_stimuli\\\\filler.mp4', 'robot_stimuli\\\\filler.mp4', 'robot_stimuli\\\\filler.mp4', 'robot_stimuli\\\\filler.mp4', 'robot_stimuli\\\\filler.mp4', 'robot_stimuli\\\\filler.mp4']",robot_stimuli\\filler.mp4,10,,,,,,,,,,,,,0,75,75,75,,,,,,,,,,,,,,,,,1897.8701391999998,1898.9298868,,,,,,,,,1900.3549626999998,1900.3549626999998,1900.3549626999998,1900.3549626999998,1900.3549626999998,1900.3549626999998,1900.3549626999998,1900.3549626999998,None,None,None,,,,,,,,,,,1884.1710131,1884.1710131,None,,1895.8581589,1897.8701391999998,1898.9298868,1898.9298868,1898.9298868,1898.9298868,c,1.3417254000000867,1884.1710131,1884.1710131,,,10,001,2024-07-03_14h19.00.223,robot_sternberg_sign,2022.2.5,60.029702696898596,
"['P', 'L', 'N', 'T', 'R', 'B']",True,P,6,letter,3,False,False,"['robot_stimuli\\\\filler.mp4', 'robot_stimuli\\\\filler.mp4', 'robot_stimuli\\\\filler.mp4', 'robot_stimuli\\\\filler.mp4', 'robot_stimuli\\\\filler.mp4', 'robot_stimuli\\\\filler.mp4']",robot_stimuli\\filler.mp4,10,,,,,,,,,,,,,0,76,76,76,,,,,,,,,,,,,,,,,1914.8846181,1915.9433146000001,,,,,,,,,1919.5724976000001,1919.5724976000001,1919.5724976000001,1919.5724976000001,1919.5724976000001,1919.5724976000001,1919.5724976000001,1919.5724976000001,None,None,None,,,,,,,,,,,1900.3549626999998,1900.3549626999998,None,,1912.666576,1914.8846181,1915.9433146000001,1915.9433146000001,1915.9433146000001,1915.9433146000001,c,3.5286890999996103,1900.3549626999998,1900.3549626999998,,,10,001,2024-07-03_14h19.00.223,robot_sternberg_sign,2022.2.5,60.029702696898596,
"['B', 'K', 'S', 'M', 'R', 'G']",False,C,6,letter,3,False,False,"['robot_stimuli\\\\filler.mp4', 'robot_stimuli\\\\filler.mp4', 'robot_stimuli\\\\filler.mp4', 'robot_stimuli\\\\filler.mp4', 'robot_stimuli\\\\filler.mp4', 'robot_stimuli\\\\filler.mp4']",robot_stimuli\\filler.mp4,10,,,,,,,,,,,,,0,77,77,77,,,,,,,,,,,,,,,,,1933.6799449999999,1934.7489467,,,,,,,,,1937.7704651999998,1937.7704651999998,1937.7704651999998,1937.7704651999998,1937.7704651999998,1937.7704651999998,1937.7704651999998,1937.7704651999998,None,None,None,,,,,,,,,,,1919.5724976000001,1919.5724976000001,None,,1931.6660309,1933.6799449999999,1934.7489467,1934.7489467,1934.7489467,1934.7489467,n,2.9143935000001875,1919.5724976000001,1919.5724976000001,,,10,001,2024-07-03_14h19.00.223,robot_sternberg_sign,2022.2.5,60.029702696898596,
"['Q', 'H', 'P', 'L', 'S', 'N']",False,D,6,letter,3,False,False,"['robot_stimuli\\\\filler.mp4', 'robot_stimuli\\\\filler.mp4', 'robot_stimuli\\\\filler.mp4', 'robot_stimuli\\\\filler.mp4', 'robot_stimuli\\\\filler.mp4', 'robot_stimuli\\\\filler.mp4']",robot_stimuli\\filler.mp4,10,,,,,,,,,,,,,0,78,78,78,,,,,,,,,,,,,,,,,1952.0757346999999,1938.8280297000001,,,,,,,,,1954.5677557,1954.5677557,1954.5677557,1954.5677557,1954.5677557,1954.5677557,1954.5677557,1954.5677557,None,None,None,,,,,,,,,,,1937.7704651999998,1937.7704651999998,None,,1950.0616237999998,1952.0757346999999,1953.1440063999999,1953.1440063999999,1953.1440063999999,1953.1440063999999,n,1.2061349999999038,1937.7704651999998,1937.7704651999998,,,10,001,2024-07-03_14h19.00.223,robot_sternberg_sign,2022.2.5,60.029702696898596,
"['P', 'R', 'S', 'V', 'G', 'B']",False,T,6,letter,3,False,True,"['robot_stimuli\\\\filler.mp4', 'robot_stimuli\\\\filler.mp4', 'robot_stimuli\\\\filler.mp4', 'robot_stimuli\\\\filler.mp4', 'robot_stimuli\\\\filler.mp4', 'robot_stimuli\\\\filler.mp4']",robot_stimuli\\filler.mp4,10,,,,,,,,,,,,,0,79,79,79,,,,,,,,,,,,,,,,,1968.4833863999997,1969.5462254999998,,,,,,,,,1971.0031709999998,1983.5830812,1971.0031709999998,1983.5830812,1971.0031709999998,1983.5830812,1971.0031709999998,1983.5830812,49.13580246913581,11.721702200000436,space,,,12.523845700000038,,,,,,,,1954.5677557,1954.5677557,None,,1966.4655878999997,1968.4833863999997,1969.5462254999998,1969.5462254999998,1969.5462254999998,1969.5462254999998,n,1.2057675999999447,1954.5677557,1954.5677557,,,10,001,2024-07-03_14h19.00.223,robot_sternberg_sign,2022.2.5,60.029702696898596,
"['K', 'Q', 'X', 'G']",True,X,4,letter,3,True,False,"['robot_stimuli\\\\filler.mp4', 'robot_stimuli\\\\filler.mp4', 'robot_stimuli\\\\filler.mp4', 'robot_stimuli\\\\filler.mp4']",robot_stimuli\\filler.mp4,10,,,,,,,,,,,,,0,80,80,80,,,,,,,,,,,,,,,,,2000.0762085000001,1991.5948459,,,,,,,,,2002.5700232,2002.5700232,2002.5700232,2002.5700232,2002.5700232,2002.5700232,2002.5700232,2002.5700232,None,None,None,,,,,,,,,,,1983.5830812,1983.5830812,space,6.93549800000028,1998.0550638,2000.0762085000001,2001.1436731999997,2001.1436731999997,2001.1436731999997,2001.1436731999997,c,1.3107061999999132,,,,,10,001,2024-07-03_14h19.00.223,robot_sternberg_sign,2022.2.5,60.029702696898596,
"['R', 'J', 'T', 'C']",False,H,4,letter,3,False,False,"['robot_stimuli\\\\filler.mp4', 'robot_stimuli\\\\filler.mp4', 'robot_stimuli\\\\filler.mp4', 'robot_stimuli\\\\filler.mp4']",robot_stimuli\\filler.mp4,10,,,,,,,,,,,,,0,81,81,81,,,,,,,,,,,,,,,,,2012.0989046,2013.1610483,,,,,,,,,2014.9907703,2014.9907703,2014.9907703,2014.9907703,2014.9907703,2014.9907703,2014.9907703,2014.9907703,None,None,None,,,,,,,,,,,2002.5700232,2002.5700232,None,,2010.08059,2012.0989046,2013.1610483,2013.1610483,2013.1610483,2013.1610483,n,1.678327999999965,2002.5700232,2002.5700232,,,10,001,2024-07-03_14h19.00.223,robot_sternberg_sign,2022.2.5,60.029702696898596,
"['H', 'Q', 'D', 'T']",True,T,4,letter,3,False,False,"['robot_stimuli\\\\filler.mp4', 'robot_stimuli\\\\filler.mp4', 'robot_stimuli\\\\filler.mp4', 'robot_stimuli\\\\filler.mp4']",robot_stimuli\\filler.mp4,10,,,,,,,,,,,,,0,82,82,82,,,,,,,,,,,,,,,,,2024.5318847999997,2025.5939620999998,,,,,,,,,2027.4222905000001,2027.4222905000001,2027.4222905000001,2027.4222905000001,2027.4222905000001,2027.4222905000001,2027.4222905000001,2027.4222905000001,None,None,None,,,,,,,,,,,2014.9907703,2014.9907703,None,,2022.5085252999997,2024.5318847999997,2025.5939620999998,2025.5939620999998,2025.5939620999998,2025.5939620999998,c,1.661631099999795,2014.9907703,2014.9907703,,,10,001,2024-07-03_14h19.00.223,robot_sternberg_sign,2022.2.5,60.029702696898596,
"['T', 'C', 'W', 'X']",False,R,4,letter,3,False,False,"['robot_stimuli\\\\filler.mp4', 'robot_stimuli\\\\filler.mp4', 'robot_stimuli\\\\filler.mp4', 'robot_stimuli\\\\filler.mp4']",robot_stimuli\\filler.mp4,10,,,,,,,,,,,,,0,83,83,83,,,,,,,,,,,,,,,,,2036.9511956000001,2038.012862,,,,,,,,,2040.0421713,2040.0421713,2040.0421713,2040.0421713,2040.0421713,2040.0421713,2040.0421713,2040.0421713,None,None,None,,,,,,,,,,,2027.4222905000001,2027.4222905000001,None,,2034.9298331,2036.9511956000001,2038.012862,2038.012862,2038.012862,2038.012862,n,1.9631810999999288,2027.4222905000001,2027.4222905000001,,,10,001,2024-07-03_14h19.00.223,robot_sternberg_sign,2022.2.5,60.029702696898596,
"['D', 'B', 'H', 'G']",False,J,4,letter,3,False,False,"['robot_stimuli\\\\filler.mp4', 'robot_stimuli\\\\filler.mp4', 'robot_stimuli\\\\filler.mp4', 'robot_stimuli\\\\filler.mp4']",robot_stimuli\\filler.mp4,10,,,,,,,,,,,,,0,84,84,84,,,,,,,,,,,,,,,,,2049.7981473,2050.8611649,,,,,,,,,2052.0884659,2052.0884659,2052.0884659,2052.0884659,2052.0884659,2052.0884659,2052.0884659,2052.0884659,None,None,None,,,,,,,,,,,2040.0421713,2040.0421713,None,,2047.7855473999998,2049.7981473,2050.8611649,2050.8611649,2050.8611649,2050.8611649,n,1.0903215000003001,2040.0421713,2040.0421713,,,10,001,2024-07-03_14h19.00.223,robot_sternberg_sign,2022.2.5,60.029702696898596,
"['N', 'V', 'D', 'H']",False,R,4,letter,3,False,False,"['robot_stimuli\\\\filler.mp4', 'robot_stimuli\\\\filler.mp4', 'robot_stimuli\\\\filler.mp4', 'robot_stimuli\\\\filler.mp4']",robot_stimuli\\filler.mp4,10,,,,,,,,,,,,,0,85,85,85,,,,,,,,,,,,,,,,,2061.998397,2063.0616056999997,,,,,,,,,2063.887568,2063.887568,2063.887568,2063.887568,2063.887568,2063.887568,2063.887568,2063.887568,None,None,None,,,,,,,,,,,2052.0884659,2052.0884659,None,,2059.9888209,2061.998397,2063.0616056999997,2063.0616056999997,2063.0616056999997,2063.0616056999997,n,0.770774000000074,2052.0884659,2052.0884659,,,10,001,2024-07-03_14h19.00.223,robot_sternberg_sign,2022.2.5,60.029702696898596,
"['N', 'T', 'M', 'V']",True,N,4,letter,3,False,False,"['robot_stimuli\\\\filler.mp4', 'robot_stimuli\\\\filler.mp4', 'robot_stimuli\\\\filler.mp4', 'robot_stimuli\\\\filler.mp4']",robot_stimuli\\filler.mp4,10,,,,,,,,,,,,,0,86,86,86,,,,,,,,,,,,,,,,,2073.8259961,2064.9461517,,,,,,,,,2076.7236374999998,2076.7236374999998,2076.7236374999998,2076.7236374999998,2076.7236374999998,2076.7236374999998,2076.7236374999998,2076.7236374999998,None,None,None,,,,,,,,,,,2063.887568,2063.887568,None,,2071.6104704,2073.8259961,2074.896475,2074.896475,2074.896475,2074.896475,c,1.7263882999995985,2063.887568,2063.887568,,,10,001,2024-07-03_14h19.00.223,robot_sternberg_sign,2022.2.5,60.029702696898596,
"['W', 'Q', 'P', 'T']",False,M,4,letter,3,False,False,"['robot_stimuli\\\\filler.mp4', 'robot_stimuli\\\\filler.mp4', 'robot_stimuli\\\\filler.mp4', 'robot_stimuli\\\\filler.mp4']",robot_stimuli\\filler.mp4,10,,,,,,,,,,,,,0,87,87,87,,,,,,,,,,,,,,,,,2086.6816206999997,2087.7447447,,,,,,,,,2088.7681398,2088.7681398,2088.7681398,2088.7681398,2088.7681398,2088.7681398,2088.7681398,2088.7681398,None,None,None,,,,,,,,,,,2076.7236374999998,2076.7236374999998,None,,2084.4652347,2086.6816206999997,2087.7447447,2087.7447447,2087.7447447,2087.7447447,n,0.8938564999998562,2076.7236374999998,2076.7236374999998,,,10,001,2024-07-03_14h19.00.223,robot_sternberg_sign,2022.2.5,60.029702696898596,
"['J', 'G', 'Q', 'N']",True,G,4,letter,3,False,False,"['robot_stimuli\\\\filler.mp4', 'robot_stimuli\\\\filler.mp4', 'robot_stimuli\\\\filler.mp4', 'robot_stimuli\\\\filler.mp4']",robot_stimuli\\filler.mp4,10,,,,,,,,,,,,,0,88,88,88,,,,,,,,,,,,,,,,,2098.698841,2099.7612446,,,,,,,,,2101.3841211,2101.3841211,2101.3841211,2101.3841211,2101.3841211,2101.3841211,2101.3841211,2101.3841211,None,None,None,,,,,,,,,,,2088.7681398,2088.7681398,None,,2096.6806506,2098.698841,2099.7612446,2099.7612446,2099.7612446,2099.7612446,c,1.3903932999996869,2088.7681398,2088.7681398,,,10,001,2024-07-03_14h19.00.223,robot_sternberg_sign,2022.2.5,60.029702696898596,
"['X', 'P', 'R', 'H']",True,H,4,letter,3,False,True,"['robot_stimuli\\\\filler.mp4', 'robot_stimuli\\\\filler.mp4', 'robot_stimuli\\\\filler.mp4', 'robot_stimuli\\\\filler.mp4']",robot_stimuli\\filler.mp4,10,,,,,,,,,,,,,0,89,89,89,,,,,,,,,,,,,,,,,2111.1322983,2112.1987202,,,,,,,,,2114.4516602999997,2118.4338594,2114.4516602999997,2118.4338594,2114.4516602999997,2118.4338594,2114.4516602999997,2118.4338594,29.537037037037038,2.9961723999999776,space,,,3.923261800000091,,,,,,,,2101.3841211,2101.3841211,None,,2109.1158959,2111.1322983,2112.1987202,2112.1987202,2112.1987202,2112.1987202,c,2.001775799999905,2101.3841211,2101.3841211,,,10,001,2024-07-03_14h19.00.223,robot_sternberg_sign,2022.2.5,60.029702696898596,
"['L_Head_X_Back', 'L_Arm_X_Back', 'R_Torso_X_For', 'L_Arm_X_For', 'L_Torso_Y_Back', 'R_Head_X_For']",True,L_Arm_X_For,6,robot,4,True,False,"['robot_stimuli\\L_Head_X_Back.mp4', 'robot_stimuli\\L_Arm_X_Back.mp4', 'robot_stimuli\\R_Torso_X_For.mp4', 'robot_stimuli\\L_Arm_X_For.mp4', 'robot_stimuli\\L_Torso_Y_Back.mp4', 'robot_stimuli\\R_Head_X_For.mp4']",robot_stimuli\L_Arm_X_For.mp4,10,,,,,,,,,,,,,0,90,90,90,,,,,,,,,,,,,,,,,2169.5122246,2170.6053441999998,,,,,,,,,2174.251977,2174.251977,2174.251977,2174.251977,2174.251977,2174.251977,2174.251977,2174.251977,None,None,None,,,,,,,,,,,2118.4338594,2118.4338594,space,27.844951799999762,,,,2170.6053441999998,2170.6053441999998,2170.6053441999998,c,3.3628145000002405,,,2165.8814053,2170.6053441999998,10,001,2024-07-03_14h19.00.223,robot_sternberg_sign,2022.2.5,60.029702696898596,
"['L_Torso_Z_Back', 'L_Head_Z_Back', 'R_Arm_X_For', 'R_Arm_Z_For', 'L_Head_X_For', 'L_Head_X_Back']",False,R_Arm_X_Back,6,robot,4,False,False,"['robot_stimuli\\L_Torso_Z_Back.mp4', 'robot_stimuli\\L_Head_Z_Back.mp4', 'robot_stimuli\\R_Arm_X_For.mp4', 'robot_stimuli\\R_Arm_Z_For.mp4', 'robot_stimuli\\L_Head_X_For.mp4', 'robot_stimuli\\L_Head_X_Back.mp4']",robot_stimuli\R_Arm_X_Back.mp4,10,,,,,,,,,,,,,0,91,91,91,,,,,,,,,,,,,,,,,2197.3991313,2198.4870397,,,,,,,,,2202.137061,2202.137061,2202.137061,2202.137061,2202.137061,2202.137061,2202.137061,2202.137061,None,None,None,,,,,,,,,,,2174.251977,2174.251977,None,,,,,2198.4870397,2198.4870397,2198.4870397,n,2.959555200000068,2174.251977,2174.251977,2193.7576479,2198.4870397,10,001,2024-07-03_14h19.00.223,robot_sternberg_sign,2022.2.5,60.029702696898596,
"['L_Arm_Z_For', 'L_Head_Y_For', 'R_Head_X_Back', 'R_Arm_Z_Back', 'R_Torso_Z_Back', 'L_Base_Y_For']",False,R_Arm_Y_Back,6,robot,4,False,False,"['robot_stimuli\\L_Arm_Z_For.mp4', 'robot_stimuli\\L_Head_Y_For.mp4', 'robot_stimuli\\R_Head_X_Back.mp4', 'robot_stimuli\\R_Arm_Z_Back.mp4', 'robot_stimuli\\R_Torso_Z_Back.mp4', 'robot_stimuli\\L_Base_Y_For.mp4']",robot_stimuli\R_Arm_Y_Back.mp4,10,,,,,,,,,,,,,0,92,92,92,,,,,,,,,,,,,,,,,2225.3790973,2226.4689472,,,,,,,,,2230.1073983,2230.1073983,2230.1073983,2230.1073983,2230.1073983,2230.1073983,2230.1073983,2230.1073983,None,None,None,,,,,,,,,,,2202.137061,2202.137061,None,,,,,2226.4689472,2226.4689472,2226.4689472,c,2.690888900000118,2202.137061,2202.137061,2221.8478729,2226.4689472,10,001,2024-07-03_14h19.00.223,robot_sternberg_sign,2022.2.5,60.029702696898596,
"['R_Torso_Z_Back', 'L_Base_Y_Back', 'L_Head_Y_Back', 'L_Torso_X_Back', 'L_Torso_Z_Back', 'L_Head_X_For']",False,L_Arm_Z_Back,6,robot,4,False,False,"['robot_stimuli\\R_Torso_Z_Back.mp4', 'robot_stimuli\\L_Base_Y_Back.mp4', 'robot_stimuli\\L_Head_Y_Back.mp4', 'robot_stimuli\\L_Torso_X_Back.mp4', 'robot_stimuli\\L_Torso_Z_Back.mp4', 'robot_stimuli\\L_Head_X_For.mp4']",robot_stimuli\L_Arm_Z_Back.mp4,10,,,,,,,,,,,,,0,93,93,93,,,,,,,,,,,,,,,,,2253.1807885,2254.2645585,,,,,,,,,2257.9072639,2257.9072639,2257.9072639,2257.9072639,2257.9072639,2257.9072639,2257.9072639,2257.9072639,None,None,None,,,,,,,,,,,2230.1073983,2230.1073983,None,,,,,2254.2645585,2254.2645585,2254.2645585,n,2.798434399999678,2230.1073983,2230.1073983,2249.615772,2254.2645585,10,001,2024-07-03_14h19.00.223,robot_sternberg_sign,2022.2.5,60.029702696898596,
"['L_Torso_X_For', 'L_Base_Z_For', 'R_Torso_Z_Back', 'L_Head_Z_Back', 'L_Head_X_Back', 'R_Base_X_For']",True,L_Torso_X_For,6,robot,4,False,False,"['robot_stimuli\\L_Torso_X_For.mp4', 'robot_stimuli\\L_Base_Z_For.mp4', 'robot_stimuli\\R_Torso_Z_Back.mp4', 'robot_stimuli\\L_Head_Z_Back.mp4', 'robot_stimuli\\L_Head_X_Back.mp4', 'robot_stimuli\\R_Base_X_For.mp4']",robot_stimuli\L_Torso_X_For.mp4,10,,,,,,,,,,,,,0,94,94,94,,,,,,,,,,,,,,,,,2281.1146711,2282.2026542999997,,,,,,,,,2285.8314052,2285.8314052,2285.8314052,2285.8314052,2285.8314052,2285.8314052,2285.8314052,2285.8314052,None,None,None,,,,,,,,,,,2257.9072639,2257.9072639,None,,,,,2282.2026542999997,2282.2026542999997,2282.2026542999997,n,2.9654209000000264,2257.9072639,2257.9072639,2277.5824783,2282.2026542999997,10,001,2024-07-03_14h19.00.223,robot_sternberg_sign,2022.2.5,60.029702696898596,
"['L_Arm_Z_For', 'L_Head_Y_Back', 'R_Base_Y_For', 'L_Torso_Z_For', 'L_Base_X_For', 'L_Base_Z_Back']",False,R_Torso_Z_For,6,robot,4,False,False,"['robot_stimuli\\L_Arm_Z_For.mp4', 'robot_stimuli\\L_Head_Y_Back.mp4', 'robot_stimuli\\R_Base_Y_For.mp4', 'robot_stimuli\\L_Torso_Z_For.mp4', 'robot_stimuli\\L_Base_X_For.mp4', 'robot_stimuli\\L_Base_Z_Back.mp4']",robot_stimuli\R_Torso_Z_For.mp4,10,,,,,,,,,,,,,0,95,95,95,,,,,,,,,,,,,,,,,2309.0812643,2310.1688289,,,,,,,,,2317.4372269,2317.4372269,2317.4372269,2317.4372269,2317.4372269,2317.4372269,2317.4372269,2317.4372269,None,None,None,,,,,,,,,,,2285.8314052,2285.8314052,None,,,,,2310.1688289,2310.1688289,2310.1688289,n,7.231571700000131,2285.8314052,2285.8314052,2305.4500417,2310.1688289,10,001,2024-07-03_14h19.00.223,robot_sternberg_sign,2022.2.5,60.029702696898596,
"['R_Head_X_For', 'L_Torso_Y_For', 'L_Head_Y_Back', 'R_Head_Z_Back', 'L_Base_X_Back', 'L_Base_Y_For']",False,R_Torso_Z_Back,6,robot,4,False,False,"['robot_stimuli\\R_Head_X_For.mp4', 'robot_stimuli\\L_Torso_Y_For.mp4', 'robot_stimuli\\L_Head_Y_Back.mp4', 'robot_stimuli\\R_Head_Z_Back.mp4', 'robot_stimuli\\L_Base_X_Back.mp4', 'robot_stimuli\\L_Base_Y_For.mp4']",robot_stimuli\R_Torso_Z_Back.mp4,10,,,,,,,,,,,,,0,96,96,96,,,,,,,,,,,,,,,,,2340.6304539,2341.7199237,,,,,,,,,2348.0694181999997,2348.0694181999997,2348.0694181999997,2348.0694181999997,2348.0694181999997,2348.0694181999997,2348.0694181999997,2348.0694181999997,None,None,None,,,,,,,,,,,2317.4372269,2317.4372269,None,,,,,2341.7199237,2341.7199237,2341.7199237,n,6.312959700000192,2317.4372269,2317.4372269,2337.095266,2341.7199237,10,001,2024-07-03_14h19.00.223,robot_sternberg_sign,2022.2.5,60.029702696898596,
"['L_Head_Y_Back', 'L_Arm_X_For', 'R_Head_Y_Back', 'L_Torso_X_Back', 'L_Base_Y_For', 'R_Arm_Y_For']",True,L_Torso_X_Back,6,robot,4,False,False,"['robot_stimuli\\L_Head_Y_Back.mp4', 'robot_stimuli\\L_Arm_X_For.mp4', 'robot_stimuli\\R_Head_Y_Back.mp4', 'robot_stimuli\\L_Torso_X_Back.mp4', 'robot_stimuli\\L_Base_Y_For.mp4', 'robot_stimuli\\R_Arm_Y_For.mp4']",robot_stimuli\L_Torso_X_Back.mp4,10,,,,,,,,,,,,,0,97,97,97,,,,,,,,,,,,,,,,,2371.1813448,2372.2690641,,,,,,,,,2375.8985377999998,2375.8985377999998,2375.8985377999998,2375.8985377999998,2375.8985377999998,2375.8985377999998,2375.8985377999998,2375.8985377999998,None,None,None,,,,,,,,,,,2348.0694181999997,2348.0694181999997,None,,,,,2372.2690641,2372.2690641,2372.2690641,n,3.1475069999996776,2348.0694181999997,2348.0694181999997,2367.6673783,2372.2690641,10,001,2024-07-03_14h19.00.223,robot_sternberg_sign,2022.2.5,60.029702696898596,
"['L_Arm_Z_For', 'R_Head_X_Back', 'L_Base_Y_Back', 'R_Arm_Z_For', 'R_Arm_X_Back', 'L_Head_Z_Back']",True,R_Head_X_Back,6,robot,4,False,False,"['robot_stimuli\\L_Arm_Z_For.mp4', 'robot_stimuli\\R_Head_X_Back.mp4', 'robot_stimuli\\L_Base_Y_Back.mp4', 'robot_stimuli\\R_Arm_Z_For.mp4', 'robot_stimuli\\R_Arm_X_Back.mp4', 'robot_stimuli\\L_Head_Z_Back.mp4']",robot_stimuli\R_Head_X_Back.mp4,10,,,,,,,,,,,,,0,98,98,98,,,,,,,,,,,,,,,,,2399.1436529,2376.9792575,,,,,,,,,2403.8750609,2403.8750609,2403.8750609,2403.8750609,2403.8750609,2403.8750609,2403.8750609,2403.8750609,None,None,None,,,,,,,,,,,2375.8985377999998,2375.8985377999998,None,,,,,2400.2367009,2400.2367009,2400.2367009,n,3.306941900000311,2375.8985377999998,2375.8985377999998,2395.5133640999998,2400.2367009,10,001,2024-07-03_14h19.00.223,robot_sternberg_sign,2022.2.5,60.029702696898596,
"['R_Head_Z_For', 'R_Head_Y_For', 'L_Torso_Z_For', 'R_Arm_X_For', 'L_Arm_X_Back', 'L_Arm_Z_For']",True,R_Head_Z_For,6,robot,4,False,True,"['robot_stimuli\\R_Head_Z_For.mp4', 'robot_stimuli\\R_Head_Y_For.mp4', 'robot_stimuli\\L_Torso_Z_For.mp4', 'robot_stimuli\\R_Arm_X_For.mp4', 'robot_stimuli\\L_Arm_X_Back.mp4', 'robot_stimuli\\L_Arm_Z_For.mp4']",robot_stimuli\R_Head_Z_For.mp4,10,,,,,,,,,,,,,0,99,99,99,,,,,,,,,,,,,,,,,2427.1829567,2428.2708266,,,,,,,,,2431.9538474,2436.0808334,2431.9538474,2436.0808334,2431.9538474,2436.0808334,2431.9538474,2436.0808334,70.27777777777777,3.795518400000219,space,,,4.07767530000001,,,,,,,,2403.8750609,2403.8750609,None,,,,,2428.2708266,2428.2708266,2428.2708266,c,2.0495140999996693,2403.8750609,2403.8750609,2423.5516654,2428.2708266,10,001,2024-07-03_14h19.00.223,robot_sternberg_sign,2022.2.5,60.029702696898596,
"['R_Head_X_For', 'R_Base_X_Back', 'R_Base_Z_Back', 'R_Torso_X_Back']",True,R_Base_Z_Back,4,robot,4,True,False,"['robot_stimuli\\R_Head_X_For.mp4', 'robot_stimuli\\R_Base_X_Back.mp4', 'robot_stimuli\\R_Base_Z_Back.mp4', 'robot_stimuli\\R_Torso_X_Back.mp4']",robot_stimuli\R_Base_Z_Back.mp4,10,,,,,,,,,,,,,0,100,100,100,,,,,,,,,,,,,,,,,2466.9287243999997,2468.0209842,,,,,,,,,2471.5738636,2471.5738636,2471.5738636,2471.5738636,2471.5738636,2471.5738636,2471.5738636,2471.5738636,None,None,None,,,,,,,,,,,2436.0808334,2436.0808334,space,15.03216969999994,,,,2468.0209842,2468.0209842,2468.0209842,n,2.946353199999976,,,2463.28698,2468.0209842,10,001,2024-07-03_14h19.00.223,robot_sternberg_sign,2022.2.5,60.029702696898596,
"['L_Torso_X_For', 'R_Base_Y_Back', 'L_Torso_Z_For', 'L_Arm_Y_Back']",True,L_Torso_Z_For,4,robot,4,False,False,"['robot_stimuli\\L_Torso_X_For.mp4', 'robot_stimuli\\R_Base_Y_Back.mp4', 'robot_stimuli\\L_Torso_Z_For.mp4', 'robot_stimuli\\L_Arm_Y_Back.mp4']",robot_stimuli\L_Torso_Z_For.mp4,10,,,,,,,,,,,,,0,101,101,101,,,,,,,,,,,,,,,,,2487.499876,2488.5869970999997,,,,,,,,,2492.23556,2492.23556,2492.23556,2492.23556,2492.23556,2492.23556,2492.23556,2492.23556,None,None,None,,,,,,,,,,,2471.5738636,2471.5738636,None,,,,,2488.5869970999997,2488.5869970999997,2488.5869970999997,c,2.8683117000000493,2471.5738636,2471.5738636,2483.8565269,2488.5869970999997,10,001,2024-07-03_14h19.00.223,robot_sternberg_sign,2022.2.5,60.029702696898596,
"['L_Torso_Z_For', 'R_Arm_X_Back', 'R_Arm_Y_For', 'L_Torso_X_For']",False,R_Arm_X_For,4,robot,4,False,False,"['robot_stimuli\\L_Torso_Z_For.mp4', 'robot_stimuli\\R_Arm_X_Back.mp4', 'robot_stimuli\\R_Arm_Y_For.mp4', 'robot_stimuli\\L_Torso_X_For.mp4']",robot_stimuli\R_Arm_X_For.mp4,10,,,,,,,,,,,,,0,102,102,102,,,,,,,,,,,,,,,,,2508.0164353,2509.1020764,,,,,,,,,2515.0502629,2515.0502629,2515.0502629,2515.0502629,2515.0502629,2515.0502629,2515.0502629,2515.0502629,None,None,None,,,,,,,,,,,2492.23556,2492.23556,None,,,,,2509.1020764,2509.1020764,2509.1020764,n,5.914310599999681,2492.23556,2492.23556,2504.3848261,2509.1020764,10,001,2024-07-03_14h19.00.223,robot_sternberg_sign,2022.2.5,60.029702696898596,
"['R_Torso_Y_Back', 'R_Torso_Z_Back', 'R_Base_Y_Back', 'R_Arm_Y_Back']",True,R_Arm_Y_Back,4,robot,4,False,False,"['robot_stimuli\\R_Torso_Y_Back.mp4', 'robot_stimuli\\R_Torso_Z_Back.mp4', 'robot_stimuli\\R_Base_Y_Back.mp4', 'robot_stimuli\\R_Arm_Y_Back.mp4']",robot_stimuli\R_Arm_Y_Back.mp4,10,,,,,,,,,,,,,0,103,103,103,,,,,,,,,,,,,,,,,2530.9298685999997,2532.0190437,,,,,,,,,2535.6566275,2535.6566275,2535.6566275,2535.6566275,2535.6566275,2535.6566275,2535.6566275,2535.6566275,None,None,None,,,,,,,,,,,2515.0502629,2515.0502629,None,,,,,2532.0190437,2532.0190437,2532.0190437,n,3.34979629999998,2515.0502629,2515.0502629,2527.2993496,2532.0190437,10,001,2024-07-03_14h19.00.223,robot_sternberg_sign,2022.2.5,60.029702696898596,
"['R_Base_Z_Back', 'L_Arm_Z_Back', 'L_Head_Z_For', 'L_Base_Y_Back']",False,R_Arm_X_Back,4,robot,4,False,False,"['robot_stimuli\\R_Base_Z_Back.mp4', 'robot_stimuli\\L_Arm_Z_Back.mp4', 'robot_stimuli\\L_Head_Z_For.mp4', 'robot_stimuli\\L_Base_Y_Back.mp4']",robot_stimuli\R_Arm_X_Back.mp4,10,,,,,,,,,,,,,0,104,104,104,,,,,,,,,,,,,,,,,2551.3798639,2552.468386,,,,,,,,,2556.1186904,2556.1186904,2556.1186904,2556.1186904,2556.1186904,2556.1186904,2556.1186904,2556.1186904,None,None,None,,,,,,,,,,,2535.6566275,2535.6566275,None,,,,,2552.468386,2552.468386,2552.468386,n,1.6526546999998573,2535.6566275,2535.6566275,2547.8012393999998,2552.468386,10,001,2024-07-03_14h19.00.223,robot_sternberg_sign,2022.2.5,60.029702696898596,
"['R_Head_Y_For', 'R_Head_Y_Back', 'R_Torso_X_Back', 'R_Torso_Y_Back']",True,R_Torso_X_Back,4,robot,4,False,False,"['robot_stimuli\\R_Head_Y_For.mp4', 'robot_stimuli\\R_Head_Y_Back.mp4', 'robot_stimuli\\R_Torso_X_Back.mp4', 'robot_stimuli\\R_Torso_Y_Back.mp4']",robot_stimuli\R_Torso_X_Back.mp4,10,,,,,,,,,,,,,0,105,105,105,,,,,,,,,,,,,,,,,2571.9991227,2573.0910881,,,,,,,,,2576.7376906,2576.7376906,2576.7376906,2576.7376906,2576.7376906,2576.7376906,2576.7376906,2576.7376906,None,None,None,,,,,,,,,,,2556.1186904,2556.1186904,None,,,,,2573.0910881,2573.0910881,2573.0910881,c,3.0532035000001088,2556.1186904,2556.1186904,2568.3660592,2573.0910881,10,001,2024-07-03_14h19.00.223,robot_sternberg_sign,2022.2.5,60.029702696898596,
"['R_Head_Z_Back', 'R_Arm_Y_For', 'L_Torso_Z_Back', 'R_Arm_X_Back']",False,R_Head_X_For,4,robot,4,False,False,"['robot_stimuli\\R_Head_Z_Back.mp4', 'robot_stimuli\\R_Arm_Y_For.mp4', 'robot_stimuli\\L_Torso_Z_Back.mp4', 'robot_stimuli\\R_Arm_X_Back.mp4']",robot_stimuli\R_Head_X_For.mp4,10,,,,,,,,,,,,,0,106,106,106,,,,,,,,,,,,,,,,,2592.3652037,2593.4542218,,,,,,,,,2597.0920475,2597.0920475,2597.0920475,2597.0920475,2597.0920475,2597.0920475,2597.0920475,2597.0920475,None,None,None,,,,,,,,,,,2576.7376906,2576.7376906,None,,,,,2593.4542218,2593.4542218,2593.4542218,n,2.9785632000002806,2576.7376906,2576.7376906,2588.7290684,2593.4542218,10,001,2024-07-03_14h19.00.223,robot_sternberg_sign,2022.2.5,60.029702696898596,
"['L_Base_Y_For', 'L_Head_X_For', 'R_Head_Z_Back', 'R_Arm_Y_Back']",False,L_Head_Z_Back,4,robot,4,False,False,"['robot_stimuli\\L_Base_Y_For.mp4', 'robot_stimuli\\L_Head_X_For.mp4', 'robot_stimuli\\R_Head_Z_Back.mp4', 'robot_stimuli\\R_Arm_Y_Back.mp4']",robot_stimuli\L_Head_Z_Back.mp4,10,,,,,,,,,,,,,0,107,107,107,,,,,,,,,,,,,,,,,2612.8099238,2613.8880868,,,,,,,,,2617.5368779,2617.5368779,2617.5368779,2617.5368779,2617.5368779,2617.5368779,2617.5368779,2617.5368779,None,None,None,,,,,,,,,,,2597.0920475,2597.0920475,None,,,,,2613.8880868,2613.8880868,2613.8880868,n,1.7128336999999192,2597.0920475,2597.0920475,2609.1706676,2613.8880868,10,001,2024-07-03_14h19.00.223,robot_sternberg_sign,2022.2.5,60.029702696898596,
"['L_Base_X_Back', 'L_Arm_Z_Back', 'R_Arm_Y_Back', 'L_Arm_Z_For']",False,R_Head_Z_For,4,robot,4,False,False,"['robot_stimuli\\L_Base_X_Back.mp4', 'robot_stimuli\\L_Arm_Z_Back.mp4', 'robot_stimuli\\R_Arm_Y_Back.mp4', 'robot_stimuli\\L_Arm_Z_For.mp4']",robot_stimuli\R_Head_Z_For.mp4,10,,,,,,,,,,,,,0,108,108,108,,,,,,,,,,,,,,,,,2633.3982444,2634.4868991,,,,,,,,,2638.1235649,2638.1235649,2638.1235649,2638.1235649,2638.1235649,2638.1235649,2638.1235649,2638.1235649,None,None,None,,,,,,,,,,,2617.5368779,2617.5368779,None,,,,,2634.4868991,2634.4868991,2634.4868991,n,3.0499949999998535,2617.5368779,2617.5368779,2629.7529116,2634.4868991,10,001,2024-07-03_14h19.00.223,robot_sternberg_sign,2022.2.5,60.029702696898596,
"['L_Torso_Z_Back', 'R_Torso_X_Back', 'R_Arm_X_For', 'L_Arm_Z_For']",True,L_Torso_Z_Back,4,robot,4,False,True,"['robot_stimuli\\L_Torso_Z_Back.mp4', 'robot_stimuli\\R_Torso_X_Back.mp4', 'robot_stimuli\\R_Arm_X_For.mp4', 'robot_stimuli\\L_Arm_Z_For.mp4']",robot_stimuli\L_Torso_Z_Back.mp4,10,,,,,,,,,,,,,0,109,109,109,,,,,,,,,,,,,,,,,2653.8656391,2654.9541019,,,,,,,,,2660.6337267999997,2665.7258322,2660.6337267999997,2665.7258322,2660.6337267999997,2665.7258322,2660.6337267999997,2665.7258322,69.50617283950616,3.4998858999997537,space,,,5.046323699999903,,,,,,,,2638.1235649,2638.1235649,None,,,,,2654.9541019,2654.9541019,2654.9541019,n,5.614698699999735,2638.1235649,2638.1235649,2650.2352402,2654.9541019,10,001,2024-07-03_14h19.00.223,robot_sternberg_sign,2022.2.5,60.029702696898596,
"['L_Torso_Z_Back', 'R_Base_Z_Back']",True,R_Base_Z_Back,2,robot,4,True,False,"['robot_stimuli\\L_Torso_Z_Back.mp4', 'robot_stimuli\\R_Base_Z_Back.mp4']",robot_stimuli\R_Base_Z_Back.mp4,10,,,,,,,,,,,,,0,110,110,110,,,,,,,,,,,,,,,,,2692.3655524,2693.4548552,,,,,,,,,2697.00288,2697.00288,2697.00288,2697.00288,2697.00288,2697.00288,2697.00288,2697.00288,None,None,None,,,,,,,,,,,2665.7258322,2665.7258322,space,18.427321399999983,,,,2693.4548552,2693.4548552,2693.4548552,c,3.0658997000000454,,,2688.8351953,2693.4548552,10,001,2024-07-03_14h19.00.223,robot_sternberg_sign,2022.2.5,60.029702696898596,
"['R_Torso_Y_Back', 'R_Torso_Z_Back']",False,L_Torso_X_Back,2,robot,4,False,False,"['robot_stimuli\\R_Torso_Y_Back.mp4', 'robot_stimuli\\R_Torso_Z_Back.mp4']",robot_stimuli\L_Torso_X_Back.mp4,10,,,,,,,,,,,,,0,111,111,111,,,,,,,,,,,,,,,,,2705.430455,2706.5219048999998,,,,,,,,,2710.173356,2710.173356,2710.173356,2710.173356,2710.173356,2710.173356,2710.173356,2710.173356,None,None,None,,,,,,,,,,,2697.00288,2697.00288,None,,,,,2706.5219048999998,2706.5219048999998,2706.5219048999998,n,1.3742644000003565,2697.00288,2697.00288,2701.8011797,2706.5219048999998,10,001,2024-07-03_14h19.00.223,robot_sternberg_sign,2022.2.5,60.029702696898596,
