sequence,is_target,condition,stimuli,block,is_block_beginning,is_block_ending,fname,subject,retraining.thisRepN,retraining.thisTrialN,retraining.thisN,retraining.thisIndex,training.thisRepN,training.thisTrialN,training.thisN,training.thisIndex,trials.thisRepN,trials.thisTrialN,trials.thisN,trials.thisIndex,langage_text.started,langage_key.started,langage_key.keys,langage_key.rt,intro_text.started,intro_key.started,intro_key.keys,intro_key.rt,training_robot_intro_text.started,training_robot_intro_key.started,training_robot_intro_key.keys,training_robot_intro_key.rt,cross.started,cross.stopped,training_letter.started,training_robot_key.started,training_robot_question.started,training_robot_keys.started,training_letter.stopped,training_robot_key.keys,RSME_labels.started,RSME_labels.stopped,RSME_ticks.started,RSME_ticks.stopped,RSME_text.started,RSME_text.stopped,RSME_key.started,RSME_key.stopped,RSME_ticks.response,RSME_ticks.rt,RSME_key.keys,training_robot_intro_text.stopped,training_robot_intro_key.stopped,training_robot_key.rt,RSME_key.rt,training_robot_movie.started,experiment_beginning_text.started,experiment_beginning_keys.started,experiment_beginning_key.started,experiment_beginning_key.keys,experiment_beginning_key.rt,block_intro_text.started,block_intro_key.started,block_intro_key.keys,block_intro_key.rt,letter.started,key.started,letter.stopped,key.keys,block_intro_text.stopped,block_intro_key.stopped,key.rt,movie.started,participant,session,date,expName,psychopyVersion,frameRate,
,,,,,,,,,,,,,,,,,,,,,19.12700819998281,19.12700819998281,f,7.541707500000484,,,,,,,,,,,,,,,,,,,,,,,,,,,,,,,,,,,,,,,,,,,,,,,,,,0,001,2024-05-23_14h00.42.045,robot_nback_sign,2022.2.5,None,
,,,,,,,,,,,,,,,,,,,,,,,,,26.696788100001868,26.696788100001868,space,97.0608249999932,,,,,,,,,,,,,,,,,,,,,,,,,,,,,,,,,,,,,,,,,,,,,,0,001,2024-05-23_14h00.42.045,robot_nback_sign,2022.2.5,None,
H,False,1,letter,1,True,False,robot_stimuli\\filler.mp4,0,0,0,0,0,0,0,0,0,,,,,,,,,,,,,123.7761768999917,123.7761768999917,space,2.3248260999971535,126.11216879999847,127.20857749998686,127.20857749998686,127.20857749998686,127.20857749998686,127.20857749998686,129.24801129999105,None,129.24801129999105,129.24801129999105,129.24801129999105,129.24801129999105,129.24801129999105,129.24801129999105,129.24801129999105,129.24801129999105,None,None,None,,,,,,,,,,,,,,,,,,,,,,,0,001,2024-05-23_14h00.42.045,robot_nback_sign,2022.2.5,None,
B,False,1,letter,1,False,False,robot_stimuli\\filler.mp4,0,0,0,0,0,0,1,1,1,,,,,,,,,,,,,129.24801129999105,129.24801129999105,None,,129.24801129999105,130.3120469999849,130.3120469999849,130.3120469999849,130.3120469999849,130.3120469999849,132.33734899997944,None,132.33734899997944,132.33734899997944,132.33734899997944,132.33734899997944,132.33734899997944,132.33734899997944,132.33734899997944,132.33734899997944,None,None,None,129.24801129999105,129.24801129999105,,,,,,,,,,,,,,,,,,,,,0,001,2024-05-23_14h00.42.045,robot_nback_sign,2022.2.5,None,
M,False,1,letter,1,False,False,robot_stimuli\\filler.mp4,0,0,0,0,0,0,2,2,2,,,,,,,,,,,,,132.33734899997944,132.33734899997944,None,,132.33734899997944,133.40478599999915,133.40478599999915,133.40478599999915,133.40478599999915,133.40478599999915,135.43376279997756,None,135.43376279997756,135.43376279997756,135.43376279997756,135.43376279997756,135.43376279997756,135.43376279997756,135.43376279997756,135.43376279997756,None,None,None,132.33734899997944,132.33734899997944,,,,,,,,,,,,,,,,,,,,,0,001,2024-05-23_14h00.42.045,robot_nback_sign,2022.2.5,None,
K,False,1,letter,1,False,False,robot_stimuli\\filler.mp4,0,0,0,0,0,0,3,3,3,,,,,,,,,,,,,135.43376279997756,135.43376279997756,None,,135.43376279997756,136.4957089999807,136.4957089999807,136.4957089999807,136.4957089999807,136.4957089999807,138.51918099998147,None,138.51918099998147,138.51918099998147,138.51918099998147,138.51918099998147,138.51918099998147,138.51918099998147,138.51918099998147,138.51918099998147,None,None,None,135.43376279997756,135.43376279997756,,,,,,,,,,,,,,,,,,,,,0,001,2024-05-23_14h00.42.045,robot_nback_sign,2022.2.5,None,
K,True,1,letter,1,False,False,robot_stimuli\\filler.mp4,0,0,0,0,0,0,4,4,4,,,,,,,,,,,,,138.51918099998147,138.51918099998147,None,,138.51918099998147,139.6034076999931,139.6034076999931,139.6034076999931,139.6034076999931,139.6034076999931,141.63002660000348,n,141.63002660000348,141.63002660000348,141.63002660000348,141.63002660000348,141.63002660000348,141.63002660000348,141.63002660000348,141.63002660000348,None,None,None,138.51918099998147,138.51918099998147,1.1861524999840185,,,,,,,,,,,,,,,,,,,,0,001,2024-05-23_14h00.42.045,robot_nback_sign,2022.2.5,None,
K,True,1,letter,1,False,False,robot_stimuli\\filler.mp4,0,0,0,0,0,0,5,5,5,,,,,,,,,,,,,141.63002660000348,141.63002660000348,None,,141.63002660000348,142.7102326999884,142.7102326999884,142.7102326999884,142.7102326999884,142.7102326999884,144.74252040000283,c,144.74252040000283,144.74252040000283,144.74252040000283,144.74252040000283,144.74252040000283,144.74252040000283,144.74252040000283,144.74252040000283,None,None,None,141.63002660000348,141.63002660000348,1.1430063000007067,,,,,,,,,,,,,,,,,,,,0,001,2024-05-23_14h00.42.045,robot_nback_sign,2022.2.5,None,
H,False,1,letter,1,False,False,robot_stimuli\\filler.mp4,0,0,0,0,0,0,6,6,6,,,,,,,,,,,,,144.74252040000283,144.74252040000283,None,,144.74252040000283,145.8023568999779,145.8023568999779,145.8023568999779,145.8023568999779,145.8023568999779,147.82877860000008,n,147.82877860000008,147.82877860000008,147.82877860000008,147.82877860000008,147.82877860000008,147.82877860000008,147.82877860000008,147.82877860000008,None,None,None,144.74252040000283,144.74252040000283,0.8357555999828037,,,,,,,,,,,,,,,,,,,,0,001,2024-05-23_14h00.42.045,robot_nback_sign,2022.2.5,None,
N,False,1,letter,1,False,False,robot_stimuli\\filler.mp4,0,0,0,0,0,0,7,7,7,,,,,,,,,,,,,147.82877860000008,147.82877860000008,None,,147.82877860000008,148.89784669998335,148.89784669998335,148.89784669998335,148.89784669998335,148.89784669998335,150.92766459999257,None,150.92766459999257,150.92766459999257,150.92766459999257,150.92766459999257,150.92766459999257,150.92766459999257,150.92766459999257,150.92766459999257,None,None,None,147.82877860000008,147.82877860000008,,,,,,,,,,,,,,,,,,,,,0,001,2024-05-23_14h00.42.045,robot_nback_sign,2022.2.5,None,
N,True,1,letter,1,False,True,robot_stimuli\\filler.mp4,0,0,0,0,0,0,8,8,8,,,,,,,,,,,,,150.92766459999257,150.92766459999257,None,,150.92766459999257,151.9982633999898,151.9982633999898,151.9982633999898,151.9982633999898,151.9982633999898,154.05264259999967,c,154.05264259999967,,154.05264259999967,,154.05264259999967,,154.05264259999967,,None,None,space,150.92766459999257,150.92766459999257,1.1183127000113018,32.91183799999999,,,,,,,,,,,,,,,,,,,0,001,2024-05-23_14h00.42.045,robot_nback_sign,2022.2.5,None,
K,False,2,letter,1,True,False,robot_stimuli\\filler.mp4,0,0,0,0,0,0,9,9,9,,,,,,,,,,,,,186.97784569999203,186.97784569999203,space,2.25075609999476,189.2522886999941,,190.3233939000056,190.3233939000056,190.3233939000056,190.3233939000056,192.34655389998807,None,192.34655389998807,192.34655389998807,192.34655389998807,192.34655389998807,192.34655389998807,192.34655389998807,192.34655389998807,192.34655389998807,None,None,None,,,,,,,,,,,,,,,,,,,,,,,0,001,2024-05-23_14h00.42.045,robot_nback_sign,2022.2.5,None,
C,False,2,letter,1,False,False,robot_stimuli\\filler.mp4,0,0,0,0,0,0,10,10,10,,,,,,,,,,,,,192.34655389998807,192.34655389998807,None,,192.34655389998807,193.4099339999957,193.4099339999957,193.4099339999957,193.4099339999957,193.4099339999957,195.44071609998355,None,195.44071609998355,195.44071609998355,195.44071609998355,195.44071609998355,195.44071609998355,195.44071609998355,195.44071609998355,195.44071609998355,None,None,None,192.34655389998807,192.34655389998807,,,,,,,,,,,,,,,,,,,,,0,001,2024-05-23_14h00.42.045,robot_nback_sign,2022.2.5,None,
K,True,2,letter,1,False,False,robot_stimuli\\filler.mp4,0,0,0,0,0,0,11,11,11,,,,,,,,,,,,,195.44071609998355,195.44071609998355,None,,195.44071609998355,196.51011760000256,196.51011760000256,196.51011760000256,196.51011760000256,196.51011760000256,198.54157129998202,None,198.54157129998202,198.54157129998202,198.54157129998202,198.54157129998202,198.54157129998202,198.54157129998202,198.54157129998202,198.54157129998202,None,None,None,195.44071609998355,195.44071609998355,,,,,,,,,,,,,,,,,,,,,0,001,2024-05-23_14h00.42.045,robot_nback_sign,2022.2.5,None,
F,False,2,letter,1,False,False,robot_stimuli\\filler.mp4,0,0,0,0,0,0,12,12,12,,,,,,,,,,,,,198.54157129998202,198.54157129998202,None,,198.54157129998202,199.60016239999095,199.60016239999095,199.60016239999095,199.60016239999095,199.60016239999095,201.62613160000183,None,201.62613160000183,201.62613160000183,201.62613160000183,201.62613160000183,201.62613160000183,201.62613160000183,201.62613160000183,201.62613160000183,None,None,None,198.54157129998202,198.54157129998202,,,,,,,,,,,,,,,,,,,,,0,001,2024-05-23_14h00.42.045,robot_nback_sign,2022.2.5,None,
B,False,2,letter,1,False,False,robot_stimuli\\filler.mp4,0,0,0,0,0,0,13,13,13,,,,,,,,,,,,,201.62613160000183,201.62613160000183,None,,201.62613160000183,202.69325599999866,202.69325599999866,202.69325599999866,202.69325599999866,202.69325599999866,204.72448740000254,n,204.72448740000254,204.72448740000254,204.72448740000254,204.72448740000254,204.72448740000254,204.72448740000254,204.72448740000254,204.72448740000254,None,None,None,201.62613160000183,201.62613160000183,1.2153540999861434,,,,,,,,,,,,,,,,,,,,0,001,2024-05-23_14h00.42.045,robot_nback_sign,2022.2.5,None,
F,True,2,letter,1,False,False,robot_stimuli\\filler.mp4,0,0,0,0,0,0,14,14,14,,,,,,,,,,,,,204.72448740000254,204.72448740000254,None,,204.72448740000254,205.78755169999204,205.78755169999204,205.78755169999204,205.78755169999204,205.78755169999204,207.81373910000548,c,207.81373910000548,207.81373910000548,207.81373910000548,207.81373910000548,207.81373910000548,207.81373910000548,207.81373910000548,207.81373910000548,None,None,None,204.72448740000254,204.72448740000254,1.6655925999803003,,,,,,,,,,,,,,,,,,,,0,001,2024-05-23_14h00.42.045,robot_nback_sign,2022.2.5,None,
D,False,2,letter,1,False,False,robot_stimuli\\filler.mp4,0,0,0,0,0,0,15,15,15,,,,,,,,,,,,,207.81373910000548,207.81373910000548,None,,207.81373910000548,208.88253079997958,208.88253079997958,208.88253079997958,208.88253079997958,208.88253079997958,210.90544189998764,None,210.90544189998764,210.90544189998764,210.90544189998764,210.90544189998764,210.90544189998764,210.90544189998764,210.90544189998764,210.90544189998764,None,None,None,207.81373910000548,207.81373910000548,,,,,,,,,,,,,,,,,,,,,0,001,2024-05-23_14h00.42.045,robot_nback_sign,2022.2.5,None,
G,False,2,letter,1,False,False,robot_stimuli\\filler.mp4,0,0,0,0,0,0,16,16,16,,,,,,,,,,,,,210.90544189998764,210.90544189998764,None,,210.90544189998764,211.96711040000082,211.96711040000082,211.96711040000082,211.96711040000082,211.96711040000082,214.00174219999462,n,214.00174219999462,214.00174219999462,214.00174219999462,214.00174219999462,214.00174219999462,214.00174219999462,214.00174219999462,214.00174219999462,None,None,None,210.90544189998764,210.90544189998764,1.9812985000025947,,,,,,,,,,,,,,,,,,,,0,001,2024-05-23_14h00.42.045,robot_nback_sign,2022.2.5,None,
D,True,2,letter,1,False,True,robot_stimuli\\filler.mp4,0,0,0,0,0,0,17,17,17,,,,,,,,,,,,,214.00174219999462,214.00174219999462,None,,214.00174219999462,215.06488629998057,215.06488629998057,215.06488629998057,215.06488629998057,215.06488629998057,217.1064699999988,None,217.1064699999988,,217.1064699999988,,217.1064699999988,,217.1064699999988,,39.104938271604944,14.90274690001388,space,214.00174219999462,214.00174219999462,,16.44222820000141,,,,,,,,,,,,,,,,,,,0,001,2024-05-23_14h00.42.045,robot_nback_sign,2022.2.5,None,
Q,False,3,letter,1,True,False,robot_stimuli\\filler.mp4,0,0,0,0,0,0,18,18,18,,,,,,,,,,,,,233.571361099981,233.571361099981,space,5.417265500000212,239.00303359999089,240.07219419998,240.07219419998,240.07219419998,240.07219419998,240.07219419998,242.10582339999382,None,242.10582339999382,242.10582339999382,242.10582339999382,242.10582339999382,242.10582339999382,242.10582339999382,242.10582339999382,242.10582339999382,None,None,None,,,,,,,,,,,,,,,,,,,,,,,0,001,2024-05-23_14h00.42.045,robot_nback_sign,2022.2.5,None,
B,False,3,letter,1,False,False,robot_stimuli\\filler.mp4,0,0,0,0,0,0,19,19,19,,,,,,,,,,,,,242.10582339999382,242.10582339999382,None,,242.10582339999382,243.17153540000436,243.17153540000436,243.17153540000436,243.17153540000436,243.17153540000436,245.2063111999887,None,245.2063111999887,245.2063111999887,245.2063111999887,245.2063111999887,245.2063111999887,245.2063111999887,245.2063111999887,245.2063111999887,None,None,None,242.10582339999382,242.10582339999382,,,,,,,,,,,,,,,,,,,,,0,001,2024-05-23_14h00.42.045,robot_nback_sign,2022.2.5,None,
K,False,3,letter,1,False,False,robot_stimuli\\filler.mp4,0,0,0,0,0,0,20,20,20,,,,,,,,,,,,,245.2063111999887,245.2063111999887,None,,245.2063111999887,246.2658567999897,246.2658567999897,246.2658567999897,246.2658567999897,246.2658567999897,248.29781349998666,None,248.29781349998666,248.29781349998666,248.29781349998666,248.29781349998666,248.29781349998666,248.29781349998666,248.29781349998666,248.29781349998666,None,None,None,245.2063111999887,245.2063111999887,,,,,,,,,,,,,,,,,,,,,0,001,2024-05-23_14h00.42.045,robot_nback_sign,2022.2.5,None,
K,False,3,letter,1,False,False,robot_stimuli\\filler.mp4,0,0,0,0,0,0,21,21,21,,,,,,,,,,,,,248.29781349998666,248.29781349998666,None,,248.29781349998666,249.36196379998,249.36196379998,249.36196379998,249.36196379998,249.36196379998,251.39403959998162,n,251.39403959998162,251.39403959998162,251.39403959998162,251.39403959998162,251.39403959998162,251.39403959998162,251.39403959998162,251.39403959998162,None,None,None,248.29781349998666,248.29781349998666,1.0272356000205036,,,,,,,,,,,,,,,,,,,,0,001,2024-05-23_14h00.42.045,robot_nback_sign,2022.2.5,None,
B,True,3,letter,1,False,False,robot_stimuli\\filler.mp4,0,0,0,0,0,0,22,22,22,,,,,,,,,,,,,251.39403959998162,251.39403959998162,None,,251.39403959998162,252.4537187999813,252.4537187999813,252.4537187999813,252.4537187999813,252.4537187999813,254.4801737999951,n,254.4801737999951,254.4801737999951,254.4801737999951,254.4801737999951,254.4801737999951,254.4801737999951,254.4801737999951,254.4801737999951,None,None,None,251.39403959998162,251.39403959998162,0.3513989000057336,,,,,,,,,,,,,,,,,,,,0,001,2024-05-23_14h00.42.045,robot_nback_sign,2022.2.5,None,
X,False,3,letter,1,False,False,robot_stimuli\\filler.mp4,0,0,0,0,0,0,23,23,23,,,,,,,,,,,,,254.4801737999951,254.4801737999951,None,,254.4801737999951,255.5523491000058,255.5523491000058,255.5523491000058,255.5523491000058,255.5523491000058,257.57723480000277,n,257.57723480000277,257.57723480000277,257.57723480000277,257.57723480000277,257.57723480000277,257.57723480000277,257.57723480000277,257.57723480000277,None,None,None,254.4801737999951,254.4801737999951,0.964201900002081,,,,,,,,,,,,,,,,,,,,0,001,2024-05-23_14h00.42.045,robot_nback_sign,2022.2.5,None,
K,True,3,letter,1,False,False,robot_stimuli\\filler.mp4,0,0,0,0,0,0,24,24,24,,,,,,,,,,,,,257.57723480000277,257.57723480000277,None,,257.57723480000277,258.64247530000284,258.64247530000284,258.64247530000284,258.64247530000284,258.64247530000284,260.66310429997975,c,260.66310429997975,260.66310429997975,260.66310429997975,260.66310429997975,260.66310429997975,260.66310429997975,260.66310429997975,260.66310429997975,None,None,None,257.57723480000277,257.57723480000277,1.6986122999805957,,,,,,,,,,,,,,,,,,,,0,001,2024-05-23_14h00.42.045,robot_nback_sign,2022.2.5,None,
L,False,3,letter,1,False,False,robot_stimuli\\filler.mp4,0,0,0,0,0,0,25,25,25,,,,,,,,,,,,,260.66310429997975,260.66310429997975,None,,260.66310429997975,261.721003499988,261.721003499988,261.721003499988,261.721003499988,261.721003499988,263.74253899999894,n,263.74253899999894,263.74253899999894,263.74253899999894,263.74253899999894,263.74253899999894,263.74253899999894,263.74253899999894,263.74253899999894,None,None,None,260.66310429997975,260.66310429997975,1.3005684999807272,,,,,,,,,,,,,,,,,,,,0,001,2024-05-23_14h00.42.045,robot_nback_sign,2022.2.5,None,
X,True,3,letter,1,False,True,robot_stimuli\\filler.mp4,0,0,0,0,0,0,26,26,26,,,,,,,,,,,,,263.74253899999894,263.74253899999894,None,,263.74253899999894,264.81057339999825,264.81057339999825,264.81057339999825,264.81057339999825,264.81057339999825,266.8421565000026,c,266.8421565000026,,266.8421565000026,,266.8421565000026,,266.8421565000026,,25.061728395061728,3.6874889999744482,space,263.74253899999894,263.74253899999894,0.9863211999763735,4.8263674000045285,,,,,,,,,,,,,,,,,,,0,001,2024-05-23_14h00.42.045,robot_nback_sign,2022.2.5,None,
R_Arm_X_Back,False,1,robot,2,True,False,robot_stimuli\R_Arm_X_Back.mp4,0,0,0,0,0,0,27,27,27,,,,,,,,,,,,,271.69471189999604,271.69471189999604,space,2.4394508999830578,274.14877909998177,275.24337129999185,,275.24337129999185,275.24337129999185,275.24337129999185,,None,278.88318209999125,278.88318209999125,278.88318209999125,278.88318209999125,278.88318209999125,278.88318209999125,278.88318209999125,278.88318209999125,None,None,None,,,,,275.24337129999185,,,,,,,,,,,,,,,,,,0,001,2024-05-23_14h00.42.045,robot_nback_sign,2022.2.5,None,
L_Arm_X_For,False,1,robot,2,False,False,robot_stimuli\L_Arm_X_For.mp4,0,0,0,0,0,0,28,28,28,,,,,,,,,,,,,278.88318209999125,278.88318209999125,None,,278.88318209999125,279.9689155999804,,279.9689155999804,279.9689155999804,279.9689155999804,,None,283.6184997999808,283.6184997999808,283.6184997999808,283.6184997999808,283.6184997999808,283.6184997999808,283.6184997999808,283.6184997999808,None,None,None,278.88318209999125,278.88318209999125,,,279.9689155999804,,,,,,,,,,,,,,,,,,0,001,2024-05-23_14h00.42.045,robot_nback_sign,2022.2.5,None,
R_Torso_X_Back,False,1,robot,2,False,False,robot_stimuli\R_Torso_X_Back.mp4,0,0,0,0,0,0,29,29,29,,,,,,,,,,,,,283.6184997999808,283.6184997999808,None,,283.6184997999808,284.7154565999808,,284.7154565999808,284.7154565999808,284.7154565999808,,None,288.34575290000066,288.34575290000066,288.34575290000066,288.34575290000066,288.34575290000066,288.34575290000066,288.34575290000066,288.34575290000066,None,None,None,283.6184997999808,283.6184997999808,,,284.7154565999808,,,,,,,,,,,,,,,,,,0,001,2024-05-23_14h00.42.045,robot_nback_sign,2022.2.5,None,
R_Torso_X_Back,True,1,robot,2,False,False,robot_stimuli\R_Torso_X_Back.mp4,0,0,0,0,0,0,30,30,30,,,,,,,,,,,,,288.34575290000066,288.34575290000066,None,,288.34575290000066,289.43050439999206,,289.43050439999206,289.43050439999206,289.43050439999206,,None,293.0688713999989,293.0688713999989,293.0688713999989,293.0688713999989,293.0688713999989,293.0688713999989,293.0688713999989,293.0688713999989,None,None,None,288.34575290000066,288.34575290000066,,,289.43050439999206,,,,,,,,,,,,,,,,,,0,001,2024-05-23_14h00.42.045,robot_nback_sign,2022.2.5,None,
R_Torso_X_Back,True,1,robot,2,False,False,robot_stimuli\R_Torso_X_Back.mp4,0,0,0,0,0,0,31,31,31,,,,,,,,,,,,,293.0688713999989,293.0688713999989,None,,293.0688713999989,294.15158249999513,,294.15158249999513,294.15158249999513,294.15158249999513,,None,297.7834051999962,297.7834051999962,297.7834051999962,297.7834051999962,297.7834051999962,297.7834051999962,297.7834051999962,297.7834051999962,None,None,None,293.0688713999989,293.0688713999989,,,294.15158249999513,,,,,,,,,,,,,,,,,,0,001,2024-05-23_14h00.42.045,robot_nback_sign,2022.2.5,None,
L_Head_X_For,False,1,robot,2,False,False,robot_stimuli\L_Head_X_For.mp4,0,0,0,0,0,0,32,32,32,,,,,,,,,,,,,297.7834051999962,297.7834051999962,None,,297.7834051999962,298.86204049998196,,298.86204049998196,298.86204049998196,298.86204049998196,,None,302.5309983000043,302.5309983000043,302.5309983000043,302.5309983000043,302.5309983000043,302.5309983000043,302.5309983000043,302.5309983000043,None,None,None,297.7834051999962,297.7834051999962,,,298.86204049998196,,,,,,,,,,,,,,,,,,0,001,2024-05-23_14h00.42.045,robot_nback_sign,2022.2.5,None,
R_Arm_Z_Back,False,1,robot,2,False,False,robot_stimuli\R_Arm_Z_Back.mp4,0,0,0,0,0,0,33,33,33,,,,,,,,,,,,,302.5309983000043,302.5309983000043,None,,302.5309983000043,303.6262633999868,,303.6262633999868,303.6262633999868,303.6262633999868,,None,307.26285229998757,307.26285229998757,307.26285229998757,307.26285229998757,307.26285229998757,307.26285229998757,307.26285229998757,307.26285229998757,None,None,None,302.5309983000043,302.5309983000043,,,303.6262633999868,,,,,,,,,,,,,,,,,,0,001,2024-05-23_14h00.42.045,robot_nback_sign,2022.2.5,None,
L_Head_X_For,False,1,robot,2,False,False,robot_stimuli\L_Head_X_For.mp4,0,0,0,0,0,0,34,34,34,,,,,,,,,,,,,307.26285229998757,307.26285229998757,None,,307.26285229998757,308.3475814999838,,308.3475814999838,308.3475814999838,308.3475814999838,,None,312.0155703999917,312.0155703999917,312.0155703999917,312.0155703999917,312.0155703999917,312.0155703999917,312.0155703999917,312.0155703999917,None,None,None,307.26285229998757,307.26285229998757,,,308.3475814999838,,,,,,,,,,,,,,,,,,0,001,2024-05-23_14h00.42.045,robot_nback_sign,2022.2.5,None,
L_Head_X_For,True,1,robot,2,False,True,robot_stimuli\L_Head_X_For.mp4,0,0,0,0,0,0,35,35,35,,,,,,,,,,,,,312.0155703999917,312.0155703999917,None,,312.0155703999917,313.10822589998133,,313.10822589998133,313.10822589998133,313.10822589998133,,None,316.79336399998283,,316.79336399998283,,316.79336399998283,,316.79336399998283,,26.141975308641975,4.389062900008867,space,312.0155703999917,312.0155703999917,,5.658973799989326,313.10822589998133,,,,,,,,,,,,,,,,,,0,001,2024-05-23_14h00.42.045,robot_nback_sign,2022.2.5,None,
L_Head_Z_For,False,2,robot,2,True,False,robot_stimuli\L_Head_Z_For.mp4,0,0,0,0,0,0,36,36,36,,,,,,,,,,,,,322.4833835999889,322.4833835999889,space,1.353023799980292,323.84988819999853,324.9430741999822,,324.9430741999822,324.9430741999822,324.9430741999822,,None,328.5873188999831,328.5873188999831,328.5873188999831,328.5873188999831,328.5873188999831,328.5873188999831,328.5873188999831,328.5873188999831,None,None,None,,,,,324.9430741999822,,,,,,,,,,,,,,,,,,0,001,2024-05-23_14h00.42.045,robot_nback_sign,2022.2.5,None,
R_Head_Y_Back,False,2,robot,2,False,False,robot_stimuli\R_Head_Y_Back.mp4,0,0,0,0,0,0,37,37,37,,,,,,,,,,,,,328.5873188999831,328.5873188999831,None,,328.5873188999831,329.67267430000356,,329.67267430000356,329.67267430000356,329.67267430000356,,n,333.3006439000019,333.3006439000019,333.3006439000019,333.3006439000019,333.3006439000019,333.3006439000019,333.3006439000019,333.3006439000019,None,None,None,328.5873188999831,328.5873188999831,2.139970699994592,,329.67267430000356,,,,,,,,,,,,,,,,,,0,001,2024-05-23_14h00.42.045,robot_nback_sign,2022.2.5,None,
L_Base_Y_Back,False,2,robot,2,False,False,robot_stimuli\L_Base_Y_Back.mp4,0,0,0,0,0,0,38,38,38,,,,,,,,,,,,,333.3006439000019,333.3006439000019,None,,333.3006439000019,334.3820782999974,,334.3820782999974,334.3820782999974,334.3820782999974,,None,338.04139379999833,338.04139379999833,338.04139379999833,338.04139379999833,338.04139379999833,338.04139379999833,338.04139379999833,338.04139379999833,None,None,None,333.3006439000019,333.3006439000019,,,334.3820782999974,,,,,,,,,,,,,,,,,,0,001,2024-05-23_14h00.42.045,robot_nback_sign,2022.2.5,None,
R_Head_Y_For,False,2,robot,2,False,False,robot_stimuli\R_Head_Y_For.mp4,0,0,0,0,0,0,39,39,39,,,,,,,,,,,,,338.04139379999833,338.04139379999833,None,,338.04139379999833,339.1168624999991,,339.1168624999991,339.1168624999991,339.1168624999991,,None,342.75674409998464,342.75674409998464,342.75674409998464,342.75674409998464,342.75674409998464,342.75674409998464,342.75674409998464,342.75674409998464,None,None,None,338.04139379999833,338.04139379999833,,,339.1168624999991,,,,,,,,,,,,,,,,,,0,001,2024-05-23_14h00.42.045,robot_nback_sign,2022.2.5,None,
L_Base_Y_Back,True,2,robot,2,False,False,robot_stimuli\L_Base_Y_Back.mp4,0,0,0,0,0,0,40,40,40,,,,,,,,,,,,,342.75674409998464,342.75674409998464,None,,342.75674409998464,343.82975979999173,,343.82975979999173,343.82975979999173,343.82975979999173,,None,347.4896999000048,347.4896999000048,347.4896999000048,347.4896999000048,347.4896999000048,347.4896999000048,347.4896999000048,347.4896999000048,None,None,None,342.75674409998464,342.75674409998464,,,343.82975979999173,,,,,,,,,,,,,,,,,,0,001,2024-05-23_14h00.42.045,robot_nback_sign,2022.2.5,None,
R_Head_Y_For,True,2,robot,2,False,False,robot_stimuli\R_Head_Y_For.mp4,0,0,0,0,0,0,41,41,41,,,,,,,,,,,,,347.4896999000048,347.4896999000048,None,,347.4896999000048,348.5730523999955,,348.5730523999955,348.5730523999955,348.5730523999955,,None,352.19953270000406,352.19953270000406,352.19953270000406,352.19953270000406,352.19953270000406,352.19953270000406,352.19953270000406,352.19953270000406,None,None,None,347.4896999000048,347.4896999000048,,,348.5730523999955,,,,,,,,,,,,,,,,,,0,001,2024-05-23_14h00.42.045,robot_nback_sign,2022.2.5,None,
R_Torso_Z_For,False,2,robot,2,False,False,robot_stimuli\R_Torso_Z_For.mp4,0,0,0,0,0,0,42,42,42,,,,,,,,,,,,,352.19953270000406,352.19953270000406,None,,352.19953270000406,353.2775338999927,,353.2775338999927,353.2775338999927,353.2775338999927,,None,356.8965018999879,356.8965018999879,356.8965018999879,356.8965018999879,356.8965018999879,356.8965018999879,356.8965018999879,356.8965018999879,None,None,None,352.19953270000406,352.19953270000406,,,353.2775338999927,,,,,,,,,,,,,,,,,,0,001,2024-05-23_14h00.42.045,robot_nback_sign,2022.2.5,None,
L_Head_Y_Back,False,2,robot,2,False,False,robot_stimuli\L_Head_Y_Back.mp4,0,0,0,0,0,0,43,43,43,,,,,,,,,,,,,356.8965018999879,356.8965018999879,None,,356.8965018999879,357.97955399999046,,357.97955399999046,357.97955399999046,357.97955399999046,,None,361.6134607999993,361.6134607999993,361.6134607999993,361.6134607999993,361.6134607999993,361.6134607999993,361.6134607999993,361.6134607999993,None,None,None,356.8965018999879,356.8965018999879,,,357.97955399999046,,,,,,,,,,,,,,,,,,0,001,2024-05-23_14h00.42.045,robot_nback_sign,2022.2.5,None,
R_Torso_Z_For,True,2,robot,2,False,True,robot_stimuli\R_Torso_Z_For.mp4,0,0,0,0,0,0,44,44,44,,,,,,,,,,,,,361.6134607999993,361.6134607999993,None,,361.6134607999993,362.693074299983,,362.693074299983,362.693074299983,362.693074299983,,None,366.3384476999927,,366.3384476999927,,366.3384476999927,,366.3384476999927,,24.907407407407405,9.853772900009062,space,361.6134607999993,361.6134607999993,,35.802584399993066,362.693074299983,,,,,,,,,,,,,,,,,,0,001,2024-05-23_14h00.42.045,robot_nback_sign,2022.2.5,None,
R_Torso_Y_Back,False,3,robot,2,True,False,robot_stimuli\R_Torso_Y_Back.mp4,0,0,0,0,0,0,45,45,45,,,,,,,,,,,,,402.16159619999235,402.16159619999235,space,4.954678800015245,407.1260946999828,408.20898500000476,,408.20898500000476,408.20898500000476,408.20898500000476,,None,411.8352986999962,411.8352986999962,411.8352986999962,411.8352986999962,411.8352986999962,411.8352986999962,411.8352986999962,411.8352986999962,None,None,None,,,,,408.20898500000476,,,,,,,,,,,,,,,,,,0,001,2024-05-23_14h00.42.045,robot_nback_sign,2022.2.5,None,
R_Arm_Y_For,False,3,robot,2,False,False,robot_stimuli\R_Arm_Y_For.mp4,0,0,0,0,0,0,46,46,46,,,,,,,,,,,,,411.8352986999962,411.8352986999962,None,,411.8352986999962,412.9097251999774,,412.9097251999774,412.9097251999774,412.9097251999774,,None,416.50480389999575,416.50480389999575,416.50480389999575,416.50480389999575,416.50480389999575,416.50480389999575,416.50480389999575,416.50480389999575,None,None,None,411.8352986999962,411.8352986999962,,,412.9097251999774,,,,,,,,,,,,,,,,,,0,001,2024-05-23_14h00.42.045,robot_nback_sign,2022.2.5,None,
R_Arm_X_For,False,3,robot,2,False,False,robot_stimuli\R_Arm_X_For.mp4,0,0,0,0,0,0,47,47,47,,,,,,,,,,,,,416.50480389999575,416.50480389999575,None,,416.50480389999575,417.5874957999913,,417.5874957999913,417.5874957999913,417.5874957999913,,None,421.21143179998035,421.21143179998035,421.21143179998035,421.21143179998035,421.21143179998035,421.21143179998035,421.21143179998035,421.21143179998035,None,None,None,416.50480389999575,416.50480389999575,,,417.5874957999913,,,,,,,,,,,,,,,,,,0,001,2024-05-23_14h00.42.045,robot_nback_sign,2022.2.5,None,
R_Torso_Y_Back,True,3,robot,2,False,False,robot_stimuli\R_Torso_Y_Back.mp4,0,0,0,0,0,0,48,48,48,,,,,,,,,,,,,421.21143179998035,421.21143179998035,None,,421.21143179998035,422.3106221999915,,422.3106221999915,422.3106221999915,422.3106221999915,,c,425.9375103999919,425.9375103999919,425.9375103999919,425.9375103999919,425.9375103999919,425.9375103999919,425.9375103999919,425.9375103999919,None,None,None,421.21143179998035,421.21143179998035,3.3339175000146497,,422.3106221999915,,,,,,,,,,,,,,,,,,0,001,2024-05-23_14h00.42.045,robot_nback_sign,2022.2.5,None,
L_Head_Z_Back,False,3,robot,2,False,False,robot_stimuli\L_Head_Z_Back.mp4,0,0,0,0,0,0,49,49,49,,,,,,,,,,,,,425.9375103999919,425.9375103999919,None,,425.9375103999919,427.0163866999792,,427.0163866999792,427.0163866999792,427.0163866999792,,n,430.6465464999783,430.6465464999783,430.6465464999783,430.6465464999783,430.6465464999783,430.6465464999783,430.6465464999783,430.6465464999783,None,None,None,425.9375103999919,425.9375103999919,2.6125646000145935,,427.0163866999792,,,,,,,,,,,,,,,,,,0,001,2024-05-23_14h00.42.045,robot_nback_sign,2022.2.5,None,
R_Head_X_Back,False,3,robot,2,False,False,robot_stimuli\R_Head_X_Back.mp4,0,0,0,0,0,0,50,50,50,,,,,,,,,,,,,430.6465464999783,430.6465464999783,None,,430.6465464999783,431.73524650000036,,431.73524650000036,431.73524650000036,431.73524650000036,,n,435.364825800003,435.364825800003,435.364825800003,435.364825800003,435.364825800003,435.364825800003,435.364825800003,435.364825800003,None,None,None,430.6465464999783,430.6465464999783,1.901777100021718,,431.73524650000036,,,,,,,,,,,,,,,,,,0,001,2024-05-23_14h00.42.045,robot_nback_sign,2022.2.5,None,
R_Head_Z_For,False,3,robot,2,False,False,robot_stimuli\R_Head_Z_For.mp4,0,0,0,0,0,0,51,51,51,,,,,,,,,,,,,435.364825800003,435.364825800003,None,,435.364825800003,436.45748719997937,,436.45748719997937,436.45748719997937,436.45748719997937,,n,440.1035251999856,440.1035251999856,440.1035251999856,440.1035251999856,440.1035251999856,440.1035251999856,440.1035251999856,440.1035251999856,None,None,None,435.364825800003,435.364825800003,3.210873599979095,,436.45748719997937,,,,,,,,,,,,,,,,,,0,001,2024-05-23_14h00.42.045,robot_nback_sign,2022.2.5,None,
L_Head_Z_Back,True,3,robot,2,False,False,robot_stimuli\L_Head_Z_Back.mp4,0,0,0,0,0,0,52,52,52,,,,,,,,,,,,,440.1035251999856,440.1035251999856,None,,440.1035251999856,441.19014479999896,,441.19014479999896,441.19014479999896,441.19014479999896,,n,444.81985159998294,444.81985159998294,444.81985159998294,444.81985159998294,444.81985159998294,444.81985159998294,444.81985159998294,444.81985159998294,None,None,None,440.1035251999856,440.1035251999856,2.5830473999958485,,441.19014479999896,,,,,,,,,,,,,,,,,,0,001,2024-05-23_14h00.42.045,robot_nback_sign,2022.2.5,None,
R_Head_X_Back,True,3,robot,2,False,True,robot_stimuli\R_Head_X_Back.mp4,0,0,0,0,0,0,53,53,53,,,,,,,,,,,,,444.81985159998294,444.81985159998294,None,,444.81985159998294,445.89013719998184,,445.89013719998184,445.89013719998184,445.89013719998184,,n,449.5469249000016,,449.5469249000016,,449.5469249000016,,449.5469249000016,,37.25308641975308,2.866057700011879,space,444.81985159998294,444.81985159998294,2.66682949999813,5.633656599995447,445.89013719998184,,,,,,,,,,,,,,,,,,0,001,2024-05-23_14h00.42.045,robot_nback_sign,2022.2.5,None,
,,,,,,,,,0,0,0,0,,,,,,,,,,,,,,,,,,,,,,,,,,,,,,,,,,,,,,,,,,,,,455.1922010999988,455.1922010999988,455.1922010999988,c,3.140669499989599,,,,,,,,,,,,,0,001,2024-05-23_14h00.42.045,robot_nback_sign,2022.2.5,None,
S,False,2,letter,1,True,False,robot_stimuli\\filler.mp4,0,,,,,,,,,0,0,0,0,,,,,,,,,,,,,465.4533438999788,466.50862369997776,,,,,,,468.5385292999854,468.5385292999854,468.5385292999854,468.5385292999854,468.5385292999854,468.5385292999854,468.5385292999854,468.5385292999854,None,None,None,,,,,,,,,,,458.3769629999879,458.3769629999879,space,7.059978500008583,466.50862369997776,466.50862369997776,468.5385292999854,None,,,,,0,001,2024-05-23_14h00.42.045,robot_nback_sign,2022.2.5,None,
P,False,2,letter,1,False,False,robot_stimuli\\filler.mp4,0,,,,,,,,,0,1,1,1,,,,,,,,,,,,,468.5385292999854,469.5927101999987,,,,,,,471.61839560000226,471.61839560000226,471.61839560000226,471.61839560000226,471.61839560000226,471.61839560000226,471.61839560000226,471.61839560000226,None,None,None,,,,,,,,,,,468.5385292999854,468.5385292999854,None,,469.5927101999987,469.5927101999987,471.61839560000226,None,468.5385292999854,468.5385292999854,,,0,001,2024-05-23_14h00.42.045,robot_nback_sign,2022.2.5,None,
P,False,2,letter,1,False,False,robot_stimuli\\filler.mp4,0,,,,,,,,,0,2,2,2,,,,,,,,,,,,,471.61839560000226,472.6651445000025,,,,,,,474.68997589999344,474.68997589999344,474.68997589999344,474.68997589999344,474.68997589999344,474.68997589999344,474.68997589999344,474.68997589999344,None,None,None,,,,,,,,,,,471.61839560000226,471.61839560000226,None,,472.6651445000025,472.6651445000025,474.68997589999344,n,471.61839560000226,471.61839560000226,1.723865999985719,,0,001,2024-05-23_14h00.42.045,robot_nback_sign,2022.2.5,None,
P,True,2,letter,1,False,False,robot_stimuli\\filler.mp4,0,,,,,,,,,0,3,3,3,,,,,,,,,,,,,474.68997589999344,475.7491427999921,,,,,,,477.77789989998564,477.77789989998564,477.77789989998564,477.77789989998564,477.77789989998564,477.77789989998564,477.77789989998564,477.77789989998564,None,None,None,,,,,,,,,,,474.68997589999344,474.68997589999344,None,,475.7491427999921,475.7491427999921,477.77789989998564,c,474.68997589999344,474.68997589999344,1.01592229999369,,0,001,2024-05-23_14h00.42.045,robot_nback_sign,2022.2.5,None,
R,False,2,letter,1,False,False,robot_stimuli\\filler.mp4,0,,,,,,,,,0,4,4,4,,,,,,,,,,,,,477.77789989998564,478.8266302999982,,,,,,,480.8604771999817,480.8604771999817,480.8604771999817,480.8604771999817,480.8604771999817,480.8604771999817,480.8604771999817,480.8604771999817,None,None,None,,,,,,,,,,,477.77789989998564,477.77789989998564,None,,478.8266302999982,478.8266302999982,480.8604771999817,None,477.77789989998564,477.77789989998564,,,0,001,2024-05-23_14h00.42.045,robot_nback_sign,2022.2.5,None,
D,False,2,letter,1,False,False,robot_stimuli\\filler.mp4,0,,,,,,,,,0,5,5,5,,,,,,,,,,,,,480.8604771999817,481.92881109999144,,,,,,,483.9582531999913,483.9582531999913,483.9582531999913,483.9582531999913,483.9582531999913,483.9582531999913,483.9582531999913,483.9582531999913,None,None,None,,,,,,,,,,,480.8604771999817,480.8604771999817,None,,481.92881109999144,481.92881109999144,483.9582531999913,n,480.8604771999817,480.8604771999817,1.4274448000069242,,0,001,2024-05-23_14h00.42.045,robot_nback_sign,2022.2.5,None,
Q,False,2,letter,1,False,False,robot_stimuli\\filler.mp4,0,,,,,,,,,0,6,6,6,,,,,,,,,,,,,483.9582531999913,485.00866540000425,,,,,,,487.02767789998325,487.02767789998325,487.02767789998325,487.02767789998325,487.02767789998325,487.02767789998325,487.02767789998325,487.02767789998325,None,None,None,,,,,,,,,,,483.9582531999913,483.9582531999913,None,,485.00866540000425,485.00866540000425,487.02767789998325,n,483.9582531999913,483.9582531999913,1.1804544999904465,,0,001,2024-05-23_14h00.42.045,robot_nback_sign,2022.2.5,None,
G,False,2,letter,1,False,False,robot_stimuli\\filler.mp4,0,,,,,,,,,0,7,7,7,,,,,,,,,,,,,487.02767789998325,488.07456330000423,,,,,,,490.1008750000037,490.1008750000037,490.1008750000037,490.1008750000037,490.1008750000037,490.1008750000037,490.1008750000037,490.1008750000037,None,None,None,,,,,,,,,,,487.02767789998325,487.02767789998325,None,,488.07456330000423,488.07456330000423,490.1008750000037,n,487.02767789998325,487.02767789998325,0.3216905999870505,,0,001,2024-05-23_14h00.42.045,robot_nback_sign,2022.2.5,None,
G,False,2,letter,1,False,False,robot_stimuli\\filler.mp4,0,,,,,,,,,0,8,8,8,,,,,,,,,,,,,490.1008750000037,491.1509947000013,,,,,,,493.1803278999869,493.1803278999869,493.1803278999869,493.1803278999869,493.1803278999869,493.1803278999869,493.1803278999869,493.1803278999869,None,None,None,,,,,,,,,,,490.1008750000037,490.1008750000037,None,,491.1509947000013,491.1509947000013,493.1803278999869,None,490.1008750000037,490.1008750000037,,,0,001,2024-05-23_14h00.42.045,robot_nback_sign,2022.2.5,None,
D,False,2,letter,1,False,False,robot_stimuli\\filler.mp4,0,,,,,,,,,0,9,9,9,,,,,,,,,,,,,493.1803278999869,494.26497129999916,,,,,,,496.29495979999774,496.29495979999774,496.29495979999774,496.29495979999774,496.29495979999774,496.29495979999774,496.29495979999774,496.29495979999774,None,None,None,,,,,,,,,,,493.1803278999869,493.1803278999869,None,,494.26497129999916,494.26497129999916,496.29495979999774,n,493.1803278999869,493.1803278999869,0.8201981000020169,,0,001,2024-05-23_14h00.42.045,robot_nback_sign,2022.2.5,None,
C,False,2,letter,1,False,False,robot_stimuli\\filler.mp4,0,,,,,,,,,0,10,10,10,,,,,,,,,,,,,496.29495979999774,497.3505290999892,,,,,,,499.3688632999838,499.3688632999838,499.3688632999838,499.3688632999838,499.3688632999838,499.3688632999838,499.3688632999838,499.3688632999838,None,None,None,,,,,,,,,,,496.29495979999774,496.29495979999774,None,,497.3505290999892,497.3505290999892,499.3688632999838,n,496.29495979999774,496.29495979999774,1.1823143000074197,,0,001,2024-05-23_14h00.42.045,robot_nback_sign,2022.2.5,None,
V,False,2,letter,1,False,False,robot_stimuli\\filler.mp4,0,,,,,,,,,0,11,11,11,,,,,,,,,,,,,499.3688632999838,500.42125630000373,,,,,,,502.4574322999979,502.4574322999979,502.4574322999979,502.4574322999979,502.4574322999979,502.4574322999979,502.4574322999979,502.4574322999979,None,None,None,,,,,,,,,,,499.3688632999838,499.3688632999838,None,,500.42125630000373,500.42125630000373,502.4574322999979,n,499.3688632999838,499.3688632999838,0.551100899989251,,0,001,2024-05-23_14h00.42.045,robot_nback_sign,2022.2.5,None,
L,False,2,letter,1,False,False,robot_stimuli\\filler.mp4,0,,,,,,,,,0,12,12,12,,,,,,,,,,,,,502.4574322999979,503.5118138999969,,,,,,,505.53360349999275,505.53360349999275,505.53360349999275,505.53360349999275,505.53360349999275,505.53360349999275,505.53360349999275,505.53360349999275,None,None,None,,,,,,,,,,,502.4574322999979,502.4574322999979,None,,503.5118138999969,503.5118138999969,505.53360349999275,n,502.4574322999979,502.4574322999979,0.7817391999997199,,0,001,2024-05-23_14h00.42.045,robot_nback_sign,2022.2.5,None,
L,False,2,letter,1,False,False,robot_stimuli\\filler.mp4,0,,,,,,,,,0,13,13,13,,,,,,,,,,,,,505.53360349999275,506.57786719998694,,,,,,,508.6038342999818,508.6038342999818,508.6038342999818,508.6038342999818,508.6038342999818,508.6038342999818,508.6038342999818,508.6038342999818,None,None,None,,,,,,,,,,,505.53360349999275,505.53360349999275,None,,506.57786719998694,506.57786719998694,508.6038342999818,n,505.53360349999275,505.53360349999275,1.2193265999958385,,0,001,2024-05-23_14h00.42.045,robot_nback_sign,2022.2.5,None,
V,False,2,letter,1,False,False,robot_stimuli\\filler.mp4,0,,,,,,,,,0,14,14,14,,,,,,,,,,,,,508.6038342999818,509.6559367000009,,,,,,,511.6755089999933,511.6755089999933,511.6755089999933,511.6755089999933,511.6755089999933,511.6755089999933,511.6755089999933,511.6755089999933,None,None,None,,,,,,,,,,,508.6038342999818,508.6038342999818,None,,509.6559367000009,509.6559367000009,511.6755089999933,n,508.6038342999818,508.6038342999818,0.8532562000036705,,0,001,2024-05-23_14h00.42.045,robot_nback_sign,2022.2.5,None,
X,False,2,letter,1,False,False,robot_stimuli\\filler.mp4,0,,,,,,,,,0,15,15,15,,,,,,,,,,,,,511.6755089999933,512.7243684999994,,,,,,,514.7498404999787,514.7498404999787,514.7498404999787,514.7498404999787,514.7498404999787,514.7498404999787,514.7498404999787,514.7498404999787,None,None,None,,,,,,,,,,,511.6755089999933,511.6755089999933,None,,512.7243684999994,512.7243684999994,514.7498404999787,None,511.6755089999933,511.6755089999933,,,0,001,2024-05-23_14h00.42.045,robot_nback_sign,2022.2.5,None,
W,False,2,letter,1,False,False,robot_stimuli\\filler.mp4,0,,,,,,,,,0,16,16,16,,,,,,,,,,,,,514.7498404999787,515.8190107999835,,,,,,,517.8398820000002,517.8398820000002,517.8398820000002,517.8398820000002,517.8398820000002,517.8398820000002,517.8398820000002,517.8398820000002,None,None,None,,,,,,,,,,,514.7498404999787,514.7498404999787,None,,515.8190107999835,515.8190107999835,517.8398820000002,n,514.7498404999787,514.7498404999787,0.9136045999766793,,0,001,2024-05-23_14h00.42.045,robot_nback_sign,2022.2.5,None,
X,True,2,letter,1,False,False,robot_stimuli\\filler.mp4,0,,,,,,,,,0,17,17,17,,,,,,,,,,,,,517.8398820000002,518.8869971999957,,,,,,,520.90920189998,520.90920189998,520.90920189998,520.90920189998,520.90920189998,520.90920189998,520.90920189998,520.90920189998,None,None,None,,,,,,,,,,,517.8398820000002,517.8398820000002,None,,518.8869971999957,518.8869971999957,520.90920189998,c,517.8398820000002,517.8398820000002,0.7094236999982968,,0,001,2024-05-23_14h00.42.045,robot_nback_sign,2022.2.5,None,
B,False,2,letter,1,False,False,robot_stimuli\\filler.mp4,0,,,,,,,,,0,18,18,18,,,,,,,,,,,,,520.90920189998,521.9583202999784,,,,,,,523.9770424999879,523.9770424999879,523.9770424999879,523.9770424999879,523.9770424999879,523.9770424999879,523.9770424999879,523.9770424999879,None,None,None,,,,,,,,,,,520.90920189998,520.90920189998,None,,521.9583202999784,521.9583202999784,523.9770424999879,n,520.90920189998,520.90920189998,0.8870550999999978,,0,001,2024-05-23_14h00.42.045,robot_nback_sign,2022.2.5,None,
X,True,2,letter,1,False,False,robot_stimuli\\filler.mp4,0,,,,,,,,,0,19,19,19,,,,,,,,,,,,,523.9770424999879,525.0370947000047,,,,,,,527.056124900002,527.056124900002,527.056124900002,527.056124900002,527.056124900002,527.056124900002,527.056124900002,527.056124900002,None,None,None,,,,,,,,,,,523.9770424999879,523.9770424999879,None,,525.0370947000047,525.0370947000047,527.056124900002,n,523.9770424999879,523.9770424999879,1.3672259000013582,,0,001,2024-05-23_14h00.42.045,robot_nback_sign,2022.2.5,None,
M,False,2,letter,1,False,False,robot_stimuli\\filler.mp4,0,,,,,,,,,0,20,20,20,,,,,,,,,,,,,527.056124900002,528.1088434999983,,,,,,,530.1339636000048,530.1339636000048,530.1339636000048,530.1339636000048,530.1339636000048,530.1339636000048,530.1339636000048,530.1339636000048,None,None,None,,,,,,,,,,,527.056124900002,527.056124900002,None,,528.1088434999983,528.1088434999983,530.1339636000048,n,527.056124900002,527.056124900002,1.207419199985452,,0,001,2024-05-23_14h00.42.045,robot_nback_sign,2022.2.5,None,
W,False,2,letter,1,False,False,robot_stimuli\\filler.mp4,0,,,,,,,,,0,21,21,21,,,,,,,,,,,,,530.1339636000048,531.1860323000001,,,,,,,533.2214558999985,533.2214558999985,533.2214558999985,533.2214558999985,533.2214558999985,533.2214558999985,533.2214558999985,533.2214558999985,None,None,None,,,,,,,,,,,530.1339636000048,530.1339636000048,None,,531.1860323000001,531.1860323000001,533.2214558999985,n,530.1339636000048,530.1339636000048,0.8676938000135124,,0,001,2024-05-23_14h00.42.045,robot_nback_sign,2022.2.5,None,
M,True,2,letter,1,False,False,robot_stimuli\\filler.mp4,0,,,,,,,,,0,22,22,22,,,,,,,,,,,,,533.2214558999985,534.2848790999851,,,,,,,536.3073233999894,536.3073233999894,536.3073233999894,536.3073233999894,536.3073233999894,536.3073233999894,536.3073233999894,536.3073233999894,None,None,None,,,,,,,,,,,533.2214558999985,533.2214558999985,None,,534.2848790999851,534.2848790999851,536.3073233999894,c,533.2214558999985,533.2214558999985,0.7365521999890916,,0,001,2024-05-23_14h00.42.045,robot_nback_sign,2022.2.5,None,
W,True,2,letter,1,False,False,robot_stimuli\\filler.mp4,0,,,,,,,,,0,23,23,23,,,,,,,,,,,,,536.3073233999894,537.3658343999996,,,,,,,539.3906198999903,539.3906198999903,539.3906198999903,539.3906198999903,539.3906198999903,539.3906198999903,539.3906198999903,539.3906198999903,None,None,None,,,,,,,,,,,536.3073233999894,536.3073233999894,None,,537.3658343999996,537.3658343999996,539.3906198999903,None,536.3073233999894,536.3073233999894,,,0,001,2024-05-23_14h00.42.045,robot_nback_sign,2022.2.5,None,
D,False,2,letter,1,False,False,robot_stimuli\\filler.mp4,0,,,,,,,,,0,24,24,24,,,,,,,,,,,,,539.3906198999903,540.448960299982,,,,,,,542.4664362999902,542.4664362999902,542.4664362999902,542.4664362999902,542.4664362999902,542.4664362999902,542.4664362999902,542.4664362999902,None,None,None,,,,,,,,,,,539.3906198999903,539.3906198999903,None,,540.448960299982,540.448960299982,542.4664362999902,n,539.3906198999903,539.3906198999903,0.5158142999862321,,0,001,2024-05-23_14h00.42.045,robot_nback_sign,2022.2.5,None,
F,False,2,letter,1,False,False,robot_stimuli\\filler.mp4,0,,,,,,,,,0,25,25,25,,,,,,,,,,,,,542.4664362999902,543.516879599978,,,,,,,545.5531125999987,545.5531125999987,545.5531125999987,545.5531125999987,545.5531125999987,545.5531125999987,545.5531125999987,545.5531125999987,None,None,None,,,,,,,,,,,542.4664362999902,542.4664362999902,None,,543.516879599978,543.516879599978,545.5531125999987,n,542.4664362999902,542.4664362999902,1.0956411000224762,,0,001,2024-05-23_14h00.42.045,robot_nback_sign,2022.2.5,None,
L,False,2,letter,1,False,False,robot_stimuli\\filler.mp4,0,,,,,,,,,0,26,26,26,,,,,,,,,,,,,545.5531125999987,546.6102304999949,,,,,,,548.6438740000012,548.6438740000012,548.6438740000012,548.6438740000012,548.6438740000012,548.6438740000012,548.6438740000012,548.6438740000012,None,None,None,,,,,,,,,,,545.5531125999987,545.5531125999987,None,,546.6102304999949,546.6102304999949,548.6438740000012,n,545.5531125999987,545.5531125999987,0.9629626999958418,,0,001,2024-05-23_14h00.42.045,robot_nback_sign,2022.2.5,None,
L,False,2,letter,1,False,False,robot_stimuli\\filler.mp4,0,,,,,,,,,0,27,27,27,,,,,,,,,,,,,548.6438740000012,549.7108324999863,,,,,,,551.7344187999843,551.7344187999843,551.7344187999843,551.7344187999843,551.7344187999843,551.7344187999843,551.7344187999843,551.7344187999843,None,None,None,,,,,,,,,,,548.6438740000012,548.6438740000012,None,,549.7108324999863,549.7108324999863,551.7344187999843,None,548.6438740000012,548.6438740000012,,,0,001,2024-05-23_14h00.42.045,robot_nback_sign,2022.2.5,None,
R,False,2,letter,1,False,False,robot_stimuli\\filler.mp4,0,,,,,,,,,0,28,28,28,,,,,,,,,,,,,551.7344187999843,552.7798402000044,,,,,,,554.8055859000015,554.8055859000015,554.8055859000015,554.8055859000015,554.8055859000015,554.8055859000015,554.8055859000015,554.8055859000015,None,None,None,,,,,,,,,,,551.7344187999843,551.7344187999843,None,,552.7798402000044,552.7798402000044,554.8055859000015,None,551.7344187999843,551.7344187999843,,,0,001,2024-05-23_14h00.42.045,robot_nback_sign,2022.2.5,None,
W,False,2,letter,1,False,False,robot_stimuli\\filler.mp4,0,,,,,,,,,0,29,29,29,,,,,,,,,,,,,554.8055859000015,555.8637253000052,,,,,,,557.88936619999,557.88936619999,557.88936619999,557.88936619999,557.88936619999,557.88936619999,557.88936619999,557.88936619999,None,None,None,,,,,,,,,,,554.8055859000015,554.8055859000015,None,,555.8637253000052,555.8637253000052,557.88936619999,n,554.8055859000015,554.8055859000015,0.5252552000165451,,0,001,2024-05-23_14h00.42.045,robot_nback_sign,2022.2.5,None,
C,False,2,letter,1,False,False,robot_stimuli\\filler.mp4,0,,,,,,,,,0,30,30,30,,,,,,,,,,,,,557.88936619999,558.9364108000009,,,,,,,560.9637037999928,560.9637037999928,560.9637037999928,560.9637037999928,560.9637037999928,560.9637037999928,560.9637037999928,560.9637037999928,None,None,None,,,,,,,,,,,557.88936619999,557.88936619999,None,,558.9364108000009,558.9364108000009,560.9637037999928,n,557.88936619999,557.88936619999,1.0845019999833312,,0,001,2024-05-23_14h00.42.045,robot_nback_sign,2022.2.5,None,
R,False,2,letter,1,False,False,robot_stimuli\\filler.mp4,0,,,,,,,,,0,31,31,31,,,,,,,,,,,,,560.9637037999928,562.0244871999894,,,,,,,564.0511326999986,564.0511326999986,564.0511326999986,564.0511326999986,564.0511326999986,564.0511326999986,564.0511326999986,564.0511326999986,None,None,None,,,,,,,,,,,560.9637037999928,560.9637037999928,None,,562.0244871999894,562.0244871999894,564.0511326999986,n,560.9637037999928,560.9637037999928,0.7156804999976885,,0,001,2024-05-23_14h00.42.045,robot_nback_sign,2022.2.5,None,
T,False,2,letter,1,False,False,robot_stimuli\\filler.mp4,0,,,,,,,,,0,32,32,32,,,,,,,,,,,,,564.0511326999986,565.1020886999904,,,,,,,567.1238911999972,567.1238911999972,567.1238911999972,567.1238911999972,567.1238911999972,567.1238911999972,567.1238911999972,567.1238911999972,None,None,None,,,,,,,,,,,564.0511326999986,564.0511326999986,None,,565.1020886999904,565.1020886999904,567.1238911999972,n,564.0511326999986,564.0511326999986,0.5343307000002824,,0,001,2024-05-23_14h00.42.045,robot_nback_sign,2022.2.5,None,
N,False,2,letter,1,False,False,robot_stimuli\\filler.mp4,0,,,,,,,,,0,33,33,33,,,,,,,,,,,,,567.1238911999972,568.1771141999925,,,,,,,570.2022149999975,570.2022149999975,570.2022149999975,570.2022149999975,570.2022149999975,570.2022149999975,570.2022149999975,570.2022149999975,None,None,None,,,,,,,,,,,567.1238911999972,567.1238911999972,None,,568.1771141999925,568.1771141999925,570.2022149999975,n,567.1238911999972,567.1238911999972,0.9398295999853872,,0,001,2024-05-23_14h00.42.045,robot_nback_sign,2022.2.5,None,
X,False,2,letter,1,False,False,robot_stimuli\\filler.mp4,0,,,,,,,,,0,34,34,34,,,,,,,,,,,,,570.2022149999975,571.2494441999879,,,,,,,573.2795425999793,573.2795425999793,573.2795425999793,573.2795425999793,573.2795425999793,573.2795425999793,573.2795425999793,573.2795425999793,None,None,None,,,,,,,,,,,570.2022149999975,570.2022149999975,None,,571.2494441999879,571.2494441999879,573.2795425999793,n,570.2022149999975,570.2022149999975,0.8036693999893032,,0,001,2024-05-23_14h00.42.045,robot_nback_sign,2022.2.5,None,
N,True,2,letter,1,False,False,robot_stimuli\\filler.mp4,0,,,,,,,,,0,35,35,35,,,,,,,,,,,,,573.2795425999793,574.3307446999825,,,,,,,576.3533719999832,576.3533719999832,576.3533719999832,576.3533719999832,576.3533719999832,576.3533719999832,576.3533719999832,576.3533719999832,None,None,None,,,,,,,,,,,573.2795425999793,573.2795425999793,None,,574.3307446999825,574.3307446999825,576.3533719999832,c,573.2795425999793,573.2795425999793,0.8979966999904718,,0,001,2024-05-23_14h00.42.045,robot_nback_sign,2022.2.5,None,
J,False,2,letter,1,False,False,robot_stimuli\\filler.mp4,0,,,,,,,,,0,36,36,36,,,,,,,,,,,,,576.3533719999832,577.4032248999865,,,,,,,579.4235207999882,579.4235207999882,579.4235207999882,579.4235207999882,579.4235207999882,579.4235207999882,579.4235207999882,579.4235207999882,None,None,None,,,,,,,,,,,576.3533719999832,576.3533719999832,None,,577.4032248999865,577.4032248999865,579.4235207999882,n,576.3533719999832,576.3533719999832,0.721021200006362,,0,001,2024-05-23_14h00.42.045,robot_nback_sign,2022.2.5,None,
K,False,2,letter,1,False,False,robot_stimuli\\filler.mp4,0,,,,,,,,,0,37,37,37,,,,,,,,,,,,,579.4235207999882,580.4849258000031,,,,,,,582.5108604999841,582.5108604999841,582.5108604999841,582.5108604999841,582.5108604999841,582.5108604999841,582.5108604999841,582.5108604999841,None,None,None,,,,,,,,,,,579.4235207999882,579.4235207999882,None,,580.4849258000031,580.4849258000031,582.5108604999841,n,579.4235207999882,579.4235207999882,0.4559154999733437,,0,001,2024-05-23_14h00.42.045,robot_nback_sign,2022.2.5,None,
V,False,2,letter,1,False,False,robot_stimuli\\filler.mp4,0,,,,,,,,,0,38,38,38,,,,,,,,,,,,,582.5108604999841,583.562517399987,,,,,,,585.5894816999789,585.5894816999789,585.5894816999789,585.5894816999789,585.5894816999789,585.5894816999789,585.5894816999789,585.5894816999789,None,None,None,,,,,,,,,,,582.5108604999841,582.5108604999841,None,,583.562517399987,583.562517399987,585.5894816999789,n,582.5108604999841,582.5108604999841,0.6265487999771722,,0,001,2024-05-23_14h00.42.045,robot_nback_sign,2022.2.5,None,
L,False,2,letter,1,False,False,robot_stimuli\\filler.mp4,0,,,,,,,,,0,39,39,39,,,,,,,,,,,,,585.5894816999789,586.6469234999968,,,,,,,588.675912799983,588.675912799983,588.675912799983,588.675912799983,588.675912799983,588.675912799983,588.675912799983,588.675912799983,None,None,None,,,,,,,,,,,585.5894816999789,585.5894816999789,None,,586.6469234999968,586.6469234999968,588.675912799983,n,585.5894816999789,585.5894816999789,0.8312270000169519,,0,001,2024-05-23_14h00.42.045,robot_nback_sign,2022.2.5,None,
Q,False,2,letter,1,False,False,robot_stimuli\\filler.mp4,0,,,,,,,,,0,40,40,40,,,,,,,,,,,,,588.675912799983,589.734231999988,,,,,,,591.7612758000032,591.7612758000032,591.7612758000032,591.7612758000032,591.7612758000032,591.7612758000032,591.7612758000032,591.7612758000032,None,None,None,,,,,,,,,,,588.675912799983,588.675912799983,None,,589.734231999988,589.734231999988,591.7612758000032,n,588.675912799983,588.675912799983,0.5262492999900132,,0,001,2024-05-23_14h00.42.045,robot_nback_sign,2022.2.5,None,
N,False,2,letter,1,False,False,robot_stimuli\\filler.mp4,0,,,,,,,,,0,41,41,41,,,,,,,,,,,,,591.7612758000032,592.8122007999918,,,,,,,594.8420808999799,594.8420808999799,594.8420808999799,594.8420808999799,594.8420808999799,594.8420808999799,594.8420808999799,594.8420808999799,None,None,None,,,,,,,,,,,591.7612758000032,591.7612758000032,None,,592.8122007999918,592.8122007999918,594.8420808999799,n,591.7612758000032,591.7612758000032,0.7691879000049084,,0,001,2024-05-23_14h00.42.045,robot_nback_sign,2022.2.5,None,
K,False,2,letter,1,False,False,robot_stimuli\\filler.mp4,0,,,,,,,,,0,42,42,42,,,,,,,,,,,,,594.8420808999799,595.8975650999928,,,,,,,597.9213488999812,597.9213488999812,597.9213488999812,597.9213488999812,597.9213488999812,597.9213488999812,597.9213488999812,597.9213488999812,None,None,None,,,,,,,,,,,594.8420808999799,594.8420808999799,None,,595.8975650999928,595.8975650999928,597.9213488999812,n,594.8420808999799,594.8420808999799,0.8276226999878418,,0,001,2024-05-23_14h00.42.045,robot_nback_sign,2022.2.5,None,
N,True,2,letter,1,False,False,robot_stimuli\\filler.mp4,0,,,,,,,,,0,43,43,43,,,,,,,,,,,,,597.9213488999812,598.9698123999988,,,,,,,601.0012140999897,601.0012140999897,601.0012140999897,601.0012140999897,601.0012140999897,601.0012140999897,601.0012140999897,601.0012140999897,None,None,None,,,,,,,,,,,597.9213488999812,597.9213488999812,None,,598.9698123999988,598.9698123999988,601.0012140999897,c,597.9213488999812,597.9213488999812,0.7871949999826029,,0,001,2024-05-23_14h00.42.045,robot_nback_sign,2022.2.5,None,
C,False,2,letter,1,False,False,robot_stimuli\\filler.mp4,0,,,,,,,,,0,44,44,44,,,,,,,,,,,,,601.0012140999897,602.0723662999808,,,,,,,604.0861291000037,604.0861291000037,604.0861291000037,604.0861291000037,604.0861291000037,604.0861291000037,604.0861291000037,604.0861291000037,None,None,None,,,,,,,,,,,601.0012140999897,601.0012140999897,None,,602.0723662999808,602.0723662999808,604.0861291000037,n,601.0012140999897,601.0012140999897,1.268122699984815,,0,001,2024-05-23_14h00.42.045,robot_nback_sign,2022.2.5,None,
C,False,2,letter,1,False,False,robot_stimuli\\filler.mp4,0,,,,,,,,,0,45,45,45,,,,,,,,,,,,,604.0861291000037,605.1306418000022,,,,,,,607.1580285999808,607.1580285999808,607.1580285999808,607.1580285999808,607.1580285999808,607.1580285999808,607.1580285999808,607.1580285999808,None,None,None,,,,,,,,,,,604.0861291000037,604.0861291000037,None,,605.1306418000022,605.1306418000022,607.1580285999808,n,604.0861291000037,604.0861291000037,1.0592153000179678,,0,001,2024-05-23_14h00.42.045,robot_nback_sign,2022.2.5,None,
C,True,2,letter,1,False,False,robot_stimuli\\filler.mp4,0,,,,,,,,,0,46,46,46,,,,,,,,,,,,,607.1580285999808,608.2097965999856,,,,,,,610.2404455999786,610.2404455999786,610.2404455999786,610.2404455999786,610.2404455999786,610.2404455999786,610.2404455999786,610.2404455999786,None,None,None,,,,,,,,,,,607.1580285999808,607.1580285999808,None,,608.2097965999856,608.2097965999856,610.2404455999786,c,607.1580285999808,607.1580285999808,1.2025051999953575,,0,001,2024-05-23_14h00.42.045,robot_nback_sign,2022.2.5,None,
F,False,2,letter,1,False,False,robot_stimuli\\filler.mp4,0,,,,,,,,,0,47,47,47,,,,,,,,,,,,,610.2404455999786,611.2936422999774,,,,,,,613.3243000999792,613.3243000999792,613.3243000999792,613.3243000999792,613.3243000999792,613.3243000999792,613.3243000999792,613.3243000999792,None,None,None,,,,,,,,,,,610.2404455999786,610.2404455999786,None,,611.2936422999774,611.2936422999774,613.3243000999792,None,610.2404455999786,610.2404455999786,,,0,001,2024-05-23_14h00.42.045,robot_nback_sign,2022.2.5,None,
C,True,2,letter,1,False,False,robot_stimuli\\filler.mp4,0,,,,,,,,,0,48,48,48,,,,,,,,,,,,,613.3243000999792,614.3732353999803,,,,,,,616.4043879999954,616.4043879999954,616.4043879999954,616.4043879999954,616.4043879999954,616.4043879999954,616.4043879999954,616.4043879999954,None,None,None,,,,,,,,,,,613.3243000999792,613.3243000999792,None,,614.3732353999803,614.3732353999803,616.4043879999954,c,613.3243000999792,613.3243000999792,1.0080699999816716,,0,001,2024-05-23_14h00.42.045,robot_nback_sign,2022.2.5,None,
F,True,2,letter,1,False,False,robot_stimuli\\filler.mp4,0,,,,,,,,,0,49,49,49,,,,,,,,,,,,,616.4043879999954,617.4549398999952,,,,,,,619.483654199983,619.483654199983,619.483654199983,619.483654199983,619.483654199983,619.483654199983,619.483654199983,619.483654199983,None,None,None,,,,,,,,,,,616.4043879999954,616.4043879999954,None,,617.4549398999952,617.4549398999952,619.483654199983,c,616.4043879999954,616.4043879999954,0.8300533999863546,,0,001,2024-05-23_14h00.42.045,robot_nback_sign,2022.2.5,None,
F,False,2,letter,1,False,False,robot_stimuli\\filler.mp4,0,,,,,,,,,0,50,50,50,,,,,,,,,,,,,619.483654199983,620.5348369999847,,,,,,,622.5535097999964,622.5535097999964,622.5535097999964,622.5535097999964,622.5535097999964,622.5535097999964,622.5535097999964,622.5535097999964,None,None,None,,,,,,,,,,,619.483654199983,619.483654199983,None,,620.5348369999847,620.5348369999847,622.5535097999964,n,619.483654199983,619.483654199983,1.861418299988145,,0,001,2024-05-23_14h00.42.045,robot_nback_sign,2022.2.5,None,
D,False,2,letter,1,False,False,robot_stimuli\\filler.mp4,0,,,,,,,,,0,51,51,51,,,,,,,,,,,,,622.5535097999964,623.6084376999934,,,,,,,625.6279784999788,625.6279784999788,625.6279784999788,625.6279784999788,625.6279784999788,625.6279784999788,625.6279784999788,625.6279784999788,None,None,None,,,,,,,,,,,622.5535097999964,622.5535097999964,None,,623.6084376999934,623.6084376999934,625.6279784999788,n,622.5535097999964,622.5535097999964,1.2678247999865562,,0,001,2024-05-23_14h00.42.045,robot_nback_sign,2022.2.5,None,
G,False,2,letter,1,False,False,robot_stimuli\\filler.mp4,0,,,,,,,,,0,52,52,52,,,,,,,,,,,,,625.6279784999788,626.6866830999788,,,,,,,628.7050673000049,628.7050673000049,628.7050673000049,628.7050673000049,628.7050673000049,628.7050673000049,628.7050673000049,628.7050673000049,None,None,None,,,,,,,,,,,625.6279784999788,625.6279784999788,None,,626.6866830999788,626.6866830999788,628.7050673000049,None,625.6279784999788,625.6279784999788,,,0,001,2024-05-23_14h00.42.045,robot_nback_sign,2022.2.5,None,
H,False,2,letter,1,False,False,robot_stimuli\\filler.mp4,0,,,,,,,,,0,53,53,53,,,,,,,,,,,,,628.7050673000049,629.7522560999787,,,,,,,631.7753110000049,631.7753110000049,631.7753110000049,631.7753110000049,631.7753110000049,631.7753110000049,631.7753110000049,631.7753110000049,None,None,None,,,,,,,,,,,628.7050673000049,628.7050673000049,None,,629.7522560999787,629.7522560999787,631.7753110000049,n,628.7050673000049,628.7050673000049,1.0374470000097062,,0,001,2024-05-23_14h00.42.045,robot_nback_sign,2022.2.5,None,
H,False,2,letter,1,False,False,robot_stimuli\\filler.mp4,0,,,,,,,,,0,54,54,54,,,,,,,,,,,,,631.7753110000049,632.8203485999838,,,,,,,634.8467630999803,634.8467630999803,634.8467630999803,634.8467630999803,634.8467630999803,634.8467630999803,634.8467630999803,634.8467630999803,None,None,None,,,,,,,,,,,631.7753110000049,631.7753110000049,None,,632.8203485999838,632.8203485999838,634.8467630999803,n,631.7753110000049,631.7753110000049,1.2011365999933332,,0,001,2024-05-23_14h00.42.045,robot_nback_sign,2022.2.5,None,
D,False,2,letter,1,False,False,robot_stimuli\\filler.mp4,0,,,,,,,,,0,55,55,55,,,,,,,,,,,,,634.8467630999803,635.8933760999935,,,,,,,637.9282933999784,637.9282933999784,637.9282933999784,637.9282933999784,637.9282933999784,637.9282933999784,637.9282933999784,637.9282933999784,None,None,None,,,,,,,,,,,634.8467630999803,634.8467630999803,None,,635.8933760999935,635.8933760999935,637.9282933999784,n,634.8467630999803,634.8467630999803,1.463227400003234,,0,001,2024-05-23_14h00.42.045,robot_nback_sign,2022.2.5,None,
C,False,2,letter,1,False,False,robot_stimuli\\filler.mp4,0,,,,,,,,,0,56,56,56,,,,,,,,,,,,,637.9282933999784,638.9928985000006,,,,,,,641.0241553999949,641.0241553999949,641.0241553999949,641.0241553999949,641.0241553999949,641.0241553999949,641.0241553999949,641.0241553999949,None,None,None,,,,,,,,,,,637.9282933999784,637.9282933999784,None,,638.9928985000006,638.9928985000006,641.0241553999949,n,637.9282933999784,637.9282933999784,0.7631564999755938,,0,001,2024-05-23_14h00.42.045,robot_nback_sign,2022.2.5,None,
D,True,2,letter,1,False,False,robot_stimuli\\filler.mp4,0,,,,,,,,,0,57,57,57,,,,,,,,,,,,,641.0241553999949,642.0722138999845,,,,,,,644.1174358999997,644.1174358999997,644.1174358999997,644.1174358999997,644.1174358999997,644.1174358999997,644.1174358999997,644.1174358999997,None,None,None,,,,,,,,,,,641.0241553999949,641.0241553999949,None,,642.0722138999845,642.0722138999845,644.1174358999997,c,641.0241553999949,641.0241553999949,0.7165640999737661,,0,001,2024-05-23_14h00.42.045,robot_nback_sign,2022.2.5,None,
J,False,2,letter,1,False,False,robot_stimuli\\filler.mp4,0,,,,,,,,,0,58,58,58,,,,,,,,,,,,,644.1174358999997,645.1744432999985,,,,,,,647.2018958999834,647.2018958999834,647.2018958999834,647.2018958999834,647.2018958999834,647.2018958999834,647.2018958999834,647.2018958999834,None,None,None,,,,,,,,,,,644.1174358999997,644.1174358999997,None,,645.1744432999985,645.1744432999985,647.2018958999834,n,644.1174358999997,644.1174358999997,0.701831200014567,,0,001,2024-05-23_14h00.42.045,robot_nback_sign,2022.2.5,None,
D,True,2,letter,1,False,False,robot_stimuli\\filler.mp4,0,,,,,,,,,0,59,59,59,,,,,,,,,,,,,647.2018958999834,648.2601062000031,,,,,,,650.2828054999991,650.2828054999991,650.2828054999991,650.2828054999991,650.2828054999991,650.2828054999991,650.2828054999991,650.2828054999991,None,None,None,,,,,,,,,,,647.2018958999834,647.2018958999834,None,,648.2601062000031,648.2601062000031,650.2828054999991,None,647.2018958999834,647.2018958999834,,,0,001,2024-05-23_14h00.42.045,robot_nback_sign,2022.2.5,None,
Z,False,2,letter,1,False,False,robot_stimuli\\filler.mp4,0,,,,,,,,,0,60,60,60,,,,,,,,,,,,,650.2828054999991,651.3323418999789,,,,,,,653.3563060000015,653.3563060000015,653.3563060000015,653.3563060000015,653.3563060000015,653.3563060000015,653.3563060000015,653.3563060000015,None,None,None,,,,,,,,,,,650.2828054999991,650.2828054999991,None,,651.3323418999789,651.3323418999789,653.3563060000015,n,650.2828054999991,650.2828054999991,0.6318792999954894,,0,001,2024-05-23_14h00.42.045,robot_nback_sign,2022.2.5,None,
T,False,2,letter,1,False,False,robot_stimuli\\filler.mp4,0,,,,,,,,,0,61,61,61,,,,,,,,,,,,,653.3563060000015,654.403428199992,,,,,,,656.4302259999968,656.4302259999968,656.4302259999968,656.4302259999968,656.4302259999968,656.4302259999968,656.4302259999968,656.4302259999968,None,None,None,,,,,,,,,,,653.3563060000015,653.3563060000015,None,,654.403428199992,654.403428199992,656.4302259999968,None,653.3563060000015,653.3563060000015,,,0,001,2024-05-23_14h00.42.045,robot_nback_sign,2022.2.5,None,
C,False,2,letter,1,False,False,robot_stimuli\\filler.mp4,0,,,,,,,,,0,62,62,62,,,,,,,,,,,,,656.4302259999968,657.4855669999961,,,,,,,659.5141813999799,659.5141813999799,659.5141813999799,659.5141813999799,659.5141813999799,659.5141813999799,659.5141813999799,659.5141813999799,None,None,None,,,,,,,,,,,656.4302259999968,656.4302259999968,None,,657.4855669999961,657.4855669999961,659.5141813999799,None,656.4302259999968,656.4302259999968,,,0,001,2024-05-23_14h00.42.045,robot_nback_sign,2022.2.5,None,
H,False,2,letter,1,False,False,robot_stimuli\\filler.mp4,0,,,,,,,,,0,63,63,63,,,,,,,,,,,,,659.5141813999799,660.5670731999853,,,,,,,662.5932564999966,662.5932564999966,662.5932564999966,662.5932564999966,662.5932564999966,662.5932564999966,662.5932564999966,662.5932564999966,None,None,None,,,,,,,,,,,659.5141813999799,659.5141813999799,None,,660.5670731999853,660.5670731999853,662.5932564999966,n,659.5141813999799,659.5141813999799,1.0379125999752432,,0,001,2024-05-23_14h00.42.045,robot_nback_sign,2022.2.5,None,
D,False,2,letter,1,False,False,robot_stimuli\\filler.mp4,0,,,,,,,,,0,64,64,64,,,,,,,,,,,,,662.5932564999966,663.6493982999818,,,,,,,665.6704689000035,665.6704689000035,665.6704689000035,665.6704689000035,665.6704689000035,665.6704689000035,665.6704689000035,665.6704689000035,None,None,None,,,,,,,,,,,662.5932564999966,662.5932564999966,None,,663.6493982999818,663.6493982999818,665.6704689000035,n,662.5932564999966,662.5932564999966,1.3873925000079907,,0,001,2024-05-23_14h00.42.045,robot_nback_sign,2022.2.5,None,
M,False,2,letter,1,False,False,robot_stimuli\\filler.mp4,0,,,,,,,,,0,65,65,65,,,,,,,,,,,,,665.6704689000035,666.7190221000055,,,,,,,668.7528699999966,668.7528699999966,668.7528699999966,668.7528699999966,668.7528699999966,668.7528699999966,668.7528699999966,668.7528699999966,None,None,None,,,,,,,,,,,665.6704689000035,665.6704689000035,None,,666.7190221000055,666.7190221000055,668.7528699999966,None,665.6704689000035,665.6704689000035,,,0,001,2024-05-23_14h00.42.045,robot_nback_sign,2022.2.5,None,
F,False,2,letter,1,False,False,robot_stimuli\\filler.mp4,0,,,,,,,,,0,66,66,66,,,,,,,,,,,,,668.7528699999966,669.8071887999831,,,,,,,671.8245540999924,671.8245540999924,671.8245540999924,671.8245540999924,671.8245540999924,671.8245540999924,671.8245540999924,671.8245540999924,None,None,None,,,,,,,,,,,668.7528699999966,668.7528699999966,None,,669.8071887999831,669.8071887999831,671.8245540999924,n,668.7528699999966,668.7528699999966,0.20485340000595897,,0,001,2024-05-23_14h00.42.045,robot_nback_sign,2022.2.5,None,
M,True,2,letter,1,False,False,robot_stimuli\\filler.mp4,0,,,,,,,,,0,67,67,67,,,,,,,,,,,,,671.8245540999924,672.8720176999923,,,,,,,674.8922445999924,674.8922445999924,674.8922445999924,674.8922445999924,674.8922445999924,674.8922445999924,674.8922445999924,674.8922445999924,None,None,None,,,,,,,,,,,671.8245540999924,671.8245540999924,None,,672.8720176999923,672.8720176999923,674.8922445999924,c,671.8245540999924,671.8245540999924,0.9573228000081144,,0,001,2024-05-23_14h00.42.045,robot_nback_sign,2022.2.5,None,
Z,False,2,letter,1,False,False,robot_stimuli\\filler.mp4,0,,,,,,,,,0,68,68,68,,,,,,,,,,,,,674.8922445999924,675.9476589999977,,,,,,,677.968578799977,677.968578799977,677.968578799977,677.968578799977,677.968578799977,677.968578799977,677.968578799977,677.968578799977,None,None,None,,,,,,,,,,,674.8922445999924,674.8922445999924,None,,675.9476589999977,675.9476589999977,677.968578799977,n,674.8922445999924,674.8922445999924,1.1052454999880865,,0,001,2024-05-23_14h00.42.045,robot_nback_sign,2022.2.5,None,
Z,False,2,letter,1,False,False,robot_stimuli\\filler.mp4,0,,,,,,,,,0,69,69,69,,,,,,,,,,,,,677.968578799977,679.0162388999888,,,,,,,681.0530193999875,681.0530193999875,681.0530193999875,681.0530193999875,681.0530193999875,681.0530193999875,681.0530193999875,681.0530193999875,None,None,None,,,,,,,,,,,677.968578799977,677.968578799977,None,,679.0162388999888,679.0162388999888,681.0530193999875,n,677.968578799977,677.968578799977,1.0373612999974284,,0,001,2024-05-23_14h00.42.045,robot_nback_sign,2022.2.5,None,
Q,False,2,letter,1,False,False,robot_stimuli\\filler.mp4,0,,,,,,,,,0,70,70,70,,,,,,,,,,,,,681.0530193999875,682.1121499000001,,,,,,,684.1342103999923,684.1342103999923,684.1342103999923,684.1342103999923,684.1342103999923,684.1342103999923,684.1342103999923,684.1342103999923,None,None,None,,,,,,,,,,,681.0530193999875,681.0530193999875,None,,682.1121499000001,682.1121499000001,684.1342103999923,n,681.0530193999875,681.0530193999875,0.7725749999808613,,0,001,2024-05-23_14h00.42.045,robot_nback_sign,2022.2.5,None,
X,False,2,letter,1,False,False,robot_stimuli\\filler.mp4,0,,,,,,,,,0,71,71,71,,,,,,,,,,,,,684.1342103999923,685.1868942999863,,,,,,,687.2061321999936,687.2061321999936,687.2061321999936,687.2061321999936,687.2061321999936,687.2061321999936,687.2061321999936,687.2061321999936,None,None,None,,,,,,,,,,,684.1342103999923,684.1342103999923,None,,685.1868942999863,685.1868942999863,687.2061321999936,n,684.1342103999923,684.1342103999923,1.0261098999762908,,0,001,2024-05-23_14h00.42.045,robot_nback_sign,2022.2.5,None,
H,False,2,letter,1,False,False,robot_stimuli\\filler.mp4,0,,,,,,,,,0,72,72,72,,,,,,,,,,,,,687.2061321999936,688.2530157000001,,,,,,,690.2744075999944,690.2744075999944,690.2744075999944,690.2744075999944,690.2744075999944,690.2744075999944,690.2744075999944,690.2744075999944,None,None,None,,,,,,,,,,,687.2061321999936,687.2061321999936,None,,688.2530157000001,688.2530157000001,690.2744075999944,n,687.2061321999936,687.2061321999936,0.6713321999995969,,0,001,2024-05-23_14h00.42.045,robot_nback_sign,2022.2.5,None,
L,False,2,letter,1,False,False,robot_stimuli\\filler.mp4,0,,,,,,,,,0,73,73,73,,,,,,,,,,,,,690.2744075999944,691.3263977000024,,,,,,,693.3518444999936,693.3518444999936,693.3518444999936,693.3518444999936,693.3518444999936,693.3518444999936,693.3518444999936,693.3518444999936,None,None,None,,,,,,,,,,,690.2744075999944,690.2744075999944,None,,691.3263977000024,691.3263977000024,693.3518444999936,None,690.2744075999944,690.2744075999944,,,0,001,2024-05-23_14h00.42.045,robot_nback_sign,2022.2.5,None,
G,False,2,letter,1,False,False,robot_stimuli\\filler.mp4,0,,,,,,,,,0,74,74,74,,,,,,,,,,,,,693.3518444999936,694.4020567999978,,,,,,,696.4287550000008,696.4287550000008,696.4287550000008,696.4287550000008,696.4287550000008,696.4287550000008,696.4287550000008,696.4287550000008,None,None,None,,,,,,,,,,,693.3518444999936,693.3518444999936,None,,694.4020567999978,694.4020567999978,696.4287550000008,n,693.3518444999936,693.3518444999936,0.4179969000106212,,0,001,2024-05-23_14h00.42.045,robot_nback_sign,2022.2.5,None,
L,True,2,letter,1,False,False,robot_stimuli\\filler.mp4,0,,,,,,,,,0,75,75,75,,,,,,,,,,,,,696.4287550000008,697.4811641999986,,,,,,,699.5002529000049,699.5002529000049,699.5002529000049,699.5002529000049,699.5002529000049,699.5002529000049,699.5002529000049,699.5002529000049,None,None,None,,,,,,,,,,,696.4287550000008,696.4287550000008,None,,697.4811641999986,697.4811641999986,699.5002529000049,c,696.4287550000008,696.4287550000008,0.4277169999841135,,0,001,2024-05-23_14h00.42.045,robot_nback_sign,2022.2.5,None,
B,False,2,letter,1,False,False,robot_stimuli\\filler.mp4,0,,,,,,,,,0,76,76,76,,,,,,,,,,,,,699.5002529000049,700.5481361999991,,,,,,,702.5669191000052,702.5669191000052,702.5669191000052,702.5669191000052,702.5669191000052,702.5669191000052,702.5669191000052,702.5669191000052,None,None,None,,,,,,,,,,,699.5002529000049,699.5002529000049,None,,700.5481361999991,700.5481361999991,702.5669191000052,n,699.5002529000049,699.5002529000049,0.7201900999934878,,0,001,2024-05-23_14h00.42.045,robot_nback_sign,2022.2.5,None,
Q,False,2,letter,1,False,False,robot_stimuli\\filler.mp4,0,,,,,,,,,0,77,77,77,,,,,,,,,,,,,702.5669191000052,703.615234500001,,,,,,,705.6390865999856,705.6390865999856,705.6390865999856,705.6390865999856,705.6390865999856,705.6390865999856,705.6390865999856,705.6390865999856,None,None,None,,,,,,,,,,,702.5669191000052,702.5669191000052,None,,703.615234500001,703.615234500001,705.6390865999856,n,702.5669191000052,702.5669191000052,0.557293199992273,,0,001,2024-05-23_14h00.42.045,robot_nback_sign,2022.2.5,None,
K,False,2,letter,1,False,False,robot_stimuli\\filler.mp4,0,,,,,,,,,0,78,78,78,,,,,,,,,,,,,705.6390865999856,706.6836292999797,,,,,,,708.7102864999906,708.7102864999906,708.7102864999906,708.7102864999906,708.7102864999906,708.7102864999906,708.7102864999906,708.7102864999906,None,None,None,,,,,,,,,,,705.6390865999856,705.6390865999856,None,,706.6836292999797,706.6836292999797,708.7102864999906,n,705.6390865999856,705.6390865999856,0.8165280999965034,,0,001,2024-05-23_14h00.42.045,robot_nback_sign,2022.2.5,None,
Q,True,2,letter,1,False,False,robot_stimuli\\filler.mp4,0,,,,,,,,,0,79,79,79,,,,,,,,,,,,,708.7102864999906,709.7672320999845,,,,,,,711.7836423999979,711.7836423999979,711.7836423999979,711.7836423999979,711.7836423999979,711.7836423999979,711.7836423999979,711.7836423999979,None,None,None,,,,,,,,,,,708.7102864999906,708.7102864999906,None,,709.7672320999845,709.7672320999845,711.7836423999979,c,708.7102864999906,708.7102864999906,0.7495611000049394,,0,001,2024-05-23_14h00.42.045,robot_nback_sign,2022.2.5,None,
K,True,2,letter,1,False,False,robot_stimuli\\filler.mp4,0,,,,,,,,,0,80,80,80,,,,,,,,,,,,,711.7836423999979,712.8364107999951,,,,,,,714.8526372000051,714.8526372000051,714.8526372000051,714.8526372000051,714.8526372000051,714.8526372000051,714.8526372000051,714.8526372000051,None,None,None,,,,,,,,,,,711.7836423999979,711.7836423999979,None,,712.8364107999951,712.8364107999951,714.8526372000051,c,711.7836423999979,711.7836423999979,1.0096055999747477,,0,001,2024-05-23_14h00.42.045,robot_nback_sign,2022.2.5,None,
H,False,2,letter,1,False,False,robot_stimuli\\filler.mp4,0,,,,,,,,,0,81,81,81,,,,,,,,,,,,,714.8526372000051,715.9018645999895,,,,,,,717.9295691000007,717.9295691000007,717.9295691000007,717.9295691000007,717.9295691000007,717.9295691000007,717.9295691000007,717.9295691000007,None,None,None,,,,,,,,,,,714.8526372000051,714.8526372000051,None,,715.9018645999895,715.9018645999895,717.9295691000007,n,714.8526372000051,714.8526372000051,0.5824504000192974,,0,001,2024-05-23_14h00.42.045,robot_nback_sign,2022.2.5,None,
P,False,2,letter,1,False,False,robot_stimuli\\filler.mp4,0,,,,,,,,,0,82,82,82,,,,,,,,,,,,,717.9295691000007,718.9792029999953,,,,,,,721.004955499986,721.004955499986,721.004955499986,721.004955499986,721.004955499986,721.004955499986,721.004955499986,721.004955499986,None,None,None,,,,,,,,,,,717.9295691000007,717.9295691000007,None,,718.9792029999953,718.9792029999953,721.004955499986,n,717.9295691000007,717.9295691000007,0.8817987999937031,,0,001,2024-05-23_14h00.42.045,robot_nback_sign,2022.2.5,None,
B,False,2,letter,1,False,False,robot_stimuli\\filler.mp4,0,,,,,,,,,0,83,83,83,,,,,,,,,,,,,721.004955499986,722.0823105000018,,,,,,,724.1035215999873,724.1035215999873,724.1035215999873,724.1035215999873,724.1035215999873,724.1035215999873,724.1035215999873,724.1035215999873,None,None,None,,,,,,,,,,,721.004955499986,721.004955499986,None,,722.0823105000018,722.0823105000018,724.1035215999873,n,721.004955499986,721.004955499986,1.9459696999983862,,0,001,2024-05-23_14h00.42.045,robot_nback_sign,2022.2.5,None,
P,True,2,letter,1,False,False,robot_stimuli\\filler.mp4,0,,,,,,,,,0,84,84,84,,,,,,,,,,,,,724.1035215999873,725.1590746000002,,,,,,,727.179871100001,727.179871100001,727.179871100001,727.179871100001,727.179871100001,727.179871100001,727.179871100001,727.179871100001,None,None,None,,,,,,,,,,,724.1035215999873,724.1035215999873,None,,725.1590746000002,725.1590746000002,727.179871100001,c,724.1035215999873,724.1035215999873,0.9900918999919668,,0,001,2024-05-23_14h00.42.045,robot_nback_sign,2022.2.5,None,
P,False,2,letter,1,False,False,robot_stimuli\\filler.mp4,0,,,,,,,,,0,85,85,85,,,,,,,,,,,,,727.179871100001,728.2337705999962,,,,,,,730.258848700003,730.258848700003,730.258848700003,730.258848700003,730.258848700003,730.258848700003,730.258848700003,730.258848700003,None,None,None,,,,,,,,,,,727.179871100001,727.179871100001,None,,728.2337705999962,728.2337705999962,730.258848700003,n,727.179871100001,727.179871100001,1.123779799992917,,0,001,2024-05-23_14h00.42.045,robot_nback_sign,2022.2.5,None,
D,False,2,letter,1,False,False,robot_stimuli\\filler.mp4,0,,,,,,,,,0,86,86,86,,,,,,,,,,,,,730.258848700003,731.3174792999926,,,,,,,733.3385076999839,733.3385076999839,733.3385076999839,733.3385076999839,733.3385076999839,733.3385076999839,733.3385076999839,733.3385076999839,None,None,None,,,,,,,,,,,730.258848700003,730.258848700003,None,,731.3174792999926,731.3174792999926,733.3385076999839,n,730.258848700003,730.258848700003,0.5508586999785621,,0,001,2024-05-23_14h00.42.045,robot_nback_sign,2022.2.5,None,
X,False,2,letter,1,False,False,robot_stimuli\\filler.mp4,0,,,,,,,,,0,87,87,87,,,,,,,,,,,,,733.3385076999839,734.386153200001,,,,,,,736.4072640999802,736.4072640999802,736.4072640999802,736.4072640999802,736.4072640999802,736.4072640999802,736.4072640999802,736.4072640999802,None,None,None,,,,,,,,,,,733.3385076999839,733.3385076999839,None,,734.386153200001,734.386153200001,736.4072640999802,n,733.3385076999839,733.3385076999839,0.5942891999729909,,0,001,2024-05-23_14h00.42.045,robot_nback_sign,2022.2.5,None,
C,False,2,letter,1,False,False,robot_stimuli\\filler.mp4,0,,,,,,,,,0,88,88,88,,,,,,,,,,,,,736.4072640999802,737.4535677999957,,,,,,,739.4771355999983,739.4771355999983,739.4771355999983,739.4771355999983,739.4771355999983,739.4771355999983,739.4771355999983,739.4771355999983,None,None,None,,,,,,,,,,,736.4072640999802,736.4072640999802,None,,737.4535677999957,737.4535677999957,739.4771355999983,n,736.4072640999802,736.4072640999802,0.6870586999866646,,0,001,2024-05-23_14h00.42.045,robot_nback_sign,2022.2.5,None,
X,True,2,letter,1,False,False,robot_stimuli\\filler.mp4,0,,,,,,,,,0,89,89,89,,,,,,,,,,,,,739.4771355999983,740.5338462999789,,,,,,,742.560384899989,742.560384899989,742.560384899989,742.560384899989,742.560384899989,742.560384899989,742.560384899989,742.560384899989,None,None,None,,,,,,,,,,,739.4771355999983,739.4771355999983,None,,740.5338462999789,740.5338462999789,742.560384899989,c,739.4771355999983,739.4771355999983,0.846969199978048,,0,001,2024-05-23_14h00.42.045,robot_nback_sign,2022.2.5,None,
M,False,2,letter,1,False,False,robot_stimuli\\filler.mp4,0,,,,,,,,,0,90,90,90,,,,,,,,,,,,,742.560384899989,743.6197852999903,,,,,,,745.6467864000006,745.6467864000006,745.6467864000006,745.6467864000006,745.6467864000006,745.6467864000006,745.6467864000006,745.6467864000006,None,None,None,,,,,,,,,,,742.560384899989,742.560384899989,None,,743.6197852999903,743.6197852999903,745.6467864000006,n,742.560384899989,742.560384899989,1.1052786999789532,,0,001,2024-05-23_14h00.42.045,robot_nback_sign,2022.2.5,None,
C,False,2,letter,1,False,False,robot_stimuli\\filler.mp4,0,,,,,,,,,0,91,91,91,,,,,,,,,,,,,745.6467864000006,746.7073587999912,,,,,,,748.732380100002,748.732380100002,748.732380100002,748.732380100002,748.732380100002,748.732380100002,748.732380100002,748.732380100002,None,None,None,,,,,,,,,,,745.6467864000006,745.6467864000006,None,,746.7073587999912,746.7073587999912,748.732380100002,n,745.6467864000006,745.6467864000006,1.9533811000001151,,0,001,2024-05-23_14h00.42.045,robot_nback_sign,2022.2.5,None,
B,False,2,letter,1,False,False,robot_stimuli\\filler.mp4,0,,,,,,,,,0,92,92,92,,,,,,,,,,,,,748.732380100002,749.7943858999934,,,,,,,751.8189511999954,751.8189511999954,751.8189511999954,751.8189511999954,751.8189511999954,751.8189511999954,751.8189511999954,751.8189511999954,None,None,None,,,,,,,,,,,748.732380100002,748.732380100002,None,,749.7943858999934,749.7943858999934,751.8189511999954,n,748.732380100002,748.732380100002,0.7455938000057358,,0,001,2024-05-23_14h00.42.045,robot_nback_sign,2022.2.5,None,
W,False,2,letter,1,False,False,robot_stimuli\\filler.mp4,0,,,,,,,,,0,93,93,93,,,,,,,,,,,,,751.8189511999954,752.8734079999849,,,,,,,754.899909300002,754.899909300002,754.899909300002,754.899909300002,754.899909300002,754.899909300002,754.899909300002,754.899909300002,None,None,None,,,,,,,,,,,751.8189511999954,751.8189511999954,None,,752.8734079999849,752.8734079999849,754.899909300002,n,751.8189511999954,751.8189511999954,0.9236479999963194,,0,001,2024-05-23_14h00.42.045,robot_nback_sign,2022.2.5,None,
J,False,2,letter,1,False,False,robot_stimuli\\filler.mp4,0,,,,,,,,,0,94,94,94,,,,,,,,,,,,,754.899909300002,755.9544291999773,,,,,,,757.9738782999921,757.9738782999921,757.9738782999921,757.9738782999921,757.9738782999921,757.9738782999921,757.9738782999921,757.9738782999921,None,None,None,,,,,,,,,,,754.899909300002,754.899909300002,None,,755.9544291999773,755.9544291999773,757.9738782999921,n,754.899909300002,754.899909300002,0.8026178999862168,,0,001,2024-05-23_14h00.42.045,robot_nback_sign,2022.2.5,None,
G,False,2,letter,1,False,False,robot_stimuli\\filler.mp4,0,,,,,,,,,0,95,95,95,,,,,,,,,,,,,757.9738782999921,759.039569399989,,,,,,,761.0591213000007,761.0591213000007,761.0591213000007,761.0591213000007,761.0591213000007,761.0591213000007,761.0591213000007,761.0591213000007,None,None,None,,,,,,,,,,,757.9738782999921,757.9738782999921,None,,759.039569399989,759.039569399989,761.0591213000007,n,757.9738782999921,757.9738782999921,0.8205689000023995,,0,001,2024-05-23_14h00.42.045,robot_nback_sign,2022.2.5,None,
C,False,2,letter,1,False,False,robot_stimuli\\filler.mp4,0,,,,,,,,,0,96,96,96,,,,,,,,,,,,,761.0591213000007,762.1139000999974,,,,,,,764.1411488000012,764.1411488000012,764.1411488000012,764.1411488000012,764.1411488000012,764.1411488000012,764.1411488000012,764.1411488000012,None,None,None,,,,,,,,,,,761.0591213000007,761.0591213000007,None,,762.1139000999974,762.1139000999974,764.1411488000012,None,761.0591213000007,761.0591213000007,,,0,001,2024-05-23_14h00.42.045,robot_nback_sign,2022.2.5,None,
G,True,2,letter,1,False,False,robot_stimuli\\filler.mp4,0,,,,,,,,,0,97,97,97,,,,,,,,,,,,,764.1411488000012,765.1944769999827,,,,,,,767.2207245999889,767.2207245999889,767.2207245999889,767.2207245999889,767.2207245999889,767.2207245999889,767.2207245999889,767.2207245999889,None,None,None,,,,,,,,,,,764.1411488000012,764.1411488000012,None,,765.1944769999827,765.1944769999827,767.2207245999889,None,764.1411488000012,764.1411488000012,,,0,001,2024-05-23_14h00.42.045,robot_nback_sign,2022.2.5,None,
P,False,2,letter,1,False,False,robot_stimuli\\filler.mp4,0,,,,,,,,,0,98,98,98,,,,,,,,,,,,,767.2207245999889,768.2870641000045,,,,,,,770.3111444999813,770.3111444999813,770.3111444999813,770.3111444999813,770.3111444999813,770.3111444999813,770.3111444999813,770.3111444999813,None,None,None,,,,,,,,,,,767.2207245999889,767.2207245999889,None,,768.2870641000045,768.2870641000045,770.3111444999813,n,767.2207245999889,767.2207245999889,1.4456429999845568,,0,001,2024-05-23_14h00.42.045,robot_nback_sign,2022.2.5,None,
G,True,2,letter,1,False,True,robot_stimuli\\filler.mp4,0,,,,,,,,,0,99,99,99,,,,,,,,,,,,,770.3111444999813,771.3633791999891,,,,,,,773.4029597000044,,773.4029597000044,,773.4029597000044,,773.4029597000044,,32.77777777777778,4.11954029998742,space,,,,5.7852434999949764,,,,,,,770.3111444999813,770.3111444999813,None,,771.3633791999891,771.3633791999891,773.4029597000044,c,770.3111444999813,770.3111444999813,0.5693448999954853,,0,001,2024-05-23_14h00.42.045,robot_nback_sign,2022.2.5,None,
R,False,3,letter,1,True,False,robot_stimuli\\filler.mp4,0,,,,,,,,,0,100,100,100,,,,,,,,,,,,,803.8862613999809,804.9351418000006,,,,,,,806.9567758000048,806.9567758000048,806.9567758000048,806.9567758000048,806.9567758000048,806.9567758000048,806.9567758000048,806.9567758000048,None,None,None,,,,,,,,,,,779.2101724999957,779.2101724999957,space,24.66687849999289,804.9351418000006,804.9351418000006,806.9567758000048,None,,,,,0,001,2024-05-23_14h00.42.045,robot_nback_sign,2022.2.5,None,
P,False,3,letter,1,False,False,robot_stimuli\\filler.mp4,0,,,,,,,,,0,101,101,101,,,,,,,,,,,,,806.9567758000048,808.0057837999775,,,,,,,810.0319125999813,810.0319125999813,810.0319125999813,810.0319125999813,810.0319125999813,810.0319125999813,810.0319125999813,810.0319125999813,None,None,None,,,,,,,,,,,806.9567758000048,806.9567758000048,None,,808.0057837999775,808.0057837999775,810.0319125999813,None,806.9567758000048,806.9567758000048,,,0,001,2024-05-23_14h00.42.045,robot_nback_sign,2022.2.5,None,
L,False,3,letter,1,False,False,robot_stimuli\\filler.mp4,0,,,,,,,,,0,102,102,102,,,,,,,,,,,,,810.0319125999813,811.0840824999905,,,,,,,813.11332579999,813.11332579999,813.11332579999,813.11332579999,813.11332579999,813.11332579999,813.11332579999,813.11332579999,None,None,None,,,,,,,,,,,810.0319125999813,810.0319125999813,None,,811.0840824999905,811.0840824999905,813.11332579999,None,810.0319125999813,810.0319125999813,,,0,001,2024-05-23_14h00.42.045,robot_nback_sign,2022.2.5,None,
Z,False,3,letter,1,False,False,robot_stimuli\\filler.mp4,0,,,,,,,,,0,103,103,103,,,,,,,,,,,,,813.11332579999,814.1694809999899,,,,,,,816.1946744000015,816.1946744000015,816.1946744000015,816.1946744000015,816.1946744000015,816.1946744000015,816.1946744000015,816.1946744000015,None,None,None,,,,,,,,,,,813.11332579999,813.11332579999,None,,814.1694809999899,814.1694809999899,816.1946744000015,n,813.11332579999,813.11332579999,1.755269799992675,,0,001,2024-05-23_14h00.42.045,robot_nback_sign,2022.2.5,None,
P,True,3,letter,1,False,False,robot_stimuli\\filler.mp4,0,,,,,,,,,0,104,104,104,,,,,,,,,,,,,816.1946744000015,817.2565079999913,,,,,,,819.2943074999785,819.2943074999785,819.2943074999785,819.2943074999785,819.2943074999785,819.2943074999785,819.2943074999785,819.2943074999785,None,None,None,,,,,,,,,,,816.1946744000015,816.1946744000015,None,,817.2565079999913,817.2565079999913,819.2943074999785,n,816.1946744000015,816.1946744000015,1.3322234000079334,,0,001,2024-05-23_14h00.42.045,robot_nback_sign,2022.2.5,None,
Z,False,3,letter,1,False,False,robot_stimuli\\filler.mp4,0,,,,,,,,,0,105,105,105,,,,,,,,,,,,,819.2943074999785,820.3493201999809,,,,,,,822.3781057999877,822.3781057999877,822.3781057999877,822.3781057999877,822.3781057999877,822.3781057999877,822.3781057999877,822.3781057999877,None,None,None,,,,,,,,,,,819.2943074999785,819.2943074999785,None,,820.3493201999809,820.3493201999809,822.3781057999877,None,819.2943074999785,819.2943074999785,,,0,001,2024-05-23_14h00.42.045,robot_nback_sign,2022.2.5,None,
K,False,3,letter,1,False,False,robot_stimuli\\filler.mp4,0,,,,,,,,,0,106,106,106,,,,,,,,,,,,,822.3781057999877,823.4424374999944,,,,,,,825.4690742999956,825.4690742999956,825.4690742999956,825.4690742999956,825.4690742999956,825.4690742999956,825.4690742999956,825.4690742999956,None,None,None,,,,,,,,,,,822.3781057999877,822.3781057999877,None,,823.4424374999944,823.4424374999944,825.4690742999956,None,822.3781057999877,822.3781057999877,,,0,001,2024-05-23_14h00.42.045,robot_nback_sign,2022.2.5,None,
Q,False,3,letter,1,False,False,robot_stimuli\\filler.mp4,0,,,,,,,,,0,107,107,107,,,,,,,,,,,,,825.4690742999956,826.529220700002,,,,,,,828.5532379999931,828.5532379999931,828.5532379999931,828.5532379999931,828.5532379999931,828.5532379999931,828.5532379999931,828.5532379999931,None,None,None,,,,,,,,,,,825.4690742999956,825.4690742999956,None,,826.529220700002,826.529220700002,828.5532379999931,None,825.4690742999956,825.4690742999956,,,0,001,2024-05-23_14h00.42.045,robot_nback_sign,2022.2.5,None,
M,False,3,letter,1,False,False,robot_stimuli\\filler.mp4,0,,,,,,,,,0,108,108,108,,,,,,,,,,,,,828.5532379999931,829.6124475999968,,,,,,,831.6391664999828,831.6391664999828,831.6391664999828,831.6391664999828,831.6391664999828,831.6391664999828,831.6391664999828,831.6391664999828,None,None,None,,,,,,,,,,,828.5532379999931,828.5532379999931,None,,829.6124475999968,829.6124475999968,831.6391664999828,None,828.5532379999931,828.5532379999931,,,0,001,2024-05-23_14h00.42.045,robot_nback_sign,2022.2.5,None,
X,False,3,letter,1,False,False,robot_stimuli\\filler.mp4,0,,,,,,,,,0,109,109,109,,,,,,,,,,,,,831.6391664999828,832.6945307999849,,,,,,,834.7219788999937,834.7219788999937,834.7219788999937,834.7219788999937,834.7219788999937,834.7219788999937,834.7219788999937,834.7219788999937,None,None,None,,,,,,,,,,,831.6391664999828,831.6391664999828,None,,832.6945307999849,832.6945307999849,834.7219788999937,n,831.6391664999828,831.6391664999828,0.6063084999914281,,0,001,2024-05-23_14h00.42.045,robot_nback_sign,2022.2.5,None,
N,False,3,letter,1,False,False,robot_stimuli\\filler.mp4,0,,,,,,,,,0,110,110,110,,,,,,,,,,,,,834.7219788999937,835.7742582999927,,,,,,,837.8003276999807,837.8003276999807,837.8003276999807,837.8003276999807,837.8003276999807,837.8003276999807,837.8003276999807,837.8003276999807,None,None,None,,,,,,,,,,,834.7219788999937,834.7219788999937,None,,835.7742582999927,835.7742582999927,837.8003276999807,n,834.7219788999937,834.7219788999937,0.23899849998997524,,0,001,2024-05-23_14h00.42.045,robot_nback_sign,2022.2.5,None,
M,True,3,letter,1,False,False,robot_stimuli\\filler.mp4,0,,,,,,,,,0,111,111,111,,,,,,,,,,,,,837.8003276999807,838.8489261999785,,,,,,,840.8687581999984,840.8687581999984,840.8687581999984,840.8687581999984,840.8687581999984,840.8687581999984,840.8687581999984,840.8687581999984,None,None,None,,,,,,,,,,,837.8003276999807,837.8003276999807,None,,838.8489261999785,838.8489261999785,840.8687581999984,n,837.8003276999807,837.8003276999807,1.1165852999838535,,0,001,2024-05-23_14h00.42.045,robot_nback_sign,2022.2.5,None,
H,False,3,letter,1,False,False,robot_stimuli\\filler.mp4,0,,,,,,,,,0,112,112,112,,,,,,,,,,,,,840.8687581999984,841.9454554999829,,,,,,,843.967559199984,843.967559199984,843.967559199984,843.967559199984,843.967559199984,843.967559199984,843.967559199984,843.967559199984,None,None,None,,,,,,,,,,,840.8687581999984,840.8687581999984,None,,841.9454554999829,841.9454554999829,843.967559199984,n,840.8687581999984,840.8687581999984,0.9074382999970112,,0,001,2024-05-23_14h00.42.045,robot_nback_sign,2022.2.5,None,
N,True,3,letter,1,False,False,robot_stimuli\\filler.mp4,0,,,,,,,,,0,113,113,113,,,,,,,,,,,,,843.967559199984,845.0188206000021,,,,,,,847.0422908999899,847.0422908999899,847.0422908999899,847.0422908999899,847.0422908999899,847.0422908999899,847.0422908999899,847.0422908999899,None,None,None,,,,,,,,,,,843.967559199984,843.967559199984,None,,845.0188206000021,845.0188206000021,847.0422908999899,n,843.967559199984,843.967559199984,1.7132189999974798,,0,001,2024-05-23_14h00.42.045,robot_nback_sign,2022.2.5,None,
F,False,3,letter,1,False,False,robot_stimuli\\filler.mp4,0,,,,,,,,,0,114,114,114,,,,,,,,,,,,,847.0422908999899,848.0958078999829,,,,,,,850.117245899979,850.117245899979,850.117245899979,850.117245899979,850.117245899979,850.117245899979,850.117245899979,850.117245899979,None,None,None,,,,,,,,,,,847.0422908999899,847.0422908999899,None,,848.0958078999829,848.0958078999829,850.117245899979,None,847.0422908999899,847.0422908999899,,,0,001,2024-05-23_14h00.42.045,robot_nback_sign,2022.2.5,None,
T,False,3,letter,1,False,False,robot_stimuli\\filler.mp4,0,,,,,,,,,0,115,115,115,,,,,,,,,,,,,850.117245899979,851.1640194999927,,,,,,,853.1979120000033,853.1979120000033,853.1979120000033,853.1979120000033,853.1979120000033,853.1979120000033,853.1979120000033,853.1979120000033,None,None,None,,,,,,,,,,,850.117245899979,850.117245899979,None,,851.1640194999927,851.1640194999927,853.1979120000033,n,850.117245899979,850.117245899979,1.2480786999803968,,0,001,2024-05-23_14h00.42.045,robot_nback_sign,2022.2.5,None,
R,False,3,letter,1,False,False,robot_stimuli\\filler.mp4,0,,,,,,,,,0,116,116,116,,,,,,,,,,,,,853.1979120000033,854.2520705999923,,,,,,,856.2696175999881,856.2696175999881,856.2696175999881,856.2696175999881,856.2696175999881,856.2696175999881,856.2696175999881,856.2696175999881,None,None,None,,,,,,,,,,,853.1979120000033,853.1979120000033,None,,854.2520705999923,854.2520705999923,856.2696175999881,n,853.1979120000033,853.1979120000033,0.6002366000029724,,0,001,2024-05-23_14h00.42.045,robot_nback_sign,2022.2.5,None,
F,True,3,letter,1,False,False,robot_stimuli\\filler.mp4,0,,,,,,,,,0,117,117,117,,,,,,,,,,,,,856.2696175999881,857.3192830999906,,,,,,,859.3397051999927,859.3397051999927,859.3397051999927,859.3397051999927,859.3397051999927,859.3397051999927,859.3397051999927,859.3397051999927,None,None,None,,,,,,,,,,,856.2696175999881,856.2696175999881,None,,857.3192830999906,857.3192830999906,859.3397051999927,n,856.2696175999881,856.2696175999881,0.6219102999893948,,0,001,2024-05-23_14h00.42.045,robot_nback_sign,2022.2.5,None,
T,True,3,letter,1,False,False,robot_stimuli\\filler.mp4,0,,,,,,,,,0,118,118,118,,,,,,,,,,,,,859.3397051999927,860.3881544999895,,,,,,,862.4142176999885,862.4142176999885,862.4142176999885,862.4142176999885,862.4142176999885,862.4142176999885,862.4142176999885,862.4142176999885,None,None,None,,,,,,,,,,,859.3397051999927,859.3397051999927,None,,860.3881544999895,860.3881544999895,862.4142176999885,c,859.3397051999927,859.3397051999927,1.463809200009564,,0,001,2024-05-23_14h00.42.045,robot_nback_sign,2022.2.5,None,
N,False,3,letter,1,False,False,robot_stimuli\\filler.mp4,0,,,,,,,,,0,119,119,119,,,,,,,,,,,,,862.4142176999885,863.4720915999787,,,,,,,865.4939105999947,865.4939105999947,865.4939105999947,865.4939105999947,865.4939105999947,865.4939105999947,865.4939105999947,865.4939105999947,None,None,None,,,,,,,,,,,862.4142176999885,862.4142176999885,None,,863.4720915999787,863.4720915999787,865.4939105999947,n,862.4142176999885,862.4142176999885,0.5810848000110127,,0,001,2024-05-23_14h00.42.045,robot_nback_sign,2022.2.5,None,
R,False,3,letter,1,False,False,robot_stimuli\\filler.mp4,0,,,,,,,,,0,120,120,120,,,,,,,,,,,,,865.4939105999947,866.554175199999,,,,,,,868.5797411999956,868.5797411999956,868.5797411999956,868.5797411999956,868.5797411999956,868.5797411999956,868.5797411999956,868.5797411999956,None,None,None,,,,,,,,,,,865.4939105999947,865.4939105999947,None,,866.554175199999,866.554175199999,868.5797411999956,n,865.4939105999947,865.4939105999947,1.1069596000015736,,0,001,2024-05-23_14h00.42.045,robot_nback_sign,2022.2.5,None,
L,False,3,letter,1,False,False,robot_stimuli\\filler.mp4,0,,,,,,,,,0,121,121,121,,,,,,,,,,,,,868.5797411999956,869.6346425999945,,,,,,,871.6663260000059,871.6663260000059,871.6663260000059,871.6663260000059,871.6663260000059,871.6663260000059,871.6663260000059,871.6663260000059,None,None,None,,,,,,,,,,,868.5797411999956,868.5797411999956,None,,869.6346425999945,869.6346425999945,871.6663260000059,None,868.5797411999956,868.5797411999956,,,0,001,2024-05-23_14h00.42.045,robot_nback_sign,2022.2.5,None,
G,False,3,letter,1,False,False,robot_stimuli\\filler.mp4,0,,,,,,,,,0,122,122,122,,,,,,,,,,,,,871.6663260000059,872.7189550999901,,,,,,,874.7433856999851,874.7433856999851,874.7433856999851,874.7433856999851,874.7433856999851,874.7433856999851,874.7433856999851,874.7433856999851,None,None,None,,,,,,,,,,,871.6663260000059,871.6663260000059,None,,872.7189550999901,872.7189550999901,874.7433856999851,n,871.6663260000059,871.6663260000059,0.7334818000090308,,0,001,2024-05-23_14h00.42.045,robot_nback_sign,2022.2.5,None,
B,False,3,letter,1,False,False,robot_stimuli\\filler.mp4,0,,,,,,,,,0,123,123,123,,,,,,,,,,,,,874.7433856999851,875.8050623000017,,,,,,,877.8237188999774,877.8237188999774,877.8237188999774,877.8237188999774,877.8237188999774,877.8237188999774,877.8237188999774,877.8237188999774,None,None,None,,,,,,,,,,,874.7433856999851,874.7433856999851,None,,875.8050623000017,875.8050623000017,877.8237188999774,n,874.7433856999851,874.7433856999851,1.136191500001587,,0,001,2024-05-23_14h00.42.045,robot_nback_sign,2022.2.5,None,
V,False,3,letter,1,False,False,robot_stimuli\\filler.mp4,0,,,,,,,,,0,124,124,124,,,,,,,,,,,,,877.8237188999774,878.8791980999813,,,,,,,880.9057459000032,880.9057459000032,880.9057459000032,880.9057459000032,880.9057459000032,880.9057459000032,880.9057459000032,880.9057459000032,None,None,None,,,,,,,,,,,877.8237188999774,877.8237188999774,None,,878.8791980999813,878.8791980999813,880.9057459000032,n,877.8237188999774,877.8237188999774,0.6300688000046648,,0,001,2024-05-23_14h00.42.045,robot_nback_sign,2022.2.5,None,
J,False,3,letter,1,False,False,robot_stimuli\\filler.mp4,0,,,,,,,,,0,125,125,125,,,,,,,,,,,,,880.9057459000032,881.9631051000033,,,,,,,883.9874142000044,883.9874142000044,883.9874142000044,883.9874142000044,883.9874142000044,883.9874142000044,883.9874142000044,883.9874142000044,None,None,None,,,,,,,,,,,880.9057459000032,880.9057459000032,None,,881.9631051000033,881.9631051000033,883.9874142000044,n,880.9057459000032,880.9057459000032,1.5456497000122909,,0,001,2024-05-23_14h00.42.045,robot_nback_sign,2022.2.5,None,
J,False,3,letter,1,False,False,robot_stimuli\\filler.mp4,0,,,,,,,,,0,126,126,126,,,,,,,,,,,,,883.9874142000044,885.0362397999852,,,,,,,887.0588769000024,887.0588769000024,887.0588769000024,887.0588769000024,887.0588769000024,887.0588769000024,887.0588769000024,887.0588769000024,None,None,None,,,,,,,,,,,883.9874142000044,883.9874142000044,None,,885.0362397999852,885.0362397999852,887.0588769000024,n,883.9874142000044,883.9874142000044,0.9922198999847751,,0,001,2024-05-23_14h00.42.045,robot_nback_sign,2022.2.5,None,
T,False,3,letter,1,False,False,robot_stimuli\\filler.mp4,0,,,,,,,,,0,127,127,127,,,,,,,,,,,,,887.0588769000024,888.1153305000043,,,,,,,890.1369727999845,890.1369727999845,890.1369727999845,890.1369727999845,890.1369727999845,890.1369727999845,890.1369727999845,890.1369727999845,None,None,None,,,,,,,,,,,887.0588769000024,887.0588769000024,None,,888.1153305000043,888.1153305000043,890.1369727999845,n,887.0588769000024,887.0588769000024,0.7289829000073951,,0,001,2024-05-23_14h00.42.045,robot_nback_sign,2022.2.5,None,
J,True,3,letter,1,False,False,robot_stimuli\\filler.mp4,0,,,,,,,,,0,128,128,128,,,,,,,,,,,,,890.1369727999845,891.1856037999969,,,,,,,893.2110575999832,893.2110575999832,893.2110575999832,893.2110575999832,893.2110575999832,893.2110575999832,893.2110575999832,893.2110575999832,None,None,None,,,,,,,,,,,890.1369727999845,890.1369727999845,None,,891.1856037999969,891.1856037999969,893.2110575999832,c,890.1369727999845,890.1369727999845,0.660006499994779,,0,001,2024-05-23_14h00.42.045,robot_nback_sign,2022.2.5,None,
V,False,3,letter,1,False,False,robot_stimuli\\filler.mp4,0,,,,,,,,,0,129,129,129,,,,,,,,,,,,,893.2110575999832,894.2679274999828,,,,,,,896.2974223000056,896.2974223000056,896.2974223000056,896.2974223000056,896.2974223000056,896.2974223000056,896.2974223000056,896.2974223000056,None,None,None,,,,,,,,,,,893.2110575999832,893.2110575999832,None,,894.2679274999828,894.2679274999828,896.2974223000056,c,893.2110575999832,893.2110575999832,1.6161604000080843,,0,001,2024-05-23_14h00.42.045,robot_nback_sign,2022.2.5,None,
T,True,3,letter,1,False,False,robot_stimuli\\filler.mp4,0,,,,,,,,,0,130,130,130,,,,,,,,,,,,,896.2974223000056,897.3496090999979,,,,,,,899.3682511999796,899.3682511999796,899.3682511999796,899.3682511999796,899.3682511999796,899.3682511999796,899.3682511999796,899.3682511999796,None,None,None,,,,,,,,,,,896.2974223000056,896.2974223000056,None,,897.3496090999979,897.3496090999979,899.3682511999796,n,896.2974223000056,896.2974223000056,1.286745899997186,,0,001,2024-05-23_14h00.42.045,robot_nback_sign,2022.2.5,None,
J,True,3,letter,1,False,False,robot_stimuli\\filler.mp4,0,,,,,,,,,0,131,131,131,,,,,,,,,,,,,899.3682511999796,900.4137798000011,,,,,,,902.4472768999985,902.4472768999985,902.4472768999985,902.4472768999985,902.4472768999985,902.4472768999985,902.4472768999985,902.4472768999985,None,None,None,,,,,,,,,,,899.3682511999796,899.3682511999796,None,,900.4137798000011,900.4137798000011,902.4472768999985,None,899.3682511999796,899.3682511999796,,,0,001,2024-05-23_14h00.42.045,robot_nback_sign,2022.2.5,None,
H,False,3,letter,1,False,False,robot_stimuli\\filler.mp4,0,,,,,,,,,0,132,132,132,,,,,,,,,,,,,902.4472768999985,903.5006833999942,,,,,,,905.5257558999874,905.5257558999874,905.5257558999874,905.5257558999874,905.5257558999874,905.5257558999874,905.5257558999874,905.5257558999874,None,None,None,,,,,,,,,,,902.4472768999985,902.4472768999985,None,,903.5006833999942,903.5006833999942,905.5257558999874,None,902.4472768999985,902.4472768999985,,,0,001,2024-05-23_14h00.42.045,robot_nback_sign,2022.2.5,None,
