sequence,odd_ones,parameter,choices,target,target_idx,condition,stimuli,block,is_block_beginning,is_block_ending,sequence_fnames,target_fname,subject,retraining.thisRepN,retraining.thisTrialN,retraining.thisN,retraining.thisIndex,training.thisRepN,training.thisTrialN,training.thisN,training.thisIndex,training_sequence_loop.thisRepN,training_sequence_loop.thisTrialN,training_sequence_loop.thisN,training_sequence_loop.thisIndex,trials.thisRepN,trials.thisTrialN,trials.thisN,trials.thisIndex,sequence_loop.thisRepN,sequence_loop.thisTrialN,sequence_loop.thisN,sequence_loop.thisIndex,langage_text.started,langage_key.started,langage_key.keys,langage_key.rt,intro_text.started,intro_key.started,intro_key.keys,intro_key.rt,training_intro_text.started,training_intro_key.started,training_intro_key.keys,training_intro_key.rt,polygon.started,cue_before_text.started,training_presentation_letter.started,training_presentation_letter.stopped,recall_key.started,recall_question.started,recall_answer.started,recall_key.keys,recall_key.rt,RSME_labels.started,RSME_labels.stopped,RSME_ticks.started,RSME_ticks.stopped,RSME_text.started,RSME_text.stopped,RSME_key.started,RSME_key.stopped,RSME_ticks.response,RSME_ticks.rt,RSME_key.keys,training_intro_text.stopped,training_intro_key.stopped,polygon.stopped,cue_before_text.stopped,RSME_key.rt,training_presentation_movie.started,experiment_beginning_text.started,experiment_beginning_keys.started,experiment_beginning_key.started,experiment_beginning_key.keys,experiment_beginning_key.rt,block_intro_text.started,block_intro_key.started,block_intro_key.keys,block_intro_key.rt,presentation_letter.started,presentation_letter.stopped,block_intro_text.stopped,block_intro_key.stopped,presentation_movie.started,participant,session,date,expName,psychopyVersion,frameRate,
,,,,,,,,,,,,,,,,,,,,,,,,,,,,,,,,,,11.31721769971773,11.31721769971773,e,2.5316666001453996,,,,,,,,,,,,,,,,,,,,,,,,,,,,,,,,,,,,,,,,,,,,,,,,,14,001,2024-09-09_13h19.26.281,robot_cogshifting_sign,2022.2.5,59.875901168450234,
,,,,,,,,,,,,,,,,,,,,,,,,,,,,,,,,,,,,,,13.904641199856997,13.904641199856997,space,82.07287310017273,,,,,,,,,,,,,,,,,,,,,,,,,,,,,,,,,,,,,,,,,,,,,14,001,2024-09-09_13h19.26.281,robot_cogshifting_sign,2022.2.5,59.875901168450234,
"['blue_top_M_0', 'red_top_P_45', 'blue_left_Z_45', 'blue_top_D_45']","{'color': 'red_top_P_45', 'position': 'blue_left_Z_45', 'orientation': 'blue_top_M_0'}",orientation,['orientation'],blue_top_M_0,0,1,letter,1,True,False,"['robot_stimuli\\\\filler.mp4', 'robot_stimuli\\\\filler.mp4', 'robot_stimuli\\\\filler.mp4', 'robot_stimuli\\\\filler.mp4']",robot_stimuli\\filler.mp4,14,0,0,0,0,0,0,0,0,,,,,,,,,,,,,,,,,,,,,96.03289119992405,96.03289119992405,space,4.799783800262958,100.85906399972737,101.86102059995756,112.71574539970607,114.93672230001539,114.93672230001539,114.93672230001539,114.93672230001539,1,2.673378699924797,117.65875969966874,117.65875969966874,117.65875969966874,117.65875969966874,117.65875969966874,117.65875969966874,117.65875969966874,117.65875969966874,None,None,None,,,,,,,,,,,,,,,,,,,,,14,001,2024-09-09_13h19.26.281,robot_cogshifting_sign,2022.2.5,59.875901168450234,
"['blue_bottom_R_0', 'red_left_H_0', 'red_bottom_X_45', 'red_bottom_S_0']","{'color': 'blue_bottom_R_0', 'position': 'red_left_H_0', 'orientation': 'red_bottom_X_45'}",position,['position'],red_left_H_0,1,1,letter,1,False,False,"['robot_stimuli\\\\filler.mp4', 'robot_stimuli\\\\filler.mp4', 'robot_stimuli\\\\filler.mp4', 'robot_stimuli\\\\filler.mp4']",robot_stimuli\\filler.mp4,14,0,0,0,0,0,1,1,1,,,,,,,,,,,,,,,,,,,,,117.65875969966874,117.65875969966874,None,,117.65875969966874,118.66076099965721,127.2443526997231,129.46535219997168,129.46535219997168,129.46535219997168,129.46535219997168,2,0.7671338999643922,130.25020859995857,130.25020859995857,130.25020859995857,130.25020859995857,130.25020859995857,130.25020859995857,130.25020859995857,130.25020859995857,None,None,None,117.65875969966874,117.65875969966874,,,,,,,,,,,,,,,,,,,14,001,2024-09-09_13h19.26.281,robot_cogshifting_sign,2022.2.5,59.875901168450234,
"['blue_left_Q_45', 'red_left_X_0', 'red_bottom_F_45', 'red_left_S_45']","{'color': 'blue_left_Q_45', 'position': 'red_bottom_F_45', 'orientation': 'red_left_X_0'}",color,['color'],blue_left_Q_45,0,1,letter,1,False,True,"['robot_stimuli\\\\filler.mp4', 'robot_stimuli\\\\filler.mp4', 'robot_stimuli\\\\filler.mp4', 'robot_stimuli\\\\filler.mp4']",robot_stimuli\\filler.mp4,14,0,0,0,0,0,2,2,2,,,,,,,,,,,,,,,,,,,,,130.25020859995857,130.25020859995857,None,,130.25020859995857,131.25218810001388,139.83587679965422,142.05678719980642,142.05678719980642,142.05678719980642,142.05678719980642,1,0.4159602001309395,142.52435279963538,147.43398369988427,142.52435279963538,147.43398369988427,142.52435279963538,147.43398369988427,142.52435279963538,147.43398369988427,0.23809523809523725,2.948989599943161,space,130.25020859995857,130.25020859995857,131.25218810001388,133.3230069000274,4.828431700356305,,,,,,,,,,,,,,,,14,001,2024-09-09_13h19.26.281,robot_cogshifting_sign,2022.2.5,59.875901168450234,
"['blue_top_L_0', 'blue_left_W_0', 'blue_top_F_45', 'red_top_F_0']","{'color': 'red_top_F_0', 'position': 'blue_left_W_0', 'orientation': 'blue_top_F_45'}",position,"['orientation', 'position']",blue_left_W_0,1,2,letter,1,True,False,"['robot_stimuli\\\\filler.mp4', 'robot_stimuli\\\\filler.mp4', 'robot_stimuli\\\\filler.mp4', 'robot_stimuli\\\\filler.mp4']",robot_stimuli\\filler.mp4,14,0,0,0,0,0,3,3,3,,,,,,,,,,,,,,,,,,,,,147.43398369988427,147.43398369988427,space,3.254840500187129,150.7071392997168,151.7091285996139,160.27602980006486,162.3133127000183,162.3133127000183,162.3133127000183,162.3133127000183,2,4.0399451004341245,166.37132749985904,166.37132749985904,166.37132749985904,166.37132749985904,166.37132749985904,166.37132749985904,166.37132749985904,166.37132749985904,None,None,None,,,,,,,,,,,,,,,,,,,,,14,001,2024-09-09_13h19.26.281,robot_cogshifting_sign,2022.2.5,59.875901168450234,
"['blue_bottom_R_0', 'red_bottom_N_0', 'red_bottom_D_45', 'red_top_B_0']","{'color': 'blue_bottom_R_0', 'position': 'red_top_B_0', 'orientation': 'red_bottom_D_45'}",orientation,"['color', 'orientation']",red_bottom_D_45,2,2,letter,1,False,False,"['robot_stimuli\\\\filler.mp4', 'robot_stimuli\\\\filler.mp4', 'robot_stimuli\\\\filler.mp4', 'robot_stimuli\\\\filler.mp4']",robot_stimuli\\filler.mp4,14,0,0,0,0,0,4,4,4,,,,,,,,,,,,,,,,,,,,,166.37132749985904,166.37132749985904,None,,166.37132749985904,167.37325639976189,176.1572382999584,178.37827289989218,178.37827289989218,178.37827289989218,178.37827289989218,3,2.3917875001206994,180.7997051998973,180.7997051998973,180.7997051998973,180.7997051998973,180.7997051998973,180.7997051998973,180.7997051998973,180.7997051998973,None,None,None,166.37132749985904,166.37132749985904,167.37325639976189,169.44464210001752,,,,,,,,,,,,,,,,,14,001,2024-09-09_13h19.26.281,robot_cogshifting_sign,2022.2.5,59.875901168450234,
"['blue_bottom_W_45', 'red_bottom_G_0', 'blue_left_P_0', 'blue_bottom_W_0']","{'color': 'red_bottom_G_0', 'position': 'blue_left_P_0', 'orientation': 'blue_bottom_W_45'}",color,"['color', 'position']",red_bottom_G_0,1,2,letter,1,False,True,"['robot_stimuli\\\\filler.mp4', 'robot_stimuli\\\\filler.mp4', 'robot_stimuli\\\\filler.mp4', 'robot_stimuli\\\\filler.mp4']",robot_stimuli\\filler.mp4,14,0,0,0,0,0,5,5,5,,,,,,,,,,,,,,,,,,,,,180.7997051998973,180.7997051998973,None,,180.7997051998973,181.80165769997984,190.36853959970176,192.60630430001765,192.60630430001765,192.60630430001765,192.60630430001765,2,1.530562199652195,194.19268970005214,198.95214469963685,194.19268970005214,198.95214469963685,194.19268970005214,198.95214469963685,194.19268970005214,198.95214469963685,19.92063492063492,3.6337366001680493,space,180.7997051998973,180.7997051998973,181.80165769997984,183.87243059976026,4.705479799769819,,,,,,,,,,,,,,,,14,001,2024-09-09_13h19.26.281,robot_cogshifting_sign,2022.2.5,59.875901168450234,
"['red_left_K_45', 'blue_right_R_45', 'red_right_W_0', 'red_right_C_45']","{'color': 'blue_right_R_45', 'position': 'red_left_K_45', 'orientation': 'red_right_W_0'}",position,"['color', 'orientation', 'position']",red_left_K_45,0,3,letter,1,True,False,"['robot_stimuli\\\\filler.mp4', 'robot_stimuli\\\\filler.mp4', 'robot_stimuli\\\\filler.mp4', 'robot_stimuli\\\\filler.mp4']",robot_stimuli\\filler.mp4,14,0,0,0,0,0,6,6,6,,,,,,,,,,,,,,,,,,,,,198.95214469963685,198.95214469963685,space,20.8970161001198,219.87660779990256,220.87855280004442,229.44542489992455,231.482802500017,231.482802500017,231.482802500017,231.482802500017,1,1.9982666000723839,233.50344299990684,233.50344299990684,233.50344299990684,233.50344299990684,233.50344299990684,233.50344299990684,233.50344299990684,233.50344299990684,None,None,None,,,,,,,,,,,,,,,,,,,,,14,001,2024-09-09_13h19.26.281,robot_cogshifting_sign,2022.2.5,59.875901168450234,
"['red_left_S_0', 'red_bottom_K_45', 'red_bottom_C_0', 'blue_bottom_N_0']","{'color': 'blue_bottom_N_0', 'position': 'red_left_S_0', 'orientation': 'red_bottom_K_45'}",orientation,"['color', 'orientation', 'position']",red_bottom_K_45,1,3,letter,1,False,False,"['robot_stimuli\\\\filler.mp4', 'robot_stimuli\\\\filler.mp4', 'robot_stimuli\\\\filler.mp4', 'robot_stimuli\\\\filler.mp4']",robot_stimuli\\filler.mp4,14,0,0,0,0,0,7,7,7,,,,,,,,,,,,,,,,,,,,,233.50344299990684,233.50344299990684,None,,233.50344299990684,234.50543219968677,243.07229879964143,245.2770566996187,245.2770566996187,245.2770566996187,245.2770566996187,2,2.3481779997237027,247.6479326998815,247.6479326998815,247.6479326998815,247.6479326998815,247.6479326998815,247.6479326998815,247.6479326998815,247.6479326998815,None,None,None,233.50344299990684,233.50344299990684,234.50543219968677,236.59288199990988,,,,,,,,,,,,,,,,,14,001,2024-09-09_13h19.26.281,robot_cogshifting_sign,2022.2.5,59.875901168450234,
"['red_right_M_45', 'blue_right_F_0', 'red_right_S_0', 'red_left_S_0']","{'color': 'blue_right_F_0', 'position': 'red_left_S_0', 'orientation': 'red_right_M_45'}",color,"['color', 'orientation', 'position']",blue_right_F_0,1,3,letter,1,False,True,"['robot_stimuli\\\\filler.mp4', 'robot_stimuli\\\\filler.mp4', 'robot_stimuli\\\\filler.mp4', 'robot_stimuli\\\\filler.mp4']",robot_stimuli\\filler.mp4,14,0,0,0,0,0,8,8,8,,,,,,,,,,,,,,,,,,,,,247.6479326998815,247.6479326998815,None,,247.6479326998815,248.6499085999094,257.1834475998767,259.20402699988335,259.20402699988335,259.20402699988335,259.20402699988335,2,1.4603959997184575,260.72364489967003,264.998756499961,260.72364489967003,264.998756499961,260.72364489967003,264.998756499961,260.72364489967003,264.998756499961,29.761904761904763,3.383014400023967,space,247.6479326998815,247.6479326998815,248.6499085999094,250.72074129991233,4.221295100171119,,,,,,,,,,,,,,,,14,001,2024-09-09_13h19.26.281,robot_cogshifting_sign,2022.2.5,59.875901168450234,
"['R_Arm_Y_For', 'R_Base_Y_Back', 'R_Arm_Z_For', 'L_Arm_Y_For']","{'laterality': 'L_Arm_Y_For', 'localisation': 'R_Base_Y_Back', 'movement': 'R_Arm_Z_For'}",localisation,['localisation'],R_Base_Y_Back,1,1,robot,2,True,False,"['robot_stimuli\\R_Arm_Y_For.mp4', 'robot_stimuli\\R_Base_Y_Back.mp4', 'robot_stimuli\\R_Arm_Z_For.mp4', 'robot_stimuli\\L_Arm_Y_For.mp4']",robot_stimuli\R_Base_Y_Back.mp4,14,0,0,0,0,0,9,9,9,,,,,,,,,,,,,,,,,,,,,264.998756499961,264.998756499961,space,2.922331599984318,267.93785119988024,268.9398447996937,,,285.7236064998433,285.7236064998433,285.7236064998433,2,5.909132000058889,291.6512202997692,291.6512202997692,291.6512202997692,291.6512202997692,291.6512202997692,291.6512202997692,291.6512202997692,291.6512202997692,None,None,None,,,,,,282.08246369985864,,,,,,,,,,,,,,,14,001,2024-09-09_13h19.26.281,robot_cogshifting_sign,2022.2.5,59.875901168450234,
"['R_Base_Z_For', 'L_Base_Z_Back', 'R_Head_Z_Back', 'R_Base_Y_For']","{'laterality': 'L_Base_Z_Back', 'localisation': 'R_Head_Z_Back', 'movement': 'R_Base_Y_For'}",laterality,['laterality'],L_Base_Z_Back,1,1,robot,2,False,False,"['robot_stimuli\\R_Base_Z_For.mp4', 'robot_stimuli\\L_Base_Z_Back.mp4', 'robot_stimuli\\R_Head_Z_Back.mp4', 'robot_stimuli\\R_Base_Y_For.mp4']",robot_stimuli\L_Base_Z_Back.mp4,14,0,0,0,0,0,10,10,10,,,,,,,,,,,,,,,,,,,,,291.6512202997692,291.6512202997692,None,,291.6512202997692,292.6531990999356,,,309.55308480001986,309.55308480001986,309.55308480001986,2,0.37554700020700693,309.95391879975796,309.95391879975796,309.95391879975796,309.95391879975796,309.95391879975796,309.95391879975796,309.95391879975796,309.95391879975796,None,None,None,291.6512202997692,291.6512202997692,292.6531990999356,294.7573595000431,,305.91262449976057,,,,,,,,,,,,,,,14,001,2024-09-09_13h19.26.281,robot_cogshifting_sign,2022.2.5,59.875901168450234,
"['R_Head_Z_For', 'R_Torso_Y_For', 'R_Head_Y_For', 'L_Head_Y_For']","{'laterality': 'L_Head_Y_For', 'localisation': 'R_Torso_Y_For', 'movement': 'R_Head_Z_For'}",movement,['movement'],R_Head_Z_For,0,1,robot,2,False,True,"['robot_stimuli\\R_Head_Z_For.mp4', 'robot_stimuli\\R_Torso_Y_For.mp4', 'robot_stimuli\\R_Head_Y_For.mp4', 'robot_stimuli\\L_Head_Y_For.mp4']",robot_stimuli\R_Head_Z_For.mp4,14,0,0,0,0,0,11,11,11,,,,,,,,,,,,,,,,,,,,,309.95391879975796,309.95391879975796,None,,309.95391879975796,310.956000499893,,,327.88918119994923,327.88918119994923,327.88918119994923,1,1.1445180997252464,329.09156839968637,334.802802299615,329.09156839968637,334.802802299615,329.09156839968637,334.802802299615,329.09156839968637,334.802802299615,12.301587301587306,3.3826866997405887,space,309.95391879975796,309.95391879975796,310.956000499893,313.0433739,5.661065599881113,324.24871549988165,,,,,,,,,,,,,,,14,001,2024-09-09_13h19.26.281,robot_cogshifting_sign,2022.2.5,59.875901168450234,
"['R_Base_Y_Back', 'L_Arm_Y_Back', 'L_Base_X_For', 'L_Base_Y_Back']","{'laterality': 'R_Base_Y_Back', 'localisation': 'L_Arm_Y_Back', 'movement': 'L_Base_X_For'}",localisation,"['laterality', 'localisation']",L_Arm_Y_Back,1,2,robot,2,True,False,"['robot_stimuli\\R_Base_Y_Back.mp4', 'robot_stimuli\\L_Arm_Y_Back.mp4', 'robot_stimuli\\L_Base_X_For.mp4', 'robot_stimuli\\L_Base_Y_Back.mp4']",robot_stimuli\L_Arm_Y_Back.mp4,14,0,0,0,0,0,12,12,12,,,,,,,,,,,,,,,,,,,,,334.802802299615,334.802802299615,space,3.5582226999104023,338.3932340997271,339.39518309989944,,,356.1615172000602,356.1615172000602,356.1615172000602,3,7.960712100379169,364.1439028996974,364.1439028996974,364.1439028996974,364.1439028996974,364.1439028996974,364.1439028996974,364.1439028996974,364.1439028996974,None,None,None,,,,,,352.5877828998491,,,,,,,,,,,,,,,14,001,2024-09-09_13h19.26.281,robot_cogshifting_sign,2022.2.5,59.875901168450234,
"['R_Torso_X_For', 'R_Base_X_For', 'R_Base_Z_For', 'L_Base_X_Back']","{'laterality': 'L_Base_X_Back', 'localisation': 'R_Torso_X_For', 'movement': 'R_Base_Z_For'}",laterality,"['laterality', 'localisation']",L_Base_X_Back,3,2,robot,2,False,False,"['robot_stimuli\\R_Torso_X_For.mp4', 'robot_stimuli\\R_Base_X_For.mp4', 'robot_stimuli\\R_Base_Z_For.mp4', 'robot_stimuli\\L_Base_X_Back.mp4']",robot_stimuli\L_Base_X_Back.mp4,14,0,0,0,0,0,13,13,13,,,,,,,,,,,,,,,,,,,,,364.1439028996974,364.1439028996974,None,,364.1439028996974,365.14588449988514,,,381.89551679976285,381.89551679976285,381.89551679976285,4,5.729679000098258,387.65686299977824,387.65686299977824,387.65686299977824,387.65686299977824,387.65686299977824,387.65686299977824,387.65686299977824,387.65686299977824,None,None,None,364.1439028996974,364.1439028996974,365.14588449988514,367.23334769997746,,378.2884313999675,,,,,,,,,,,,,,,14,001,2024-09-09_13h19.26.281,robot_cogshifting_sign,2022.2.5,59.875901168450234,
"['R_Head_X_For', 'L_Head_Z_Back', 'L_Head_X_For', 'L_Arm_X_Back']","{'laterality': 'R_Head_X_For', 'localisation': 'L_Arm_X_Back', 'movement': 'L_Head_Z_Back'}",movement,"['laterality', 'movement']",L_Head_Z_Back,1,2,robot,2,False,True,"['robot_stimuli\\R_Head_X_For.mp4', 'robot_stimuli\\L_Head_Z_Back.mp4', 'robot_stimuli\\L_Head_X_For.mp4', 'robot_stimuli\\L_Arm_X_Back.mp4']",robot_stimuli\L_Head_Z_Back.mp4,14,0,0,0,0,0,14,14,14,,,,,,,,,,,,,,,,,,,,,387.65686299977824,387.65686299977824,None,,387.65686299977824,388.6588324997574,,,405.4752829996869,405.4752829996869,405.4752829996869,2,4.981412199791521,410.51854509999976,414.3761101998389,410.51854509999976,414.3761101998389,410.51854509999976,414.3761101998389,410.51854509999976,414.3761101998389,35.95238095238095,2.714815099723637,space,387.65686299977824,387.65686299977824,388.6588324997574,390.7462897999212,3.793816300109029,401.8347698999569,,,,,,,,,,,,,,,14,001,2024-09-09_13h19.26.281,robot_cogshifting_sign,2022.2.5,59.875901168450234,
"['R_Torso_X_For', 'R_Torso_Z_For', 'L_Torso_Z_For', 'R_Arm_Z_Back']","{'laterality': 'L_Torso_Z_For', 'localisation': 'R_Arm_Z_Back', 'movement': 'R_Torso_X_For'}",localisation,"['laterality', 'localisation', 'movement']",R_Arm_Z_Back,3,3,robot,2,True,False,"['robot_stimuli\\R_Torso_X_For.mp4', 'robot_stimuli\\R_Torso_Z_For.mp4', 'robot_stimuli\\L_Torso_Z_For.mp4', 'robot_stimuli\\R_Arm_Z_Back.mp4']",robot_stimuli\R_Arm_Z_Back.mp4,14,0,0,0,0,0,15,15,15,,,,,,,,,,,,,,,,,,,,,414.3761101998389,414.3761101998389,space,1.264642100315541,415.66195189999416,416.66393100004643,,,433.56388629972935,433.56388629972935,433.56388629972935,4,2.8460925999097526,436.43618729989976,436.43618729989976,436.43618729989976,436.43618729989976,436.43618729989976,436.43618729989976,436.43618729989976,436.43618729989976,None,None,None,,,,,,429.92340719979256,,,,,,,,,,,,,,,14,001,2024-09-09_13h19.26.281,robot_cogshifting_sign,2022.2.5,59.875901168450234,
"['L_Arm_Z_For', 'L_Arm_X_Back', 'L_Torso_Z_For', 'R_Arm_Z_For']","{'laterality': 'R_Arm_Z_For', 'localisation': 'L_Torso_Z_For', 'movement': 'L_Arm_X_Back'}",movement,"['laterality', 'localisation', 'movement']",L_Arm_X_Back,1,3,robot,2,False,False,"['robot_stimuli\\L_Arm_Z_For.mp4', 'robot_stimuli\\L_Arm_X_Back.mp4', 'robot_stimuli\\L_Torso_Z_For.mp4', 'robot_stimuli\\R_Arm_Z_For.mp4']",robot_stimuli\L_Arm_X_Back.mp4,14,0,0,0,0,0,16,16,16,,,,,,,,,,,,,,,,,,,,,436.43618729989976,436.43618729989976,None,,436.43618729989976,437.4381849998608,,,454.35483990004286,454.35483990004286,454.35483990004286,3,7.758147299755365,462.13678850000724,462.13678850000724,462.13678850000724,462.13678850000724,462.13678850000724,462.13678850000724,462.13678850000724,462.13678850000724,None,None,None,436.43618729989976,436.43618729989976,437.4381849998608,439.5423181997612,,450.7143361000344,,,,,,,,,,,,,,,14,001,2024-09-09_13h19.26.281,robot_cogshifting_sign,2022.2.5,59.875901168450234,
"['L_Head_Y_For', 'L_Torso_Y_Back', 'R_Head_Y_Back', 'L_Head_X_For']","{'laterality': 'R_Head_Y_Back', 'localisation': 'L_Torso_Y_Back', 'movement': 'L_Head_X_For'}",laterality,"['laterality', 'localisation', 'movement']",R_Head_Y_Back,2,3,robot,2,False,True,"['robot_stimuli\\L_Head_Y_For.mp4', 'robot_stimuli\\L_Torso_Y_Back.mp4', 'robot_stimuli\\R_Head_Y_Back.mp4', 'robot_stimuli\\L_Head_X_For.mp4']",robot_stimuli\R_Head_Y_Back.mp4,14,0,0,0,0,0,17,17,17,,,,,,,,,,,,,,,,,,,,,462.13678850000724,462.13678850000724,None,,462.13678850000724,463.138773099985,,,479.8382804999128,479.8382804999128,479.8382804999128,3,6.738352699670941,486.63503069989383,490.4592166999355,486.63503069989383,490.4592166999355,486.63503069989383,490.4592166999355,486.63503069989383,490.4592166999355,39.285714285714285,2.8987324996851385,space,462.13678850000724,462.13678850000724,463.138773099985,465.2263445998542,3.773668700363487,476.26461189985275,,,,,,,,,,,,,,,14,001,2024-09-09_13h19.26.281,robot_cogshifting_sign,2022.2.5,59.875901168450234,
,,,,,,,,,,,,,,0,0,0,0,,,,,,,,,,,,,,,,,,,,,,,,,,,,,,,,,,,,,,,,,,,,,,,,,,,,,,,490.4592166999355,490.4592166999355,490.4592166999355,c,3.32548540038988,,,,,,,,,,14,001,2024-09-09_13h19.26.281,robot_cogshifting_sign,2022.2.5,59.875901168450234,
"['blue_left_G_0', 'red_left_L_0', 'blue_top_V_0', 'blue_left_Z_45']","{'color': 'red_left_L_0', 'position': 'blue_top_V_0', 'orientation': 'blue_left_Z_45'}",position,"['color', 'position']",blue_top_V_0,2,2,letter,1,True,False,"['robot_stimuli\\\\filler.mp4', 'robot_stimuli\\\\filler.mp4', 'robot_stimuli\\\\filler.mp4', 'robot_stimuli\\\\filler.mp4']",robot_stimuli\\filler.mp4,14,,,,,,,,,,,,,0,0,0,0,,,,,,,,,,,,,,,,,,498.1076436997391,,,509.04578869976103,509.04578869976103,509.04578869976103,3,1.5223865997977555,510.5988562996499,510.5988562996499,510.5988562996499,510.5988562996499,510.5988562996499,510.5988562996499,510.5988562996499,510.5988562996499,None,None,None,,,,,,,,,,,,493.84920889977366,493.84920889977366,space,4.231063200160861,507.0253276997246,509.04578869976103,,,,14,001,2024-09-09_13h19.26.281,robot_cogshifting_sign,2022.2.5,59.875901168450234,
"['blue_top_R_45', 'red_right_D_45', 'red_top_H_45', 'red_top_P_0']","{'color': 'blue_top_R_45', 'position': 'red_right_D_45', 'orientation': 'red_top_P_0'}",position,"['color', 'position']",red_right_D_45,1,2,letter,1,False,False,"['robot_stimuli\\\\filler.mp4', 'robot_stimuli\\\\filler.mp4', 'robot_stimuli\\\\filler.mp4', 'robot_stimuli\\\\filler.mp4']",robot_stimuli\\filler.mp4,14,,,,,,,,,,,,,0,1,1,1,,,,,,,,,,,,,,,,,,510.5988562996499,,,521.3366651996039,521.3366651996039,521.3366651996039,2,2.4961462998762727,523.8582741999999,523.8582741999999,523.8582741999999,523.8582741999999,523.8582741999999,523.8582741999999,523.8582741999999,523.8582741999999,None,None,None,,,,512.6696345000528,,,,,,,,510.5988562996499,510.5988562996499,None,,519.3161804997362,521.3366651996039,510.5988562996499,510.5988562996499,,14,001,2024-09-09_13h19.26.281,robot_cogshifting_sign,2022.2.5,59.875901168450234,
"['blue_left_P_45', 'red_left_M_45', 'red_top_H_45', 'red_left_Z_0']","{'color': 'blue_left_P_45', 'position': 'red_top_H_45', 'orientation': 'red_left_Z_0'}",color,"['color', 'orientation']",blue_left_P_45,0,2,letter,1,False,False,"['robot_stimuli\\\\filler.mp4', 'robot_stimuli\\\\filler.mp4', 'robot_stimuli\\\\filler.mp4', 'robot_stimuli\\\\filler.mp4']",robot_stimuli\\filler.mp4,14,,,,,,,,,,,,,0,2,2,2,,,,,,,,,,,,,,,,,,523.8582741999999,,,534.5794198997319,534.5794198997319,534.5794198997319,1,1.4050696999765933,536.0155384996906,536.0155384996906,536.0155384996906,536.0155384996906,536.0155384996906,536.0155384996906,536.0155384996906,536.0155384996906,None,None,None,,,,525.9123889999464,,,,,,,,523.8582741999999,523.8582741999999,None,,532.3750872998498,534.5794198997319,523.8582741999999,523.8582741999999,,14,001,2024-09-09_13h19.26.281,robot_cogshifting_sign,2022.2.5,59.875901168450234,
"['blue_right_W_45', 'blue_top_Z_0', 'blue_right_F_0', 'red_right_K_0']","{'color': 'red_right_K_0', 'position': 'blue_top_Z_0', 'orientation': 'blue_right_W_45'}",color,"['color', 'position']",red_right_K_0,3,2,letter,1,False,False,"['robot_stimuli\\\\filler.mp4', 'robot_stimuli\\\\filler.mp4', 'robot_stimuli\\\\filler.mp4', 'robot_stimuli\\\\filler.mp4']",robot_stimuli\\filler.mp4,14,,,,,,,,,,,,,0,3,3,3,,,,,,,,,,,,,,,,,,536.0155384996906,,,547.1541563998908,547.1541563998908,547.1541563998908,1,3.574363300111145,550.7612614999525,550.7612614999525,550.7612614999525,550.7612614999525,550.7612614999525,550.7612614999525,550.7612614999525,550.7612614999525,None,None,None,,,,538.0863464996219,,,,,,,,536.0155384996906,536.0155384996906,None,,544.9499184000306,547.1541563998908,536.0155384996906,536.0155384996906,,14,001,2024-09-09_13h19.26.281,robot_cogshifting_sign,2022.2.5,59.875901168450234,
"['blue_left_J_45', 'red_left_H_45', 'blue_left_W_0', 'blue_bottom_Z_45']","{'color': 'red_left_H_45', 'position': 'blue_bottom_Z_45', 'orientation': 'blue_left_W_0'}",color,"['color', 'position']",red_left_H_45,1,2,letter,1,False,False,"['robot_stimuli\\\\filler.mp4', 'robot_stimuli\\\\filler.mp4', 'robot_stimuli\\\\filler.mp4', 'robot_stimuli\\\\filler.mp4']",robot_stimuli\\filler.mp4,14,,,,,,,,,,,,,0,4,4,4,,,,,,,,,,,,,,,,,,550.7612614999525,,,561.2986412998289,561.2986412998289,561.2986412998289,2,1.2068026000633836,562.5344161000103,562.5344161000103,562.5344161000103,562.5344161000103,562.5344161000103,562.5344161000103,562.5344161000103,562.5344161000103,None,None,None,,,,552.8321634996682,,,,,,,,550.7612614999525,550.7612614999525,None,,559.2780927000567,561.2986412998289,550.7612614999525,550.7612614999525,,14,001,2024-09-09_13h19.26.281,robot_cogshifting_sign,2022.2.5,59.875901168450234,
"['blue_right_V_45', 'red_right_J_45', 'red_right_F_0', 'red_bottom_L_45']","{'color': 'blue_right_V_45', 'position': 'red_bottom_L_45', 'orientation': 'red_right_F_0'}",orientation,"['orientation', 'position']",red_right_F_0,2,2,letter,1,False,False,"['robot_stimuli\\\\filler.mp4', 'robot_stimuli\\\\filler.mp4', 'robot_stimuli\\\\filler.mp4', 'robot_stimuli\\\\filler.mp4']",robot_stimuli\\filler.mp4,14,,,,,,,,,,,,,0,5,5,5,,,,,,,,,,,,,,,,,,562.5344161000103,,,573.0885811997578,573.0885811997578,573.0885811997578,3,1.4878591001033783,574.6081705000252,574.6081705000252,574.6081705000252,574.6081705000252,574.6081705000252,574.6081705000252,574.6081705000252,574.6081705000252,None,None,None,,,,564.605209399946,,,,,,,,562.5344161000103,562.5344161000103,None,,571.0513569000177,573.0885811997578,562.5344161000103,562.5344161000103,,14,001,2024-09-09_13h19.26.281,robot_cogshifting_sign,2022.2.5,59.875901168450234,
"['red_top_D_45', 'blue_bottom_H_45', 'red_bottom_F_45', 'red_bottom_T_0']","{'color': 'blue_bottom_H_45', 'position': 'red_top_D_45', 'orientation': 'red_bottom_T_0'}",orientation,"['orientation', 'position']",red_bottom_T_0,3,2,letter,1,False,False,"['robot_stimuli\\\\filler.mp4', 'robot_stimuli\\\\filler.mp4', 'robot_stimuli\\\\filler.mp4', 'robot_stimuli\\\\filler.mp4']",robot_stimuli\\filler.mp4,14,,,,,,,,,,,,,0,6,6,6,,,,,,,,,,,,,,,,,,574.6081705000252,,,585.3460092996247,585.3460092996247,585.3460092996247,4,2.0386216999031603,587.4167301999405,587.4167301999405,587.4167301999405,587.4167301999405,587.4167301999405,587.4167301999405,587.4167301999405,587.4167301999405,None,None,None,,,,576.67896499997,,,,,,,,574.6081705000252,574.6081705000252,None,,583.3253853996284,585.3460092996247,574.6081705000252,574.6081705000252,,14,001,2024-09-09_13h19.26.281,robot_cogshifting_sign,2022.2.5,59.875901168450234,
"['blue_right_W_0', 'red_right_Z_45', 'red_top_H_0', 'red_right_Z_0']","{'color': 'blue_right_W_0', 'position': 'red_top_H_0', 'orientation': 'red_right_Z_45'}",position,"['color', 'position']",red_top_H_0,2,2,letter,1,False,False,"['robot_stimuli\\\\filler.mp4', 'robot_stimuli\\\\filler.mp4', 'robot_stimuli\\\\filler.mp4', 'robot_stimuli\\\\filler.mp4']",robot_stimuli\\filler.mp4,14,,,,,,,,,,,,,0,7,7,7,,,,,,,,,,,,,,,,,,587.4167301999405,,,598.3716195998713,598.3716195998713,598.3716195998713,3,1.2371036997064948,599.640798300039,599.640798300039,599.640798300039,599.640798300039,599.640798300039,599.640798300039,599.640798300039,599.640798300039,None,None,None,,,,589.4874946000054,,,,,,,,587.4167301999405,587.4167301999405,None,,596.1506527997553,598.3716195998713,587.4167301999405,587.4167301999405,,14,001,2024-09-09_13h19.26.281,robot_cogshifting_sign,2022.2.5,59.875901168450234,
"['red_bottom_N_0', 'blue_bottom_B_0', 'red_bottom_C_45', 'red_right_D_0']","{'color': 'blue_bottom_B_0', 'position': 'red_right_D_0', 'orientation': 'red_bottom_C_45'}",orientation,"['orientation', 'position']",red_bottom_C_45,2,2,letter,1,False,True,"['robot_stimuli\\\\filler.mp4', 'robot_stimuli\\\\filler.mp4', 'robot_stimuli\\\\filler.mp4', 'robot_stimuli\\\\filler.mp4']",robot_stimuli\\filler.mp4,14,,,,,,,,,,,,,0,8,8,8,,,,,,,,,,,,,,,,,,599.640798300039,,,610.5956826000474,610.5956826000474,610.5956826000474,3,2.1015098998323083,612.7499388996512,616.5072971996851,612.7499388996512,616.5072971996851,612.7499388996512,616.5072971996851,612.7499388996512,616.5072971996851,9.603174603174605,2.931961899623275,space,,,,601.7115922998637,3.6912117996253073,,,,,,,599.640798300039,599.640798300039,None,,608.3747457000427,610.5956826000474,599.640798300039,599.640798300039,,14,001,2024-09-09_13h19.26.281,robot_cogshifting_sign,2022.2.5,59.875901168450234,
"['blue_left_P_45', 'red_left_H_0', 'red_bottom_J_45', 'red_left_H_45']","{'color': 'blue_left_P_45', 'position': 'red_bottom_J_45', 'orientation': 'red_left_H_0'}",position,"['color', 'orientation', 'position']",red_bottom_J_45,2,3,letter,1,True,False,"['robot_stimuli\\\\filler.mp4', 'robot_stimuli\\\\filler.mp4', 'robot_stimuli\\\\filler.mp4', 'robot_stimuli\\\\filler.mp4']",robot_stimuli\\filler.mp4,14,,,,,,,,,,,,,0,9,9,9,,,,,,,,,,,,,,,,,,618.4945613997988,,,628.8649482000619,628.8649482000619,628.8649482000619,3,1.9442015998065472,630.8355903998017,630.8355903998017,630.8355903998017,630.8355903998017,630.8355903998017,630.8355903998017,630.8355903998017,630.8355903998017,None,None,None,,,,,,,,,,,,616.5072971996851,616.5072971996851,space,1.9654708998277783,626.8277418999933,628.8649482000619,,,,14,001,2024-09-09_13h19.26.281,robot_cogshifting_sign,2022.2.5,59.875901168450234,
"['red_right_G_45', 'blue_top_K_45', 'blue_right_V_45', 'blue_right_Q_0']","{'color': 'red_right_G_45', 'position': 'blue_top_K_45', 'orientation': 'blue_right_Q_0'}",position,"['color', 'orientation', 'position']",blue_top_K_45,1,3,letter,1,False,False,"['robot_stimuli\\\\filler.mp4', 'robot_stimuli\\\\filler.mp4', 'robot_stimuli\\\\filler.mp4', 'robot_stimuli\\\\filler.mp4']",robot_stimuli\\filler.mp4,14,,,,,,,,,,,,,0,10,10,10,,,,,,,,,,,,,,,,,,630.8355903998017,,,641.7737460997887,641.7737460997887,641.7737460997887,2,2.562685300130397,644.3621479999274,644.3621479999274,644.3621479999274,644.3621479999274,644.3621479999274,644.3621479999274,644.3621479999274,644.3621479999274,None,None,None,,,,632.9063255996443,,,,,,,,630.8355903998017,630.8355903998017,None,,639.5694113997743,641.7737460997887,630.8355903998017,630.8355903998017,,14,001,2024-09-09_13h19.26.281,robot_cogshifting_sign,2022.2.5,59.875901168450234,
"['red_top_B_45', 'red_bottom_S_45', 'red_top_V_0', 'blue_top_B_45']","{'color': 'blue_top_B_45', 'position': 'red_bottom_S_45', 'orientation': 'red_top_V_0'}",orientation,"['color', 'orientation', 'position']",red_top_V_0,2,3,letter,1,False,False,"['robot_stimuli\\\\filler.mp4', 'robot_stimuli\\\\filler.mp4', 'robot_stimuli\\\\filler.mp4', 'robot_stimuli\\\\filler.mp4']",robot_stimuli\\filler.mp4,14,,,,,,,,,,,,,0,11,11,11,,,,,,,,,,,,,,,,,,644.3621479999274,,,655.0999534996226,655.0999534996226,655.0999534996226,3,4.164396500214934,659.2915618997067,659.2915618997067,659.2915618997067,659.2915618997067,659.2915618997067,659.2915618997067,659.2915618997067,659.2915618997067,None,None,None,,,,646.4329544999637,,,,,,,,644.3621479999274,644.3621479999274,None,,653.0793967000209,655.0999534996226,644.3621479999274,644.3621479999274,,14,001,2024-09-09_13h19.26.281,robot_cogshifting_sign,2022.2.5,59.875901168450234,
"['red_top_X_0', 'red_bottom_P_45', 'blue_bottom_C_0', 'red_bottom_X_0']","{'color': 'blue_bottom_C_0', 'position': 'red_top_X_0', 'orientation': 'red_bottom_P_45'}",orientation,"['color', 'orientation', 'position']",red_bottom_P_45,1,3,letter,1,False,False,"['robot_stimuli\\\\filler.mp4', 'robot_stimuli\\\\filler.mp4', 'robot_stimuli\\\\filler.mp4', 'robot_stimuli\\\\filler.mp4']",robot_stimuli\\filler.mp4,14,,,,,,,,,,,,,0,12,12,12,,,,,,,,,,,,,,,,,,659.2915618997067,,,670.0293732997961,670.0293732997961,670.0293732997961,4,7.115339500363916,677.1767575000413,677.1767575000413,677.1767575000413,677.1767575000413,677.1767575000413,677.1767575000413,677.1767575000413,677.1767575000413,None,None,None,,,,661.3623269996606,,,,,,,,659.2915618997067,659.2915618997067,None,,668.0087178000249,670.0293732997961,659.2915618997067,659.2915618997067,,14,001,2024-09-09_13h19.26.281,robot_cogshifting_sign,2022.2.5,59.875901168450234,
"['blue_bottom_G_0', 'blue_right_K_0', 'red_bottom_W_0', 'blue_bottom_H_45']","{'color': 'red_bottom_W_0', 'position': 'blue_right_K_0', 'orientation': 'blue_bottom_H_45'}",color,"['color', 'orientation', 'position']",red_bottom_W_0,2,3,letter,1,False,False,"['robot_stimuli\\\\filler.mp4', 'robot_stimuli\\\\filler.mp4', 'robot_stimuli\\\\filler.mp4', 'robot_stimuli\\\\filler.mp4']",robot_stimuli\\filler.mp4,14,,,,,,,,,,,,,0,13,13,13,,,,,,,,,,,,,,,,,,677.1767575000413,,,688.1149182999507,688.1149182999507,688.1149182999507,3,1.390879699960351,689.5344129996374,689.5344129996374,689.5344129996374,689.5344129996374,689.5344129996374,689.5344129996374,689.5344129996374,689.5344129996374,None,None,None,,,,679.2475360999815,,,,,,,,677.1767575000413,677.1767575000413,None,,685.8939626999199,688.1149182999507,677.1767575000413,677.1767575000413,,14,001,2024-09-09_13h19.26.281,robot_cogshifting_sign,2022.2.5,59.875901168450234,
"['blue_top_S_45', 'blue_top_V_0', 'blue_left_C_45', 'red_top_T_45']","{'color': 'red_top_T_45', 'position': 'blue_left_C_45', 'orientation': 'blue_top_V_0'}",orientation,"['color', 'orientation', 'position']",blue_top_V_0,1,3,letter,1,False,False,"['robot_stimuli\\\\filler.mp4', 'robot_stimuli\\\\filler.mp4', 'robot_stimuli\\\\filler.mp4', 'robot_stimuli\\\\filler.mp4']",robot_stimuli\\filler.mp4,14,,,,,,,,,,,,,0,14,14,14,,,,,,,,,,,,,,,,,,689.5344129996374,,,700.0885466998443,700.0885466998443,700.0885466998443,2,4.584045699797571,704.6976639996283,704.6976639996283,704.6976639996283,704.6976639996283,704.6976639996283,704.6976639996283,704.6976639996283,704.6976639996283,None,None,None,,,,691.5889168996364,,,,,,,,689.5344129996374,689.5344129996374,None,,698.0512987999246,700.0885466998443,689.5344129996374,689.5344129996374,,14,001,2024-09-09_13h19.26.281,robot_cogshifting_sign,2022.2.5,59.875901168450234,
"['blue_top_C_45', 'blue_left_R_45', 'red_left_K_45', 'blue_left_B_0']","{'color': 'red_left_K_45', 'position': 'blue_top_C_45', 'orientation': 'blue_left_B_0'}",color,"['color', 'orientation', 'position']",red_left_K_45,2,3,letter,1,False,False,"['robot_stimuli\\\\filler.mp4', 'robot_stimuli\\\\filler.mp4', 'robot_stimuli\\\\filler.mp4', 'robot_stimuli\\\\filler.mp4']",robot_stimuli\\filler.mp4,14,,,,,,,,,,,,,0,15,15,15,,,,,,,,,,,,,,,,,,704.6976639996283,,,715.6358020999469,715.6358020999469,715.6358020999469,3,2.4926950000226498,718.1574291996658,718.1574291996658,718.1574291996658,718.1574291996658,718.1574291996658,718.1574291996658,718.1574291996658,718.1574291996658,None,None,None,,,,706.7684128996916,,,,,,,,704.6976639996283,704.6976639996283,None,,713.6152340997942,715.6358020999469,704.6976639996283,704.6976639996283,,14,001,2024-09-09_13h19.26.281,robot_cogshifting_sign,2022.2.5,59.875901168450234,
"['red_left_B_45', 'red_bottom_S_45', 'red_bottom_D_0', 'blue_bottom_L_45']","{'color': 'blue_bottom_L_45', 'position': 'red_left_B_45', 'orientation': 'red_bottom_D_0'}",color,"['color', 'orientation', 'position']",blue_bottom_L_45,3,3,letter,1,False,False,"['robot_stimuli\\\\filler.mp4', 'robot_stimuli\\\\filler.mp4', 'robot_stimuli\\\\filler.mp4', 'robot_stimuli\\\\filler.mp4']",robot_stimuli\\filler.mp4,14,,,,,,,,,,,,,0,16,16,16,,,,,,,,,,,,,,,,,,718.1574291996658,,,729.0788978999481,729.0788978999481,729.0788978999481,4,1.5771918999962509,730.6820963998325,730.6820963998325,730.6820963998325,730.6820963998325,730.6820963998325,730.6820963998325,730.6820963998325,730.6820963998325,None,None,None,,,,720.2114931996912,,,,,,,,718.1574291996658,718.1574291996658,None,,726.8746008998714,729.0788978999481,718.1574291996658,718.1574291996658,,14,001,2024-09-09_13h19.26.281,robot_cogshifting_sign,2022.2.5,59.875901168450234,
"['blue_right_F_45', 'red_top_B_45', 'red_right_R_45', 'red_right_Z_0']","{'color': 'blue_right_F_45', 'position': 'red_top_B_45', 'orientation': 'red_right_Z_0'}",position,"['color', 'orientation', 'position']",red_top_B_45,1,3,letter,1,False,True,"['robot_stimuli\\\\filler.mp4', 'robot_stimuli\\\\filler.mp4', 'robot_stimuli\\\\filler.mp4', 'robot_stimuli\\\\filler.mp4']",robot_stimuli\\filler.mp4,14,,,,,,,,,,,,,0,17,17,17,,,,,,,,,,,,,,,,,,730.6820963998325,,,741.2195028997958,741.2195028997958,741.2195028997958,2,1.9975588000379503,743.2735052998178,748.4837650000118,743.2735052998178,748.4837650000118,743.2735052998178,748.4837650000118,743.2735052998178,748.4837650000118,29.444444444444446,3.583472500089556,space,,,,732.7361280997284,5.151626999955624,,,,,,,730.6820963998325,730.6820963998325,None,,738.9985439996235,741.2195028997958,730.6820963998325,730.6820963998325,,14,001,2024-09-09_13h19.26.281,robot_cogshifting_sign,2022.2.5,59.875901168450234,
"['blue_left_K_0', 'red_left_G_0', 'blue_left_W_45', 'blue_right_D_0']","{'color': 'red_left_G_0', 'position': 'blue_right_D_0', 'orientation': 'blue_left_W_45'}",color,['color'],red_left_G_0,1,1,letter,1,True,False,"['robot_stimuli\\\\filler.mp4', 'robot_stimuli\\\\filler.mp4', 'robot_stimuli\\\\filler.mp4', 'robot_stimuli\\\\filler.mp4']",robot_stimuli\\filler.mp4,14,,,,,,,,,,,,,0,18,18,18,,,,,,,,,,,,,,,,,,754.7628126000054,,,765.3336319997907,765.3336319997907,765.3336319997907,2,0.26665200013667345,765.617510699667,765.617510699667,765.617510699667,765.617510699667,765.617510699667,765.617510699667,765.617510699667,765.617510699667,None,None,None,,,,,,,,,,,,748.4837650000118,748.4837650000118,space,6.260483900085092,763.3133894996718,765.3336319997907,,,,14,001,2024-09-09_13h19.26.281,robot_cogshifting_sign,2022.2.5,59.875901168450234,
"['blue_top_G_0', 'red_top_B_45', 'blue_top_X_45', 'blue_left_B_45']","{'color': 'red_top_B_45', 'position': 'blue_left_B_45', 'orientation': 'blue_top_G_0'}",color,['color'],red_top_B_45,1,1,letter,1,False,False,"['robot_stimuli\\\\filler.mp4', 'robot_stimuli\\\\filler.mp4', 'robot_stimuli\\\\filler.mp4', 'robot_stimuli\\\\filler.mp4']",robot_stimuli\\filler.mp4,14,,,,,,,,,,,,,0,19,19,19,,,,,,,,,,,,,,,,,,765.617510699667,,,776.1549120000564,776.1549120000564,776.1549120000564,2,0.3498312998563051,776.5223174998537,776.5223174998537,776.5223174998537,776.5223174998537,776.5223174998537,776.5223174998537,776.5223174998537,776.5223174998537,None,None,None,,,,767.688323199749,,,,,,,,765.617510699667,765.617510699667,None,,774.1344011998735,776.1549120000564,765.617510699667,765.617510699667,,14,001,2024-09-09_13h19.26.281,robot_cogshifting_sign,2022.2.5,59.875901168450234,
"['red_right_F_45', 'red_right_C_0', 'blue_right_K_45', 'red_top_J_45']","{'color': 'blue_right_K_45', 'position': 'red_top_J_45', 'orientation': 'red_right_C_0'}",position,['position'],red_top_J_45,3,1,letter,1,False,False,"['robot_stimuli\\\\filler.mp4', 'robot_stimuli\\\\filler.mp4', 'robot_stimuli\\\\filler.mp4', 'robot_stimuli\\\\filler.mp4']",robot_stimuli\\filler.mp4,14,,,,,,,,,,,,,0,20,20,20,,,,,,,,,,,,,,,,,,776.5223174998537,,,787.2768093999475,787.2768093999475,787.2768093999475,4,0.29933169996365905,787.5941051999107,787.5941051999107,787.5941051999107,787.5941051999107,787.5941051999107,787.5941051999107,787.5941051999107,787.5941051999107,None,None,None,,,,778.5770938997157,,,,,,,,776.5223174998537,776.5223174998537,None,,785.0558322998695,787.2768093999475,776.5223174998537,776.5223174998537,,14,001,2024-09-09_13h19.26.281,robot_cogshifting_sign,2022.2.5,59.875901168450234,
"['red_right_J_0', 'blue_left_Q_0', 'red_left_H_0', 'red_left_M_45']","{'color': 'blue_left_Q_0', 'position': 'red_right_J_0', 'orientation': 'red_left_M_45'}",orientation,['orientation'],red_left_M_45,3,1,letter,1,False,False,"['robot_stimuli\\\\filler.mp4', 'robot_stimuli\\\\filler.mp4', 'robot_stimuli\\\\filler.mp4', 'robot_stimuli\\\\filler.mp4']",robot_stimuli\\filler.mp4,14,,,,,,,,,,,,,0,21,21,21,,,,,,,,,,,,,,,,,,787.5941051999107,,,798.1482126996852,798.1482126996852,798.1482126996852,4,0.508103699889034,798.6825796999037,798.6825796999037,798.6825796999037,798.6825796999037,798.6825796999037,798.6825796999037,798.6825796999037,798.6825796999037,None,None,None,,,,789.6648583998904,,,,,,,,787.5941051999107,787.5941051999107,None,,796.1276560998522,798.1482126996852,787.5941051999107,787.5941051999107,,14,001,2024-09-09_13h19.26.281,robot_cogshifting_sign,2022.2.5,59.875901168450234,
"['red_left_M_0', 'red_top_J_45', 'red_left_J_45', 'blue_left_X_45']","{'color': 'blue_left_X_45', 'position': 'red_top_J_45', 'orientation': 'red_left_M_0'}",position,['position'],red_top_J_45,1,1,letter,1,False,False,"['robot_stimuli\\\\filler.mp4', 'robot_stimuli\\\\filler.mp4', 'robot_stimuli\\\\filler.mp4', 'robot_stimuli\\\\filler.mp4']",robot_stimuli\\filler.mp4,14,,,,,,,,,,,,,0,22,22,22,,,,,,,,,,,,,,,,,,798.6825796999037,,,809.0196115998551,809.0196115998551,809.0196115998551,2,0.3736772001720965,809.4203817998059,809.4203817998059,809.4203817998059,809.4203817998059,809.4203817998059,809.4203817998059,809.4203817998059,809.4203817998059,None,None,None,,,,800.7368327998556,,,,,,,,798.6825796999037,798.6825796999037,None,,806.9991795998067,809.0196115998551,798.6825796999037,798.6825796999037,,14,001,2024-09-09_13h19.26.281,robot_cogshifting_sign,2022.2.5,59.875901168450234,
"['red_bottom_M_45', 'blue_bottom_X_45', 'blue_bottom_T_0', 'blue_left_G_45']","{'color': 'red_bottom_M_45', 'position': 'blue_left_G_45', 'orientation': 'blue_bottom_T_0'}",orientation,['orientation'],blue_bottom_T_0,2,1,letter,1,False,False,"['robot_stimuli\\\\filler.mp4', 'robot_stimuli\\\\filler.mp4', 'robot_stimuli\\\\filler.mp4', 'robot_stimuli\\\\filler.mp4']",robot_stimuli\\filler.mp4,14,,,,,,,,,,,,,0,23,23,23,,,,,,,,,,,,,,,,,,809.4203817998059,,,820.1749129998498,820.1749129998498,820.1749129998498,3,0.297813699580729,820.4921969999559,820.4921969999559,820.4921969999559,820.4921969999559,820.4921969999559,820.4921969999559,820.4921969999559,820.4921969999559,None,None,None,,,,811.4911376000382,,,,,,,,809.4203817998059,809.4203817998059,None,,817.953950099647,820.1749129998498,809.4203817998059,809.4203817998059,,14,001,2024-09-09_13h19.26.281,robot_cogshifting_sign,2022.2.5,59.875901168450234,
"['red_top_K_45', 'blue_top_Z_0', 'blue_top_Q_45', 'blue_right_Q_45']","{'color': 'red_top_K_45', 'position': 'blue_right_Q_45', 'orientation': 'blue_top_Z_0'}",orientation,['orientation'],blue_top_Z_0,1,1,letter,1,False,False,"['robot_stimuli\\\\filler.mp4', 'robot_stimuli\\\\filler.mp4', 'robot_stimuli\\\\filler.mp4', 'robot_stimuli\\\\filler.mp4']",robot_stimuli\\filler.mp4,14,,,,,,,,,,,,,0,24,24,24,,,,,,,,,,,,,,,,,,820.4921969999559,,,831.2132814000361,831.2132814000361,831.2132814000361,2,0.25903169997036457,831.4974203999154,831.4974203999154,831.4974203999154,831.4974203999154,831.4974203999154,831.4974203999154,831.4974203999154,831.4974203999154,None,None,None,,,,822.5629936996847,,,,,,,,820.4921969999559,820.4921969999559,None,,829.0090537997894,831.2132814000361,820.4921969999559,820.4921969999559,,14,001,2024-09-09_13h19.26.281,robot_cogshifting_sign,2022.2.5,59.875901168450234,
"['red_bottom_K_0', 'blue_right_R_0', 'blue_bottom_R_45', 'blue_bottom_Z_0']","{'color': 'red_bottom_K_0', 'position': 'blue_right_R_0', 'orientation': 'blue_bottom_R_45'}",position,['position'],blue_right_R_0,1,1,letter,1,False,False,"['robot_stimuli\\\\filler.mp4', 'robot_stimuli\\\\filler.mp4', 'robot_stimuli\\\\filler.mp4', 'robot_stimuli\\\\filler.mp4']",robot_stimuli\\filler.mp4,14,,,,,,,,,,,,,0,25,25,25,,,,,,,,,,,,,,,,,,831.4974203999154,,,842.6524895997718,842.6524895997718,842.6524895997718,2,0.2920623002573848,842.9698045998812,842.9698045998812,842.9698045998812,842.9698045998812,842.9698045998812,842.9698045998812,842.9698045998812,842.9698045998812,None,None,None,,,,833.5679295998998,,,,,,,,831.4974203999154,831.4974203999154,None,,840.4315098999068,842.6524895997718,831.4974203999154,831.4974203999154,,14,001,2024-09-09_13h19.26.281,robot_cogshifting_sign,2022.2.5,59.875901168450234,
"['red_left_F_45', 'blue_bottom_N_45', 'blue_left_Z_0', 'blue_left_Q_45']","{'color': 'red_left_F_45', 'position': 'blue_bottom_N_45', 'orientation': 'blue_left_Z_0'}",color,['color'],red_left_F_45,0,1,letter,1,False,True,"['robot_stimuli\\\\filler.mp4', 'robot_stimuli\\\\filler.mp4', 'robot_stimuli\\\\filler.mp4', 'robot_stimuli\\\\filler.mp4']",robot_stimuli\\filler.mp4,14,,,,,,,,,,,,,0,26,26,26,,,,,,,,,,,,,,,,,,842.9698045998812,,,853.9080312997103,853.9080312997103,853.9080312997103,1,0.25215560011565685,854.2252487000078,858.4836279996671,854.2252487000078,858.4836279996671,854.2252487000078,858.4836279996671,854.2252487000078,858.4836279996671,6.428571428571431,3.0989178000018,space,,,,845.0405541998334,4.183581600431353,,,,,,,842.9698045998812,842.9698045998812,None,,851.686979399994,853.9080312997103,842.9698045998812,842.9698045998812,,14,001,2024-09-09_13h19.26.281,robot_cogshifting_sign,2022.2.5,59.875901168450234,
"['R_Base_X_For', 'R_Arm_X_For', 'L_Base_X_For', 'R_Base_Z_Back']","{'laterality': 'L_Base_X_For', 'localisation': 'R_Arm_X_For', 'movement': 'R_Base_Z_Back'}",laterality,"['laterality', 'localisation']",L_Base_X_For,2,2,robot,2,True,False,"['robot_stimuli\\R_Base_X_For.mp4', 'robot_stimuli\\R_Arm_X_For.mp4', 'robot_stimuli\\L_Base_X_For.mp4', 'robot_stimuli\\R_Base_Z_Back.mp4']",robot_stimuli\L_Base_X_For.mp4,14,,,,,,,,,,,,,0,27,27,27,,,,,,,,,,,,,,,,,,862.4581587999128,,,879.0908625996672,879.0908625996672,879.0908625996672,3,1.941209599841386,881.061396099627,881.061396099627,881.061396099627,881.061396099627,881.061396099627,881.061396099627,881.061396099627,881.061396099627,None,None,None,,,,,,,,,,,,858.4836279996671,858.4836279996671,space,3.949482399970293,,,,,875.5506095997989,14,001,2024-09-09_13h19.26.281,robot_cogshifting_sign,2022.2.5,59.875901168450234,
"['L_Torso_Y_Back', 'R_Torso_Z_Back', 'R_Arm_Y_Back', 'R_Torso_Y_For']","{'laterality': 'L_Torso_Y_Back', 'localisation': 'R_Arm_Y_Back', 'movement': 'R_Torso_Z_Back'}",localisation,"['localisation', 'movement']",R_Arm_Y_Back,2,2,robot,2,False,False,"['robot_stimuli\\L_Torso_Y_Back.mp4', 'robot_stimuli\\R_Torso_Z_Back.mp4', 'robot_stimuli\\R_Arm_Y_Back.mp4', 'robot_stimuli\\R_Torso_Y_For.mp4']",robot_stimuli\R_Arm_Y_Back.mp4,14,,,,,,,,,,,,,0,28,28,28,,,,,,,,,,,,,,,,,,881.061396099627,,,897.827739099972,897.827739099972,897.827739099972,3,5.077771699987352,902.9377679997124,902.9377679997124,902.9377679997124,902.9377679997124,902.9377679997124,902.9377679997124,902.9377679997124,902.9377679997124,None,None,None,,,,883.1488818000071,,,,,,,,881.061396099627,881.061396099627,None,,,,881.061396099627,881.061396099627,894.1706011998467,14,001,2024-09-09_13h19.26.281,robot_cogshifting_sign,2022.2.5,59.875901168450234,
"['R_Torso_X_Back', 'R_Arm_X_For', 'L_Arm_X_Back', 'R_Arm_Z_Back']","{'laterality': 'L_Arm_X_Back', 'localisation': 'R_Torso_X_Back', 'movement': 'R_Arm_Z_Back'}",movement,"['laterality', 'movement']",R_Arm_Z_Back,3,2,robot,2,False,False,"['robot_stimuli\\R_Torso_X_Back.mp4', 'robot_stimuli\\R_Arm_X_For.mp4', 'robot_stimuli\\L_Arm_X_Back.mp4', 'robot_stimuli\\R_Arm_Z_Back.mp4']",robot_stimuli\R_Arm_Z_Back.mp4,14,,,,,,,,,,,,,0,29,29,29,,,,,,,,,,,,,,,,,,902.9377679997124,,,919.8377350000665,919.8377350000665,919.8377350000665,4,1.9142475998960435,921.7748884996399,921.7748884996399,921.7748884996399,921.7748884996399,921.7748884996399,921.7748884996399,921.7748884996399,921.7748884996399,None,None,None,,,,905.0252612000331,,,,,,,,902.9377679997124,902.9377679997124,None,,,,902.9377679997124,902.9377679997124,916.1805814998224,14,001,2024-09-09_13h19.26.281,robot_cogshifting_sign,2022.2.5,59.875901168450234,
"['L_Base_Y_For', 'R_Arm_Y_For', 'L_Arm_Z_Back', 'L_Arm_Y_Back']","{'laterality': 'R_Arm_Y_For', 'localisation': 'L_Base_Y_For', 'movement': 'L_Arm_Z_Back'}",localisation,"['localisation', 'movement']",L_Base_Y_For,0,2,robot,2,False,False,"['robot_stimuli\\L_Base_Y_For.mp4', 'robot_stimuli\\R_Arm_Y_For.mp4', 'robot_stimuli\\L_Arm_Z_Back.mp4', 'robot_stimuli\\L_Arm_Y_Back.mp4']",robot_stimuli\L_Base_Y_For.mp4,14,,,,,,,,,,,,,0,30,30,30,,,,,,,,,,,,,,,,,,921.7748884996399,,,938.4410063000396,938.4410063000396,938.4410063000396,1,8.52764240000397,946.9911930998787,946.9911930998787,946.9911930998787,946.9911930998787,946.9911930998787,946.9911930998787,946.9911930998787,946.9911930998787,None,None,None,,,,923.8790682000108,,,,,,,,921.7748884996399,921.7748884996399,None,,,,921.7748884996399,921.7748884996399,934.8005386996083,14,001,2024-09-09_13h19.26.281,robot_cogshifting_sign,2022.2.5,59.875901168450234,
"['L_Torso_Y_Back', 'L_Head_Y_For', 'R_Head_Y_Back', 'L_Head_X_Back']","{'laterality': 'R_Head_Y_Back', 'localisation': 'L_Torso_Y_Back', 'movement': 'L_Head_X_Back'}",movement,"['laterality', 'movement']",L_Head_X_Back,3,2,robot,2,False,False,"['robot_stimuli\\L_Torso_Y_Back.mp4', 'robot_stimuli\\L_Head_Y_For.mp4', 'robot_stimuli\\R_Head_Y_Back.mp4', 'robot_stimuli\\L_Head_X_Back.mp4']",robot_stimuli\L_Head_X_Back.mp4,14,,,,,,,,,,,,,0,31,31,31,,,,,,,,,,,,,,,,,,946.9911930998787,,,963.7407941999845,963.7407941999845,963.7407941999845,4,1.6674410998821259,965.4274765998125,965.4274765998125,965.4274765998125,965.4274765998125,965.4274765998125,965.4274765998125,965.4274765998125,965.4274765998125,None,None,None,,,,949.0786707997322,,,,,,,,946.9911930998787,946.9911930998787,None,,,,946.9911930998787,946.9911930998787,960.1003405996598,14,001,2024-09-09_13h19.26.281,robot_cogshifting_sign,2022.2.5,59.875901168450234,
"['L_Head_Y_For', 'R_Head_Z_Back', 'L_Head_Z_Back', 'L_Torso_Z_Back']","{'laterality': 'R_Head_Z_Back', 'localisation': 'L_Torso_Z_Back', 'movement': 'L_Head_Y_For'}",laterality,"['laterality', 'localisation']",R_Head_Z_Back,1,2,robot,2,False,False,"['robot_stimuli\\L_Head_Y_For.mp4', 'robot_stimuli\\R_Head_Z_Back.mp4', 'robot_stimuli\\L_Head_Z_Back.mp4', 'robot_stimuli\\L_Torso_Z_Back.mp4']",robot_stimuli\R_Head_Z_Back.mp4,14,,,,,,,,,,,,,0,32,32,32,,,,,,,,,,,,,,,,,,965.4274765998125,,,982.2104989998043,982.2104989998043,982.2104989998043,2,2.8152850000187755,985.0494216997176,985.0494216997176,985.0494216997176,985.0494216997176,985.0494216997176,985.0494216997176,985.0494216997176,985.0494216997176,None,None,None,,,,967.4986039996147,,,,,,,,965.4274765998125,965.4274765998125,None,,,,965.4274765998125,965.4274765998125,978.7036093999632,14,001,2024-09-09_13h19.26.281,robot_cogshifting_sign,2022.2.5,59.875901168450234,
"['R_Torso_Z_Back', 'R_Head_Z_Back', 'R_Torso_Y_For', 'L_Torso_Z_Back']","{'laterality': 'L_Torso_Z_Back', 'localisation': 'R_Head_Z_Back', 'movement': 'R_Torso_Y_For'}",laterality,"['laterality', 'localisation']",L_Torso_Z_Back,3,2,robot,2,False,False,"['robot_stimuli\\R_Torso_Z_Back.mp4', 'robot_stimuli\\R_Head_Z_Back.mp4', 'robot_stimuli\\R_Torso_Y_For.mp4', 'robot_stimuli\\L_Torso_Z_Back.mp4']",robot_stimuli\L_Torso_Z_Back.mp4,14,,,,,,,,,,,,,0,33,33,33,,,,,,,,,,,,,,,,,,985.0494216997176,,,1001.7990696998313,1001.7990696998313,1001.7990696998313,4,3.2653902997262776,1005.0888859997503,1005.0888859997503,1005.0888859997503,1005.0888859997503,1005.0888859997503,1005.0888859997503,1005.0888859997503,1005.0888859997503,None,None,None,,,,987.1368956998922,,,,,,,,985.0494216997176,985.0494216997176,None,,,,985.0494216997176,985.0494216997176,998.2921651997603,14,001,2024-09-09_13h19.26.281,robot_cogshifting_sign,2022.2.5,59.875901168450234,
"['L_Head_Z_Back', 'R_Base_Z_For', 'L_Base_X_Back', 'L_Base_Z_For']","{'laterality': 'R_Base_Z_For', 'localisation': 'L_Head_Z_Back', 'movement': 'L_Base_X_Back'}",localisation,"['laterality', 'localisation']",L_Head_Z_Back,0,2,robot,2,False,False,"['robot_stimuli\\L_Head_Z_Back.mp4', 'robot_stimuli\\R_Base_Z_For.mp4', 'robot_stimuli\\L_Base_X_Back.mp4', 'robot_stimuli\\L_Base_Z_For.mp4']",robot_stimuli\L_Head_Z_Back.mp4,14,,,,,,,,,,,,,0,34,34,34,,,,,,,,,,,,,,,,,,1005.0888859997503,,,1021.955401299987,1021.955401299987,1021.955401299987,1,6.261685499921441,1028.234436699655,1028.234436699655,1028.234436699655,1028.234436699655,1028.234436699655,1028.234436699655,1028.234436699655,1028.234436699655,None,None,None,,,,1007.1764054996893,,,,,,,,1005.0888859997503,1005.0888859997503,None,,,,1005.0888859997503,1005.0888859997503,1018.2982271998189,14,001,2024-09-09_13h19.26.281,robot_cogshifting_sign,2022.2.5,59.875901168450234,
"['R_Torso_Y_Back', 'L_Torso_X_Back', 'R_Torso_X_For', 'R_Base_X_Back']","{'laterality': 'L_Torso_X_Back', 'localisation': 'R_Base_X_Back', 'movement': 'R_Torso_Y_Back'}",movement,"['laterality', 'movement']",R_Torso_Y_Back,0,2,robot,2,False,True,"['robot_stimuli\\R_Torso_Y_Back.mp4', 'robot_stimuli\\L_Torso_X_Back.mp4', 'robot_stimuli\\R_Torso_X_For.mp4', 'robot_stimuli\\R_Base_X_Back.mp4']",robot_stimuli\R_Torso_Y_Back.mp4,14,,,,,,,,,,,,,0,35,35,35,,,,,,,,,,,,,,,,,,1028.234436699655,,,1045.1343751996756,1045.1343751996756,1045.1343751996756,1,1.4656871003098786,1046.6540473997593,1049.7100303997286,1046.6540473997593,1049.7100303997286,1046.6540473997593,1049.7100303997286,1046.6540473997593,1049.7100303997286,39.44444444444444,2.3307000999338925,space,,,,1030.321888699662,3.001854100264609,,,,,,,1028.234436699655,1028.234436699655,None,,,,1028.234436699655,1028.234436699655,1041.4938731999137,14,001,2024-09-09_13h19.26.281,robot_cogshifting_sign,2022.2.5,59.875901168450234,
"['L_Head_Y_For', 'L_Base_X_Back', 'L_Base_Y_For', 'R_Base_Y_Back']","{'laterality': 'R_Base_Y_Back', 'localisation': 'L_Head_Y_For', 'movement': 'L_Base_X_Back'}",localisation,['localisation'],L_Head_Y_For,0,1,robot,2,True,False,"['robot_stimuli\\L_Head_Y_For.mp4', 'robot_stimuli\\L_Base_X_Back.mp4', 'robot_stimuli\\L_Base_Y_For.mp4', 'robot_stimuli\\R_Base_Y_Back.mp4']",robot_stimuli\L_Head_Y_For.mp4,14,,,,,,,,,,,,,0,36,36,36,,,,,,,,,,,,,,,,,,1082.8085352997296,,,1099.574879499618,1099.574879499618,1099.574879499618,1,0.35398020036518574,1099.9589593997225,1099.9589593997225,1099.9589593997225,1099.9589593997225,1099.9589593997225,1099.9589593997225,1099.9589593997225,1099.9589593997225,None,None,None,,,,,,,,,,,,1049.7100303997286,1049.7100303997286,space,33.07425010018051,,,,,1095.917626499664,14,001,2024-09-09_13h19.26.281,robot_cogshifting_sign,2022.2.5,59.875901168450234,
"['R_Head_Y_For', 'L_Base_Y_For', 'R_Base_X_For', 'R_Base_Y_For']","{'laterality': 'L_Base_Y_For', 'localisation': 'R_Head_Y_For', 'movement': 'R_Base_X_For'}",laterality,['laterality'],L_Base_Y_For,1,1,robot,2,False,False,"['robot_stimuli\\R_Head_Y_For.mp4', 'robot_stimuli\\L_Base_Y_For.mp4', 'robot_stimuli\\R_Base_X_For.mp4', 'robot_stimuli\\R_Base_Y_For.mp4']",robot_stimuli\L_Base_Y_For.mp4,14,,,,,,,,,,,,,0,37,37,37,,,,,,,,,,,,,,,,,,1099.9589593997225,,,1116.6417620996945,1116.6417620996945,1116.6417620996945,2,0.17503560008481145,1116.842168299947,1116.842168299947,1116.842168299947,1116.842168299947,1116.842168299947,1116.842168299947,1116.842168299947,1116.842168299947,None,None,None,,,,1102.0464392998256,,,,,,,,1099.9589593997225,1099.9589593997225,None,,,,1099.9589593997225,1099.9589593997225,1113.0016189999878,14,001,2024-09-09_13h19.26.281,robot_cogshifting_sign,2022.2.5,59.875901168450234,
"['L_Torso_Z_Back', 'L_Base_X_For', 'R_Torso_X_For', 'L_Torso_X_For']","{'laterality': 'R_Torso_X_For', 'localisation': 'L_Base_X_For', 'movement': 'L_Torso_Z_Back'}",laterality,['laterality'],R_Torso_X_For,2,1,robot,2,False,False,"['robot_stimuli\\L_Torso_Z_Back.mp4', 'robot_stimuli\\L_Base_X_For.mp4', 'robot_stimuli\\R_Torso_X_For.mp4', 'robot_stimuli\\L_Torso_X_For.mp4']",robot_stimuli\R_Torso_X_For.mp4,14,,,,,,,,,,,,,0,38,38,38,,,,,,,,,,,,,,,,,,1116.842168299947,,,1133.5250162999146,1133.5250162999146,1133.5250162999146,3,0.22007609996944666,1133.7755101998337,1133.7755101998337,1133.7755101998337,1133.7755101998337,1133.7755101998337,1133.7755101998337,1133.7755101998337,1133.7755101998337,None,None,None,,,,1118.9296559998766,,,,,,,,1116.842168299947,1116.842168299947,None,,,,1116.842168299947,1116.842168299947,1129.8846092997119,14,001,2024-09-09_13h19.26.281,robot_cogshifting_sign,2022.2.5,59.875901168450234,
"['R_Arm_Y_Back', 'R_Arm_X_For', 'R_Base_X_For', 'L_Arm_X_Back']","{'laterality': 'L_Arm_X_Back', 'localisation': 'R_Base_X_For', 'movement': 'R_Arm_Y_Back'}",localisation,['localisation'],R_Base_X_For,2,1,robot,2,False,False,"['robot_stimuli\\R_Arm_Y_Back.mp4', 'robot_stimuli\\R_Arm_X_For.mp4', 'robot_stimuli\\R_Base_X_For.mp4', 'robot_stimuli\\L_Arm_X_Back.mp4']",robot_stimuli\R_Base_X_For.mp4,14,,,,,,,,,,,,,0,39,39,39,,,,,,,,,,,,,,,,,,1133.7755101998337,,,1150.5752495997585,1150.5752495997585,1150.5752495997585,3,0.7447597002610564,1151.34344459977,1151.34344459977,1151.34344459977,1151.34344459977,1151.34344459977,1151.34344459977,1151.34344459977,1151.34344459977,None,None,None,,,,1135.862991800066,,,,,,,,1133.7755101998337,1133.7755101998337,None,,,,1133.7755101998337,1133.7755101998337,1146.9347554999404,14,001,2024-09-09_13h19.26.281,robot_cogshifting_sign,2022.2.5,59.875901168450234,
"['R_Torso_Z_For', 'L_Base_Z_For', 'R_Base_X_Back', 'R_Base_Z_For']","{'laterality': 'L_Base_Z_For', 'localisation': 'R_Torso_Z_For', 'movement': 'R_Base_X_Back'}",movement,['movement'],R_Base_X_Back,2,1,robot,2,False,False,"['robot_stimuli\\R_Torso_Z_For.mp4', 'robot_stimuli\\L_Base_Z_For.mp4', 'robot_stimuli\\R_Base_X_Back.mp4', 'robot_stimuli\\R_Base_Z_For.mp4']",robot_stimuli\R_Base_X_Back.mp4,14,,,,,,,,,,,,,0,40,40,40,,,,,,,,,,,,,,,,,,1151.34344459977,,,1168.2266655997373,1168.2266655997373,1168.2266655997373,3,0.4057863000780344,1168.6608434999362,1168.6608434999362,1168.6608434999362,1168.6608434999362,1168.6608434999362,1168.6608434999362,1168.6608434999362,1168.6608434999362,None,None,None,,,,1153.4308747998439,,,,,,,,1151.34344459977,1151.34344459977,None,,,,1151.34344459977,1151.34344459977,1164.5861935997382,14,001,2024-09-09_13h19.26.281,robot_cogshifting_sign,2022.2.5,59.875901168450234,
"['R_Arm_X_Back', 'L_Arm_Z_For', 'L_Torso_X_For', 'L_Arm_X_Back']","{'laterality': 'R_Arm_X_Back', 'localisation': 'L_Torso_X_For', 'movement': 'L_Arm_Z_For'}",localisation,['localisation'],L_Torso_X_For,2,1,robot,2,False,False,"['robot_stimuli\\R_Arm_X_Back.mp4', 'robot_stimuli\\L_Arm_Z_For.mp4', 'robot_stimuli\\L_Torso_X_For.mp4', 'robot_stimuli\\L_Arm_X_Back.mp4']",robot_stimuli\L_Torso_X_For.mp4,14,,,,,,,,,,,,,0,41,41,41,,,,,,,,,,,,,,,,,,1168.6608434999362,,,1185.5440850998275,1185.5440850998275,1185.5440850998275,3,1.528405399993062,1187.097149099689,1187.097149099689,1187.097149099689,1187.097149099689,1187.097149099689,1187.097149099689,1187.097149099689,1187.097149099689,None,None,None,,,,1170.7483447999693,,,,,,,,1168.6608434999362,1168.6608434999362,None,,,,1168.6608434999362,1168.6608434999362,1181.9036305998452,14,001,2024-09-09_13h19.26.281,robot_cogshifting_sign,2022.2.5,59.875901168450234,
"['L_Arm_Z_Back', 'R_Torso_Z_Back', 'L_Torso_X_For', 'L_Torso_Z_For']","{'laterality': 'R_Torso_Z_Back', 'localisation': 'L_Arm_Z_Back', 'movement': 'L_Torso_X_For'}",laterality,['laterality'],R_Torso_Z_Back,1,1,robot,2,False,False,"['robot_stimuli\\L_Arm_Z_Back.mp4', 'robot_stimuli\\R_Torso_Z_Back.mp4', 'robot_stimuli\\L_Torso_X_For.mp4', 'robot_stimuli\\L_Torso_Z_For.mp4']",robot_stimuli\R_Torso_Z_Back.mp4,14,,,,,,,,,,,,,0,42,42,42,,,,,,,,,,,,,,,,,,1187.097149099689,,,1203.9970960998908,1203.9970960998908,1203.9970960998908,2,1.236376500222832,1205.2662610998377,1205.2662610998377,1205.2662610998377,1205.2662610998377,1205.2662610998377,1205.2662610998377,1205.2662610998377,1205.2662610998377,None,None,None,,,,1189.184638199862,,,,,,,,1187.097149099689,1187.097149099689,None,,,,1187.097149099689,1187.097149099689,1200.356609699782,14,001,2024-09-09_13h19.26.281,robot_cogshifting_sign,2022.2.5,59.875901168450234,
"['L_Torso_X_Back', 'L_Torso_Z_For', 'R_Torso_Z_For', 'L_Arm_Z_For']","{'laterality': 'R_Torso_Z_For', 'localisation': 'L_Arm_Z_For', 'movement': 'L_Torso_X_Back'}",movement,['movement'],L_Torso_X_Back,0,1,robot,2,False,False,"['robot_stimuli\\L_Torso_X_Back.mp4', 'robot_stimuli\\L_Torso_Z_For.mp4', 'robot_stimuli\\R_Torso_Z_For.mp4', 'robot_stimuli\\L_Arm_Z_For.mp4']",robot_stimuli\L_Torso_X_Back.mp4,14,,,,,,,,,,,,,0,43,43,43,,,,,,,,,,,,,,,,,,1205.2662610998377,,,1222.1662022997625,1222.1662022997625,1222.1662022997625,1,0.8657939997501671,1223.0512536996976,1223.0512536996976,1223.0512536996976,1223.0512536996976,1223.0512536996976,1223.0512536996976,1223.0512536996976,1223.0512536996976,None,None,None,,,,1207.3537403997034,,,,,,,,1205.2662610998377,1205.2662610998377,None,,,,1205.2662610998377,1205.2662610998377,1218.5090117999353,14,001,2024-09-09_13h19.26.281,robot_cogshifting_sign,2022.2.5,59.875901168450234,
"['L_Torso_Z_Back', 'R_Torso_Z_For', 'R_Head_Z_For', 'R_Torso_X_Back']","{'laterality': 'L_Torso_Z_Back', 'localisation': 'R_Head_Z_For', 'movement': 'R_Torso_X_Back'}",movement,['movement'],R_Torso_X_Back,3,1,robot,2,False,True,"['robot_stimuli\\L_Torso_Z_Back.mp4', 'robot_stimuli\\R_Torso_Z_For.mp4', 'robot_stimuli\\R_Head_Z_For.mp4', 'robot_stimuli\\R_Torso_X_Back.mp4']",robot_stimuli\R_Torso_X_Back.mp4,14,,,,,,,,,,,,,0,44,44,44,,,,,,,,,,,,,,,,,,1223.0512536996976,,,1239.8342923000455,1239.8342923000455,1239.8342923000455,4,0.7831985000520945,1240.669295199681,1245.4787347996607,1240.669295199681,1245.4787347996607,1240.669295199681,1245.4787347996607,1240.669295199681,1245.4787347996607,19.12698412698413,3.7834389000199735,space,,,,1225.1387449996546,4.738658200018108,,,,,,,1223.0512536996976,1223.0512536996976,None,,,,1223.0512536996976,1223.0512536996976,1236.193782299757,14,001,2024-09-09_13h19.26.281,robot_cogshifting_sign,2022.2.5,59.875901168450234,
"['L_Base_X_Back', 'R_Base_X_For', 'R_Head_X_Back', 'R_Base_Z_Back']","{'laterality': 'L_Base_X_Back', 'localisation': 'R_Head_X_Back', 'movement': 'R_Base_Z_Back'}",movement,"['laterality', 'localisation', 'movement']",R_Base_Z_Back,3,3,robot,2,True,False,"['robot_stimuli\\L_Base_X_Back.mp4', 'robot_stimuli\\R_Base_X_For.mp4', 'robot_stimuli\\R_Head_X_Back.mp4', 'robot_stimuli\\R_Base_Z_Back.mp4']",robot_stimuli\R_Base_Z_Back.mp4,14,,,,,,,,,,,,,0,45,45,45,,,,,,,,,,,,,,,,,,1254.8471752000041,,,1271.5133008998819,1271.5133008998819,1271.5133008998819,4,4.030406800098717,1275.5713259000331,1275.5713259000331,1275.5713259000331,1275.5713259000331,1275.5713259000331,1275.5713259000331,1275.5713259000331,1275.5713259000331,None,None,None,,,,,,,,,,,,1245.4787347996607,1245.4787347996607,space,9.337055999785662,,,,,1267.9730202998035,14,001,2024-09-09_13h19.26.281,robot_cogshifting_sign,2022.2.5,59.875901168450234,
"['L_Head_X_For', 'L_Head_Z_For', 'R_Head_X_For', 'L_Torso_X_For']","{'laterality': 'R_Head_X_For', 'localisation': 'L_Torso_X_For', 'movement': 'L_Head_Z_For'}",movement,"['laterality', 'localisation', 'movement']",L_Head_Z_For,1,3,robot,2,False,False,"['robot_stimuli\\L_Head_X_For.mp4', 'robot_stimuli\\L_Head_Z_For.mp4', 'robot_stimuli\\R_Head_X_For.mp4', 'robot_stimuli\\L_Torso_X_For.mp4']",robot_stimuli\L_Head_Z_For.mp4,14,,,,,,,,,,,,,0,46,46,46,,,,,,,,,,,,,,,,,,1275.5713259000331,,,1292.4211442996748,1292.4211442996748,1292.4211442996748,2,6.114679099991918,1298.5665592998266,1298.5665592998266,1298.5665592998266,1298.5665592998266,1298.5665592998266,1298.5665592998266,1298.5665592998266,1298.5665592998266,None,None,None,,,,1277.6587735000066,,,,,,,,1275.5713259000331,1275.5713259000331,None,,,,1275.5713259000331,1275.5713259000331,1288.7806726000272,14,001,2024-09-09_13h19.26.281,robot_cogshifting_sign,2022.2.5,59.875901168450234,
"['L_Arm_Y_Back', 'R_Base_Y_For', 'R_Arm_X_For', 'R_Arm_Y_Back']","{'laterality': 'L_Arm_Y_Back', 'localisation': 'R_Base_Y_For', 'movement': 'R_Arm_X_For'}",localisation,"['laterality', 'localisation', 'movement']",R_Base_Y_For,1,3,robot,2,False,False,"['robot_stimuli\\L_Arm_Y_Back.mp4', 'robot_stimuli\\R_Base_Y_For.mp4', 'robot_stimuli\\R_Arm_X_For.mp4', 'robot_stimuli\\R_Arm_Y_Back.mp4']",robot_stimuli\R_Base_Y_For.mp4,14,,,,,,,,,,,,,0,47,47,47,,,,,,,,,,,,,,,,,,1298.5665592998266,,,1315.449819699861,1315.449819699861,1315.449819699861,2,4.893920900300145,1320.3761636996642,1320.3761636996642,1320.3761636996642,1320.3761636996642,1320.3761636996642,1320.3761636996642,1320.3761636996642,1320.3761636996642,None,None,None,,,,1300.6540840999223,,,,,,,,1298.5665592998266,1298.5665592998266,None,,,,1298.5665592998266,1298.5665592998266,1311.80932819983,14,001,2024-09-09_13h19.26.281,robot_cogshifting_sign,2022.2.5,59.875901168450234,
"['R_Base_Y_For', 'R_Arm_Z_For', 'R_Base_Z_Back', 'L_Base_Z_Back']","{'laterality': 'L_Base_Z_Back', 'localisation': 'R_Arm_Z_For', 'movement': 'R_Base_Y_For'}",laterality,"['laterality', 'localisation', 'movement']",L_Base_Z_Back,3,3,robot,2,False,False,"['robot_stimuli\\R_Base_Y_For.mp4', 'robot_stimuli\\R_Arm_Z_For.mp4', 'robot_stimuli\\R_Base_Z_Back.mp4', 'robot_stimuli\\L_Base_Z_Back.mp4']",robot_stimuli\L_Base_Z_Back.mp4,14,,,,,,,,,,,,,0,48,48,48,,,,,,,,,,,,,,,,,,1320.3761636996642,,,1337.175915400032,1337.175915400032,1337.175915400032,4,3.240879100281745,1340.4490145999007,1340.4490145999007,1340.4490145999007,1340.4490145999007,1340.4490145999007,1340.4490145999007,1340.4490145999007,1340.4490145999007,None,None,None,,,,1322.4636378996074,,,,,,,,1320.3761636996642,1320.3761636996642,None,,,,1320.3761636996642,1320.3761636996642,1333.5187051999383,14,001,2024-09-09_13h19.26.281,robot_cogshifting_sign,2022.2.5,59.875901168450234,
"['R_Torso_Z_For', 'L_Torso_Y_For', 'R_Torso_Y_Back', 'R_Head_Y_Back']","{'laterality': 'L_Torso_Y_For', 'localisation': 'R_Head_Y_Back', 'movement': 'R_Torso_Z_For'}",localisation,"['laterality', 'localisation', 'movement']",R_Head_Y_Back,3,3,robot,2,False,False,"['robot_stimuli\\R_Torso_Z_For.mp4', 'robot_stimuli\\L_Torso_Y_For.mp4', 'robot_stimuli\\R_Torso_Y_Back.mp4', 'robot_stimuli\\R_Head_Y_Back.mp4']",robot_stimuli\R_Head_Y_Back.mp4,14,,,,,,,,,,,,,0,49,49,49,,,,,,,,,,,,,,,,,,1340.4490145999007,,,1357.3322280999273,1357.3322280999273,1357.3322280999273,4,1.851918799802661,1359.2025819998235,1359.2025819998235,1359.2025819998235,1359.2025819998235,1359.2025819998235,1359.2025819998235,1359.2025819998235,1359.2025819998235,None,None,None,,,,1342.5364576997235,,,,,,,,1340.4490145999007,1340.4490145999007,None,,,,1340.4490145999007,1340.4490145999007,1353.6917800996453,14,001,2024-09-09_13h19.26.281,robot_cogshifting_sign,2022.2.5,59.875901168450234,
"['L_Arm_Z_Back', 'R_Arm_Y_Back', 'L_Arm_Y_For', 'L_Head_Y_For']","{'laterality': 'R_Arm_Y_Back', 'localisation': 'L_Head_Y_For', 'movement': 'L_Arm_Z_Back'}",movement,"['laterality', 'localisation', 'movement']",L_Arm_Z_Back,0,3,robot,2,False,False,"['robot_stimuli\\L_Arm_Z_Back.mp4', 'robot_stimuli\\R_Arm_Y_Back.mp4', 'robot_stimuli\\L_Arm_Y_For.mp4', 'robot_stimuli\\L_Head_Y_For.mp4']",robot_stimuli\L_Arm_Z_Back.mp4,14,,,,,,,,,,,,,0,50,50,50,,,,,,,,,,,,,,,,,,1359.2025819998235,,,1376.102511699777,1376.102511699777,1376.102511699777,2,5.025320199783891,1381.14578599995,1381.14578599995,1381.14578599995,1381.14578599995,1381.14578599995,1381.14578599995,1381.14578599995,1381.14578599995,None,None,None,,,,1361.2900338000618,,,,,,,,1359.2025819998235,1359.2025819998235,None,,,,1359.2025819998235,1359.2025819998235,1372.445354399737,14,001,2024-09-09_13h19.26.281,robot_cogshifting_sign,2022.2.5,59.875901168450234,
"['L_Base_Z_Back', 'L_Torso_X_For', 'L_Torso_Z_Back', 'R_Torso_Z_For']","{'laterality': 'R_Torso_Z_For', 'localisation': 'L_Base_Z_Back', 'movement': 'L_Torso_X_For'}",laterality,"['laterality', 'localisation', 'movement']",R_Torso_Z_For,3,3,robot,2,False,False,"['robot_stimuli\\L_Base_Z_Back.mp4', 'robot_stimuli\\L_Torso_X_For.mp4', 'robot_stimuli\\L_Torso_Z_Back.mp4', 'robot_stimuli\\R_Torso_Z_For.mp4']",robot_stimuli\R_Torso_Z_For.mp4,14,,,,,,,,,,,,,0,51,51,51,,,,,,,,,,,,,,,,,,1381.14578599995,,,1397.928837100044,1397.928837100044,1397.928837100044,4,3.3605169001966715,1401.3188358996995,1401.3188358996995,1401.3188358996995,1401.3188358996995,1401.3188358996995,1401.3188358996995,1401.3188358996995,1401.3188358996995,None,None,None,,,,1383.2332812999375,,,,,,,,1381.14578599995,1381.14578599995,None,,,,1381.14578599995,1381.14578599995,1394.2716401997022,14,001,2024-09-09_13h19.26.281,robot_cogshifting_sign,2022.2.5,59.875901168450234,
"['L_Head_Z_Back', 'R_Head_X_Back', 'L_Head_X_Back', 'L_Arm_X_For']","{'laterality': 'R_Head_X_Back', 'localisation': 'L_Arm_X_For', 'movement': 'L_Head_Z_Back'}",laterality,"['laterality', 'localisation', 'movement']",R_Head_X_Back,1,3,robot,2,False,False,"['robot_stimuli\\L_Head_Z_Back.mp4', 'robot_stimuli\\R_Head_X_Back.mp4', 'robot_stimuli\\L_Head_X_Back.mp4', 'robot_stimuli\\L_Arm_X_For.mp4']",robot_stimuli\R_Head_X_Back.mp4,14,,,,,,,,,,,,,0,52,52,52,,,,,,,,,,,,,,,,,,1401.3188358996995,,,1418.2020934997126,1418.2020934997126,1418.2020934997126,2,2.677418500185013,1420.9073871998116,1420.9073871998116,1420.9073871998116,1420.9073871998116,1420.9073871998116,1420.9073871998116,1420.9073871998116,1420.9073871998116,None,None,None,,,,1403.4062917996198,,,,,,,,1401.3188358996995,1401.3188358996995,None,,,,1401.3188358996995,1401.3188358996995,1414.5783135998063,14,001,2024-09-09_13h19.26.281,robot_cogshifting_sign,2022.2.5,59.875901168450234,
"['L_Arm_X_Back', 'R_Arm_Z_Back', 'L_Arm_Z_Back', 'L_Torso_Z_Back']","{'laterality': 'R_Arm_Z_Back', 'localisation': 'L_Torso_Z_Back', 'movement': 'L_Arm_X_Back'}",localisation,"['laterality', 'localisation', 'movement']",L_Torso_Z_Back,3,3,robot,2,False,True,"['robot_stimuli\\L_Arm_X_Back.mp4', 'robot_stimuli\\R_Arm_Z_Back.mp4', 'robot_stimuli\\L_Arm_Z_Back.mp4', 'robot_stimuli\\L_Torso_Z_Back.mp4']",robot_stimuli\L_Torso_Z_Back.mp4,14,,,,,,,,,,,,,0,53,53,53,,,,,,,,,,,,,,,,,,1420.9073871998116,,,1437.6737571000122,1437.6737571000122,1437.6737571000122,4,3.918601400218904,1441.6482501998544,1446.4410106996074,1441.6482501998544,1446.4410106996074,1441.6482501998544,1446.4410106996074,1441.6482501998544,1446.4410106996074,59.12698412698413,3.8335624001920223,space,,,,1422.9948652996682,4.712301599793136,,,,,,,1420.9073871998116,1420.9073871998116,None,,,,1420.9073871998116,1420.9073871998116,1434.1668708999641,14,001,2024-09-09_13h19.26.281,robot_cogshifting_sign,2022.2.5,59.875901168450234,
"['red_right_F_45', 'blue_bottom_B_45', 'blue_right_T_0', 'blue_right_Q_45']","{'color': 'red_right_F_45', 'position': 'blue_bottom_B_45', 'orientation': 'blue_right_T_0'}",orientation,"['color', 'orientation', 'position']",blue_right_T_0,2,3,letter,3,True,False,"['robot_stimuli\\\\filler.mp4', 'robot_stimuli\\\\filler.mp4', 'robot_stimuli\\\\filler.mp4', 'robot_stimuli\\\\filler.mp4']",robot_stimuli\\filler.mp4,14,,,,,,,,,,,,,0,54,54,54,,,,,,,,,,,,,,,,,,1516.1615529996343,,,1527.1164978998713,1527.1164978998713,1527.1164978998713,3,2.187214399687946,1529.3208180000074,1529.3208180000074,1529.3208180000074,1529.3208180000074,1529.3208180000074,1529.3208180000074,1529.3208180000074,1529.3208180000074,None,None,None,,,,,,,,,,,,1446.4410106996074,1446.4410106996074,space,69.69503349997103,1524.8955212999135,1527.1164978998713,,,,14,001,2024-09-09_13h19.26.281,robot_cogshifting_sign,2022.2.5,59.875901168450234,
"['red_left_Q_45', 'blue_right_Z_45', 'blue_left_J_45', 'blue_left_G_0']","{'color': 'red_left_Q_45', 'position': 'blue_right_Z_45', 'orientation': 'blue_left_G_0'}",position,"['color', 'orientation', 'position']",blue_right_Z_45,1,3,letter,3,False,False,"['robot_stimuli\\\\filler.mp4', 'robot_stimuli\\\\filler.mp4', 'robot_stimuli\\\\filler.mp4', 'robot_stimuli\\\\filler.mp4']",robot_stimuli\\filler.mp4,14,,,,,,,,,,,,,0,55,55,55,,,,,,,,,,,,,,,,,,1529.3208180000074,,,1539.657805999741,1539.657805999741,1539.657805999741,2,1.2305097002536058,1540.9102876996621,1540.9102876996621,1540.9102876996621,1540.9102876996621,1540.9102876996621,1540.9102876996621,1540.9102876996621,1540.9102876996621,None,None,None,,,,1531.3748160996474,,,,,,,,1529.3208180000074,1529.3208180000074,None,,1537.6373971998692,1539.657805999741,1529.3208180000074,1529.3208180000074,,14,001,2024-09-09_13h19.26.281,robot_cogshifting_sign,2022.2.5,59.875901168450234,
"['red_top_Z_0', 'red_left_T_45', 'red_left_B_0', 'blue_left_Z_0']","{'color': 'blue_left_Z_0', 'position': 'red_top_Z_0', 'orientation': 'red_left_T_45'}",orientation,"['color', 'orientation', 'position']",red_left_T_45,1,3,letter,3,False,False,"['robot_stimuli\\\\filler.mp4', 'robot_stimuli\\\\filler.mp4', 'robot_stimuli\\\\filler.mp4', 'robot_stimuli\\\\filler.mp4']",robot_stimuli\\filler.mp4,14,,,,,,,,,,,,,0,56,56,56,,,,,,,,,,,,,,,,,,1540.9102876996621,,,1551.8651894996874,1551.8651894996874,1551.8651894996874,2,1.503046200145036,1553.3848239998333,1553.3848239998333,1553.3848239998333,1553.3848239998333,1553.3848239998333,1553.3848239998333,1553.3848239998333,1553.3848239998333,None,None,None,,,,1542.9811300998554,,,,,,,,1540.9102876996621,1540.9102876996621,None,,1549.6442026998848,1551.8651894996874,1540.9102876996621,1540.9102876996621,,14,001,2024-09-09_13h19.26.281,robot_cogshifting_sign,2022.2.5,59.875901168450234,
"['blue_right_Q_0', 'blue_right_P_45', 'blue_bottom_B_0', 'red_right_C_0']","{'color': 'red_right_C_0', 'position': 'blue_bottom_B_0', 'orientation': 'blue_right_P_45'}",color,"['color', 'orientation', 'position']",red_right_C_0,3,3,letter,3,False,False,"['robot_stimuli\\\\filler.mp4', 'robot_stimuli\\\\filler.mp4', 'robot_stimuli\\\\filler.mp4', 'robot_stimuli\\\\filler.mp4']",robot_stimuli\\filler.mp4,14,,,,,,,,,,,,,0,57,57,57,,,,,,,,,,,,,,,,,,1553.3848239998333,,,1563.738561899867,1563.738561899867,1563.738561899867,4,1.5181963997893035,1565.2749055000022,1565.2749055000022,1565.2749055000022,1565.2749055000022,1565.2749055000022,1565.2749055000022,1565.2749055000022,1565.2749055000022,None,None,None,,,,1555.4389033997431,,,,,,,,1553.3848239998333,1553.3848239998333,None,,1561.7180246999487,1563.738561899867,1553.3848239998333,1553.3848239998333,,14,001,2024-09-09_13h19.26.281,robot_cogshifting_sign,2022.2.5,59.875901168450234,
"['red_top_G_45', 'blue_top_S_45', 'red_top_P_0', 'red_bottom_F_45']","{'color': 'blue_top_S_45', 'position': 'red_bottom_F_45', 'orientation': 'red_top_P_0'}",orientation,"['color', 'orientation', 'position']",red_top_P_0,2,3,letter,3,False,False,"['robot_stimuli\\\\filler.mp4', 'robot_stimuli\\\\filler.mp4', 'robot_stimuli\\\\filler.mp4', 'robot_stimuli\\\\filler.mp4']",robot_stimuli\\filler.mp4,14,,,,,,,,,,,,,0,58,58,58,,,,,,,,,,,,,,,,,,1565.2749055000022,,,1576.229832299985,1576.229832299985,1576.229832299985,3,1.915232999715954,1578.1669573998079,1578.1669573998079,1578.1669573998079,1578.1669573998079,1578.1669573998079,1578.1669573998079,1578.1669573998079,1578.1669573998079,None,None,None,,,,1567.3456901996396,,,,,,,,1565.2749055000022,1565.2749055000022,None,,1574.008863999974,1576.229832299985,1565.2749055000022,1565.2749055000022,,14,001,2024-09-09_13h19.26.281,robot_cogshifting_sign,2022.2.5,59.875901168450234,
"['blue_left_T_0', 'blue_top_V_0', 'blue_top_F_45', 'red_top_B_0']","{'color': 'red_top_B_0', 'position': 'blue_left_T_0', 'orientation': 'blue_top_F_45'}",position,"['color', 'orientation', 'position']",blue_left_T_0,0,3,letter,3,False,False,"['robot_stimuli\\\\filler.mp4', 'robot_stimuli\\\\filler.mp4', 'robot_stimuli\\\\filler.mp4', 'robot_stimuli\\\\filler.mp4']",robot_stimuli\\filler.mp4,14,,,,,,,,,,,,,0,59,59,59,,,,,,,,,,,,,,,,,,1578.1669573998079,,,1588.9214599998668,1588.9214599998668,1588.9214599998668,1,3.102689300198108,1592.044273399748,1592.044273399748,1592.044273399748,1592.044273399748,1592.044273399748,1592.044273399748,1592.044273399748,1592.044273399748,None,None,None,,,,1580.2378667998128,,,,,,,,1578.1669573998079,1578.1669573998079,None,,1586.8842771998607,1588.9214599998668,1578.1669573998079,1578.1669573998079,,14,001,2024-09-09_13h19.26.281,robot_cogshifting_sign,2022.2.5,59.875901168450234,
"['blue_bottom_T_0', 'blue_right_B_0', 'red_right_J_0', 'blue_right_H_45']","{'color': 'red_right_J_0', 'position': 'blue_bottom_T_0', 'orientation': 'blue_right_H_45'}",color,"['color', 'orientation', 'position']",red_right_J_0,2,3,letter,3,False,False,"['robot_stimuli\\\\filler.mp4', 'robot_stimuli\\\\filler.mp4', 'robot_stimuli\\\\filler.mp4', 'robot_stimuli\\\\filler.mp4']",robot_stimuli\\filler.mp4,14,,,,,,,,,,,,,0,60,60,60,,,,,,,,,,,,,,,,,,1592.044273399748,,,1603.1995818996802,1603.1995818996802,1603.1995818996802,3,1.7438176004216075,1604.9696926996112,1604.9696926996112,1604.9696926996112,1604.9696926996112,1604.9696926996112,1604.9696926996112,1604.9696926996112,1604.9696926996112,None,None,None,,,,1594.1150535000488,,,,,,,,1592.044273399748,1592.044273399748,None,,1600.9793085996062,1603.1995818996802,1592.044273399748,1592.044273399748,,14,001,2024-09-09_13h19.26.281,robot_cogshifting_sign,2022.2.5,59.875901168450234,
"['blue_right_G_45', 'red_top_P_45', 'blue_top_X_45', 'blue_top_J_0']","{'color': 'red_top_P_45', 'position': 'blue_right_G_45', 'orientation': 'blue_top_J_0'}",position,"['color', 'orientation', 'position']",blue_right_G_45,0,3,letter,3,False,False,"['robot_stimuli\\\\filler.mp4', 'robot_stimuli\\\\filler.mp4', 'robot_stimuli\\\\filler.mp4', 'robot_stimuli\\\\filler.mp4']",robot_stimuli\\filler.mp4,14,,,,,,,,,,,,,0,61,61,61,,,,,,,,,,,,,,,,,,1604.9696926996112,,,1615.3234572997317,1615.3234572997317,1615.3234572997317,1,3.9641833999194205,1619.3146088998765,1619.3146088998765,1619.3146088998765,1619.3146088998765,1619.3146088998765,1619.3146088998765,1619.3146088998765,1619.3146088998765,None,None,None,,,,1607.0404941998422,,,,,,,,1604.9696926996112,1604.9696926996112,None,,1613.3028231998906,1615.3234572997317,1604.9696926996112,1604.9696926996112,,14,001,2024-09-09_13h19.26.281,robot_cogshifting_sign,2022.2.5,59.875901168450234,
"['blue_left_L_0', 'red_left_R_0', 'red_bottom_T_0', 'red_left_G_45']","{'color': 'blue_left_L_0', 'position': 'red_bottom_T_0', 'orientation': 'red_left_G_45'}",color,"['color', 'orientation', 'position']",blue_left_L_0,0,3,letter,3,False,True,"['robot_stimuli\\\\filler.mp4', 'robot_stimuli\\\\filler.mp4', 'robot_stimuli\\\\filler.mp4', 'robot_stimuli\\\\filler.mp4']",robot_stimuli\\filler.mp4,14,,,,,,,,,,,,,0,62,62,62,,,,,,,,,,,,,,,,,,1619.3146088998765,,,1630.0524316998199,1630.0524316998199,1630.0524316998199,1,1.4920512000098825,1631.6055029998533,1638.7863137996756,1631.6055029998533,1638.7863137996756,1631.6055029998533,1638.7863137996756,1631.6055029998533,1638.7863137996756,30.396825396825395,6.455603300128132,space,,,,1621.3854036000557,7.114015800412744,,,,,,,1619.3146088998765,1619.3146088998765,None,,1627.8314232998528,1630.0524316998199,1619.3146088998765,1619.3146088998765,,14,001,2024-09-09_13h19.26.281,robot_cogshifting_sign,2022.2.5,59.875901168450234,
"['blue_bottom_K_0', 'red_bottom_K_45', 'blue_top_T_45', 'blue_bottom_Q_45']","{'color': 'red_bottom_K_45', 'position': 'blue_top_T_45', 'orientation': 'blue_bottom_K_0'}",color,"['color', 'orientation']",red_bottom_K_45,1,2,letter,3,True,False,"['robot_stimuli\\\\filler.mp4', 'robot_stimuli\\\\filler.mp4', 'robot_stimuli\\\\filler.mp4', 'robot_stimuli\\\\filler.mp4']",robot_stimuli\\filler.mp4,14,,,,,,,,,,,,,0,63,63,63,,,,,,,,,,,,,,,,,,1643.3619221998379,,,1653.8994062999263,1653.8994062999263,1653.8994062999263,2,0.4207763001322746,1654.3502663997933,1654.3502663997933,1654.3502663997933,1654.3502663997933,1654.3502663997933,1654.3502663997933,1654.3502663997933,1654.3502663997933,None,None,None,,,,,,,,,,,,1638.7863137996756,1638.7863137996756,space,4.549668400082737,1651.8789716996253,1653.8994062999263,,,,14,001,2024-09-09_13h19.26.281,robot_cogshifting_sign,2022.2.5,59.875901168450234,
"['blue_left_Q_0', 'red_left_K_0', 'red_bottom_X_0', 'red_left_N_45']","{'color': 'blue_left_Q_0', 'position': 'red_bottom_X_0', 'orientation': 'red_left_N_45'}",orientation,"['orientation', 'position']",red_left_N_45,3,2,letter,3,False,False,"['robot_stimuli\\\\filler.mp4', 'robot_stimuli\\\\filler.mp4', 'robot_stimuli\\\\filler.mp4', 'robot_stimuli\\\\filler.mp4']",robot_stimuli\\filler.mp4,14,,,,,,,,,,,,,0,64,64,64,,,,,,,,,,,,,,,,,,1654.3502663997933,,,1665.288435800001,1665.288435800001,1665.288435800001,3,0.8636186998337507,1666.1735227997415,1666.1735227997415,1666.1735227997415,1666.1735227997415,1666.1735227997415,1666.1735227997415,1666.1735227997415,1666.1735227997415,None,None,None,,,,1656.4043439999223,,,,,,,,1654.3502663997933,1654.3502663997933,None,,1663.0841510999016,1665.288435800001,1654.3502663997933,1654.3502663997933,,14,001,2024-09-09_13h19.26.281,robot_cogshifting_sign,2022.2.5,59.875901168450234,
"['red_bottom_G_45', 'blue_bottom_Z_0', 'blue_top_D_45', 'blue_bottom_B_45']","{'color': 'red_bottom_G_45', 'position': 'blue_top_D_45', 'orientation': 'blue_bottom_Z_0'}",orientation,"['color', 'orientation']",blue_bottom_Z_0,1,2,letter,3,False,False,"['robot_stimuli\\\\filler.mp4', 'robot_stimuli\\\\filler.mp4', 'robot_stimuli\\\\filler.mp4', 'robot_stimuli\\\\filler.mp4']",robot_stimuli\\filler.mp4,14,,,,,,,,,,,,,0,65,65,65,,,,,,,,,,,,,,,,,,1666.1735227997415,,,1677.328823799733,1677.328823799733,1677.328823799733,2,2.9907880001701415,1680.3514915998094,1680.3514915998094,1680.3514915998094,1680.3514915998094,1680.3514915998094,1680.3514915998094,1680.3514915998094,1680.3514915998094,None,None,None,,,,1668.2443594997749,,,,,,,,1666.1735227997415,1666.1735227997415,None,,1675.1078162998892,1677.328823799733,1666.1735227997415,1666.1735227997415,,14,001,2024-09-09_13h19.26.281,robot_cogshifting_sign,2022.2.5,59.875901168450234,
"['red_right_F_45', 'red_left_S_45', 'blue_right_Z_45', 'red_right_X_0']","{'color': 'blue_right_Z_45', 'position': 'red_left_S_45', 'orientation': 'red_right_X_0'}",position,"['orientation', 'position']",red_left_S_45,1,2,letter,3,False,False,"['robot_stimuli\\\\filler.mp4', 'robot_stimuli\\\\filler.mp4', 'robot_stimuli\\\\filler.mp4', 'robot_stimuli\\\\filler.mp4']",robot_stimuli\\filler.mp4,14,,,,,,,,,,,,,0,66,66,66,,,,,,,,,,,,,,,,,,1680.3514915998094,,,1690.8888780996203,1690.8888780996203,1690.8888780996203,2,0.6949990000575781,1691.6069177999161,1691.6069177999161,1691.6069177999161,1691.6069177999161,1691.6069177999161,1691.6069177999161,1691.6069177999161,1691.6069177999161,None,None,None,,,,1682.405490099918,,,,,,,,1680.3514915998094,1680.3514915998094,None,,1688.6678667999804,1690.8888780996203,1680.3514915998094,1680.3514915998094,,14,001,2024-09-09_13h19.26.281,robot_cogshifting_sign,2022.2.5,59.875901168450234,
"['blue_bottom_K_45', 'blue_bottom_K_0', 'blue_right_V_45', 'red_bottom_M_45']","{'color': 'red_bottom_M_45', 'position': 'blue_right_V_45', 'orientation': 'blue_bottom_K_0'}",color,"['color', 'position']",red_bottom_M_45,3,2,letter,3,False,False,"['robot_stimuli\\\\filler.mp4', 'robot_stimuli\\\\filler.mp4', 'robot_stimuli\\\\filler.mp4', 'robot_stimuli\\\\filler.mp4']",robot_stimuli\\filler.mp4,14,,,,,,,,,,,,,0,67,67,67,,,,,,,,,,,,,,,,,,1691.6069177999161,,,1702.5617926996201,1702.5617926996201,1702.5617926996201,4,0.47824699990451336,1703.0627788999118,1703.0627788999118,1703.0627788999118,1703.0627788999118,1703.0627788999118,1703.0627788999118,1703.0627788999118,1703.0627788999118,None,None,None,,,,1693.6777039999142,,,,,,,,1691.6069177999161,1691.6069177999161,None,,1700.340818699915,1702.5617926996201,1691.6069177999161,1691.6069177999161,,14,001,2024-09-09_13h19.26.281,robot_cogshifting_sign,2022.2.5,59.875901168450234,
"['blue_left_H_45', 'blue_right_N_45', 'red_right_H_45', 'blue_right_J_0']","{'color': 'red_right_H_45', 'position': 'blue_left_H_45', 'orientation': 'blue_right_J_0'}",color,"['color', 'position']",red_right_H_45,2,2,letter,3,False,False,"['robot_stimuli\\\\filler.mp4', 'robot_stimuli\\\\filler.mp4', 'robot_stimuli\\\\filler.mp4', 'robot_stimuli\\\\filler.mp4']",robot_stimuli\\filler.mp4,14,,,,,,,,,,,,,0,68,68,68,,,,,,,,,,,,,,,,,,1703.0627788999118,,,1713.8172805998474,1713.8172805998474,1713.8172805998474,3,2.541994799859822,1716.3890338996425,1716.3890338996425,1716.3890338996425,1716.3890338996425,1716.3890338996425,1716.3890338996425,1716.3890338996425,1716.3890338996425,None,None,None,,,,1705.1336651998572,,,,,,,,1703.0627788999118,1703.0627788999118,None,,1711.596354499925,1713.8172805998474,1703.0627788999118,1703.0627788999118,,14,001,2024-09-09_13h19.26.281,robot_cogshifting_sign,2022.2.5,59.875901168450234,
"['red_left_K_0', 'blue_bottom_B_0', 'blue_left_C_0', 'blue_left_C_45']","{'color': 'red_left_K_0', 'position': 'blue_bottom_B_0', 'orientation': 'blue_left_C_45'}",position,"['color', 'position']",blue_bottom_B_0,1,2,letter,3,False,False,"['robot_stimuli\\\\filler.mp4', 'robot_stimuli\\\\filler.mp4', 'robot_stimuli\\\\filler.mp4', 'robot_stimuli\\\\filler.mp4']",robot_stimuli\\filler.mp4,14,,,,,,,,,,,,,0,69,69,69,,,,,,,,,,,,,,,,,,1716.3890338996425,,,1727.1268160999753,1727.1268160999753,1727.1268160999753,2,1.2012846996076405,1728.3458964000456,1728.3458964000456,1728.3458964000456,1728.3458964000456,1728.3458964000456,1728.3458964000456,1728.3458964000456,1728.3458964000456,None,None,None,,,,1718.4598204996437,,,,,,,,1716.3890338996425,1716.3890338996425,None,,1724.90587519994,1727.1268160999753,1716.3890338996425,1716.3890338996425,,14,001,2024-09-09_13h19.26.281,robot_cogshifting_sign,2022.2.5,59.875901168450234,
"['blue_right_G_0', 'red_right_M_0', 'red_top_D_0', 'red_right_T_45']","{'color': 'blue_right_G_0', 'position': 'red_top_D_0', 'orientation': 'red_right_T_45'}",orientation,"['orientation', 'position']",red_right_T_45,3,2,letter,3,False,False,"['robot_stimuli\\\\filler.mp4', 'robot_stimuli\\\\filler.mp4', 'robot_stimuli\\\\filler.mp4', 'robot_stimuli\\\\filler.mp4']",robot_stimuli\\filler.mp4,14,,,,,,,,,,,,,0,70,70,70,,,,,,,,,,,,,,,,,,1728.3458964000456,,,1738.9167194999754,1738.9167194999754,1738.9167194999754,4,1.6111830999143422,1740.5532342996448,1740.5532342996448,1740.5532342996448,1740.5532342996448,1740.5532342996448,1740.5532342996448,1740.5532342996448,1740.5532342996448,None,None,None,,,,1730.416911199689,,,,,,,,1728.3458964000456,1728.3458964000456,None,,1736.8962141000666,1738.9167194999754,1728.3458964000456,1728.3458964000456,,14,001,2024-09-09_13h19.26.281,robot_cogshifting_sign,2022.2.5,59.875901168450234,
"['red_left_P_45', 'red_top_J_45', 'blue_top_M_45', 'red_top_X_0']","{'color': 'blue_top_M_45', 'position': 'red_left_P_45', 'orientation': 'red_top_X_0'}",position,"['color', 'position']",red_left_P_45,0,2,letter,3,False,True,"['robot_stimuli\\\\filler.mp4', 'robot_stimuli\\\\filler.mp4', 'robot_stimuli\\\\filler.mp4', 'robot_stimuli\\\\filler.mp4']",robot_stimuli\\filler.mp4,14,,,,,,,,,,,,,0,71,71,71,,,,,,,,,,,,,,,,,,1740.5532342996448,,,1751.1073819999583,1751.1073819999583,1751.1073819999583,1,0.804727999959141,1751.9757191999815,1757.453174199909,1751.9757191999815,1757.453174199909,1751.9757191999815,1757.453174199909,1751.9757191999815,1757.453174199909,29.92063492063492,2.7820505001582205,space,,,,1742.624153799843,5.4078043000772595,,,,,,,1740.5532342996448,1740.5532342996448,None,,1749.086808399763,1751.1073819999583,1740.5532342996448,1740.5532342996448,,14,001,2024-09-09_13h19.26.281,robot_cogshifting_sign,2022.2.5,59.875901168450234,
"['blue_right_G_0', 'red_right_P_45', 'red_bottom_P_0', 'red_right_T_0']","{'color': 'blue_right_G_0', 'position': 'red_bottom_P_0', 'orientation': 'red_right_P_45'}",color,['color'],blue_right_G_0,0,1,letter,3,True,False,"['robot_stimuli\\\\filler.mp4', 'robot_stimuli\\\\filler.mp4', 'robot_stimuli\\\\filler.mp4', 'robot_stimuli\\\\filler.mp4']",robot_stimuli\\filler.mp4,14,,,,,,,,,,,,,0,72,72,72,,,,,,,,,,,,,,,,,,1758.8559490996413,,,1769.6104656998068,1769.6104656998068,1769.6104656998068,1,0.246545999776572,1769.8776040999219,1769.8776040999219,1769.8776040999219,1769.8776040999219,1769.8776040999219,1769.8776040999219,1769.8776040999219,1769.8776040999219,None,None,None,,,,,,,,,,,,1757.453174199909,1757.453174199909,space,1.370507000014186,1767.5741260000505,1769.6104656998068,,,,14,001,2024-09-09_13h19.26.281,robot_cogshifting_sign,2022.2.5,59.875901168450234,
"['red_right_P_0', 'blue_right_F_45', 'blue_top_P_0', 'blue_right_L_0']","{'color': 'red_right_P_0', 'position': 'blue_top_P_0', 'orientation': 'blue_right_F_45'}",orientation,['orientation'],blue_right_F_45,1,1,letter,3,False,False,"['robot_stimuli\\\\filler.mp4', 'robot_stimuli\\\\filler.mp4', 'robot_stimuli\\\\filler.mp4', 'robot_stimuli\\\\filler.mp4']",robot_stimuli\\filler.mp4,14,,,,,,,,,,,,,0,73,73,73,,,,,,,,,,,,,,,,,,1769.8776040999219,,,1780.415055199992,1780.415055199992,1780.415055199992,2,0.2891216999851167,1780.7323185000569,1780.7323185000569,1780.7323185000569,1780.7323185000569,1780.7323185000569,1780.7323185000569,1780.7323185000569,1780.7323185000569,None,None,None,,,,1771.9484270997345,,,,,,,,1769.8776040999219,1769.8776040999219,None,,1778.3950625997968,1780.415055199992,1769.8776040999219,1769.8776040999219,,14,001,2024-09-09_13h19.26.281,robot_cogshifting_sign,2022.2.5,59.875901168450234,
"['blue_bottom_P_0', 'blue_bottom_L_45', 'blue_right_F_0', 'red_bottom_P_0']","{'color': 'red_bottom_P_0', 'position': 'blue_right_F_0', 'orientation': 'blue_bottom_L_45'}",color,['color'],red_bottom_P_0,3,1,letter,3,False,False,"['robot_stimuli\\\\filler.mp4', 'robot_stimuli\\\\filler.mp4', 'robot_stimuli\\\\filler.mp4', 'robot_stimuli\\\\filler.mp4']",robot_stimuli\\filler.mp4,14,,,,,,,,,,,,,0,74,74,74,,,,,,,,,,,,,,,,,,1780.7323185000569,,,1791.6705147996545,1791.6705147996545,1791.6705147996545,4,0.24948769994080067,1791.937826700043,1791.937826700043,1791.937826700043,1791.937826700043,1791.937826700043,1791.937826700043,1791.937826700043,1791.937826700043,None,None,None,,,,1782.8031623996794,,,,,,,,1780.7323185000569,1780.7323185000569,None,,1789.4495202000253,1791.6705147996545,1780.7323185000569,1780.7323185000569,,14,001,2024-09-09_13h19.26.281,robot_cogshifting_sign,2022.2.5,59.875901168450234,
"['blue_top_F_45', 'red_top_H_45', 'blue_bottom_Z_45', 'blue_top_F_0']","{'color': 'red_top_H_45', 'position': 'blue_bottom_Z_45', 'orientation': 'blue_top_F_0'}",position,['position'],blue_bottom_Z_45,2,1,letter,3,False,False,"['robot_stimuli\\\\filler.mp4', 'robot_stimuli\\\\filler.mp4', 'robot_stimuli\\\\filler.mp4', 'robot_stimuli\\\\filler.mp4']",robot_stimuli\\filler.mp4,14,,,,,,,,,,,,,0,75,75,75,,,,,,,,,,,,,,,,,,1791.937826700043,,,1802.8926587998867,1802.8926587998867,1802.8926587998867,3,0.2841643001884222,1803.209896999877,1803.209896999877,1803.209896999877,1803.209896999877,1803.209896999877,1803.209896999877,1803.209896999877,1803.209896999877,None,None,None,,,,1794.0085533997044,,,,,,,,1791.937826700043,1791.937826700043,None,,1800.68848539982,1802.8926587998867,1791.937826700043,1791.937826700043,,14,001,2024-09-09_13h19.26.281,robot_cogshifting_sign,2022.2.5,59.875901168450234,
"['red_bottom_R_45', 'blue_bottom_H_45', 'red_right_S_45', 'red_bottom_D_0']","{'color': 'blue_bottom_H_45', 'position': 'red_right_S_45', 'orientation': 'red_bottom_D_0'}",orientation,['orientation'],red_bottom_D_0,3,1,letter,3,False,False,"['robot_stimuli\\\\filler.mp4', 'robot_stimuli\\\\filler.mp4', 'robot_stimuli\\\\filler.mp4', 'robot_stimuli\\\\filler.mp4']",robot_stimuli\\filler.mp4,14,,,,,,,,,,,,,0,76,76,76,,,,,,,,,,,,,,,,,,1803.209896999877,,,1814.1648091999814,1814.1648091999814,1814.1648091999814,4,0.2826231000944972,1814.5322023998015,1814.5322023998015,1814.5322023998015,1814.5322023998015,1814.5322023998015,1814.5322023998015,1814.5322023998015,1814.5322023998015,None,None,None,,,,1805.2807271997444,,,,,,,,1803.209896999877,1803.209896999877,None,,1811.9438697998412,1814.1648091999814,1803.209896999877,1803.209896999877,,14,001,2024-09-09_13h19.26.281,robot_cogshifting_sign,2022.2.5,59.875901168450234,
"['red_bottom_R_45', 'red_left_D_0', 'blue_left_J_45', 'red_left_B_45']","{'color': 'blue_left_J_45', 'position': 'red_bottom_R_45', 'orientation': 'red_left_D_0'}",position,['position'],red_bottom_R_45,0,1,letter,3,False,False,"['robot_stimuli\\\\filler.mp4', 'robot_stimuli\\\\filler.mp4', 'robot_stimuli\\\\filler.mp4', 'robot_stimuli\\\\filler.mp4']",robot_stimuli\\filler.mp4,14,,,,,,,,,,,,,0,77,77,77,,,,,,,,,,,,,,,,,,1814.5322023998015,,,1825.4370362996124,1825.4370362996124,1825.4370362996124,1,0.30686110025271773,1825.7709880997427,1825.7709880997427,1825.7709880997427,1825.7709880997427,1825.7709880997427,1825.7709880997427,1825.7709880997427,1825.7709880997427,None,None,None,,,,,,,,,,,,1814.5322023998015,1814.5322023998015,None,,1823.2160077998415,1825.4370362996124,1814.5322023998015,1814.5322023998015,,14,001,2024-09-09_13h19.26.281,robot_cogshifting_sign,2022.2.5,59.875901168450234,
"['red_top_V_0', 'red_top_Q_45', 'red_left_Q_45', 'blue_top_X_45']","{'color': 'blue_top_X_45', 'position': 'red_left_Q_45', 'orientation': 'red_top_V_0'}",orientation,['orientation'],red_top_V_0,0,1,letter,3,False,False,"['robot_stimuli\\\\filler.mp4', 'robot_stimuli\\\\filler.mp4', 'robot_stimuli\\\\filler.mp4', 'robot_stimuli\\\\filler.mp4']",robot_stimuli\\filler.mp4,14,,,,,,,,,,,,,0,78,78,78,,,,,,,,,,,,,,,,,,1825.7709880997427,,,1836.7258750996552,1836.7258750996552,1836.7258750996552,1,0.6180373998358846,1837.360478699673,1837.360478699673,1837.360478699673,1837.360478699673,1837.360478699673,1837.360478699673,1837.360478699673,1837.360478699673,None,None,None,,,,1827.8250481998548,,,,,,,,1825.7709880997427,1825.7709880997427,None,,1834.5048543000594,1836.7258750996552,1825.7709880997427,1825.7709880997427,,14,001,2024-09-09_13h19.26.281,robot_cogshifting_sign,2022.2.5,59.875901168450234,
"['blue_left_D_45', 'red_left_W_0', 'blue_right_C_0', 'blue_left_H_0']","{'color': 'red_left_W_0', 'position': 'blue_right_C_0', 'orientation': 'blue_left_D_45'}",position,['position'],blue_right_C_0,2,1,letter,3,False,False,"['robot_stimuli\\\\filler.mp4', 'robot_stimuli\\\\filler.mp4', 'robot_stimuli\\\\filler.mp4', 'robot_stimuli\\\\filler.mp4']",robot_stimuli\\filler.mp4,14,,,,,,,,,,,,,0,79,79,79,,,,,,,,,,,,,,,,,,1837.360478699673,,,1847.8978808000684,1847.8978808000684,1847.8978808000684,3,0.31016999995335937,1848.231861999724,1848.231861999724,1848.231861999724,1848.231861999724,1848.231861999724,1848.231861999724,1848.231861999724,1848.231861999724,None,None,None,,,,1839.414584199898,,,,,,,,1837.360478699673,1837.360478699673,None,,1845.8772974996828,1847.8978808000684,1837.360478699673,1837.360478699673,,14,001,2024-09-09_13h19.26.281,robot_cogshifting_sign,2022.2.5,59.875901168450234,
"['red_left_Z_0', 'red_top_W_45', 'red_left_N_45', 'blue_left_J_45']","{'color': 'blue_left_J_45', 'position': 'red_top_W_45', 'orientation': 'red_left_Z_0'}",color,['color'],blue_left_J_45,3,1,letter,3,False,True,"['robot_stimuli\\\\filler.mp4', 'robot_stimuli\\\\filler.mp4', 'robot_stimuli\\\\filler.mp4', 'robot_stimuli\\\\filler.mp4']",robot_stimuli\\filler.mp4,14,,,,,,,,,,,,,0,80,80,80,,,,,,,,,,,,,,,,,,1848.231861999724,,,1858.769255099818,1858.769255099818,1858.769255099818,4,0.462351200170815,1859.2869563996792,1864.4471273999661,1859.2869563996792,1864.4471273999661,1859.2869563996792,1864.4471273999661,1859.2869563996792,1864.4471273999661,12.936507936507935,3.7668588999658823,space,,,,1850.2859233999625,5.104841100051999,,,,,,,1848.231861999724,1848.231861999724,None,,1856.5649985000491,1858.769255099818,1848.231861999724,1848.231861999724,,14,001,2024-09-09_13h19.26.281,robot_cogshifting_sign,2022.2.5,59.875901168450234,
"['L_Torso_Z_For', 'R_Torso_Z_Back', 'L_Torso_X_For', 'L_Arm_Z_Back']","{'laterality': 'R_Torso_Z_Back', 'localisation': 'L_Arm_Z_Back', 'movement': 'L_Torso_X_For'}",movement,"['localisation', 'movement']",L_Torso_X_For,2,2,robot,4,True,False,"['robot_stimuli\\L_Torso_Z_For.mp4', 'robot_stimuli\\R_Torso_Z_Back.mp4', 'robot_stimuli\\L_Torso_X_For.mp4', 'robot_stimuli\\L_Arm_Z_Back.mp4']",robot_stimuli\L_Torso_X_For.mp4,14,,,,,,,,,,,,,0,81,81,81,,,,,,,,,,,,,,,,,,1942.5508538000286,,,1959.4674653997645,1959.4674653997645,1959.4674653997645,3,1.4039858002215624,1960.9036288997158,1960.9036288997158,1960.9036288997158,1960.9036288997158,1960.9036288997158,1960.9036288997158,1960.9036288997158,1960.9036288997158,None,None,None,,,,,,,,,,,,1864.4471273999661,1864.4471273999661,space,78.07259719958529,,,,,1955.826989799738,14,001,2024-09-09_13h19.26.281,robot_cogshifting_sign,2022.2.5,59.875901168450234,
"['R_Head_Z_For', 'R_Arm_Z_Back', 'R_Arm_X_For', 'L_Arm_Z_For']","{'laterality': 'L_Arm_Z_For', 'localisation': 'R_Head_Z_For', 'movement': 'R_Arm_X_For'}",laterality,"['laterality', 'movement']",L_Arm_Z_For,3,2,robot,4,False,False,"['robot_stimuli\\R_Head_Z_For.mp4', 'robot_stimuli\\R_Arm_Z_Back.mp4', 'robot_stimuli\\R_Arm_X_For.mp4', 'robot_stimuli\\L_Arm_Z_For.mp4']",robot_stimuli\L_Arm_Z_For.mp4,14,,,,,,,,,,,,,0,82,82,82,,,,,,,,,,,,,,,,,,1960.9036288997158,,,1977.8035748000257,1977.8035748000257,1977.8035748000257,4,2.8920736997388303,1980.7259767996147,1980.7259767996147,1980.7259767996147,1980.7259767996147,1980.7259767996147,1980.7259767996147,1980.7259767996147,1980.7259767996147,None,None,None,,,,1962.9747182996944,,,,,,,,1960.9036288997158,1960.9036288997158,None,,,,1960.9036288997158,1960.9036288997158,1974.1630674996413,14,001,2024-09-09_13h19.26.281,robot_cogshifting_sign,2022.2.5,59.875901168450234,
"['R_Head_X_Back', 'R_Base_X_For', 'R_Head_Y_For', 'L_Head_X_For']","{'laterality': 'L_Head_X_For', 'localisation': 'R_Base_X_For', 'movement': 'R_Head_Y_For'}",localisation,"['localisation', 'movement']",R_Base_X_For,1,2,robot,4,False,False,"['robot_stimuli\\R_Head_X_Back.mp4', 'robot_stimuli\\R_Base_X_For.mp4', 'robot_stimuli\\R_Head_Y_For.mp4', 'robot_stimuli\\L_Head_X_For.mp4']",robot_stimuli\R_Base_X_For.mp4,14,,,,,,,,,,,,,0,83,83,83,,,,,,,,,,,,,,,,,,1980.7259767996147,,,1997.4756713998504,1997.4756713998504,1997.4756713998504,2,7.251427299808711,2004.756637999788,2004.756637999788,2004.756637999788,2004.756637999788,2004.756637999788,2004.756637999788,2004.756637999788,2004.756637999788,None,None,None,,,,1982.8134496998973,,,,,,,,1980.7259767996147,1980.7259767996147,None,,,,1980.7259767996147,1980.7259767996147,1993.9019398996606,14,001,2024-09-09_13h19.26.281,robot_cogshifting_sign,2022.2.5,59.875901168450234,
"['R_Head_X_Back', 'R_Arm_Z_Back', 'L_Arm_X_Back', 'R_Arm_X_Back']","{'laterality': 'L_Arm_X_Back', 'localisation': 'R_Head_X_Back', 'movement': 'R_Arm_Z_Back'}",laterality,"['laterality', 'movement']",L_Arm_X_Back,2,2,robot,4,False,False,"['robot_stimuli\\R_Head_X_Back.mp4', 'robot_stimuli\\R_Arm_Z_Back.mp4', 'robot_stimuli\\L_Arm_X_Back.mp4', 'robot_stimuli\\R_Arm_X_Back.mp4']",robot_stimuli\L_Arm_X_Back.mp4,14,,,,,,,,,,,,,0,84,84,84,,,,,,,,,,,,,,,,,,2004.756637999788,,,2021.6565816998482,2021.6565816998482,2021.6565816998482,3,3.7747675999999046,2025.4640512997285,2025.4640512997285,2025.4640512997285,2025.4640512997285,2025.4640512997285,2025.4640512997285,2025.4640512997285,2025.4640512997285,None,None,None,,,,2006.8440938000567,,,,,,,,2004.756637999788,2004.756637999788,None,,,,2004.756637999788,2004.756637999788,2018.0160780996084,14,001,2024-09-09_13h19.26.281,robot_cogshifting_sign,2022.2.5,59.875901168450234,
"['L_Base_X_For', 'R_Arm_X_Back', 'L_Arm_X_For', 'L_Arm_Y_For']","{'laterality': 'R_Arm_X_Back', 'localisation': 'L_Base_X_For', 'movement': 'L_Arm_Y_For'}",localisation,"['localisation', 'movement']",L_Base_X_For,0,2,robot,4,False,False,"['robot_stimuli\\L_Base_X_For.mp4', 'robot_stimuli\\R_Arm_X_Back.mp4', 'robot_stimuli\\L_Arm_X_For.mp4', 'robot_stimuli\\L_Arm_Y_For.mp4']",robot_stimuli\L_Base_X_For.mp4,14,,,,,,,,,,,,,0,85,85,85,,,,,,,,,,,,,,,,,,2025.4640512997285,,,2042.2804771997035,2042.2804771997035,2042.2804771997035,1,4.247506400104612,2046.5555618996732,2046.5555618996732,2046.5555618996732,2046.5555618996732,2046.5555618996732,2046.5555618996732,2046.5555618996732,2046.5555618996732,None,None,None,,,,2027.5514888996258,,,,,,,,2025.4640512997285,2025.4640512997285,None,,,,2025.4640512997285,2025.4640512997285,2038.6399749000557,14,001,2024-09-09_13h19.26.281,robot_cogshifting_sign,2022.2.5,59.875901168450234,
