sequence,is_target,condition,stimuli,block,is_block_beginning,is_block_ending,fname,subject,retraining.thisRepN,retraining.thisTrialN,retraining.thisN,retraining.thisIndex,training.thisRepN,training.thisTrialN,training.thisN,training.thisIndex,trials.thisRepN,trials.thisTrialN,trials.thisN,trials.thisIndex,langage_text.started,langage_key.started,langage_key.keys,langage_key.rt,intro_text.started,intro_key.started,intro_key.keys,intro_key.rt,training_robot_intro_text.started,training_robot_intro_key.started,training_robot_intro_key.keys,training_robot_intro_key.rt,cross.started,cross.stopped,training_letter.started,training_robot_key.started,training_robot_question.started,training_robot_keys.started,training_letter.stopped,training_robot_key.keys,RSME_labels.started,RSME_labels.stopped,RSME_ticks.started,RSME_ticks.stopped,RSME_text.started,RSME_text.stopped,RSME_key.started,RSME_key.stopped,RSME_ticks.response,RSME_ticks.rt,RSME_key.keys,training_robot_intro_text.stopped,training_robot_intro_key.stopped,training_robot_key.rt,RSME_key.rt,training_robot_movie.started,experiment_beginning_text.started,experiment_beginning_keys.started,experiment_beginning_key.started,experiment_beginning_key.keys,experiment_beginning_key.rt,block_intro_text.started,block_intro_key.started,block_intro_key.keys,block_intro_key.rt,movie.started,key.started,key.keys,block_intro_text.stopped,block_intro_key.stopped,key.rt,letter.started,letter.stopped,participant,session,date,expName,psychopyVersion,frameRate,
,,,,,,,,,,,,,,,,,,,,,18.141655599999467,18.141655599999467,f,2.0929492000004757,,,,,,,,,,,,,,,,,,,,,,,,,,,,,,,,,,,,,,,,,,,,,,,,,,19,001,2024-07-01_14h55.26.674,robot_nback_sign,2022.2.5,59.96879224057771,
,,,,,,,,,,,,,,,,,,,,,,,,,20.292296999999962,20.292296999999962,space,63.16768680000041,,,,,,,,,,,,,,,,,,,,,,,,,,,,,,,,,,,,,,,,,,,,,,19,001,2024-07-01_14h55.26.674,robot_nback_sign,2022.2.5,59.96879224057771,
G,False,1,letter,2,True,False,robot_stimuli\\filler.mp4,19,0,0,0,0,0,0,0,0,,,,,,,,,,,,,83.50497369999994,83.50497369999994,space,55.90633820000039,139.4373297000002,140.84814749999987,140.84814749999987,140.84814749999987,140.84814749999987,140.84814749999987,143.1571342999996,None,143.1571342999996,143.1571342999996,143.1571342999996,143.1571342999996,143.1571342999996,143.1571342999996,143.1571342999996,143.1571342999996,None,None,None,,,,,,,,,,,,,,,,,,,,,,,19,001,2024-07-01_14h55.26.674,robot_nback_sign,2022.2.5,59.96879224057771,
G,True,1,letter,2,False,False,robot_stimuli\\filler.mp4,19,0,0,0,0,0,1,1,1,,,,,,,,,,,,,143.1571342999996,143.1571342999996,None,,143.1571342999996,,144.23801009999988,144.23801009999988,144.23801009999988,144.23801009999988,146.26620679999996,n,146.26620679999996,146.26620679999996,146.26620679999996,146.26620679999996,146.26620679999996,146.26620679999996,146.26620679999996,146.26620679999996,None,None,None,143.1571342999996,143.1571342999996,1.8944467999999688,,,,,,,,,,,,,,,,,,,,19,001,2024-07-01_14h55.26.674,robot_nback_sign,2022.2.5,59.96879224057771,
P,False,1,letter,2,False,False,robot_stimuli\\filler.mp4,19,0,0,0,0,0,2,2,2,,,,,,,,,,,,,146.26620679999996,146.26620679999996,None,,146.26620679999996,147.33555999999953,147.33555999999953,147.33555999999953,147.33555999999953,147.33555999999953,149.36318380000012,None,149.36318380000012,149.36318380000012,149.36318380000012,149.36318380000012,149.36318380000012,149.36318380000012,149.36318380000012,149.36318380000012,None,None,None,146.26620679999996,146.26620679999996,,,,,,,,,,,,,,,,,,,,,19,001,2024-07-01_14h55.26.674,robot_nback_sign,2022.2.5,59.96879224057771,
C,False,1,letter,2,False,False,robot_stimuli\\filler.mp4,19,0,0,0,0,0,3,3,3,,,,,,,,,,,,,149.36318380000012,149.36318380000012,None,,149.36318380000012,150.43697950000023,150.43697950000023,150.43697950000023,150.43697950000023,150.43697950000023,152.4677241999998,None,152.4677241999998,152.4677241999998,152.4677241999998,152.4677241999998,152.4677241999998,152.4677241999998,152.4677241999998,152.4677241999998,None,None,None,149.36318380000012,149.36318380000012,,,,,,,,,,,,,,,,,,,,,19,001,2024-07-01_14h55.26.674,robot_nback_sign,2022.2.5,59.96879224057771,
C,True,1,letter,2,False,False,robot_stimuli\\filler.mp4,19,0,0,0,0,0,4,4,4,,,,,,,,,,,,,152.4677241999998,152.4677241999998,None,,152.4677241999998,153.54053199999998,153.54053199999998,153.54053199999998,153.54053199999998,153.54053199999998,155.76676229999975,None,155.76676229999975,155.76676229999975,155.76676229999975,155.76676229999975,155.76676229999975,155.76676229999975,155.76676229999975,155.76676229999975,None,None,None,152.4677241999998,152.4677241999998,,,,,,,,,,,,,,,,,,,,,19,001,2024-07-01_14h55.26.674,robot_nback_sign,2022.2.5,59.96879224057771,
K,False,1,letter,2,False,True,robot_stimuli\\filler.mp4,19,0,0,0,0,0,5,5,5,,,,,,,,,,,,,155.76676229999975,155.76676229999975,None,,155.76676229999975,156.84238579999965,156.84238579999965,156.84238579999965,156.84238579999965,156.84238579999965,158.93029769999976,None,158.93029769999976,175.00820039999962,158.93029769999976,175.00820039999962,158.93029769999976,175.00820039999962,158.93029769999976,175.00820039999962,33.85802469135802,14.76028580000002,space,155.76676229999975,155.76676229999975,,16.024610000000393,,,,,,,,,,,,,,,,,,,19,001,2024-07-01_14h55.26.674,robot_nback_sign,2022.2.5,59.96879224057771,
H,False,2,letter,2,True,False,robot_stimuli\\filler.mp4,19,0,0,0,0,0,6,6,6,,,,,,,,,,,,,175.00820039999962,175.00820039999962,space,3.724003700001049,178.75403769999957,179.82548010000028,179.82548010000028,179.82548010000028,179.82548010000028,179.82548010000028,182.05148000000008,None,182.05148000000008,182.05148000000008,182.05148000000008,182.05148000000008,182.05148000000008,182.05148000000008,182.05148000000008,182.05148000000008,None,None,None,,,,,,,,,,,,,,,,,,,,,,,19,001,2024-07-01_14h55.26.674,robot_nback_sign,2022.2.5,59.96879224057771,
W,False,2,letter,2,False,False,robot_stimuli\\filler.mp4,19,0,0,0,0,0,7,7,7,,,,,,,,,,,,,182.05148000000008,182.05148000000008,None,,182.05148000000008,183.12155600000006,183.12155600000006,183.12155600000006,183.12155600000006,183.12155600000006,185.1509702000003,n,185.1509702000003,185.1509702000003,185.1509702000003,185.1509702000003,185.1509702000003,185.1509702000003,185.1509702000003,185.1509702000003,None,None,None,182.05148000000008,182.05148000000008,1.2498838000001342,,,,,,,,,,,,,,,,,,,,19,001,2024-07-01_14h55.26.674,robot_nback_sign,2022.2.5,59.96879224057771,
H,True,2,letter,2,False,False,robot_stimuli\\filler.mp4,19,0,0,0,0,0,8,8,8,,,,,,,,,,,,,185.1509702000003,185.1509702000003,None,,185.1509702000003,186.21851789999982,186.21851789999982,186.21851789999982,186.21851789999982,186.21851789999982,188.2471803999997,None,188.2471803999997,188.2471803999997,188.2471803999997,188.2471803999997,188.2471803999997,188.2471803999997,188.2471803999997,188.2471803999997,None,None,None,185.1509702000003,185.1509702000003,,,,,,,,,,,,,,,,,,,,,19,001,2024-07-01_14h55.26.674,robot_nback_sign,2022.2.5,59.96879224057771,
P,False,2,letter,2,False,False,robot_stimuli\\filler.mp4,19,0,0,0,0,0,9,9,9,,,,,,,,,,,,,188.2471803999997,188.2471803999997,None,,188.2471803999997,189.3186311999998,189.3186311999998,189.3186311999998,189.3186311999998,189.3186311999998,191.34643400000004,None,191.34643400000004,191.34643400000004,191.34643400000004,191.34643400000004,191.34643400000004,191.34643400000004,191.34643400000004,191.34643400000004,None,None,None,188.2471803999997,188.2471803999997,,,,,,,,,,,,,,,,,,,,,19,001,2024-07-01_14h55.26.674,robot_nback_sign,2022.2.5,59.96879224057771,
H,True,2,letter,2,False,False,robot_stimuli\\filler.mp4,19,0,0,0,0,0,10,10,10,,,,,,,,,,,,,191.34643400000004,191.34643400000004,None,,191.34643400000004,192.41962450000028,192.41962450000028,192.41962450000028,192.41962450000028,192.41962450000028,194.4533180999997,n,194.4533180999997,194.4533180999997,194.4533180999997,194.4533180999997,194.4533180999997,194.4533180999997,194.4533180999997,194.4533180999997,None,None,None,191.34643400000004,191.34643400000004,1.8481421000005867,,,,,,,,,,,,,,,,,,,,19,001,2024-07-01_14h55.26.674,robot_nback_sign,2022.2.5,59.96879224057771,
R,False,2,letter,2,False,True,robot_stimuli\\filler.mp4,19,0,0,0,0,0,11,11,11,,,,,,,,,,,,,194.4533180999997,194.4533180999997,None,,194.4533180999997,195.5227636999998,195.5227636999998,195.5227636999998,195.5227636999998,195.5227636999998,197.77681759999996,n,197.77681759999996,203.27319220000027,197.77681759999996,203.27319220000027,197.77681759999996,203.27319220000027,197.77681759999996,203.27319220000027,36.79012345679013,2.9552772999995796,space,194.4533180999997,194.4533180999997,0.9613932000002023,5.426130400001057,,,,,,,,,,,,,,,,,,,19,001,2024-07-01_14h55.26.674,robot_nback_sign,2022.2.5,59.96879224057771,
S,False,3,letter,2,True,False,robot_stimuli\\filler.mp4,19,0,0,0,0,0,12,12,12,,,,,,,,,,,,,203.27319220000027,203.27319220000027,space,4.002396700000645,207.3040807999996,208.37558609999996,208.37558609999996,208.37558609999996,208.37558609999996,208.37558609999996,210.60358600000018,None,210.60358600000018,210.60358600000018,210.60358600000018,210.60358600000018,210.60358600000018,210.60358600000018,210.60358600000018,210.60358600000018,None,None,None,,,,,,,,,,,,,,,,,,,,,,,19,001,2024-07-01_14h55.26.674,robot_nback_sign,2022.2.5,59.96879224057771,
K,False,3,letter,2,False,False,robot_stimuli\\filler.mp4,19,0,0,0,0,0,13,13,13,,,,,,,,,,,,,210.60358600000018,210.60358600000018,None,,210.60358600000018,211.66851020000013,211.66851020000013,211.66851020000013,211.66851020000013,211.66851020000013,213.70175749999999,n,213.70175749999999,213.70175749999999,213.70175749999999,213.70175749999999,213.70175749999999,213.70175749999999,213.70175749999999,213.70175749999999,None,None,None,210.60358600000018,210.60358600000018,1.4070613000003505,,,,,,,,,,,,,,,,,,,,19,001,2024-07-01_14h55.26.674,robot_nback_sign,2022.2.5,59.96879224057771,
P,False,3,letter,2,False,False,robot_stimuli\\filler.mp4,19,0,0,0,0,0,14,14,14,,,,,,,,,,,,,213.70175749999999,213.70175749999999,None,,213.70175749999999,214.76812880000034,214.76812880000034,214.76812880000034,214.76812880000034,214.76812880000034,216.79636779999964,n,216.79636779999964,216.79636779999964,216.79636779999964,216.79636779999964,216.79636779999964,216.79636779999964,216.79636779999964,216.79636779999964,None,None,None,213.70175749999999,213.70175749999999,1.6423015999998825,,,,,,,,,,,,,,,,,,,,19,001,2024-07-01_14h55.26.674,robot_nback_sign,2022.2.5,59.96879224057771,
H,False,3,letter,2,False,False,robot_stimuli\\filler.mp4,19,0,0,0,0,0,15,15,15,,,,,,,,,,,,,216.79636779999964,216.79636779999964,None,,216.79636779999964,217.86786630000006,217.86786630000006,217.86786630000006,217.86786630000006,217.86786630000006,219.90637890000016,n,219.90637890000016,219.90637890000016,219.90637890000016,219.90637890000016,219.90637890000016,219.90637890000016,219.90637890000016,219.90637890000016,None,None,None,216.79636779999964,216.79636779999964,0.9510925000004136,,,,,,,,,,,,,,,,,,,,19,001,2024-07-01_14h55.26.674,robot_nback_sign,2022.2.5,59.96879224057771,
K,True,3,letter,2,False,False,robot_stimuli\\filler.mp4,19,0,0,0,0,0,16,16,16,,,,,,,,,,,,,219.90637890000016,219.90637890000016,None,,219.90637890000016,,220.9855778000001,220.9855778000001,220.9855778000001,220.9855778000001,223.01984339999944,c,223.01984339999944,223.01984339999944,223.01984339999944,223.01984339999944,223.01984339999944,223.01984339999944,223.01984339999944,223.01984339999944,None,None,None,219.90637890000016,219.90637890000016,1.9060483000002932,,,,,,,,,,,,,,,,,,,,19,001,2024-07-01_14h55.26.674,robot_nback_sign,2022.2.5,59.96879224057771,
P,True,3,letter,2,False,True,robot_stimuli\\filler.mp4,19,0,0,0,0,0,17,17,17,,,,,,,,,,,,,223.01984339999944,223.01984339999944,None,,223.01984339999944,224.08504639999956,224.08504639999956,224.08504639999956,224.08504639999956,224.08504639999956,226.14411909999944,c,226.14411909999944,234.2048636999998,226.14411909999944,234.2048636999998,226.14411909999944,234.2048636999998,226.14411909999944,234.2048636999998,51.141975308641975,7.0216583000001265,space,223.01984339999944,223.01984339999944,1.42929070000082,8.018764600000395,,,,,,,,,,,,,,,,,,,19,001,2024-07-01_14h55.26.674,robot_nback_sign,2022.2.5,59.96879224057771,
L_Base_Z_For,False,1,robot,1,True,False,robot_stimuli\L_Base_Z_For.mp4,19,0,0,0,0,0,18,18,18,,,,,,,,,,,,,234.2048636999998,234.2048636999998,space,4.125852900000609,238.35437939999974,239.47067809999953,,239.47067809999953,239.47067809999953,239.47067809999953,,None,243.1015609999995,243.1015609999995,243.1015609999995,243.1015609999995,243.1015609999995,243.1015609999995,243.1015609999995,243.1015609999995,None,None,None,,,,,239.47067809999953,,,,,,,,,,,,,,,,,,19,001,2024-07-01_14h55.26.674,robot_nback_sign,2022.2.5,59.96879224057771,
L_Arm_Y_For,False,1,robot,1,False,False,robot_stimuli\L_Arm_Y_For.mp4,19,0,0,0,0,0,19,19,19,,,,,,,,,,,,,243.1015609999995,243.1015609999995,None,,243.1015609999995,244.20169329999953,,244.20169329999953,244.20169329999953,244.20169329999953,,None,247.85515740000028,247.85515740000028,247.85515740000028,247.85515740000028,247.85515740000028,247.85515740000028,247.85515740000028,247.85515740000028,None,None,None,243.1015609999995,243.1015609999995,,,244.20169329999953,,,,,,,,,,,,,,,,,,19,001,2024-07-01_14h55.26.674,robot_nback_sign,2022.2.5,59.96879224057771,
L_Arm_Y_For,True,1,robot,1,False,False,robot_stimuli\L_Arm_Y_For.mp4,19,0,0,0,0,0,20,20,20,,,,,,,,,,,,,247.85515740000028,247.85515740000028,None,,247.85515740000028,,,248.96093699999983,248.96093699999983,248.96093699999983,,c,252.60500839999986,252.60500839999986,252.60500839999986,252.60500839999986,252.60500839999986,252.60500839999986,252.60500839999986,252.60500839999986,None,None,None,247.85515740000028,247.85515740000028,3.394489000000249,,248.96093699999983,,,,,,,,,,,,,,,,,,19,001,2024-07-01_14h55.26.674,robot_nback_sign,2022.2.5,59.96879224057771,
L_Arm_Y_For,True,1,robot,1,False,False,robot_stimuli\L_Arm_Y_For.mp4,19,0,0,0,0,0,21,21,21,,,,,,,,,,,,,252.60500839999986,252.60500839999986,None,,252.60500839999986,253.69469860000027,,253.69469860000027,253.69469860000027,253.69469860000027,,None,257.3379626999995,257.3379626999995,257.3379626999995,257.3379626999995,257.3379626999995,257.3379626999995,257.3379626999995,257.3379626999995,None,None,None,252.60500839999986,252.60500839999986,,,253.69469860000027,,,,,,,,,,,,,,,,,,19,001,2024-07-01_14h55.26.674,robot_nback_sign,2022.2.5,59.96879224057771,
R_Torso_Y_Back,False,1,robot,1,False,False,robot_stimuli\R_Torso_Y_Back.mp4,19,0,0,0,0,0,22,22,22,,,,,,,,,,,,,257.3379626999995,257.3379626999995,None,,257.3379626999995,258.4356944000001,,258.4356944000001,258.4356944000001,258.4356944000001,,n,262.0806332000002,262.0806332000002,262.0806332000002,262.0806332000002,262.0806332000002,262.0806332000002,262.0806332000002,262.0806332000002,None,None,None,257.3379626999995,257.3379626999995,2.6389813000005233,,258.4356944000001,,,,,,,,,,,,,,,,,,19,001,2024-07-01_14h55.26.674,robot_nback_sign,2022.2.5,59.96879224057771,
R_Torso_Z_Back,False,1,robot,1,False,True,robot_stimuli\R_Torso_Z_Back.mp4,19,0,0,0,0,0,23,23,23,,,,,,,,,,,,,262.0806332000002,262.0806332000002,None,,262.0806332000002,263.1806052000002,,263.1806052000002,263.1806052000002,263.1806052000002,,c,266.8424925999998,272.5759259999995,266.8424925999998,272.5759259999995,266.8424925999998,272.5759259999995,266.8424925999998,272.5759259999995,40.80246913580247,4.638494499999979,space,262.0806332000002,262.0806332000002,2.878546200000528,5.680232200000319,263.1806052000002,,,,,,,,,,,,,,,,,,19,001,2024-07-01_14h55.26.674,robot_nback_sign,2022.2.5,59.96879224057771,
R_Head_Z_For,False,2,robot,1,True,False,robot_stimuli\R_Head_Z_For.mp4,19,0,0,0,0,0,24,24,24,,,,,,,,,,,,,272.5759259999995,272.5759259999995,space,5.307954800000516,277.9043523999999,279.0022809000002,,279.0022809000002,279.0022809000002,279.0022809000002,,None,282.6512756000002,282.6512756000002,282.6512756000002,282.6512756000002,282.6512756000002,282.6512756000002,282.6512756000002,282.6512756000002,None,None,None,,,,,279.0022809000002,,,,,,,,,,,,,,,,,,19,001,2024-07-01_14h55.26.674,robot_nback_sign,2022.2.5,59.96879224057771,
L_Arm_Z_For,False,2,robot,1,False,False,robot_stimuli\L_Arm_Z_For.mp4,19,0,0,0,0,0,25,25,25,,,,,,,,,,,,,282.6512756000002,282.6512756000002,None,,282.6512756000002,283.7424357,,283.7424357,283.7424357,283.7424357,,None,287.3793287999997,287.3793287999997,287.3793287999997,287.3793287999997,287.3793287999997,287.3793287999997,287.3793287999997,287.3793287999997,None,None,None,282.6512756000002,282.6512756000002,,,283.7424357,,,,,,,,,,,,,,,,,,19,001,2024-07-01_14h55.26.674,robot_nback_sign,2022.2.5,59.96879224057771,
R_Head_Z_For,True,2,robot,1,False,False,robot_stimuli\R_Head_Z_For.mp4,19,0,0,0,0,0,26,26,26,,,,,,,,,,,,,287.3793287999997,287.3793287999997,None,,287.3793287999997,288.4806569000002,,288.4806569000002,288.4806569000002,288.4806569000002,,c,292.12162069999977,292.12162069999977,292.12162069999977,292.12162069999977,292.12162069999977,292.12162069999977,292.12162069999977,292.12162069999977,None,None,None,287.3793287999997,287.3793287999997,3.2991641000007803,,288.4806569000002,,,,,,,,,,,,,,,,,,19,001,2024-07-01_14h55.26.674,robot_nback_sign,2022.2.5,59.96879224057771,
L_Arm_Z_For,True,2,robot,1,False,False,robot_stimuli\L_Arm_Z_For.mp4,19,0,0,0,0,0,27,27,27,,,,,,,,,,,,,292.12162069999977,292.12162069999977,None,,292.12162069999977,293.2145246,,293.2145246,293.2145246,293.2145246,,c,296.8474420000002,296.8474420000002,296.8474420000002,296.8474420000002,296.8474420000002,296.8474420000002,296.8474420000002,296.8474420000002,None,None,None,292.12162069999977,292.12162069999977,3.4853632000003927,,293.2145246,,,,,,,,,,,,,,,,,,19,001,2024-07-01_14h55.26.674,robot_nback_sign,2022.2.5,59.96879224057771,
L_Arm_Z_Back,False,2,robot,1,False,False,robot_stimuli\L_Arm_Z_Back.mp4,19,0,0,0,0,0,28,28,28,,,,,,,,,,,,,296.8474420000002,296.8474420000002,None,,296.8474420000002,297.9465502000003,,297.9465502000003,297.9465502000003,297.9465502000003,,None,301.5887542999999,301.5887542999999,301.5887542999999,301.5887542999999,301.5887542999999,301.5887542999999,301.5887542999999,301.5887542999999,None,None,None,296.8474420000002,296.8474420000002,,,297.9465502000003,,,,,,,,,,,,,,,,,,19,001,2024-07-01_14h55.26.674,robot_nback_sign,2022.2.5,59.96879224057771,
R_Head_Z_Back,False,2,robot,1,False,True,robot_stimuli\R_Head_Z_Back.mp4,19,0,0,0,0,0,29,29,29,,,,,,,,,,,,,301.5887542999999,301.5887542999999,None,,301.5887542999999,,,302.6920190999999,302.6920190999999,302.6920190999999,,None,306.3678124999997,309.3874844000002,306.3678124999997,309.3874844000002,306.3678124999997,309.3874844000002,306.3678124999997,309.3874844000002,50.833333333333336,2.4702158999998574,space,301.5887542999999,301.5887542999999,,2.971512900000562,302.6920190999999,,,,,,,,,,,,,,,,,,19,001,2024-07-01_14h55.26.674,robot_nback_sign,2022.2.5,59.96879224057771,
R_Arm_Z_Back,False,3,robot,1,True,False,robot_stimuli\R_Arm_Z_Back.mp4,19,0,0,0,0,0,30,30,30,,,,,,,,,,,,,309.3874844000002,309.3874844000002,space,1.2308661000006396,310.6374802999999,311.7313772999996,,311.7313772999996,311.7313772999996,311.7313772999996,,None,315.3694453999997,315.3694453999997,315.3694453999997,315.3694453999997,315.3694453999997,315.3694453999997,315.3694453999997,315.3694453999997,None,None,None,,,,,311.7313772999996,,,,,,,,,,,,,,,,,,19,001,2024-07-01_14h55.26.674,robot_nback_sign,2022.2.5,59.96879224057771,
R_Head_Z_Back,False,3,robot,1,False,False,robot_stimuli\R_Head_Z_Back.mp4,19,0,0,0,0,0,31,31,31,,,,,,,,,,,,,315.3694453999997,315.3694453999997,None,,315.3694453999997,316.4536928999996,,316.4536928999996,316.4536928999996,316.4536928999996,,None,320.1047884999998,320.1047884999998,320.1047884999998,320.1047884999998,320.1047884999998,320.1047884999998,320.1047884999998,320.1047884999998,None,None,None,315.3694453999997,315.3694453999997,,,316.4536928999996,,,,,,,,,,,,,,,,,,19,001,2024-07-01_14h55.26.674,robot_nback_sign,2022.2.5,59.96879224057771,
R_Base_Y_Back,False,3,robot,1,False,False,robot_stimuli\R_Base_Y_Back.mp4,19,0,0,0,0,0,32,32,32,,,,,,,,,,,,,320.1047884999998,320.1047884999998,None,,320.1047884999998,321.1841058,,321.1841058,321.1841058,321.1841058,,None,324.8283921000002,324.8283921000002,324.8283921000002,324.8283921000002,324.8283921000002,324.8283921000002,324.8283921000002,324.8283921000002,None,None,None,320.1047884999998,320.1047884999998,,,321.1841058,,,,,,,,,,,,,,,,,,19,001,2024-07-01_14h55.26.674,robot_nback_sign,2022.2.5,59.96879224057771,
R_Arm_Z_Back,True,3,robot,1,False,False,robot_stimuli\R_Arm_Z_Back.mp4,19,0,0,0,0,0,33,33,33,,,,,,,,,,,,,324.8283921000002,324.8283921000002,None,,324.8283921000002,325.9219046999997,,325.9219046999997,325.9219046999997,325.9219046999997,,c,329.56053939999947,329.56053939999947,329.56053939999947,329.56053939999947,329.56053939999947,329.56053939999947,329.56053939999947,329.56053939999947,None,None,None,324.8283921000002,324.8283921000002,3.368424700000105,,325.9219046999997,,,,,,,,,,,,,,,,,,19,001,2024-07-01_14h55.26.674,robot_nback_sign,2022.2.5,59.96879224057771,
R_Torso_X_Back,False,3,robot,1,False,False,robot_stimuli\R_Torso_X_Back.mp4,19,0,0,0,0,0,34,34,34,,,,,,,,,,,,,329.56053939999947,329.56053939999947,None,,329.56053939999947,330.65177810000023,,330.65177810000023,330.65177810000023,330.65177810000023,,n,334.2956865999995,334.2956865999995,334.2956865999995,334.2956865999995,334.2956865999995,334.2956865999995,334.2956865999995,334.2956865999995,None,None,None,329.56053939999947,329.56053939999947,3.079882300000463,,330.65177810000023,,,,,,,,,,,,,,,,,,19,001,2024-07-01_14h55.26.674,robot_nback_sign,2022.2.5,59.96879224057771,
R_Base_Y_Back,True,3,robot,1,False,True,robot_stimuli\R_Base_Y_Back.mp4,19,0,0,0,0,0,35,35,35,,,,,,,,,,,,,334.2956865999995,334.2956865999995,None,,334.2956865999995,335.38622620000024,,335.38622620000024,335.38622620000024,335.38622620000024,,n,339.06231299999945,342.4457431999999,339.06231299999945,342.4457431999999,339.06231299999945,342.4457431999999,339.06231299999945,342.4457431999999,48.51851851851852,2.2375236000007135,space,334.2956865999995,334.2956865999995,2.6961794000008013,3.3326358000003893,335.38622620000024,,,,,,,,,,,,,,,,,,19,001,2024-07-01_14h55.26.674,robot_nback_sign,2022.2.5,59.96879224057771,
,,,,,,,,,0,0,0,0,,,,,,,,,,,,,,,,,,,,,,,,,,,,,,,,,,,,,,,,,,,,,342.4457431999999,342.4457431999999,342.4457431999999,c,3.9345400000001973,,,,,,,,,,,,,19,001,2024-07-01_14h55.26.674,robot_nback_sign,2022.2.5,59.96879224057771,
L_Arm_X_Back,False,1,robot,1,True,False,robot_stimuli\L_Arm_X_Back.mp4,19,,,,,,,,,0,0,0,0,,,,,,,,,,,,,352.07106680000015,353.15117310000005,,,,,,,356.80393189999995,356.80393189999995,356.80393189999995,356.80393189999995,356.80393189999995,356.80393189999995,356.80393189999995,356.80393189999995,None,None,None,,,,,,,,,,,346.44294850000006,346.44294850000006,space,5.608889799999815,353.15117310000005,353.15117310000005,None,,,,,,19,001,2024-07-01_14h55.26.674,robot_nback_sign,2022.2.5,59.96879224057771,
R_Base_Y_For,False,1,robot,1,False,False,robot_stimuli\R_Base_Y_For.mp4,19,,,,,,,,,0,1,1,1,,,,,,,,,,,,,356.80393189999995,357.9019195999999,,,,,,,361.5518984999999,361.5518984999999,361.5518984999999,361.5518984999999,361.5518984999999,361.5518984999999,361.5518984999999,361.5518984999999,None,None,None,,,,,,,,,,,356.80393189999995,356.80393189999995,None,,357.9019195999999,357.9019195999999,n,356.80393189999995,356.80393189999995,2.6448166000009223,,,19,001,2024-07-01_14h55.26.674,robot_nback_sign,2022.2.5,59.96879224057771,
R_Head_Z_Back,False,1,robot,1,False,False,robot_stimuli\R_Head_Z_Back.mp4,19,,,,,,,,,0,2,2,2,,,,,,,,,,,,,361.5518984999999,362.63363239999944,,,,,,,366.2849914999997,366.2849914999997,366.2849914999997,366.2849914999997,366.2849914999997,366.2849914999997,366.2849914999997,366.2849914999997,None,None,None,,,,,,,,,,,361.5518984999999,361.5518984999999,None,,362.63363239999944,362.63363239999944,None,361.5518984999999,361.5518984999999,,,,19,001,2024-07-01_14h55.26.674,robot_nback_sign,2022.2.5,59.96879224057771,
R_Torso_Y_Back,False,1,robot,1,False,False,robot_stimuli\R_Torso_Y_Back.mp4,19,,,,,,,,,0,3,3,3,,,,,,,,,,,,,366.2849914999997,367.36671939999997,,,,,,,371.0207872000001,371.0207872000001,371.0207872000001,371.0207872000001,371.0207872000001,371.0207872000001,371.0207872000001,371.0207872000001,None,None,None,,,,,,,,,,,366.2849914999997,366.2849914999997,None,,367.36671939999997,367.36671939999997,n,366.2849914999997,366.2849914999997,2.8684674000005543,,,19,001,2024-07-01_14h55.26.674,robot_nback_sign,2022.2.5,59.96879224057771,
L_Head_X_For,False,1,robot,1,False,False,robot_stimuli\L_Head_X_For.mp4,19,,,,,,,,,0,4,4,4,,,,,,,,,,,,,371.0207872000001,372.1108445,,,,,,,375.68797369999993,375.68797369999993,375.68797369999993,375.68797369999993,375.68797369999993,375.68797369999993,375.68797369999993,375.68797369999993,None,None,None,,,,,,,,,,,371.0207872000001,371.0207872000001,None,,372.1108445,372.1108445,n,371.0207872000001,371.0207872000001,3.10007190000033,,,19,001,2024-07-01_14h55.26.674,robot_nback_sign,2022.2.5,59.96879224057771,
R_Arm_Z_For,False,1,robot,1,False,False,robot_stimuli\R_Arm_Z_For.mp4,19,,,,,,,,,0,5,5,5,,,,,,,,,,,,,375.68797369999993,376.76463049999984,,,,,,,380.39446169999974,380.39446169999974,380.39446169999974,380.39446169999974,380.39446169999974,380.39446169999974,380.39446169999974,380.39446169999974,None,None,None,,,,,,,,,,,375.68797369999993,375.68797369999993,None,,376.76463049999984,376.76463049999984,n,375.68797369999993,375.68797369999993,3.4698932000010245,,,19,001,2024-07-01_14h55.26.674,robot_nback_sign,2022.2.5,59.96879224057771,
R_Arm_Z_For,True,1,robot,1,False,False,robot_stimuli\R_Arm_Z_For.mp4,19,,,,,,,,,0,6,6,6,,,,,,,,,,,,,380.39446169999974,381.47635699999955,,,,,,,385.12028069999997,385.12028069999997,385.12028069999997,385.12028069999997,385.12028069999997,385.12028069999997,385.12028069999997,385.12028069999997,None,None,None,,,,,,,,,,,380.39446169999974,380.39446169999974,None,,381.47635699999955,381.47635699999955,c,380.39446169999974,380.39446169999974,2.3519952000006015,,,19,001,2024-07-01_14h55.26.674,robot_nback_sign,2022.2.5,59.96879224057771,
R_Torso_Z_Back,False,1,robot,1,False,False,robot_stimuli\R_Torso_Z_Back.mp4,19,,,,,,,,,0,7,7,7,,,,,,,,,,,,,385.12028069999997,386.19458099999974,,,,,,,389.8501618999999,389.8501618999999,389.8501618999999,389.8501618999999,389.8501618999999,389.8501618999999,389.8501618999999,389.8501618999999,None,None,None,,,,,,,,,,,385.12028069999997,385.12028069999997,None,,386.19458099999974,386.19458099999974,n,385.12028069999997,385.12028069999997,3.6012461000009353,,,19,001,2024-07-01_14h55.26.674,robot_nback_sign,2022.2.5,59.96879224057771,
L_Arm_Y_Back,False,1,robot,1,False,False,robot_stimuli\L_Arm_Y_Back.mp4,19,,,,,,,,,0,8,8,8,,,,,,,,,,,,,389.8501618999999,390.93337079999947,,,,,,,394.5830979000002,394.5830979000002,394.5830979000002,394.5830979000002,394.5830979000002,394.5830979000002,394.5830979000002,394.5830979000002,None,None,None,,,,,,,,,,,389.8501618999999,389.8501618999999,None,,390.93337079999947,390.93337079999947,n,389.8501618999999,389.8501618999999,3.422161600000436,,,19,001,2024-07-01_14h55.26.674,robot_nback_sign,2022.2.5,59.96879224057771,
L_Torso_X_For,False,1,robot,1,False,False,robot_stimuli\L_Torso_X_For.mp4,19,,,,,,,,,0,9,9,9,,,,,,,,,,,,,394.5830979000002,395.6662739000003,,,,,,,399.3194733,399.3194733,399.3194733,399.3194733,399.3194733,399.3194733,399.3194733,399.3194733,None,None,None,,,,,,,,,,,394.5830979000002,394.5830979000002,None,,395.6662739000003,395.6662739000003,n,394.5830979000002,394.5830979000002,3.0491447000003973,,,19,001,2024-07-01_14h55.26.674,robot_nback_sign,2022.2.5,59.96879224057771,
L_Torso_X_Back,False,1,robot,1,False,False,robot_stimuli\L_Torso_X_Back.mp4,19,,,,,,,,,0,10,10,10,,,,,,,,,,,,,399.3194733,400.41378970000005,,,,,,,404.0436233999999,404.0436233999999,404.0436233999999,404.0436233999999,404.0436233999999,404.0436233999999,404.0436233999999,404.0436233999999,None,None,None,,,,,,,,,,,399.3194733,399.3194733,None,,400.41378970000005,400.41378970000005,c,399.3194733,399.3194733,2.789253500000086,,,19,001,2024-07-01_14h55.26.674,robot_nback_sign,2022.2.5,59.96879224057771,
L_Arm_X_Back,False,1,robot,1,False,False,robot_stimuli\L_Arm_X_Back.mp4,19,,,,,,,,,0,11,11,11,,,,,,,,,,,,,404.0436233999999,405.13096399999995,,,,,,,408.7606972000003,408.7606972000003,408.7606972000003,408.7606972000003,408.7606972000003,408.7606972000003,408.7606972000003,408.7606972000003,None,None,None,,,,,,,,,,,404.0436233999999,404.0436233999999,None,,405.13096399999995,405.13096399999995,n,404.0436233999999,404.0436233999999,3.464563700000326,,,19,001,2024-07-01_14h55.26.674,robot_nback_sign,2022.2.5,59.96879224057771,
R_Head_Z_Back,False,1,robot,1,False,False,robot_stimuli\R_Head_Z_Back.mp4,19,,,,,,,,,0,12,12,12,,,,,,,,,,,,,408.7606972000003,409.8488589999997,,,,,,,413.50390270000025,413.50390270000025,413.50390270000025,413.50390270000025,413.50390270000025,413.50390270000025,413.50390270000025,413.50390270000025,None,None,None,,,,,,,,,,,408.7606972000003,408.7606972000003,None,,409.8488589999997,409.8488589999997,n,408.7606972000003,408.7606972000003,2.8898972000006324,,,19,001,2024-07-01_14h55.26.674,robot_nback_sign,2022.2.5,59.96879224057771,
R_Torso_Y_For,False,1,robot,1,False,False,robot_stimuli\R_Torso_Y_For.mp4,19,,,,,,,,,0,13,13,13,,,,,,,,,,,,,413.50390270000025,414.5987207999997,,,,,,,418.2497709999998,418.2497709999998,418.2497709999998,418.2497709999998,418.2497709999998,418.2497709999998,418.2497709999998,418.2497709999998,None,None,None,,,,,,,,,,,413.50390270000025,413.50390270000025,None,,414.5987207999997,414.5987207999997,n,413.50390270000025,413.50390270000025,3.027835800000503,,,19,001,2024-07-01_14h55.26.674,robot_nback_sign,2022.2.5,59.96879224057771,
R_Torso_Y_Back,False,1,robot,1,False,False,robot_stimuli\R_Torso_Y_Back.mp4,19,,,,,,,,,0,14,14,14,,,,,,,,,,,,,418.2497709999998,419.33252280000033,,,,,,,422.9873196999997,422.9873196999997,422.9873196999997,422.9873196999997,422.9873196999997,422.9873196999997,422.9873196999997,422.9873196999997,None,None,None,,,,,,,,,,,418.2497709999998,418.2497709999998,None,,419.33252280000033,419.33252280000033,c,418.2497709999998,418.2497709999998,2.902396899999985,,,19,001,2024-07-01_14h55.26.674,robot_nback_sign,2022.2.5,59.96879224057771,
R_Torso_Y_Back,True,1,robot,1,False,False,robot_stimuli\R_Torso_Y_Back.mp4,19,,,,,,,,,0,15,15,15,,,,,,,,,,,,,422.9873196999997,424.06346459999986,,,,,,,427.7023366000003,427.7023366000003,427.7023366000003,427.7023366000003,427.7023366000003,427.7023366000003,427.7023366000003,427.7023366000003,None,None,None,,,,,,,,,,,422.9873196999997,422.9873196999997,None,,424.06346459999986,424.06346459999986,c,422.9873196999997,422.9873196999997,3.4990002000004097,,,19,001,2024-07-01_14h55.26.674,robot_nback_sign,2022.2.5,59.96879224057771,
R_Torso_Y_Back,True,1,robot,1,False,False,robot_stimuli\R_Torso_Y_Back.mp4,19,,,,,,,,,0,16,16,16,,,,,,,,,,,,,427.7023366000003,428.77501779999966,,,,,,,432.41915830000016,432.41915830000016,432.41915830000016,432.41915830000016,432.41915830000016,432.41915830000016,432.41915830000016,432.41915830000016,None,None,None,,,,,,,,,,,427.7023366000003,427.7023366000003,None,,428.77501779999966,428.77501779999966,c,427.7023366000003,427.7023366000003,3.075422100000651,,,19,001,2024-07-01_14h55.26.674,robot_nback_sign,2022.2.5,59.96879224057771,
R_Torso_Y_Back,True,1,robot,1,False,False,robot_stimuli\R_Torso_Y_Back.mp4,19,,,,,,,,,0,17,17,17,,,,,,,,,,,,,432.41915830000016,433.4910079000001,,,,,,,437.13498789999994,437.13498789999994,437.13498789999994,437.13498789999994,437.13498789999994,437.13498789999994,437.13498789999994,437.13498789999994,None,None,None,,,,,,,,,,,432.41915830000016,432.41915830000016,None,,433.4910079000001,433.4910079000001,c,432.41915830000016,432.41915830000016,2.928969500000676,,,19,001,2024-07-01_14h55.26.674,robot_nback_sign,2022.2.5,59.96879224057771,
L_Torso_Z_For,False,1,robot,1,False,False,robot_stimuli\L_Torso_Z_For.mp4,19,,,,,,,,,0,18,18,18,,,,,,,,,,,,,437.13498789999994,438.21478769999976,,,,,,,441.8667253000003,441.8667253000003,441.8667253000003,441.8667253000003,441.8667253000003,441.8667253000003,441.8667253000003,441.8667253000003,None,None,None,,,,,,,,,,,437.13498789999994,437.13498789999994,None,,438.21478769999976,438.21478769999976,n,437.13498789999994,437.13498789999994,3.4208690000004935,,,19,001,2024-07-01_14h55.26.674,robot_nback_sign,2022.2.5,59.96879224057771,
L_Torso_Z_For,True,1,robot,1,False,False,robot_stimuli\L_Torso_Z_For.mp4,19,,,,,,,,,0,19,19,19,,,,,,,,,,,,,441.8667253000003,442.9400104999995,,,,,,,446.5871938,446.5871938,446.5871938,446.5871938,446.5871938,446.5871938,446.5871938,446.5871938,None,None,None,,,,,,,,,,,441.8667253000003,441.8667253000003,None,,442.9400104999995,442.9400104999995,c,441.8667253000003,441.8667253000003,2.8083515000007537,,,19,001,2024-07-01_14h55.26.674,robot_nback_sign,2022.2.5,59.96879224057771,
R_Arm_Y_For,False,1,robot,1,False,False,robot_stimuli\R_Arm_Y_For.mp4,19,,,,,,,,,0,20,20,20,,,,,,,,,,,,,446.5871938,447.67922389999967,,,,,,,451.1875603999997,451.1875603999997,451.1875603999997,451.1875603999997,451.1875603999997,451.1875603999997,451.1875603999997,451.1875603999997,None,None,None,,,,,,,,,,,446.5871938,446.5871938,None,,447.67922389999967,447.67922389999967,n,446.5871938,446.5871938,3.100353200000427,,,19,001,2024-07-01_14h55.26.674,robot_nback_sign,2022.2.5,59.96879224057771,
L_Base_Z_Back,False,1,robot,1,False,False,robot_stimuli\L_Base_Z_Back.mp4,19,,,,,,,,,0,21,21,21,,,,,,,,,,,,,451.1875603999997,452.27957009999955,,,,,,,455.92164030000004,455.92164030000004,455.92164030000004,455.92164030000004,455.92164030000004,455.92164030000004,455.92164030000004,455.92164030000004,None,None,None,,,,,,,,,,,451.1875603999997,451.1875603999997,None,,452.27957009999955,452.27957009999955,n,451.1875603999997,451.1875603999997,3.107264100000066,,,19,001,2024-07-01_14h55.26.674,robot_nback_sign,2022.2.5,59.96879224057771,
L_Arm_Z_Back,False,1,robot,1,False,False,robot_stimuli\L_Arm_Z_Back.mp4,19,,,,,,,,,0,22,22,22,,,,,,,,,,,,,455.92164030000004,457.0082812999999,,,,,,,460.6542092999998,460.6542092999998,460.6542092999998,460.6542092999998,460.6542092999998,460.6542092999998,460.6542092999998,460.6542092999998,None,None,None,,,,,,,,,,,455.92164030000004,455.92164030000004,None,,457.0082812999999,457.0082812999999,n,455.92164030000004,455.92164030000004,2.4920118000009097,,,19,001,2024-07-01_14h55.26.674,robot_nback_sign,2022.2.5,59.96879224057771,
L_Arm_Z_Back,True,1,robot,1,False,False,robot_stimuli\L_Arm_Z_Back.mp4,19,,,,,,,,,0,23,23,23,,,,,,,,,,,,,460.6542092999998,461.72893719999956,,,,,,,465.37012570000024,465.37012570000024,465.37012570000024,465.37012570000024,465.37012570000024,465.37012570000024,465.37012570000024,465.37012570000024,None,None,None,,,,,,,,,,,460.6542092999998,460.6542092999998,None,,461.72893719999956,461.72893719999956,c,460.6542092999998,460.6542092999998,2.490787900000214,,,19,001,2024-07-01_14h55.26.674,robot_nback_sign,2022.2.5,59.96879224057771,
L_Base_X_For,False,1,robot,1,False,False,robot_stimuli\L_Base_X_For.mp4,19,,,,,,,,,0,24,24,24,,,,,,,,,,,,,465.37012570000024,466.45067329999983,,,,,,,470.03272300000026,470.03272300000026,470.03272300000026,470.03272300000026,470.03272300000026,470.03272300000026,470.03272300000026,470.03272300000026,None,None,None,,,,,,,,,,,465.37012570000024,465.37012570000024,None,,466.45067329999983,466.45067329999983,n,465.37012570000024,465.37012570000024,2.8247613000003184,,,19,001,2024-07-01_14h55.26.674,robot_nback_sign,2022.2.5,59.96879224057771,
L_Base_X_For,True,1,robot,1,False,False,robot_stimuli\L_Base_X_For.mp4,19,,,,,,,,,0,25,25,25,,,,,,,,,,,,,470.03272300000026,471.1104942000002,,,,,,,474.68482440000025,474.68482440000025,474.68482440000025,474.68482440000025,474.68482440000025,474.68482440000025,474.68482440000025,474.68482440000025,None,None,None,,,,,,,,,,,470.03272300000026,470.03272300000026,None,,471.1104942000002,471.1104942000002,c,470.03272300000026,470.03272300000026,2.316667900000539,,,19,001,2024-07-01_14h55.26.674,robot_nback_sign,2022.2.5,59.96879224057771,
L_Base_Y_Back,False,1,robot,1,False,False,robot_stimuli\L_Base_Y_Back.mp4,19,,,,,,,,,0,26,26,26,,,,,,,,,,,,,474.68482440000025,475.7658478000003,,,,,,,479.3498714999996,479.3498714999996,479.3498714999996,479.3498714999996,479.3498714999996,479.3498714999996,479.3498714999996,479.3498714999996,None,None,None,,,,,,,,,,,474.68482440000025,474.68482440000025,None,,475.7658478000003,475.7658478000003,None,474.68482440000025,474.68482440000025,,,,19,001,2024-07-01_14h55.26.674,robot_nback_sign,2022.2.5,59.96879224057771,
L_Head_Z_Back,False,1,robot,1,False,False,robot_stimuli\L_Head_Z_Back.mp4,19,,,,,,,,,0,27,27,27,,,,,,,,,,,,,479.3498714999996,480.43342699999994,,,,,,,484.08455369999956,484.08455369999956,484.08455369999956,484.08455369999956,484.08455369999956,484.08455369999956,484.08455369999956,484.08455369999956,None,None,None,,,,,,,,,,,479.3498714999996,479.3498714999996,None,,480.43342699999994,480.43342699999994,n,479.3498714999996,479.3498714999996,2.9222866000000067,,,19,001,2024-07-01_14h55.26.674,robot_nback_sign,2022.2.5,59.96879224057771,
L_Head_Z_Back,True,1,robot,1,False,False,robot_stimuli\L_Head_Z_Back.mp4,19,,,,,,,,,0,28,28,28,,,,,,,,,,,,,484.08455369999956,485.1610257000002,,,,,,,488.8009589000003,488.8009589000003,488.8009589000003,488.8009589000003,488.8009589000003,488.8009589000003,488.8009589000003,488.8009589000003,None,None,None,,,,,,,,,,,484.08455369999956,484.08455369999956,None,,485.1610257000002,485.1610257000002,c,484.08455369999956,484.08455369999956,3.4255209000011746,,,19,001,2024-07-01_14h55.26.674,robot_nback_sign,2022.2.5,59.96879224057771,
L_Base_Z_Back,False,1,robot,1,False,False,robot_stimuli\L_Base_Z_Back.mp4,19,,,,,,,,,0,29,29,29,,,,,,,,,,,,,488.8009589000003,489.88287020000007,,,,,,,493.5317132,493.5317132,493.5317132,493.5317132,493.5317132,493.5317132,493.5317132,493.5317132,None,None,None,,,,,,,,,,,488.8009589000003,488.8009589000003,None,,489.88287020000007,489.88287020000007,n,488.8009589000003,488.8009589000003,3.1370373999998264,,,19,001,2024-07-01_14h55.26.674,robot_nback_sign,2022.2.5,59.96879224057771,
L_Arm_Z_Back,False,1,robot,1,False,False,robot_stimuli\L_Arm_Z_Back.mp4,19,,,,,,,,,0,30,30,30,,,,,,,,,,,,,493.5317132,494.61587189999955,,,,,,,498.2664265000003,498.2664265000003,498.2664265000003,498.2664265000003,498.2664265000003,498.2664265000003,498.2664265000003,498.2664265000003,None,None,None,,,,,,,,,,,493.5317132,493.5317132,None,,494.61587189999955,494.61587189999955,n,493.5317132,493.5317132,2.7075085000005856,,,19,001,2024-07-01_14h55.26.674,robot_nback_sign,2022.2.5,59.96879224057771,
L_Arm_Y_For,False,1,robot,1,False,False,robot_stimuli\L_Arm_Y_For.mp4,19,,,,,,,,,0,31,31,31,,,,,,,,,,,,,498.2664265000003,499.3480915,,,,,,,502.9871210000001,502.9871210000001,502.9871210000001,502.9871210000001,502.9871210000001,502.9871210000001,502.9871210000001,502.9871210000001,None,None,None,,,,,,,,,,,498.2664265000003,498.2664265000003,None,,499.3480915,499.3480915,n,498.2664265000003,498.2664265000003,3.1591409000002386,,,19,001,2024-07-01_14h55.26.674,robot_nback_sign,2022.2.5,59.96879224057771,
L_Head_Y_Back,False,1,robot,1,False,False,robot_stimuli\L_Head_Y_Back.mp4,19,,,,,,,,,0,32,32,32,,,,,,,,,,,,,502.9871210000001,504.06488790000003,,,,,,,507.71436579999954,507.71436579999954,507.71436579999954,507.71436579999954,507.71436579999954,507.71436579999954,507.71436579999954,507.71436579999954,None,None,None,,,,,,,,,,,502.9871210000001,502.9871210000001,None,,504.06488790000003,504.06488790000003,n,502.9871210000001,502.9871210000001,3.5140740999995614,,,19,001,2024-07-01_14h55.26.674,robot_nback_sign,2022.2.5,59.96879224057771,
R_Arm_Z_Back,False,1,robot,1,False,False,robot_stimuli\R_Arm_Z_Back.mp4,19,,,,,,,,,0,33,33,33,,,,,,,,,,,,,507.71436579999954,508.7997365000001,,,,,,,512.4489350000003,512.4489350000003,512.4489350000003,512.4489350000003,512.4489350000003,512.4489350000003,512.4489350000003,512.4489350000003,None,None,None,,,,,,,,,,,507.71436579999954,507.71436579999954,None,,508.7997365000001,508.7997365000001,n,507.71436579999954,507.71436579999954,3.387746800000059,,,19,001,2024-07-01_14h55.26.674,robot_nback_sign,2022.2.5,59.96879224057771,
L_Torso_Z_For,False,1,robot,1,False,False,robot_stimuli\L_Torso_Z_For.mp4,19,,,,,,,,,0,34,34,34,,,,,,,,,,,,,512.4489350000003,513.5320144999996,,,,,,,517.1818770999998,517.1818770999998,517.1818770999998,517.1818770999998,517.1818770999998,517.1818770999998,517.1818770999998,517.1818770999998,None,None,None,,,,,,,,,,,512.4489350000003,512.4489350000003,None,,513.5320144999996,513.5320144999996,n,512.4489350000003,512.4489350000003,2.790592999999717,,,19,001,2024-07-01_14h55.26.674,robot_nback_sign,2022.2.5,59.96879224057771,
L_Torso_Y_For,False,1,robot,1,False,False,robot_stimuli\L_Torso_Y_For.mp4,19,,,,,,,,,0,35,35,35,,,,,,,,,,,,,517.1818770999998,518.2607200000002,,,,,,,521.8952693000001,521.8952693000001,521.8952693000001,521.8952693000001,521.8952693000001,521.8952693000001,521.8952693000001,521.8952693000001,None,None,None,,,,,,,,,,,517.1818770999998,517.1818770999998,None,,518.2607200000002,518.2607200000002,n,517.1818770999998,517.1818770999998,3.470048200000747,,,19,001,2024-07-01_14h55.26.674,robot_nback_sign,2022.2.5,59.96879224057771,
R_Arm_Y_Back,False,1,robot,1,False,False,robot_stimuli\R_Arm_Y_Back.mp4,19,,,,,,,,,0,36,36,36,,,,,,,,,,,,,521.8952693000001,522.9815084000002,,,,,,,526.6200915,526.6200915,526.6200915,526.6200915,526.6200915,526.6200915,526.6200915,526.6200915,None,None,None,,,,,,,,,,,521.8952693000001,521.8952693000001,None,,522.9815084000002,522.9815084000002,n,521.8952693000001,521.8952693000001,3.58124990000033,,,19,001,2024-07-01_14h55.26.674,robot_nback_sign,2022.2.5,59.96879224057771,
R_Arm_Y_Back,True,1,robot,1,False,False,robot_stimuli\R_Arm_Y_Back.mp4,19,,,,,,,,,0,37,37,37,,,,,,,,,,,,,526.6200915,527.691777,,,,,,,531.3350011000002,531.3350011000002,531.3350011000002,531.3350011000002,531.3350011000002,531.3350011000002,531.3350011000002,531.3350011000002,None,None,None,,,,,,,,,,,526.6200915,526.6200915,None,,527.691777,527.691777,c,526.6200915,526.6200915,3.006611500000872,,,19,001,2024-07-01_14h55.26.674,robot_nback_sign,2022.2.5,59.96879224057771,
R_Head_Z_Back,False,1,robot,1,False,False,robot_stimuli\R_Head_Z_Back.mp4,19,,,,,,,,,0,38,38,38,,,,,,,,,,,,,531.3350011000002,532.4141383999995,,,,,,,536.0433492000002,536.0433492000002,536.0433492000002,536.0433492000002,536.0433492000002,536.0433492000002,536.0433492000002,536.0433492000002,None,None,None,,,,,,,,,,,531.3350011000002,531.3350011000002,None,,532.4141383999995,532.4141383999995,n,531.3350011000002,531.3350011000002,3.253219000000172,,,19,001,2024-07-01_14h55.26.674,robot_nback_sign,2022.2.5,59.96879224057771,
L_Torso_Z_For,False,1,robot,1,False,False,robot_stimuli\L_Torso_Z_For.mp4,19,,,,,,,,,0,39,39,39,,,,,,,,,,,,,536.0433492000002,537.1306519999998,,,,,,,540.7698148999998,540.7698148999998,540.7698148999998,540.7698148999998,540.7698148999998,540.7698148999998,540.7698148999998,540.7698148999998,None,None,None,,,,,,,,,,,536.0433492000002,536.0433492000002,None,,537.1306519999998,537.1306519999998,n,536.0433492000002,536.0433492000002,3.0399077000001853,,,19,001,2024-07-01_14h55.26.674,robot_nback_sign,2022.2.5,59.96879224057771,
R_Base_Z_Back,False,1,robot,1,False,False,robot_stimuli\R_Base_Z_Back.mp4,19,,,,,,,,,0,40,40,40,,,,,,,,,,,,,540.7698148999998,541.8494609999998,,,,,,,545.4004629000001,545.4004629000001,545.4004629000001,545.4004629000001,545.4004629000001,545.4004629000001,545.4004629000001,545.4004629000001,None,None,None,,,,,,,,,,,540.7698148999998,540.7698148999998,None,,541.8494609999998,541.8494609999998,n,540.7698148999998,540.7698148999998,2.9617182000001776,,,19,001,2024-07-01_14h55.26.674,robot_nback_sign,2022.2.5,59.96879224057771,
R_Base_Z_Back,True,1,robot,1,False,False,robot_stimuli\R_Base_Z_Back.mp4,19,,,,,,,,,0,41,41,41,,,,,,,,,,,,,545.4004629000001,546.4752644999999,,,,,,,550.0162227000001,550.0162227000001,550.0162227000001,550.0162227000001,550.0162227000001,550.0162227000001,550.0162227000001,550.0162227000001,None,None,None,,,,,,,,,,,545.4004629000001,545.4004629000001,None,,546.4752644999999,546.4752644999999,c,545.4004629000001,545.4004629000001,2.9110919000004287,,,19,001,2024-07-01_14h55.26.674,robot_nback_sign,2022.2.5,59.96879224057771,
R_Head_Z_Back,False,1,robot,1,False,False,robot_stimuli\R_Head_Z_Back.mp4,19,,,,,,,,,0,42,42,42,,,,,,,,,,,,,550.0162227000001,551.1117409999997,,,,,,,554.7511968999997,554.7511968999997,554.7511968999997,554.7511968999997,554.7511968999997,554.7511968999997,554.7511968999997,554.7511968999997,None,None,None,,,,,,,,,,,550.0162227000001,550.0162227000001,None,,551.1117409999997,551.1117409999997,n,550.0162227000001,550.0162227000001,2.7786415000009583,,,19,001,2024-07-01_14h55.26.674,robot_nback_sign,2022.2.5,59.96879224057771,
R_Head_Y_Back,False,1,robot,1,False,False,robot_stimuli\R_Head_Y_Back.mp4,19,,,,,,,,,0,43,43,43,,,,,,,,,,,,,554.7511968999997,555.833012,,,,,,,559.4830443000001,559.4830443000001,559.4830443000001,559.4830443000001,559.4830443000001,559.4830443000001,559.4830443000001,559.4830443000001,None,None,None,,,,,,,,,,,554.7511968999997,554.7511968999997,None,,555.833012,555.833012,c,554.7511968999997,554.7511968999997,2.778195200000482,,,19,001,2024-07-01_14h55.26.674,robot_nback_sign,2022.2.5,59.96879224057771,
L_Arm_X_For,False,1,robot,1,False,False,robot_stimuli\L_Arm_X_For.mp4,19,,,,,,,,,0,44,44,44,,,,,,,,,,,,,559.4830443000001,560.5615790000002,,,,,,,564.2160980999997,564.2160980999997,564.2160980999997,564.2160980999997,564.2160980999997,564.2160980999997,564.2160980999997,564.2160980999997,None,None,None,,,,,,,,,,,559.4830443000001,559.4830443000001,None,,560.5615790000002,560.5615790000002,n,559.4830443000001,559.4830443000001,2.8499657000002117,,,19,001,2024-07-01_14h55.26.674,robot_nback_sign,2022.2.5,59.96879224057771,
L_Arm_Y_Back,False,1,robot,1,False,False,robot_stimuli\L_Arm_Y_Back.mp4,19,,,,,,,,,0,45,45,45,,,,,,,,,,,,,564.2160980999997,565.2966131000003,,,,,,,568.9390568999997,568.9390568999997,568.9390568999997,568.9390568999997,568.9390568999997,568.9390568999997,568.9390568999997,568.9390568999997,None,None,None,,,,,,,,,,,564.2160980999997,564.2160980999997,None,,565.2966131000003,565.2966131000003,n,564.2160980999997,564.2160980999997,2.6265061000003698,,,19,001,2024-07-01_14h55.26.674,robot_nback_sign,2022.2.5,59.96879224057771,
R_Torso_X_For,False,1,robot,1,False,False,robot_stimuli\R_Torso_X_For.mp4,19,,,,,,,,,0,46,46,46,,,,,,,,,,,,,568.9390568999997,,,,,,,,573.6767159999999,573.6767159999999,573.6767159999999,573.6767159999999,573.6767159999999,573.6767159999999,573.6767159999999,573.6767159999999,None,None,None,,,,,,,,,,,568.9390568999997,568.9390568999997,None,,570.0477453000003,570.0477453000003,n,568.9390568999997,568.9390568999997,2.9316107000004195,,,19,001,2024-07-01_14h55.26.674,robot_nback_sign,2022.2.5,59.96879224057771,
R_Base_Y_Back,False,1,robot,1,False,False,robot_stimuli\R_Base_Y_Back.mp4,19,,,,,,,,,0,47,47,47,,,,,,,,,,,,,573.6767159999999,574.7647840999998,,,,,,,578.4163572999996,578.4163572999996,578.4163572999996,578.4163572999996,578.4163572999996,578.4163572999996,578.4163572999996,578.4163572999996,None,None,None,,,,,,,,,,,573.6767159999999,573.6767159999999,None,,574.7647840999998,574.7647840999998,n,573.6767159999999,573.6767159999999,3.373947899999621,,,19,001,2024-07-01_14h55.26.674,robot_nback_sign,2022.2.5,59.96879224057771,
L_Torso_Z_Back,False,1,robot,1,False,False,robot_stimuli\L_Torso_Z_Back.mp4,19,,,,,,,,,0,48,48,48,,,,,,,,,,,,,578.4163572999996,579.4980169999999,,,,,,,583.0052329999999,583.0052329999999,583.0052329999999,583.0052329999999,583.0052329999999,583.0052329999999,583.0052329999999,583.0052329999999,None,None,None,,,,,,,,,,,578.4163572999996,578.4163572999996,None,,579.4980169999999,579.4980169999999,n,578.4163572999996,578.4163572999996,2.585436600000321,,,19,001,2024-07-01_14h55.26.674,robot_nback_sign,2022.2.5,59.96879224057771,
L_Arm_Y_Back,False,1,robot,1,False,True,robot_stimuli\L_Arm_Y_Back.mp4,19,,,,,,,,,0,49,49,49,,,,,,,,,,,,,583.0052329999999,584.0819973999996,,,,,,,587.7654751,592.7861728999997,587.7654751,592.7861728999997,587.7654751,592.7861728999997,587.7654751,592.7861728999997,14.104938271604933,3.766617700000097,space,,,,4.974357400000372,,,,,,,583.0052329999999,583.0052329999999,None,,584.0819973999996,584.0819973999996,n,583.0052329999999,583.0052329999999,2.792419600001267,,,19,001,2024-07-01_14h55.26.674,robot_nback_sign,2022.2.5,59.96879224057771,
L_Torso_Y_For,False,2,robot,1,True,False,robot_stimuli\L_Torso_Y_For.mp4,19,,,,,,,,,0,50,50,50,,,,,,,,,,,,,598.5876962000002,599.6674013000002,,,,,,,603.2928480999999,603.2928480999999,603.2928480999999,603.2928480999999,603.2928480999999,603.2928480999999,603.2928480999999,603.2928480999999,None,None,None,,,,,,,,,,,592.7861728999997,592.7861728999997,space,5.784907700000076,599.6674013000002,599.6674013000002,None,,,,,,19,001,2024-07-01_14h55.26.674,robot_nback_sign,2022.2.5,59.96879224057771,
R_Head_Y_For,False,2,robot,1,False,False,robot_stimuli\R_Head_Y_For.mp4,19,,,,,,,,,0,51,51,51,,,,,,,,,,,,,603.2928480999999,604.3814673999996,,,,,,,608.0115002000002,608.0115002000002,608.0115002000002,608.0115002000002,608.0115002000002,608.0115002000002,608.0115002000002,608.0115002000002,None,None,None,,,,,,,,,,,603.2928480999999,603.2928480999999,None,,604.3814673999996,604.3814673999996,None,603.2928480999999,603.2928480999999,,,,19,001,2024-07-01_14h55.26.674,robot_nback_sign,2022.2.5,59.96879224057771,
L_Arm_Z_Back,False,2,robot,1,False,False,robot_stimuli\L_Arm_Z_Back.mp4,19,,,,,,,,,0,52,52,52,,,,,,,,,,,,,608.0115002000002,609.0980989999998,,,,,,,612.7373414000003,612.7373414000003,612.7373414000003,612.7373414000003,612.7373414000003,612.7373414000003,612.7373414000003,612.7373414000003,None,None,None,,,,,,,,,,,608.0115002000002,608.0115002000002,None,,609.0980989999998,609.0980989999998,None,608.0115002000002,608.0115002000002,,,,19,001,2024-07-01_14h55.26.674,robot_nback_sign,2022.2.5,59.96879224057771,
R_Arm_X_For,False,2,robot,1,False,False,robot_stimuli\R_Arm_X_For.mp4,19,,,,,,,,,0,53,53,53,,,,,,,,,,,,,612.7373414000003,613.8104852999995,,,,,,,617.4541499999996,617.4541499999996,617.4541499999996,617.4541499999996,617.4541499999996,617.4541499999996,617.4541499999996,617.4541499999996,None,None,None,,,,,,,,,,,612.7373414000003,612.7373414000003,None,,613.8104852999995,613.8104852999995,n,612.7373414000003,612.7373414000003,3.2158837000006315,,,19,001,2024-07-01_14h55.26.674,robot_nback_sign,2022.2.5,59.96879224057771,
R_Head_Y_Back,False,2,robot,1,False,False,robot_stimuli\R_Head_Y_Back.mp4,19,,,,,,,,,0,54,54,54,,,,,,,,,,,,,617.4541499999996,618.5362402000001,,,,,,,622.1850701000003,622.1850701000003,622.1850701000003,622.1850701000003,622.1850701000003,622.1850701000003,622.1850701000003,622.1850701000003,None,None,None,,,,,,,,,,,617.4541499999996,617.4541499999996,None,,618.5362402000001,618.5362402000001,n,617.4541499999996,617.4541499999996,2.3866194000001997,,,19,001,2024-07-01_14h55.26.674,robot_nback_sign,2022.2.5,59.96879224057771,
R_Torso_Z_For,False,2,robot,1,False,False,robot_stimuli\R_Torso_Z_For.mp4,19,,,,,,,,,0,55,55,55,,,,,,,,,,,,,622.1850701000003,623.2651250999998,,,,,,,626.8933153999997,626.8933153999997,626.8933153999997,626.8933153999997,626.8933153999997,626.8933153999997,626.8933153999997,626.8933153999997,None,None,None,,,,,,,,,,,622.1850701000003,622.1850701000003,None,,623.2651250999998,623.2651250999998,n,622.1850701000003,622.1850701000003,3.4508329000009326,,,19,001,2024-07-01_14h55.26.674,robot_nback_sign,2022.2.5,59.96879224057771,
L_Base_X_Back,False,2,robot,1,False,False,robot_stimuli\L_Base_X_Back.mp4,19,,,,,,,,,0,56,56,56,,,,,,,,,,,,,626.8933153999997,627.9830993999994,,,,,,,631.6005582999996,631.6005582999996,631.6005582999996,631.6005582999996,631.6005582999996,631.6005582999996,631.6005582999996,631.6005582999996,None,None,None,,,,,,,,,,,626.8933153999997,626.8933153999997,None,,627.9830993999994,627.9830993999994,None,626.8933153999997,626.8933153999997,,,,19,001,2024-07-01_14h55.26.674,robot_nback_sign,2022.2.5,59.96879224057771,
R_Torso_Y_Back,False,2,robot,1,False,False,robot_stimuli\R_Torso_Y_Back.mp4,19,,,,,,,,,0,57,57,57,,,,,,,,,,,,,631.6005582999996,632.6825768999997,,,,,,,636.3313797999999,636.3313797999999,636.3313797999999,636.3313797999999,636.3313797999999,636.3313797999999,636.3313797999999,636.3313797999999,None,None,None,,,,,,,,,,,631.6005582999996,631.6005582999996,None,,632.6825768999997,632.6825768999997,c,631.6005582999996,631.6005582999996,2.840063500000724,,,19,001,2024-07-01_14h55.26.674,robot_nback_sign,2022.2.5,59.96879224057771,
L_Head_X_For,False,2,robot,1,False,False,robot_stimuli\L_Head_X_For.mp4,19,,,,,,,,,0,58,58,58,,,,,,,,,,,,,636.3313797999999,637.4161953000003,,,,,,,640.9989241000003,640.9989241000003,640.9989241000003,640.9989241000003,640.9989241000003,640.9989241000003,640.9989241000003,640.9989241000003,None,None,None,,,,,,,,,,,636.3313797999999,636.3313797999999,None,,637.4161953000003,637.4161953000003,n,636.3313797999999,636.3313797999999,3.522198300001037,,,19,001,2024-07-01_14h55.26.674,robot_nback_sign,2022.2.5,59.96879224057771,
L_Base_Z_For,False,2,robot,1,False,False,robot_stimuli\L_Base_Z_For.mp4,19,,,,,,,,,0,59,59,59,,,,,,,,,,,,,640.9989241000003,642.0813584999996,,,,,,,645.7214640000002,645.7214640000002,645.7214640000002,645.7214640000002,645.7214640000002,645.7214640000002,645.7214640000002,645.7214640000002,None,None,None,,,,,,,,,,,640.9989241000003,640.9989241000003,None,,642.0813584999996,642.0813584999996,n,640.9989241000003,640.9989241000003,2.6184838000008313,,,19,001,2024-07-01_14h55.26.674,robot_nback_sign,2022.2.5,59.96879224057771,
L_Base_X_Back,False,2,robot,1,False,False,robot_stimuli\L_Base_X_Back.mp4,19,,,,,,,,,0,60,60,60,,,,,,,,,,,,,645.7214640000002,646.799489,,,,,,,650.4156076999998,650.4156076999998,650.4156076999998,650.4156076999998,650.4156076999998,650.4156076999998,650.4156076999998,650.4156076999998,None,None,None,,,,,,,,,,,645.7214640000002,645.7214640000002,None,,646.799489,646.799489,n,645.7214640000002,645.7214640000002,2.4755448000005345,,,19,001,2024-07-01_14h55.26.674,robot_nback_sign,2022.2.5,59.96879224057771,
L_Base_Z_For,True,2,robot,1,False,False,robot_stimuli\L_Base_Z_For.mp4,19,,,,,,,,,0,61,61,61,,,,,,,,,,,,,650.4156076999998,651.4989472999996,,,,,,,655.1373339000002,655.1373339000002,655.1373339000002,655.1373339000002,655.1373339000002,655.1373339000002,655.1373339000002,655.1373339000002,None,None,None,,,,,,,,,,,650.4156076999998,650.4156076999998,None,,651.4989472999996,651.4989472999996,c,650.4156076999998,650.4156076999998,2.0007482000009986,,,19,001,2024-07-01_14h55.26.674,robot_nback_sign,2022.2.5,59.96879224057771,
L_Head_Y_For,False,2,robot,1,False,False,robot_stimuli\L_Head_Y_For.mp4,19,,,,,,,,,0,62,62,62,,,,,,,,,,,,,655.1373339000002,656.2144059000002,,,,,,,659.8462264,659.8462264,659.8462264,659.8462264,659.8462264,659.8462264,659.8462264,659.8462264,None,None,None,,,,,,,,,,,655.1373339000002,655.1373339000002,None,,656.2144059000002,656.2144059000002,None,655.1373339000002,655.1373339000002,,,,19,001,2024-07-01_14h55.26.674,robot_nback_sign,2022.2.5,59.96879224057771,
L_Base_Z_For,True,2,robot,1,False,False,robot_stimuli\L_Base_Z_For.mp4,19,,,,,,,,,0,63,63,63,,,,,,,,,,,,,659.8462264,660.9306266000003,,,,,,,664.5707567,664.5707567,664.5707567,664.5707567,664.5707567,664.5707567,664.5707567,664.5707567,None,None,None,,,,,,,,,,,659.8462264,659.8462264,None,,660.9306266000003,660.9306266000003,c,659.8462264,659.8462264,2.736072200000308,,,19,001,2024-07-01_14h55.26.674,robot_nback_sign,2022.2.5,59.96879224057771,
R_Torso_X_For,False,2,robot,1,False,False,robot_stimuli\R_Torso_X_For.mp4,19,,,,,,,,,0,64,64,64,,,,,,,,,,,,,664.5707567,665.6522476,,,,,,,669.3014879000002,669.3014879000002,669.3014879000002,669.3014879000002,669.3014879000002,669.3014879000002,669.3014879000002,669.3014879000002,None,None,None,,,,,,,,,,,664.5707567,664.5707567,None,,665.6522476,665.6522476,n,664.5707567,664.5707567,3.4471621000002415,,,19,001,2024-07-01_14h55.26.674,robot_nback_sign,2022.2.5,59.96879224057771,
L_Head_Y_For,False,2,robot,1,False,False,robot_stimuli\L_Head_Y_For.mp4,19,,,,,,,,,0,65,65,65,,,,,,,,,,,,,669.3014879000002,670.3824871999996,,,,,,,674.0354225000001,674.0354225000001,674.0354225000001,674.0354225000001,674.0354225000001,674.0354225000001,674.0354225000001,674.0354225000001,None,None,None,,,,,,,,,,,669.3014879000002,669.3014879000002,None,,670.3824871999996,670.3824871999996,n,669.3014879000002,669.3014879000002,3.1404525000007197,,,19,001,2024-07-01_14h55.26.674,robot_nback_sign,2022.2.5,59.96879224057771,
R_Arm_X_Back,False,2,robot,1,False,False,robot_stimuli\R_Arm_X_Back.mp4,19,,,,,,,,,0,66,66,66,,,,,,,,,,,,,674.0354225000001,675.1355174,,,,,,,678.7849522999995,678.7849522999995,678.7849522999995,678.7849522999995,678.7849522999995,678.7849522999995,678.7849522999995,678.7849522999995,None,None,None,,,,,,,,,,,674.0354225000001,674.0354225000001,None,,675.1355174,675.1355174,None,674.0354225000001,674.0354225000001,,,,19,001,2024-07-01_14h55.26.674,robot_nback_sign,2022.2.5,59.96879224057771,
L_Head_Y_For,True,2,robot,1,False,False,robot_stimuli\L_Head_Y_For.mp4,19,,,,,,,,,0,67,67,67,,,,,,,,,,,,,678.7849522999995,679.8664836999997,,,,,,,683.5203929999998,683.5203929999998,683.5203929999998,683.5203929999998,683.5203929999998,683.5203929999998,683.5203929999998,683.5203929999998,None,None,None,,,,,,,,,,,678.7849522999995,678.7849522999995,None,,679.8664836999997,679.8664836999997,c,678.7849522999995,678.7849522999995,2.7360935000006066,,,19,001,2024-07-01_14h55.26.674,robot_nback_sign,2022.2.5,59.96879224057771,
R_Arm_Z_Back,False,2,robot,1,False,False,robot_stimuli\R_Arm_Z_Back.mp4,19,,,,,,,,,0,68,68,68,,,,,,,,,,,,,683.5203929999998,684.6100686,,,,,,,688.2520757000002,688.2520757000002,688.2520757000002,688.2520757000002,688.2520757000002,688.2520757000002,688.2520757000002,688.2520757000002,None,None,None,,,,,,,,,,,683.5203929999998,683.5203929999998,None,,684.6100686,684.6100686,c,683.5203929999998,683.5203929999998,3.1608382000003985,,,19,001,2024-07-01_14h55.26.674,robot_nback_sign,2022.2.5,59.96879224057771,
L_Head_X_Back,False,2,robot,1,False,False,robot_stimuli\L_Head_X_Back.mp4,19,,,,,,,,,0,69,69,69,,,,,,,,,,,,,688.2520757000002,689.3317913000001,,,,,,,692.9602494000001,692.9602494000001,692.9602494000001,692.9602494000001,692.9602494000001,692.9602494000001,692.9602494000001,692.9602494000001,None,None,None,,,,,,,,,,,688.2520757000002,688.2520757000002,None,,689.3317913000001,689.3317913000001,None,688.2520757000002,688.2520757000002,,,,19,001,2024-07-01_14h55.26.674,robot_nback_sign,2022.2.5,59.96879224057771,
L_Torso_Y_Back,False,2,robot,1,False,False,robot_stimuli\L_Torso_Y_Back.mp4,19,,,,,,,,,0,70,70,70,,,,,,,,,,,,,692.9602494000001,694.0504138999995,,,,,,,697.5679084000003,697.5679084000003,697.5679084000003,697.5679084000003,697.5679084000003,697.5679084000003,697.5679084000003,697.5679084000003,None,None,None,,,,,,,,,,,692.9602494000001,692.9602494000001,None,,694.0504138999995,694.0504138999995,n,692.9602494000001,692.9602494000001,3.343914200000654,,,19,001,2024-07-01_14h55.26.674,robot_nback_sign,2022.2.5,59.96879224057771,
R_Head_X_For,False,2,robot,1,False,False,robot_stimuli\R_Head_X_For.mp4,19,,,,,,,,,0,71,71,71,,,,,,,,,,,,,697.5679084000003,698.6500255000001,,,,,,,702.3006705999996,702.3006705999996,702.3006705999996,702.3006705999996,702.3006705999996,702.3006705999996,702.3006705999996,702.3006705999996,None,None,None,,,,,,,,,,,697.5679084000003,697.5679084000003,None,,698.6500255000001,698.6500255000001,n,697.5679084000003,697.5679084000003,2.4003050000001167,,,19,001,2024-07-01_14h55.26.674,robot_nback_sign,2022.2.5,59.96879224057771,
L_Head_X_For,False,2,robot,1,False,False,robot_stimuli\L_Head_X_For.mp4,19,,,,,,,,,0,72,72,72,,,,,,,,,,,,,702.3006705999996,703.3818450999997,,,,,,,706.9672374000002,706.9672374000002,706.9672374000002,706.9672374000002,706.9672374000002,706.9672374000002,706.9672374000002,706.9672374000002,None,None,None,,,,,,,,,,,702.3006705999996,702.3006705999996,None,,703.3818450999997,703.3818450999997,n,702.3006705999996,702.3006705999996,3.092507100000148,,,19,001,2024-07-01_14h55.26.674,robot_nback_sign,2022.2.5,59.96879224057771,
R_Head_Z_Back,False,2,robot,1,False,False,robot_stimuli\R_Head_Z_Back.mp4,19,,,,,,,,,0,73,73,73,,,,,,,,,,,,,706.9672374000002,708.0493361999997,,,,,,,711.7022354000001,711.7022354000001,711.7022354000001,711.7022354000001,711.7022354000001,711.7022354000001,711.7022354000001,711.7022354000001,None,None,None,,,,,,,,,,,706.9672374000002,706.9672374000002,None,,708.0493361999997,708.0493361999997,n,706.9672374000002,706.9672374000002,2.746010300001217,,,19,001,2024-07-01_14h55.26.674,robot_nback_sign,2022.2.5,59.96879224057771,
R_Torso_Z_For,False,2,robot,1,False,False,robot_stimuli\R_Torso_Z_For.mp4,19,,,,,,,,,0,74,74,74,,,,,,,,,,,,,711.7022354000001,712.7956371999999,,,,,,,716.4357051999996,716.4357051999996,716.4357051999996,716.4357051999996,716.4357051999996,716.4357051999996,716.4357051999996,716.4357051999996,None,None,None,,,,,,,,,,,711.7022354000001,711.7022354000001,None,,712.7956371999999,712.7956371999999,n,711.7022354000001,711.7022354000001,2.774668300000485,,,19,001,2024-07-01_14h55.26.674,robot_nback_sign,2022.2.5,59.96879224057771,
R_Torso_X_For,False,2,robot,1,False,False,robot_stimuli\R_Torso_X_For.mp4,19,,,,,,,,,0,75,75,75,,,,,,,,,,,,,716.4357051999996,717.5231143000001,,,,,,,721.1630872999995,721.1630872999995,721.1630872999995,721.1630872999995,721.1630872999995,721.1630872999995,721.1630872999995,721.1630872999995,None,None,None,,,,,,,,,,,716.4357051999996,716.4357051999996,None,,717.5231143000001,717.5231143000001,None,716.4357051999996,716.4357051999996,,,,19,001,2024-07-01_14h55.26.674,robot_nback_sign,2022.2.5,59.96879224057771,
L_Head_Y_For,False,2,robot,1,False,False,robot_stimuli\L_Head_Y_For.mp4,19,,,,,,,,,0,76,76,76,,,,,,,,,,,,,721.1630872999995,722.2482477000003,,,,,,,725.8781501000003,725.8781501000003,725.8781501000003,725.8781501000003,725.8781501000003,725.8781501000003,725.8781501000003,725.8781501000003,None,None,None,,,,,,,,,,,721.1630872999995,721.1630872999995,None,,722.2482477000003,722.2482477000003,n,721.1630872999995,721.1630872999995,3.0595800000000963,,,19,001,2024-07-01_14h55.26.674,robot_nback_sign,2022.2.5,59.96879224057771,
R_Torso_Y_For,False,2,robot,1,False,False,robot_stimuli\R_Torso_Y_For.mp4,19,,,,,,,,,0,77,77,77,,,,,,,,,,,,,725.8781501000003,726.9665607999996,,,,,,,730.6186533999999,730.6186533999999,730.6186533999999,730.6186533999999,730.6186533999999,730.6186533999999,730.6186533999999,730.6186533999999,None,None,None,,,,,,,,,,,725.8781501000003,725.8781501000003,None,,726.9665607999996,726.9665607999996,n,725.8781501000003,725.8781501000003,3.2205905000009807,,,19,001,2024-07-01_14h55.26.674,robot_nback_sign,2022.2.5,59.96879224057771,
L_Torso_X_Back,False,2,robot,1,False,False,robot_stimuli\L_Torso_X_Back.mp4,19,,,,,,,,,0,78,78,78,,,,,,,,,,,,,730.6186533999999,731.6975523000001,,,,,,,735.3364322999996,735.3364322999996,735.3364322999996,735.3364322999996,735.3364322999996,735.3364322999996,735.3364322999996,735.3364322999996,None,None,None,,,,,,,,,,,730.6186533999999,730.6186533999999,None,,731.6975523000001,731.6975523000001,None,730.6186533999999,730.6186533999999,,,,19,001,2024-07-01_14h55.26.674,robot_nback_sign,2022.2.5,59.96879224057771,
L_Arm_Y_Back,False,2,robot,1,False,False,robot_stimuli\L_Arm_Y_Back.mp4,19,,,,,,,,,0,79,79,79,,,,,,,,,,,,,735.3364322999996,736.4149242000003,,,,,,,740.0555876999997,740.0555876999997,740.0555876999997,740.0555876999997,740.0555876999997,740.0555876999997,740.0555876999997,740.0555876999997,None,None,None,,,,,,,,,,,735.3364322999996,735.3364322999996,None,,736.4149242000003,736.4149242000003,n,735.3364322999996,735.3364322999996,2.9007242000006954,,,19,001,2024-07-01_14h55.26.674,robot_nback_sign,2022.2.5,59.96879224057771,
L_Torso_X_Back,True,2,robot,1,False,False,robot_stimuli\L_Torso_X_Back.mp4,19,,,,,,,,,0,80,80,80,,,,,,,,,,,,,740.0555876999997,741.1325583999997,,,,,,,744.7829704999995,744.7829704999995,744.7829704999995,744.7829704999995,744.7829704999995,744.7829704999995,744.7829704999995,744.7829704999995,None,None,None,,,,,,,,,,,740.0555876999997,740.0555876999997,None,,741.1325583999997,741.1325583999997,n,740.0555876999997,740.0555876999997,3.086860500000512,,,19,001,2024-07-01_14h55.26.674,robot_nback_sign,2022.2.5,59.96879224057771,
L_Arm_Y_Back,True,2,robot,1,False,False,robot_stimuli\L_Arm_Y_Back.mp4,19,,,,,,,,,0,81,81,81,,,,,,,,,,,,,744.7829704999995,745.8641516999996,,,,,,,749.5071281,749.5071281,749.5071281,749.5071281,749.5071281,749.5071281,749.5071281,749.5071281,None,None,None,,,,,,,,,,,744.7829704999995,744.7829704999995,None,,745.8641516999996,745.8641516999996,c,744.7829704999995,744.7829704999995,2.730924600000435,,,19,001,2024-07-01_14h55.26.674,robot_nback_sign,2022.2.5,59.96879224057771,
R_Torso_Z_Back,False,2,robot,1,False,False,robot_stimuli\R_Torso_Z_Back.mp4,19,,,,,,,,,0,82,82,82,,,,,,,,,,,,,749.5071281,,,,,,,,754.2522067999998,754.2522067999998,754.2522067999998,754.2522067999998,754.2522067999998,754.2522067999998,754.2522067999998,754.2522067999998,None,None,None,,,,,,,,,,,749.5071281,749.5071281,None,,750.6087761999997,750.6087761999997,n,749.5071281,749.5071281,3.5466895999998087,,,19,001,2024-07-01_14h55.26.674,robot_nback_sign,2022.2.5,59.96879224057771,
R_Head_X_For,False,2,robot,1,False,False,robot_stimuli\R_Head_X_For.mp4,19,,,,,,,,,0,83,83,83,,,,,,,,,,,,,754.2522067999998,755.3316642999998,,,,,,,758.9692034999998,758.9692034999998,758.9692034999998,758.9692034999998,758.9692034999998,758.9692034999998,758.9692034999998,758.9692034999998,None,None,None,,,,,,,,,,,754.2522067999998,754.2522067999998,None,,755.3316642999998,755.3316642999998,n,754.2522067999998,754.2522067999998,2.9997189000005164,,,19,001,2024-07-01_14h55.26.674,robot_nback_sign,2022.2.5,59.96879224057771,
R_Torso_Y_For,False,2,robot,1,False,False,robot_stimuli\R_Torso_Y_For.mp4,19,,,,,,,,,0,84,84,84,,,,,,,,,,,,,758.9692034999998,760.0496995000003,,,,,,,763.6988042000003,763.6988042000003,763.6988042000003,763.6988042000003,763.6988042000003,763.6988042000003,763.6988042000003,763.6988042000003,None,None,None,,,,,,,,,,,758.9692034999998,758.9692034999998,None,,760.0496995000003,760.0496995000003,n,758.9692034999998,758.9692034999998,2.9134905000009894,,,19,001,2024-07-01_14h55.26.674,robot_nback_sign,2022.2.5,59.96879224057771,
R_Head_X_For,True,2,robot,1,False,False,robot_stimuli\R_Head_X_For.mp4,19,,,,,,,,,0,85,85,85,,,,,,,,,,,,,763.6988042000003,764.7822874000003,,,,,,,768.4321719,768.4321719,768.4321719,768.4321719,768.4321719,768.4321719,768.4321719,768.4321719,None,None,None,,,,,,,,,,,763.6988042000003,763.6988042000003,None,,764.7822874000003,764.7822874000003,c,763.6988042000003,763.6988042000003,3.0521261000003506,,,19,001,2024-07-01_14h55.26.674,robot_nback_sign,2022.2.5,59.96879224057771,
R_Base_Z_Back,False,2,robot,1,False,False,robot_stimuli\R_Base_Z_Back.mp4,19,,,,,,,,,0,86,86,86,,,,,,,,,,,,,768.4321719,769.5123523000002,,,,,,,773.0651636000002,773.0651636000002,773.0651636000002,773.0651636000002,773.0651636000002,773.0651636000002,773.0651636000002,773.0651636000002,None,None,None,,,,,,,,,,,768.4321719,768.4321719,None,,769.5123523000002,769.5123523000002,None,768.4321719,768.4321719,,,,19,001,2024-07-01_14h55.26.674,robot_nback_sign,2022.2.5,59.96879224057771,
L_Arm_X_For,False,2,robot,1,False,False,robot_stimuli\L_Arm_X_For.mp4,19,,,,,,,,,0,87,87,87,,,,,,,,,,,,,773.0651636000002,774.1506608,,,,,,,777.7971924000003,777.7971924000003,777.7971924000003,777.7971924000003,777.7971924000003,777.7971924000003,777.7971924000003,777.7971924000003,None,None,None,,,,,,,,,,,773.0651636000002,773.0651636000002,None,,774.1506608,774.1506608,n,773.0651636000002,773.0651636000002,3.556927700000415,,,19,001,2024-07-01_14h55.26.674,robot_nback_sign,2022.2.5,59.96879224057771,
L_Arm_Y_Back,False,2,robot,1,False,False,robot_stimuli\L_Arm_Y_Back.mp4,19,,,,,,,,,0,88,88,88,,,,,,,,,,,,,777.7971924000003,778.8820975999997,,,,,,,782.5109009999996,782.5109009999996,782.5109009999996,782.5109009999996,782.5109009999996,782.5109009999996,782.5109009999996,782.5109009999996,None,None,None,,,,,,,,,,,777.7971924000003,777.7971924000003,None,,778.8820975999997,778.8820975999997,n,777.7971924000003,777.7971924000003,3.2324137000005067,,,19,001,2024-07-01_14h55.26.674,robot_nback_sign,2022.2.5,59.96879224057771,
L_Torso_X_Back,False,2,robot,1,False,False,robot_stimuli\L_Torso_X_Back.mp4,19,,,,,,,,,0,89,89,89,,,,,,,,,,,,,782.5109009999996,783.6002737999997,,,,,,,787.2481118999995,787.2481118999995,787.2481118999995,787.2481118999995,787.2481118999995,787.2481118999995,787.2481118999995,787.2481118999995,None,None,None,,,,,,,,,,,782.5109009999996,782.5109009999996,None,,783.6002737999997,783.6002737999997,None,782.5109009999996,782.5109009999996,,,,19,001,2024-07-01_14h55.26.674,robot_nback_sign,2022.2.5,59.96879224057771,
L_Torso_Y_Back,False,2,robot,1,False,False,robot_stimuli\L_Torso_Y_Back.mp4,19,,,,,,,,,0,90,90,90,,,,,,,,,,,,,787.2481118999995,788.3282614,,,,,,,791.8328462,791.8328462,791.8328462,791.8328462,791.8328462,791.8328462,791.8328462,791.8328462,None,None,None,,,,,,,,,,,787.2481118999995,787.2481118999995,None,,788.3282614,788.3282614,n,787.2481118999995,787.2481118999995,3.338060900000528,,,19,001,2024-07-01_14h55.26.674,robot_nback_sign,2022.2.5,59.96879224057771,
L_Torso_X_Back,True,2,robot,1,False,False,robot_stimuli\L_Torso_X_Back.mp4,19,,,,,,,,,0,91,91,91,,,,,,,,,,,,,791.8328462,792.9299816000002,,,,,,,796.5705055999997,796.5705055999997,796.5705055999997,796.5705055999997,796.5705055999997,796.5705055999997,796.5705055999997,796.5705055999997,None,None,None,,,,,,,,,,,791.8328462,791.8328462,None,,792.9299816000002,792.9299816000002,None,791.8328462,791.8328462,,,,19,001,2024-07-01_14h55.26.674,robot_nback_sign,2022.2.5,59.96879224057771,
L_Torso_Y_Back,True,2,robot,1,False,False,robot_stimuli\L_Torso_Y_Back.mp4,19,,,,,,,,,0,92,92,92,,,,,,,,,,,,,796.5705055999997,797.6484498999998,,,,,,,801.1444507999995,801.1444507999995,801.1444507999995,801.1444507999995,801.1444507999995,801.1444507999995,801.1444507999995,801.1444507999995,None,None,None,,,,,,,,,,,796.5705055999997,796.5705055999997,None,,797.6484498999998,797.6484498999998,c,796.5705055999997,796.5705055999997,2.9785287000004246,,,19,001,2024-07-01_14h55.26.674,robot_nback_sign,2022.2.5,59.96879224057771,
R_Base_X_For,False,2,robot,1,False,False,robot_stimuli\R_Base_X_For.mp4,19,,,,,,,,,0,93,93,93,,,,,,,,,,,,,801.1444507999995,802.2328777000002,,,,,,,805.7867024999996,805.7867024999996,805.7867024999996,805.7867024999996,805.7867024999996,805.7867024999996,805.7867024999996,805.7867024999996,None,None,None,,,,,,,,,,,801.1444507999995,801.1444507999995,None,,802.2328777000002,802.2328777000002,n,801.1444507999995,801.1444507999995,2.905632200000582,,,19,001,2024-07-01_14h55.26.674,robot_nback_sign,2022.2.5,59.96879224057771,
L_Torso_Y_Back,True,2,robot,1,False,False,robot_stimuli\L_Torso_Y_Back.mp4,19,,,,,,,,,0,94,94,94,,,,,,,,,,,,,805.7867024999996,806.8794519000003,,,,,,,810.3855919999996,810.3855919999996,810.3855919999996,810.3855919999996,810.3855919999996,810.3855919999996,810.3855919999996,810.3855919999996,None,None,None,,,,,,,,,,,805.7867024999996,805.7867024999996,None,,806.8794519000003,806.8794519000003,None,805.7867024999996,805.7867024999996,,,,19,001,2024-07-01_14h55.26.674,robot_nback_sign,2022.2.5,59.96879224057771,
R_Arm_Z_Back,False,2,robot,1,False,False,robot_stimuli\R_Arm_Z_Back.mp4,19,,,,,,,,,0,95,95,95,,,,,,,,,,,,,810.3855919999996,811.4651609000002,,,,,,,815.0955564999995,815.0955564999995,815.0955564999995,815.0955564999995,815.0955564999995,815.0955564999995,815.0955564999995,815.0955564999995,None,None,None,,,,,,,,,,,810.3855919999996,810.3855919999996,None,,811.4651609000002,811.4651609000002,n,810.3855919999996,810.3855919999996,3.4347444000004543,,,19,001,2024-07-01_14h55.26.674,robot_nback_sign,2022.2.5,59.96879224057771,
R_Head_Y_For,False,2,robot,1,False,False,robot_stimuli\R_Head_Y_For.mp4,19,,,,,,,,,0,96,96,96,,,,,,,,,,,,,815.0955564999995,816.1831654999996,,,,,,,819.8316704999997,819.8316704999997,819.8316704999997,819.8316704999997,819.8316704999997,819.8316704999997,819.8316704999997,819.8316704999997,None,None,None,,,,,,,,,,,815.0955564999995,815.0955564999995,None,,816.1831654999996,816.1831654999996,n,815.0955564999995,815.0955564999995,3.444114000000809,,,19,001,2024-07-01_14h55.26.674,robot_nback_sign,2022.2.5,59.96879224057771,
L_Arm_Y_Back,False,2,robot,1,False,False,robot_stimuli\L_Arm_Y_Back.mp4,19,,,,,,,,,0,97,97,97,,,,,,,,,,,,,819.8316704999997,820.9129290000001,,,,,,,824.5531658,824.5531658,824.5531658,824.5531658,824.5531658,824.5531658,824.5531658,824.5531658,None,None,None,,,,,,,,,,,819.8316704999997,819.8316704999997,None,,820.9129290000001,820.9129290000001,n,819.8316704999997,819.8316704999997,2.682476600000882,,,19,001,2024-07-01_14h55.26.674,robot_nback_sign,2022.2.5,59.96879224057771,
R_Head_Y_For,True,2,robot,1,False,False,robot_stimuli\R_Head_Y_For.mp4,19,,,,,,,,,0,98,98,98,,,,,,,,,,,,,824.5531658,825.6329519000001,,,,,,,829.2830814999998,829.2830814999998,829.2830814999998,829.2830814999998,829.2830814999998,829.2830814999998,829.2830814999998,829.2830814999998,None,None,None,,,,,,,,,,,824.5531658,824.5531658,None,,825.6329519000001,825.6329519000001,c,824.5531658,824.5531658,2.4813637000006565,,,19,001,2024-07-01_14h55.26.674,robot_nback_sign,2022.2.5,59.96879224057771,
L_Head_Z_For,False,2,robot,1,False,True,robot_stimuli\L_Head_Z_For.mp4,19,,,,,,,,,0,99,99,99,,,,,,,,,,,,,829.2830814999998,830.3672663999996,,,,,,,834.0515632999995,837.4231629999995,834.0515632999995,837.4231629999995,834.0515632999995,837.4231629999995,834.0515632999995,837.4231629999995,36.01851851851852,2.498171799999909,space,,,,3.3029339000004256,,,,,,,829.2830814999998,829.2830814999998,None,,830.3672663999996,830.3672663999996,n,829.2830814999998,829.2830814999998,3.563445200001297,,,19,001,2024-07-01_14h55.26.674,robot_nback_sign,2022.2.5,59.96879224057771,
L_Torso_Z_For,False,3,robot,1,True,False,robot_stimuli\L_Torso_Z_For.mp4,19,,,,,,,,,0,100,100,100,,,,,,,,,,,,,857.6047342000002,858.6838142999995,,,,,,,862.3207568999997,862.3207568999997,862.3207568999997,862.3207568999997,862.3207568999997,862.3207568999997,862.3207568999997,862.3207568999997,None,None,None,,,,,,,,,,,837.4231629999995,837.4231629999995,space,20.163914300001125,858.6838142999995,858.6838142999995,None,,,,,,19,001,2024-07-01_14h55.26.674,robot_nback_sign,2022.2.5,59.96879224057771,
R_Head_X_Back,False,3,robot,1,False,False,robot_stimuli\R_Head_X_Back.mp4,19,,,,,,,,,0,101,101,101,,,,,,,,,,,,,862.3207568999997,863.3981645000003,,,,,,,867.0310055,867.0310055,867.0310055,867.0310055,867.0310055,867.0310055,867.0310055,867.0310055,None,None,None,,,,,,,,,,,862.3207568999997,862.3207568999997,None,,863.3981645000003,863.3981645000003,None,862.3207568999997,862.3207568999997,,,,19,001,2024-07-01_14h55.26.674,robot_nback_sign,2022.2.5,59.96879224057771,
L_Arm_X_Back,False,3,robot,1,False,False,robot_stimuli\L_Arm_X_Back.mp4,19,,,,,,,,,0,102,102,102,,,,,,,,,,,,,867.0310055,868.1300358999997,,,,,,,871.7705988999996,871.7705988999996,871.7705988999996,871.7705988999996,871.7705988999996,871.7705988999996,871.7705988999996,871.7705988999996,None,None,None,,,,,,,,,,,867.0310055,867.0310055,None,,868.1300358999997,868.1300358999997,None,867.0310055,867.0310055,,,,19,001,2024-07-01_14h55.26.674,robot_nback_sign,2022.2.5,59.96879224057771,
R_Base_X_For,False,3,robot,1,False,False,robot_stimuli\R_Base_X_For.mp4,19,,,,,,,,,0,103,103,103,,,,,,,,,,,,,871.7705988999996,872.8491347999998,,,,,,,876.4001015000003,876.4001015000003,876.4001015000003,876.4001015000003,876.4001015000003,876.4001015000003,876.4001015000003,876.4001015000003,None,None,None,,,,,,,,,,,871.7705988999996,871.7705988999996,None,,872.8491347999998,872.8491347999998,n,871.7705988999996,871.7705988999996,3.5141957000005277,,,19,001,2024-07-01_14h55.26.674,robot_nback_sign,2022.2.5,59.96879224057771,
R_Torso_Z_For,False,3,robot,1,False,False,robot_stimuli\R_Torso_Z_For.mp4,19,,,,,,,,,0,104,104,104,,,,,,,,,,,,,876.4001015000003,877.4817505000001,,,,,,,881.1111953,881.1111953,881.1111953,881.1111953,881.1111953,881.1111953,881.1111953,881.1111953,None,None,None,,,,,,,,,,,876.4001015000003,876.4001015000003,None,,877.4817505000001,877.4817505000001,None,876.4001015000003,876.4001015000003,,,,19,001,2024-07-01_14h55.26.674,robot_nback_sign,2022.2.5,59.96879224057771,
R_Torso_Z_For,False,3,robot,1,False,False,robot_stimuli\R_Torso_Z_For.mp4,19,,,,,,,,,0,105,105,105,,,,,,,,,,,,,881.1111953,882.1916946000001,,,,,,,885.8338332000003,885.8338332000003,885.8338332000003,885.8338332000003,885.8338332000003,885.8338332000003,885.8338332000003,885.8338332000003,None,None,None,,,,,,,,,,,881.1111953,881.1111953,None,,882.1916946000001,882.1916946000001,None,881.1111953,881.1111953,,,,19,001,2024-07-01_14h55.26.674,robot_nback_sign,2022.2.5,59.96879224057771,
L_Arm_Z_Back,False,3,robot,1,False,False,robot_stimuli\L_Arm_Z_Back.mp4,19,,,,,,,,,0,106,106,106,,,,,,,,,,,,,885.8338332000003,886.9165573999999,,,,,,,890.5663213999997,890.5663213999997,890.5663213999997,890.5663213999997,890.5663213999997,890.5663213999997,890.5663213999997,890.5663213999997,None,None,None,,,,,,,,,,,885.8338332000003,885.8338332000003,None,,886.9165573999999,886.9165573999999,None,885.8338332000003,885.8338332000003,,,,19,001,2024-07-01_14h55.26.674,robot_nback_sign,2022.2.5,59.96879224057771,
R_Base_X_Back,False,3,robot,1,False,False,robot_stimuli\R_Base_X_Back.mp4,19,,,,,,,,,0,107,107,107,,,,,,,,,,,,,890.5663213999997,891.6496066,,,,,,,895.2986669000002,895.2986669000002,895.2986669000002,895.2986669000002,895.2986669000002,895.2986669000002,895.2986669000002,895.2986669000002,None,None,None,,,,,,,,,,,890.5663213999997,890.5663213999997,None,,891.6496066,891.6496066,None,890.5663213999997,890.5663213999997,,,,19,001,2024-07-01_14h55.26.674,robot_nback_sign,2022.2.5,59.96879224057771,
R_Head_Z_Back,False,3,robot,1,False,False,robot_stimuli\R_Head_Z_Back.mp4,19,,,,,,,,,0,108,108,108,,,,,,,,,,,,,895.2986669000002,896.3826980000003,,,,,,,900.0210246999995,900.0210246999995,900.0210246999995,900.0210246999995,900.0210246999995,900.0210246999995,900.0210246999995,900.0210246999995,None,None,None,,,,,,,,,,,895.2986669000002,895.2986669000002,None,,896.3826980000003,896.3826980000003,None,895.2986669000002,895.2986669000002,,,,19,001,2024-07-01_14h55.26.674,robot_nback_sign,2022.2.5,59.96879224057771,
L_Arm_Z_Back,True,3,robot,1,False,False,robot_stimuli\L_Arm_Z_Back.mp4,19,,,,,,,,,0,109,109,109,,,,,,,,,,,,,900.0210246999995,901.1015343999998,,,,,,,904.7498654000001,904.7498654000001,904.7498654000001,904.7498654000001,904.7498654000001,904.7498654000001,904.7498654000001,904.7498654000001,None,None,None,,,,,,,,,,,900.0210246999995,900.0210246999995,None,,901.1015343999998,901.1015343999998,None,900.0210246999995,900.0210246999995,,,,19,001,2024-07-01_14h55.26.674,robot_nback_sign,2022.2.5,59.96879224057771,
L_Base_X_Back,False,3,robot,1,False,False,robot_stimuli\L_Base_X_Back.mp4,19,,,,,,,,,0,110,110,110,,,,,,,,,,,,,904.7498654000001,905.8366392999997,,,,,,,909.4539920999996,909.4539920999996,909.4539920999996,909.4539920999996,909.4539920999996,909.4539920999996,909.4539920999996,909.4539920999996,None,None,None,,,,,,,,,,,904.7498654000001,904.7498654000001,None,,905.8366392999997,905.8366392999997,n,904.7498654000001,904.7498654000001,3.4539127000007284,,,19,001,2024-07-01_14h55.26.674,robot_nback_sign,2022.2.5,59.96879224057771,
L_Head_X_For,False,3,robot,1,False,False,robot_stimuli\L_Head_X_For.mp4,19,,,,,,,,,0,111,111,111,,,,,,,,,,,,,909.4539920999996,910.5325058999997,,,,,,,914.1175348999996,914.1175348999996,914.1175348999996,914.1175348999996,914.1175348999996,914.1175348999996,914.1175348999996,914.1175348999996,None,None,None,,,,,,,,,,,909.4539920999996,909.4539920999996,None,,910.5325058999997,910.5325058999997,n,909.4539920999996,909.4539920999996,3.247190699999919,,,19,001,2024-07-01_14h55.26.674,robot_nback_sign,2022.2.5,59.96879224057771,
L_Torso_Y_For,False,3,robot,1,False,False,robot_stimuli\L_Torso_Y_For.mp4,19,,,,,,,,,0,112,112,112,,,,,,,,,,,,,914.1175348999996,915.1990929000003,,,,,,,918.8503811,918.8503811,918.8503811,918.8503811,918.8503811,918.8503811,918.8503811,918.8503811,None,None,None,,,,,,,,,,,914.1175348999996,914.1175348999996,None,,915.1990929000003,915.1990929000003,n,914.1175348999996,914.1175348999996,3.108693900000617,,,19,001,2024-07-01_14h55.26.674,robot_nback_sign,2022.2.5,59.96879224057771,
L_Base_Y_Back,False,3,robot,1,False,False,robot_stimuli\L_Base_Y_Back.mp4,19,,,,,,,,,0,113,113,113,,,,,,,,,,,,,918.8503811,919.9334804,,,,,,,923.5154344000002,923.5154344000002,923.5154344000002,923.5154344000002,923.5154344000002,923.5154344000002,923.5154344000002,923.5154344000002,None,None,None,,,,,,,,,,,918.8503811,918.8503811,None,,919.9334804,919.9334804,c,918.8503811,918.8503811,2.917302400001063,,,19,001,2024-07-01_14h55.26.674,robot_nback_sign,2022.2.5,59.96879224057771,
L_Torso_X_Back,False,3,robot,1,False,False,robot_stimuli\L_Torso_X_Back.mp4,19,,,,,,,,,0,114,114,114,,,,,,,,,,,,,923.5154344000002,924.5980297999995,,,,,,,928.2288889000001,928.2288889000001,928.2288889000001,928.2288889000001,928.2288889000001,928.2288889000001,928.2288889000001,928.2288889000001,None,None,None,,,,,,,,,,,923.5154344000002,923.5154344000002,None,,924.5980297999995,924.5980297999995,n,923.5154344000002,923.5154344000002,2.772168400000737,,,19,001,2024-07-01_14h55.26.674,robot_nback_sign,2022.2.5,59.96879224057771,
L_Arm_X_Back,False,3,robot,1,False,False,robot_stimuli\L_Arm_X_Back.mp4,19,,,,,,,,,0,115,115,115,,,,,,,,,,,,,928.2288889000001,929.3116213000003,,,,,,,932.9540471999999,932.9540471999999,932.9540471999999,932.9540471999999,932.9540471999999,932.9540471999999,932.9540471999999,932.9540471999999,None,None,None,,,,,,,,,,,928.2288889000001,928.2288889000001,None,,929.3116213000003,929.3116213000003,n,928.2288889000001,928.2288889000001,3.1626751000003424,,,19,001,2024-07-01_14h55.26.674,robot_nback_sign,2022.2.5,59.96879224057771,
L_Head_X_For,False,3,robot,1,False,False,robot_stimuli\L_Head_X_For.mp4,19,,,,,,,,,0,116,116,116,,,,,,,,,,,,,932.9540471999999,934.0323343999999,,,,,,,937.6166469999998,937.6166469999998,937.6166469999998,937.6166469999998,937.6166469999998,937.6166469999998,937.6166469999998,937.6166469999998,None,None,None,,,,,,,,,,,932.9540471999999,932.9540471999999,None,,934.0323343999999,934.0323343999999,None,932.9540471999999,932.9540471999999,,,,19,001,2024-07-01_14h55.26.674,robot_nback_sign,2022.2.5,59.96879224057771,
L_Torso_X_Back,True,3,robot,1,False,False,robot_stimuli\L_Torso_X_Back.mp4,19,,,,,,,,,0,117,117,117,,,,,,,,,,,,,937.6166469999998,938.6967449000003,,,,,,,942.3367400999996,942.3367400999996,942.3367400999996,942.3367400999996,942.3367400999996,942.3367400999996,942.3367400999996,942.3367400999996,None,None,None,,,,,,,,,,,937.6166469999998,937.6166469999998,None,,938.6967449000003,938.6967449000003,c,937.6166469999998,937.6166469999998,2.961344000000281,,,19,001,2024-07-01_14h55.26.674,robot_nback_sign,2022.2.5,59.96879224057771,
R_Torso_X_Back,False,3,robot,1,False,False,robot_stimuli\R_Torso_X_Back.mp4,19,,,,,,,,,0,118,118,118,,,,,,,,,,,,,942.3367400999996,943.4155005000002,,,,,,,947.0436859000001,947.0436859000001,947.0436859000001,947.0436859000001,947.0436859000001,947.0436859000001,947.0436859000001,947.0436859000001,None,None,None,,,,,,,,,,,942.3367400999996,942.3367400999996,None,,943.4155005000002,943.4155005000002,n,942.3367400999996,942.3367400999996,3.31475490000048,,,19,001,2024-07-01_14h55.26.674,robot_nback_sign,2022.2.5,59.96879224057771,
R_Arm_Z_For,False,3,robot,1,False,False,robot_stimuli\R_Arm_Z_For.mp4,19,,,,,,,,,0,119,119,119,,,,,,,,,,,,,947.0436859000001,948.1331233000001,,,,,,,951.7817667999998,951.7817667999998,951.7817667999998,951.7817667999998,951.7817667999998,951.7817667999998,951.7817667999998,951.7817667999998,None,None,None,,,,,,,,,,,947.0436859000001,947.0436859000001,None,,948.1331233000001,948.1331233000001,None,947.0436859000001,947.0436859000001,,,,19,001,2024-07-01_14h55.26.674,robot_nback_sign,2022.2.5,59.96879224057771,
L_Arm_Y_For,False,3,robot,1,False,False,robot_stimuli\L_Arm_Y_For.mp4,19,,,,,,,,,0,120,120,120,,,,,,,,,,,,,951.7817667999998,952.8664456999995,,,,,,,956.5168014999999,956.5168014999999,956.5168014999999,956.5168014999999,956.5168014999999,956.5168014999999,956.5168014999999,956.5168014999999,None,None,None,,,,,,,,,,,951.7817667999998,951.7817667999998,None,,952.8664456999995,952.8664456999995,n,951.7817667999998,951.7817667999998,1.5527367000004233,,,19,001,2024-07-01_14h55.26.674,robot_nback_sign,2022.2.5,59.96879224057771,
L_Head_Z_Back,False,3,robot,1,False,False,robot_stimuli\L_Head_Z_Back.mp4,19,,,,,,,,,0,121,121,121,,,,,,,,,,,,,956.5168014999999,957.6004722999996,,,,,,,961.2496418999999,961.2496418999999,961.2496418999999,961.2496418999999,961.2496418999999,961.2496418999999,961.2496418999999,961.2496418999999,None,None,None,,,,,,,,,,,956.5168014999999,956.5168014999999,None,,957.6004722999996,957.6004722999996,None,956.5168014999999,956.5168014999999,,,,19,001,2024-07-01_14h55.26.674,robot_nback_sign,2022.2.5,59.96879224057771,
L_Base_Z_For,False,3,robot,1,False,False,robot_stimuli\L_Base_Z_For.mp4,19,,,,,,,,,0,122,122,122,,,,,,,,,,,,,961.2496418999999,962.3319142,,,,,,,965.9620266000002,965.9620266000002,965.9620266000002,965.9620266000002,965.9620266000002,965.9620266000002,965.9620266000002,965.9620266000002,None,None,None,,,,,,,,,,,961.2496418999999,961.2496418999999,None,,962.3319142,962.3319142,None,961.2496418999999,961.2496418999999,,,,19,001,2024-07-01_14h55.26.674,robot_nback_sign,2022.2.5,59.96879224057771,
L_Arm_Y_For,True,3,robot,1,False,False,robot_stimuli\L_Arm_Y_For.mp4,19,,,,,,,,,0,123,123,123,,,,,,,,,,,,,965.9620266000002,967.0482853000003,,,,,,,970.6786222000001,970.6786222000001,970.6786222000001,970.6786222000001,970.6786222000001,970.6786222000001,970.6786222000001,970.6786222000001,None,None,None,,,,,,,,,,,965.9620266000002,965.9620266000002,None,,967.0482853000003,967.0482853000003,None,965.9620266000002,965.9620266000002,,,,19,001,2024-07-01_14h55.26.674,robot_nback_sign,2022.2.5,59.96879224057771,
L_Head_Z_Back,True,3,robot,1,False,False,robot_stimuli\L_Head_Z_Back.mp4,19,,,,,,,,,0,124,124,124,,,,,,,,,,,,,970.6786222000001,971.7639960999995,,,,,,,975.4025756999999,975.4025756999999,975.4025756999999,975.4025756999999,975.4025756999999,975.4025756999999,975.4025756999999,975.4025756999999,None,None,None,,,,,,,,,,,970.6786222000001,970.6786222000001,None,,971.7639960999995,971.7639960999995,c,970.6786222000001,970.6786222000001,2.8386459000003015,,,19,001,2024-07-01_14h55.26.674,robot_nback_sign,2022.2.5,59.96879224057771,
L_Base_Z_For,True,3,robot,1,False,False,robot_stimuli\L_Base_Z_For.mp4,19,,,,,,,,,0,125,125,125,,,,,,,,,,,,,975.4025756999999,976.4813477999996,,,,,,,980.1187215999998,980.1187215999998,980.1187215999998,980.1187215999998,980.1187215999998,980.1187215999998,980.1187215999998,980.1187215999998,None,None,None,,,,,,,,,,,975.4025756999999,975.4025756999999,None,,976.4813477999996,976.4813477999996,c,975.4025756999999,975.4025756999999,2.777594300000601,,,19,001,2024-07-01_14h55.26.674,robot_nback_sign,2022.2.5,59.96879224057771,
R_Head_Y_Back,False,3,robot,1,False,False,robot_stimuli\R_Head_Y_Back.mp4,19,,,,,,,,,0,126,126,126,,,,,,,,,,,,,980.1187215999998,981.1957230999997,,,,,,,984.8481198,984.8481198,984.8481198,984.8481198,984.8481198,984.8481198,984.8481198,984.8481198,None,None,None,,,,,,,,,,,980.1187215999998,980.1187215999998,None,,981.1957230999997,981.1957230999997,n,980.1187215999998,980.1187215999998,3.0625577999999223,,,19,001,2024-07-01_14h55.26.674,robot_nback_sign,2022.2.5,59.96879224057771,
R_Base_Y_For,False,3,robot,1,False,False,robot_stimuli\R_Base_Y_For.mp4,19,,,,,,,,,0,127,127,127,,,,,,,,,,,,,984.8481198,985.9319221999995,,,,,,,989.5711007999998,989.5711007999998,989.5711007999998,989.5711007999998,989.5711007999998,989.5711007999998,989.5711007999998,989.5711007999998,None,None,None,,,,,,,,,,,984.8481198,984.8481198,None,,985.9319221999995,985.9319221999995,None,984.8481198,984.8481198,,,,19,001,2024-07-01_14h55.26.674,robot_nback_sign,2022.2.5,59.96879224057771,
L_Base_Z_For,True,3,robot,1,False,False,robot_stimuli\L_Base_Z_For.mp4,19,,,,,,,,,0,128,128,128,,,,,,,,,,,,,989.5711007999998,990.6489610999997,,,,,,,994.2877804999998,994.2877804999998,994.2877804999998,994.2877804999998,994.2877804999998,994.2877804999998,994.2877804999998,994.2877804999998,None,None,None,,,,,,,,,,,989.5711007999998,989.5711007999998,None,,990.6489610999997,990.6489610999997,None,989.5711007999998,989.5711007999998,,,,19,001,2024-07-01_14h55.26.674,robot_nback_sign,2022.2.5,59.96879224057771,
L_Arm_Y_For,False,3,robot,1,False,False,robot_stimuli\L_Arm_Y_For.mp4,19,,,,,,,,,0,129,129,129,,,,,,,,,,,,,994.2877804999998,995.3663964999996,,,,,,,999.0166012999998,999.0166012999998,999.0166012999998,999.0166012999998,999.0166012999998,999.0166012999998,999.0166012999998,999.0166012999998,None,None,None,,,,,,,,,,,994.2877804999998,994.2877804999998,None,,995.3663964999996,995.3663964999996,n,994.2877804999998,994.2877804999998,2.853169300000445,,,19,001,2024-07-01_14h55.26.674,robot_nback_sign,2022.2.5,59.96879224057771,
R_Base_Y_For,True,3,robot,1,False,False,robot_stimuli\R_Base_Y_For.mp4,19,,,,,,,,,0,130,130,130,,,,,,,,,,,,,999.0166012999998,1000.0990983000002,,,,,,,1003.7280847000002,1003.7280847000002,1003.7280847000002,1003.7280847000002,1003.7280847000002,1003.7280847000002,1003.7280847000002,1003.7280847000002,None,None,None,,,,,,,,,,,999.0166012999998,999.0166012999998,None,,1000.0990983000002,1000.0990983000002,None,999.0166012999998,999.0166012999998,,,,19,001,2024-07-01_14h55.26.674,robot_nback_sign,2022.2.5,59.96879224057771,
L_Torso_Y_Back,False,3,robot,1,False,False,robot_stimuli\L_Torso_Y_Back.mp4,19,,,,,,,,,0,131,131,131,,,,,,,,,,,,,1003.7280847000002,1004.8153205999997,,,,,,,1008.3124156000003,1008.3124156000003,1008.3124156000003,1008.3124156000003,1008.3124156000003,1008.3124156000003,1008.3124156000003,1008.3124156000003,None,None,None,,,,,,,,,,,1003.7280847000002,1003.7280847000002,None,,1004.8153205999997,1004.8153205999997,n,1003.7280847000002,1003.7280847000002,3.2437094000006255,,,19,001,2024-07-01_14h55.26.674,robot_nback_sign,2022.2.5,59.96879224057771,
R_Torso_Z_For,False,3,robot,1,False,False,robot_stimuli\R_Torso_Z_For.mp4,19,,,,,,,,,0,132,132,132,,,,,,,,,,,,,1008.3124156000003,1009.3979739999995,,,,,,,1013.0363981,1013.0363981,1013.0363981,1013.0363981,1013.0363981,1013.0363981,1013.0363981,1013.0363981,None,None,None,,,,,,,,,,,1008.3124156000003,1008.3124156000003,None,,1009.3979739999995,1009.3979739999995,c,1008.3124156000003,1008.3124156000003,2.501568700000462,,,19,001,2024-07-01_14h55.26.674,robot_nback_sign,2022.2.5,59.96879224057771,
R_Base_X_Back,False,3,robot,1,False,False,robot_stimuli\R_Base_X_Back.mp4,19,,,,,,,,,0,133,133,133,,,,,,,,,,,,,1013.0363981,1014.1158937,,,,,,,1017.7655901999997,1017.7655901999997,1017.7655901999997,1017.7655901999997,1017.7655901999997,1017.7655901999997,1017.7655901999997,1017.7655901999997,None,None,None,,,,,,,,,,,1013.0363981,1013.0363981,None,,1014.1158937,1014.1158937,None,1013.0363981,1013.0363981,,,,19,001,2024-07-01_14h55.26.674,robot_nback_sign,2022.2.5,59.96879224057771,
L_Torso_X_For,False,3,robot,1,False,False,robot_stimuli\L_Torso_X_For.mp4,19,,,,,,,,,0,134,134,134,,,,,,,,,,,,,1017.7655901999997,1018.8489510999998,,,,,,,1022.4983962999995,1022.4983962999995,1022.4983962999995,1022.4983962999995,1022.4983962999995,1022.4983962999995,1022.4983962999995,1022.4983962999995,None,None,None,,,,,,,,,,,1017.7655901999997,1017.7655901999997,None,,1018.8489510999998,1018.8489510999998,None,1017.7655901999997,1017.7655901999997,,,,19,001,2024-07-01_14h55.26.674,robot_nback_sign,2022.2.5,59.96879224057771,
L_Torso_Z_For,False,3,robot,1,False,False,robot_stimuli\L_Torso_Z_For.mp4,19,,,,,,,,,0,135,135,135,,,,,,,,,,,,,1022.4983962999995,1023.5794635000002,,,,,,,1027.2184251999997,1027.2184251999997,1027.2184251999997,1027.2184251999997,1027.2184251999997,1027.2184251999997,1027.2184251999997,1027.2184251999997,None,None,None,,,,,,,,,,,1022.4983962999995,1022.4983962999995,None,,1023.5794635000002,1023.5794635000002,c,1022.4983962999995,1022.4983962999995,3.3195712000006097,,,19,001,2024-07-01_14h55.26.674,robot_nback_sign,2022.2.5,59.96879224057771,
R_Head_Z_For,False,3,robot,1,False,False,robot_stimuli\R_Head_Z_For.mp4,19,,,,,,,,,0,136,136,136,,,,,,,,,,,,,1027.2184251999997,1028.2984616000003,,,,,,,1031.9365226,1031.9365226,1031.9365226,1031.9365226,1031.9365226,1031.9365226,1031.9365226,1031.9365226,None,None,None,,,,,,,,,,,1027.2184251999997,1027.2184251999997,None,,1028.2984616000003,1028.2984616000003,n,1027.2184251999997,1027.2184251999997,2.975521100000151,,,19,001,2024-07-01_14h55.26.674,robot_nback_sign,2022.2.5,59.96879224057771,
L_Base_X_Back,False,3,robot,1,False,False,robot_stimuli\L_Base_X_Back.mp4,19,,,,,,,,,0,137,137,137,,,,,,,,,,,,,1031.9365226,1033.0158804000002,,,,,,,1036.6325344999996,1036.6325344999996,1036.6325344999996,1036.6325344999996,1036.6325344999996,1036.6325344999996,1036.6325344999996,1036.6325344999996,None,None,None,,,,,,,,,,,1031.9365226,1031.9365226,None,,1033.0158804000002,1033.0158804000002,c,1031.9365226,1031.9365226,2.7478523000008863,,,19,001,2024-07-01_14h55.26.674,robot_nback_sign,2022.2.5,59.96879224057771,
L_Arm_Y_Back,False,3,robot,1,False,False,robot_stimuli\L_Arm_Y_Back.mp4,19,,,,,,,,,0,138,138,138,,,,,,,,,,,,,1036.6325344999996,1037.7146094999998,,,,,,,1041.3540120999996,1041.3540120999996,1041.3540120999996,1041.3540120999996,1041.3540120999996,1041.3540120999996,1041.3540120999996,1041.3540120999996,None,None,None,,,,,,,,,,,1036.6325344999996,1036.6325344999996,None,,1037.7146094999998,1037.7146094999998,None,1036.6325344999996,1036.6325344999996,,,,19,001,2024-07-01_14h55.26.674,robot_nback_sign,2022.2.5,59.96879224057771,
L_Torso_X_For,False,3,robot,1,False,False,robot_stimuli\L_Torso_X_For.mp4,19,,,,,,,,,0,139,139,139,,,,,,,,,,,,,1041.3540120999996,1042.433806,,,,,,,1046.0841085000002,1046.0841085000002,1046.0841085000002,1046.0841085000002,1046.0841085000002,1046.0841085000002,1046.0841085000002,1046.0841085000002,None,None,None,,,,,,,,,,,1041.3540120999996,1041.3540120999996,None,,1042.433806,1042.433806,None,1041.3540120999996,1041.3540120999996,,,,19,001,2024-07-01_14h55.26.674,robot_nback_sign,2022.2.5,59.96879224057771,
L_Base_Y_Back,False,3,robot,1,False,False,robot_stimuli\L_Base_Y_Back.mp4,19,,,,,,,,,0,140,140,140,,,,,,,,,,,,,1046.0841085000002,1047.1666948000002,,,,,,,1050.7481447999999,1050.7481447999999,1050.7481447999999,1050.7481447999999,1050.7481447999999,1050.7481447999999,1050.7481447999999,1050.7481447999999,None,None,None,,,,,,,,,,,1046.0841085000002,1046.0841085000002,None,,1047.1666948000002,1047.1666948000002,None,1046.0841085000002,1046.0841085000002,,,,19,001,2024-07-01_14h55.26.674,robot_nback_sign,2022.2.5,59.96879224057771,
L_Arm_Y_Back,True,3,robot,1,False,False,robot_stimuli\L_Arm_Y_Back.mp4,19,,,,,,,,,0,141,141,141,,,,,,,,,,,,,1050.7481447999999,1051.8369172000002,,,,,,,1055.4896326999997,1055.4896326999997,1055.4896326999997,1055.4896326999997,1055.4896326999997,1055.4896326999997,1055.4896326999997,1055.4896326999997,None,None,None,,,,,,,,,,,1050.7481447999999,1050.7481447999999,None,,1051.8369172000002,1051.8369172000002,None,1050.7481447999999,1050.7481447999999,,,,19,001,2024-07-01_14h55.26.674,robot_nback_sign,2022.2.5,59.96879224057771,
L_Head_Y_Back,False,3,robot,1,False,False,robot_stimuli\L_Head_Y_Back.mp4,19,,,,,,,,,0,142,142,142,,,,,,,,,,,,,1055.4896326999997,,,,,,,,1060.2412224999998,1060.2412224999998,1060.2412224999998,1060.2412224999998,1060.2412224999998,1060.2412224999998,1060.2412224999998,1060.2412224999998,None,None,None,,,,,,,,,,,1055.4896326999997,1055.4896326999997,None,,1056.5986874999999,1056.5986874999999,n,1055.4896326999997,1055.4896326999997,3.540131599999768,,,19,001,2024-07-01_14h55.26.674,robot_nback_sign,2022.2.5,59.96879224057771,
R_Base_X_Back,False,3,robot,1,False,False,robot_stimuli\R_Base_X_Back.mp4,19,,,,,,,,,0,143,143,143,,,,,,,,,,,,,1060.2412224999998,,,,,,,,1064.9901461,1064.9901461,1064.9901461,1064.9901461,1064.9901461,1064.9901461,1064.9901461,1064.9901461,None,None,None,,,,,,,,,,,1060.2412224999998,1060.2412224999998,None,,1061.3470335000002,1061.3470335000002,c,1060.2412224999998,1060.2412224999998,2.640443299999788,,,19,001,2024-07-01_14h55.26.674,robot_nback_sign,2022.2.5,59.96879224057771,
R_Torso_X_For,False,3,robot,1,False,False,robot_stimuli\R_Torso_X_For.mp4,19,,,,,,,,,0,144,144,144,,,,,,,,,,,,,1064.9901461,,,,,,,,1069.7391314999995,1069.7391314999995,1069.7391314999995,1069.7391314999995,1069.7391314999995,1069.7391314999995,1069.7391314999995,1069.7391314999995,None,None,None,,,,,,,,,,,1064.9901461,1064.9901461,None,,1066.0959468,1066.0959468,n,1064.9901461,1064.9901461,2.5311363000009806,,,19,001,2024-07-01_14h55.26.674,robot_nback_sign,2022.2.5,59.96879224057771,
L_Torso_Y_Back,False,3,robot,1,False,False,robot_stimuli\L_Torso_Y_Back.mp4,19,,,,,,,,,0,145,145,145,,,,,,,,,,,,,1069.7391314999995,1070.8307691999998,,,,,,,1074.3369750000002,1074.3369750000002,1074.3369750000002,1074.3369750000002,1074.3369750000002,1074.3369750000002,1074.3369750000002,1074.3369750000002,None,None,None,,,,,,,,,,,1069.7391314999995,1069.7391314999995,None,,1070.8307691999998,1070.8307691999998,n,1069.7391314999995,1069.7391314999995,2.6114464000002044,,,19,001,2024-07-01_14h55.26.674,robot_nback_sign,2022.2.5,59.96879224057771,
R_Head_Z_For,False,3,robot,1,False,False,robot_stimuli\R_Head_Z_For.mp4,19,,,,,,,,,0,146,146,146,,,,,,,,,,,,,1074.3369750000002,1075.4149081999994,,,,,,,1079.0528323999997,1079.0528323999997,1079.0528323999997,1079.0528323999997,1079.0528323999997,1079.0528323999997,1079.0528323999997,1079.0528323999997,None,None,None,,,,,,,,,,,1074.3369750000002,1074.3369750000002,None,,1075.4149081999994,1075.4149081999994,n,1074.3369750000002,1074.3369750000002,3.395734600000651,,,19,001,2024-07-01_14h55.26.674,robot_nback_sign,2022.2.5,59.96879224057771,
R_Torso_X_For,True,3,robot,1,False,False,robot_stimuli\R_Torso_X_For.mp4,19,,,,,,,,,0,147,147,147,,,,,,,,,,,,,1079.0528323999997,1080.1317293000002,,,,,,,1083.7708555,1083.7708555,1083.7708555,1083.7708555,1083.7708555,1083.7708555,1083.7708555,1083.7708555,None,None,None,,,,,,,,,,,1079.0528323999997,1079.0528323999997,None,,1080.1317293000002,1080.1317293000002,c,1079.0528323999997,1079.0528323999997,3.1593371999997544,,,19,001,2024-07-01_14h55.26.674,robot_nback_sign,2022.2.5,59.96879224057771,
