sequence,odd_ones,parameter,choices,target,target_idx,condition,stimuli,block,is_block_beginning,is_block_ending,sequence_fnames,target_fname,subject,retraining.thisRepN,retraining.thisTrialN,retraining.thisN,retraining.thisIndex,training.thisRepN,training.thisTrialN,training.thisN,training.thisIndex,training_sequence_loop.thisRepN,training_sequence_loop.thisTrialN,training_sequence_loop.thisN,training_sequence_loop.thisIndex,trials.thisRepN,trials.thisTrialN,trials.thisN,trials.thisIndex,sequence_loop.thisRepN,sequence_loop.thisTrialN,sequence_loop.thisN,sequence_loop.thisIndex,langage_text.started,langage_key.started,langage_key.keys,langage_key.rt,intro_text.started,intro_key.started,intro_key.keys,intro_key.rt,training_intro_text.started,training_intro_key.started,training_intro_key.keys,training_intro_key.rt,polygon.started,polygon.stopped,cue_before_text.started,cue_before_text.stopped,training_presentation_letter.started,training_presentation_letter.stopped,recall_key.started,recall_question.started,recall_answer.started,recall_key.keys,recall_key.rt,RSME_labels.started,RSME_labels.stopped,RSME_ticks.started,RSME_ticks.stopped,RSME_text.started,RSME_text.stopped,RSME_key.started,RSME_key.stopped,RSME_ticks.response,RSME_ticks.rt,RSME_key.keys,training_intro_text.stopped,training_intro_key.stopped,RSME_key.rt,training_presentation_movie.started,experiment_beginning_text.started,experiment_beginning_keys.started,experiment_beginning_key.started,experiment_beginning_key.keys,experiment_beginning_key.rt,block_intro_text.started,block_intro_key.started,block_intro_key.keys,block_intro_key.rt,presentation_movie.started,block_intro_text.stopped,block_intro_key.stopped,presentation_letter.started,presentation_letter.stopped,participant,session,date,expName,psychopyVersion,frameRate,
,,,,,,,,,,,,,,,,,,,,,,,,,,,,,,,,,,11.926420500000006,11.926420500000006,f,1.4212359999999933,,,,,,,,,,,,,,,,,,,,,,,,,,,,,,,,,,,,,,,,,,,,,,,,,5,001,2024-07-17_09h56.25.979,robot_cogshifting_sign,2022.2.5,59.97339580162343,
,,,,,,,,,,,,,,,,,,,,,,,,,,,,,,,,,,,,,,13.404502999999991,13.404502999999991,space,180.2298368,,,,,,,,,,,,,,,,,,,,,,,,,,,,,,,,,,,,,,,,,,,,,5,001,2024-07-17_09h56.25.979,robot_cogshifting_sign,2022.2.5,59.97339580162343,
"['red_right_W_45', 'red_left_M_0', 'red_left_N_45', 'blue_left_W_45']","{'color': 'blue_left_W_45', 'position': 'red_right_W_45', 'orientation': 'red_left_M_0'}",position,['position'],red_right_W_45,0,1,letter,2,True,False,"['robot_stimuli\\\\filler.mp4', 'robot_stimuli\\\\filler.mp4', 'robot_stimuli\\\\filler.mp4', 'robot_stimuli\\\\filler.mp4']",robot_stimuli\\filler.mp4,5,0,0,0,0,0,0,0,0,,,,,,,,,,,,,,,,,,,,,193.69398290000004,193.69398290000004,space,11.381255599999989,205.09945200000004,206.09894460000004,206.09894460000004,208.4285339,215.13079390000001,217.1674003,217.1674003,217.1674003,217.1674003,1,0.0672225999999938,217.38325360000005,217.38325360000005,217.38325360000005,217.38325360000005,217.38325360000005,217.38325360000005,217.38325360000005,217.38325360000005,None,None,None,,,,,,,,,,,,,,,,,,,5,001,2024-07-17_09h56.25.979,robot_cogshifting_sign,2022.2.5,59.97339580162343,
"['blue_bottom_S_45', 'red_bottom_F_0', 'blue_top_G_0', 'blue_bottom_V_0']","{'color': 'red_bottom_F_0', 'position': 'blue_top_G_0', 'orientation': 'blue_bottom_S_45'}",color,['color'],red_bottom_F_0,1,1,letter,2,False,False,"['robot_stimuli\\\\filler.mp4', 'robot_stimuli\\\\filler.mp4', 'robot_stimuli\\\\filler.mp4', 'robot_stimuli\\\\filler.mp4']",robot_stimuli\\filler.mp4,5,0,0,0,0,0,1,1,1,,,,,,,,,,,,,,,,,,,,,217.38325360000005,217.38325360000005,None,,217.38325360000005,218.3821962,218.3821962,220.4538753,227.17986340000004,229.2022973,229.2022973,229.2022973,229.2022973,2,5.721556999999976,234.94911960000002,234.94911960000002,234.94911960000002,234.94911960000002,234.94911960000002,234.94911960000002,234.94911960000002,234.94911960000002,None,None,None,217.38325360000005,217.38325360000005,,,,,,,,,,,,,,,,,5,001,2024-07-17_09h56.25.979,robot_cogshifting_sign,2022.2.5,59.97339580162343,
"['blue_right_B_0', 'blue_right_D_45', 'blue_top_D_45', 'red_right_C_45']","{'color': 'red_right_C_45', 'position': 'blue_top_D_45', 'orientation': 'blue_right_B_0'}",orientation,['orientation'],blue_right_B_0,0,1,letter,2,False,True,"['robot_stimuli\\\\filler.mp4', 'robot_stimuli\\\\filler.mp4', 'robot_stimuli\\\\filler.mp4', 'robot_stimuli\\\\filler.mp4']",robot_stimuli\\filler.mp4,5,0,0,0,0,0,2,2,2,,,,,,,,,,,,,,,,,,,,,234.94911960000002,234.94911960000002,None,,234.94911960000002,235.9490637,235.9490637,238.02049720000002,244.94380010000003,246.95967790000003,246.95967790000003,246.95967790000003,246.95967790000003,1,0.27432480000000226,247.3228198,256.0457354,247.3228198,256.0457354,247.3228198,256.0457354,247.3228198,256.0457354,26.60493827160494,7.364796200000001,space,234.94911960000002,234.94911960000002,8.655025599999945,,,,,,,,,,,,,,,,5,001,2024-07-17_09h56.25.979,robot_cogshifting_sign,2022.2.5,59.97339580162343,
"['blue_right_H_0', 'blue_bottom_R_45', 'blue_bottom_K_0', 'red_bottom_R_0']","{'color': 'red_bottom_R_0', 'position': 'blue_right_H_0', 'orientation': 'blue_bottom_R_45'}",position,"['color', 'position']",blue_right_H_0,0,2,letter,2,True,False,"['robot_stimuli\\\\filler.mp4', 'robot_stimuli\\\\filler.mp4', 'robot_stimuli\\\\filler.mp4', 'robot_stimuli\\\\filler.mp4']",robot_stimuli\\filler.mp4,5,0,0,0,0,0,3,3,3,,,,,,,,,,,,,,,,,,,,,256.0457354,256.0457354,space,9.037776499999964,265.11539020000004,266.11529970000004,266.11529970000004,268.1951229,274.93354600000004,277.1750662,277.1750662,277.1750662,277.1750662,1,2.155778300000023,279.34861370000004,279.34861370000004,279.34861370000004,279.34861370000004,279.34861370000004,279.34861370000004,279.34861370000004,279.34861370000004,None,None,None,,,,,,,,,,,,,,,,,,,5,001,2024-07-17_09h56.25.979,robot_cogshifting_sign,2022.2.5,59.97339580162343,
"['blue_top_Q_0', 'blue_top_M_45', 'blue_left_R_45', 'red_top_B_45']","{'color': 'red_top_B_45', 'position': 'blue_left_R_45', 'orientation': 'blue_top_Q_0'}",orientation,"['color', 'orientation']",blue_top_Q_0,0,2,letter,2,False,False,"['robot_stimuli\\\\filler.mp4', 'robot_stimuli\\\\filler.mp4', 'robot_stimuli\\\\filler.mp4', 'robot_stimuli\\\\filler.mp4']",robot_stimuli\\filler.mp4,5,0,0,0,0,0,4,4,4,,,,,,,,,,,,,,,,,,,,,279.34861370000004,279.34861370000004,None,,279.34861370000004,280.3489473,280.3489473,282.4225526,289.3203294,291.542555,291.542555,291.542555,291.542555,1,2.5080132000000077,294.0822787,294.0822787,294.0822787,294.0822787,294.0822787,294.0822787,294.0822787,294.0822787,None,None,None,279.34861370000004,279.34861370000004,,,,,,,,,,,,,,,,,5,001,2024-07-17_09h56.25.979,robot_cogshifting_sign,2022.2.5,59.97339580162343,
"['red_left_J_45', 'red_bottom_D_0', 'red_left_S_0', 'blue_left_F_0']","{'color': 'blue_left_F_0', 'position': 'red_bottom_D_0', 'orientation': 'red_left_J_45'}",color,"['color', 'position']",blue_left_F_0,3,2,letter,2,False,True,"['robot_stimuli\\\\filler.mp4', 'robot_stimuli\\\\filler.mp4', 'robot_stimuli\\\\filler.mp4', 'robot_stimuli\\\\filler.mp4']",robot_stimuli\\filler.mp4,5,0,0,0,0,0,5,5,5,,,,,,,,,,,,,,,,,,,,,294.0822787,294.0822787,None,,294.0822787,295.08254370000003,295.08254370000003,297.14947540000003,303.8536948,306.0702273,306.0702273,306.0702273,306.0702273,4,1.9009065999999422,308.0251518,313.84793990000003,308.0251518,313.84793990000003,308.0251518,313.84793990000003,308.0251518,313.84793990000003,50.67901234567901,4.848025000000007,space,294.0822787,294.0822787,5.752783900000011,,,,,,,,,,,,,,,,5,001,2024-07-17_09h56.25.979,robot_cogshifting_sign,2022.2.5,59.97339580162343,
"['blue_left_K_0', 'blue_left_L_45', 'red_left_R_45', 'blue_right_H_45']","{'color': 'red_left_R_45', 'position': 'blue_right_H_45', 'orientation': 'blue_left_K_0'}",color,"['color', 'orientation', 'position']",red_left_R_45,2,3,letter,2,True,False,"['robot_stimuli\\\\filler.mp4', 'robot_stimuli\\\\filler.mp4', 'robot_stimuli\\\\filler.mp4', 'robot_stimuli\\\\filler.mp4']",robot_stimuli\\filler.mp4,5,0,0,0,0,0,6,6,6,,,,,,,,,,,,,,,,,,,,,313.84793990000003,313.84793990000003,space,2.0028983999999497,315.882309,316.88239580000004,316.88239580000004,318.951732,325.4687845,327.6878004,327.6878004,327.6878004,327.6878004,3,4.186751700000016,331.8988534,331.8988534,331.8988534,331.8988534,331.8988534,331.8988534,331.8988534,331.8988534,None,None,None,,,,,,,,,,,,,,,,,,,5,001,2024-07-17_09h56.25.979,robot_cogshifting_sign,2022.2.5,59.97339580162343,
"['red_bottom_S_0', 'blue_bottom_Q_45', 'blue_bottom_W_0', 'blue_top_N_0']","{'color': 'red_bottom_S_0', 'position': 'blue_top_N_0', 'orientation': 'blue_bottom_Q_45'}",position,"['color', 'orientation', 'position']",blue_top_N_0,3,3,letter,2,False,False,"['robot_stimuli\\\\filler.mp4', 'robot_stimuli\\\\filler.mp4', 'robot_stimuli\\\\filler.mp4', 'robot_stimuli\\\\filler.mp4']",robot_stimuli\\filler.mp4,5,0,0,0,0,0,7,7,7,,,,,,,,,,,,,,,,,,,,,331.8988534,331.8988534,None,,331.8988534,332.8990483,332.8990483,334.96833760000004,341.46061230000004,343.6724305,343.6724305,343.6724305,343.6724305,4,4.354909899999953,348.04877680000004,348.04877680000004,348.04877680000004,348.04877680000004,348.04877680000004,348.04877680000004,348.04877680000004,348.04877680000004,None,None,None,331.8988534,331.8988534,,,,,,,,,,,,,,,,,5,001,2024-07-17_09h56.25.979,robot_cogshifting_sign,2022.2.5,59.97339580162343,
"['red_top_V_0', 'red_top_P_45', 'blue_top_Q_0', 'red_left_K_0']","{'color': 'blue_top_Q_0', 'position': 'red_left_K_0', 'orientation': 'red_top_P_45'}",orientation,"['color', 'orientation', 'position']",red_top_P_45,1,3,letter,2,False,True,"['robot_stimuli\\\\filler.mp4', 'robot_stimuli\\\\filler.mp4', 'robot_stimuli\\\\filler.mp4', 'robot_stimuli\\\\filler.mp4']",robot_stimuli\\filler.mp4,5,0,0,0,0,0,8,8,8,,,,,,,,,,,,,,,,,,,,,348.04877680000004,348.04877680000004,None,,348.04877680000004,349.04914080000003,349.04914080000003,351.1159783,357.6085685,359.63223730000004,359.63223730000004,359.63223730000004,359.63223730000004,2,4.426857099999964,364.1089883,366.409058,364.1089883,366.409058,364.1089883,366.409058,364.1089883,366.409058,48.67283950617284,1.7286494999999604,space,348.04877680000004,348.04877680000004,2.237353399999975,,,,,,,,,,,,,,,,5,001,2024-07-17_09h56.25.979,robot_cogshifting_sign,2022.2.5,59.97339580162343,
"['R_Head_Z_Back', 'L_Base_Z_For', 'R_Base_Y_For', 'R_Base_Z_Back']","{'laterality': 'L_Base_Z_For', 'localisation': 'R_Head_Z_Back', 'movement': 'R_Base_Y_For'}",laterality,['laterality'],L_Base_Z_For,1,1,robot,1,True,False,"['robot_stimuli\\R_Head_Z_Back.mp4', 'robot_stimuli\\L_Base_Z_For.mp4', 'robot_stimuli\\R_Base_Y_For.mp4', 'robot_stimuli\\R_Base_Z_Back.mp4']",robot_stimuli\L_Base_Z_For.mp4,5,0,0,0,0,0,9,9,9,,,,,,,,,,,,,,,,,,,,,366.409058,366.409058,space,3.240957999999992,369.6821466,370.6823886,370.6823886,372.7765294,,,387.51103470000004,387.51103470000004,387.51103470000004,2,0.6522762999999969,388.18216160000003,388.18216160000003,388.18216160000003,388.18216160000003,388.18216160000003,388.18216160000003,388.18216160000003,388.18216160000003,None,None,None,,,,383.9725702,,,,,,,,,,,,,,,5,001,2024-07-17_09h56.25.979,robot_cogshifting_sign,2022.2.5,59.97339580162343,
"['R_Base_Z_Back', 'L_Base_Z_Back', 'R_Base_X_Back', 'R_Head_Z_Back']","{'laterality': 'L_Base_Z_Back', 'localisation': 'R_Head_Z_Back', 'movement': 'R_Base_X_Back'}",localisation,['localisation'],R_Head_Z_Back,3,1,robot,1,False,False,"['robot_stimuli\\R_Base_Z_Back.mp4', 'robot_stimuli\\L_Base_Z_Back.mp4', 'robot_stimuli\\R_Base_X_Back.mp4', 'robot_stimuli\\R_Head_Z_Back.mp4']",robot_stimuli\R_Head_Z_Back.mp4,5,0,0,0,0,0,10,10,10,,,,,,,,,,,,,,,,,,,,,388.18216160000003,388.18216160000003,None,,388.18216160000003,389.1822996,389.1822996,391.27182500000004,,,406.0197603,406.0197603,406.0197603,4,0.4780038999999334,406.5157258,406.5157258,406.5157258,406.5157258,406.5157258,406.5157258,406.5157258,406.5157258,None,None,None,388.18216160000003,388.18216160000003,,402.382228,,,,,,,,,,,,,,,5,001,2024-07-17_09h56.25.979,robot_cogshifting_sign,2022.2.5,59.97339580162343,
"['L_Torso_Y_For', 'L_Arm_Y_Back', 'L_Arm_X_Back', 'R_Arm_Y_For']","{'laterality': 'R_Arm_Y_For', 'localisation': 'L_Torso_Y_For', 'movement': 'L_Arm_X_Back'}",movement,['movement'],L_Arm_X_Back,2,1,robot,1,False,True,"['robot_stimuli\\L_Torso_Y_For.mp4', 'robot_stimuli\\L_Arm_Y_Back.mp4', 'robot_stimuli\\L_Arm_X_Back.mp4', 'robot_stimuli\\R_Arm_Y_For.mp4']",robot_stimuli\L_Arm_X_Back.mp4,5,0,0,0,0,0,11,11,11,,,,,,,,,,,,,,,,,,,,,406.5157258,406.5157258,None,,406.5157258,407.5156734,407.5156734,409.59665580000006,,,424.3024734,424.3024734,424.3024734,3,0.3319454000000661,424.69015640000003,427.7486727,424.69015640000003,427.7486727,424.69015640000003,427.7486727,424.69015640000003,427.7486727,38.64197530864198,2.607190199999991,space,406.5157258,406.5157258,3.008098099999941,420.8089282,,,,,,,,,,,,,,,5,001,2024-07-17_09h56.25.979,robot_cogshifting_sign,2022.2.5,59.97339580162343,
"['L_Arm_Y_Back', 'R_Base_Y_For', 'L_Base_Y_Back', 'L_Base_Z_For']","{'laterality': 'R_Base_Y_For', 'localisation': 'L_Arm_Y_Back', 'movement': 'L_Base_Z_For'}",laterality,"['laterality', 'movement']",R_Base_Y_For,1,2,robot,1,True,False,"['robot_stimuli\\L_Arm_Y_Back.mp4', 'robot_stimuli\\R_Base_Y_For.mp4', 'robot_stimuli\\L_Base_Y_Back.mp4', 'robot_stimuli\\L_Base_Z_For.mp4']",robot_stimuli\R_Base_Y_For.mp4,5,0,0,0,0,0,12,12,12,,,,,,,,,,,,,,,,,,,,,427.7486727,427.7486727,space,1.5657305000000434,429.332065,430.332299,430.332299,432.4137666,,,447.17607720000007,447.17607720000007,447.17607720000007,2,5.105826199999981,452.29885659999997,452.29885659999997,452.29885659999997,452.29885659999997,452.29885659999997,452.29885659999997,452.29885659999997,452.29885659999997,None,None,None,,,,443.54058100000003,,,,,,,,,,,,,,,5,001,2024-07-17_09h56.25.979,robot_cogshifting_sign,2022.2.5,59.97339580162343,
"['R_Torso_Z_Back', 'R_Head_Y_Back', 'R_Torso_Y_For', 'L_Torso_Y_Back']","{'laterality': 'L_Torso_Y_Back', 'localisation': 'R_Head_Y_Back', 'movement': 'R_Torso_Z_Back'}",localisation,"['localisation', 'movement']",R_Head_Y_Back,1,2,robot,1,False,False,"['robot_stimuli\\R_Torso_Z_Back.mp4', 'robot_stimuli\\R_Head_Y_Back.mp4', 'robot_stimuli\\R_Torso_Y_For.mp4', 'robot_stimuli\\L_Torso_Y_Back.mp4']",robot_stimuli\R_Head_Y_Back.mp4,5,0,0,0,0,0,13,13,13,,,,,,,,,,,,,,,,,,,,,452.29885659999997,452.29885659999997,None,,452.29885659999997,453.29880900000006,453.29880900000006,455.3750026000001,,,470.0607385,470.0607385,470.0607385,2,3.4211965999999876,473.4986743,473.4986743,473.4986743,473.4986743,473.4986743,473.4986743,473.4986743,473.4986743,None,None,None,452.29885659999997,452.29885659999997,,466.55840130000007,,,,,,,,,,,,,,,5,001,2024-07-17_09h56.25.979,robot_cogshifting_sign,2022.2.5,59.97339580162343,
"['L_Base_X_For', 'R_Head_X_Back', 'R_Base_Z_Back', 'R_Base_X_Back']","{'laterality': 'L_Base_X_For', 'localisation': 'R_Head_X_Back', 'movement': 'R_Base_Z_Back'}",movement,"['localisation', 'movement']",R_Base_Z_Back,2,2,robot,1,False,True,"['robot_stimuli\\L_Base_X_For.mp4', 'robot_stimuli\\R_Head_X_Back.mp4', 'robot_stimuli\\R_Base_Z_Back.mp4', 'robot_stimuli\\R_Base_X_Back.mp4']",robot_stimuli\R_Base_Z_Back.mp4,5,0,0,0,0,0,14,14,14,,,,,,,,,,,,,,,,,,,,,473.4986743,473.4986743,None,,473.4986743,474.4989407,474.4989407,476.5780378,,,491.27695869999997,491.27695869999997,491.27695869999997,4,13.982766900000072,505.3076273,508.3080981,505.3076273,508.3080981,505.3076273,508.3080981,505.3076273,508.3080981,50.21604938271606,2.796654500000045,space,473.4986743,473.4986743,2.950684099999947,487.64134570000004,,,,,,,,,,,,,,,5,001,2024-07-17_09h56.25.979,robot_cogshifting_sign,2022.2.5,59.97339580162343,
"['L_Base_Y_For', 'L_Torso_X_Back', 'L_Torso_Y_For', 'R_Torso_Y_For']","{'laterality': 'R_Torso_Y_For', 'localisation': 'L_Base_Y_For', 'movement': 'L_Torso_X_Back'}",movement,"['laterality', 'localisation', 'movement']",L_Torso_X_Back,1,3,robot,1,True,False,"['robot_stimuli\\L_Base_Y_For.mp4', 'robot_stimuli\\L_Torso_X_Back.mp4', 'robot_stimuli\\L_Torso_Y_For.mp4', 'robot_stimuli\\R_Torso_Y_For.mp4']",robot_stimuli\L_Torso_X_Back.mp4,5,0,0,0,0,0,15,15,15,,,,,,,,,,,,,,,,,,,,,508.3080981,508.3080981,space,2.3824500999999856,510.7153901,511.7154794,511.7154794,513.794054,,,528.4820957,528.4820957,528.4820957,2,7.15136170000001,535.6653468,535.6653468,535.6653468,535.6653468,535.6653468,535.6653468,535.6653468,535.6653468,None,None,None,,,,524.8594592999999,,,,,,,,,,,,,,,5,001,2024-07-17_09h56.25.979,robot_cogshifting_sign,2022.2.5,59.97339580162343,
"['R_Base_Z_For', 'R_Arm_Z_Back', 'R_Base_Y_For', 'L_Base_Z_Back']","{'laterality': 'L_Base_Z_Back', 'localisation': 'R_Arm_Z_Back', 'movement': 'R_Base_Y_For'}",laterality,"['laterality', 'localisation', 'movement']",L_Base_Z_Back,3,3,robot,1,False,False,"['robot_stimuli\\R_Base_Z_For.mp4', 'robot_stimuli\\R_Arm_Z_Back.mp4', 'robot_stimuli\\R_Base_Y_For.mp4', 'robot_stimuli\\L_Base_Z_Back.mp4']",robot_stimuli\L_Base_Z_Back.mp4,5,0,0,0,0,0,16,16,16,,,,,,,,,,,,,,,,,,,,,535.6653468,535.6653468,None,,535.6653468,536.6657008999999,536.6657008999999,538.7399743,,,553.5710937,553.5710937,553.5710937,4,3.8791855000000197,557.4820513,557.4820513,557.4820513,557.4820513,557.4820513,557.4820513,557.4820513,557.4820513,None,None,None,535.6653468,535.6653468,,549.9354426,,,,,,,,,,,,,,,5,001,2024-07-17_09h56.25.979,robot_cogshifting_sign,2022.2.5,59.97339580162343,
"['L_Base_Z_For', 'L_Base_X_Back', 'L_Torso_X_Back', 'R_Base_X_Back']","{'laterality': 'R_Base_X_Back', 'localisation': 'L_Torso_X_Back', 'movement': 'L_Base_Z_For'}",localisation,"['laterality', 'localisation', 'movement']",L_Torso_X_Back,2,3,robot,1,False,True,"['robot_stimuli\\L_Base_Z_For.mp4', 'robot_stimuli\\L_Base_X_Back.mp4', 'robot_stimuli\\L_Torso_X_Back.mp4', 'robot_stimuli\\R_Base_X_Back.mp4']",robot_stimuli\L_Torso_X_Back.mp4,5,0,0,0,0,0,17,17,17,,,,,,,,,,,,,,,,,,,,,557.4820513,557.4820513,None,,557.4820513,558.4824903,558.4824903,560.5530338,,,575.3605967999999,575.3605967999999,575.3605967999999,2,5.906155599999991,581.3236397999999,583.8015495,581.3236397999999,583.8015495,581.3236397999999,583.8015495,581.3236397999999,583.8015495,42.345679012345684,2.2180933000000778,space,557.4820513,557.4820513,2.4141200999999484,571.7250653,,,,,,,,,,,,,,,5,001,2024-07-17_09h56.25.979,robot_cogshifting_sign,2022.2.5,59.97339580162343,
,,,,,,,,,,,,,,0,0,0,0,,,,,,,,,,,,,,,,,,,,,,,,,,,,,,,,,,,,,,,,,,,,,,,,,,,,,,,583.8015495,583.8015495,583.8015495,c,2.880189000000044,,,,,,,,,,5,001,2024-07-17_09h56.25.979,robot_cogshifting_sign,2022.2.5,59.97339580162343,
"['R_Base_X_Back', 'R_Torso_Y_Back', 'L_Base_Y_For', 'R_Base_Y_Back']","{'laterality': 'L_Base_Y_For', 'localisation': 'R_Torso_Y_Back', 'movement': 'R_Base_X_Back'}",movement,"['laterality', 'movement']",R_Base_X_Back,0,2,robot,1,True,False,"['robot_stimuli\\R_Base_X_Back.mp4', 'robot_stimuli\\R_Torso_Y_Back.mp4', 'robot_stimuli\\L_Base_Y_For.mp4', 'robot_stimuli\\R_Base_Y_Back.mp4']",robot_stimuli\R_Base_X_Back.mp4,5,,,,,,,,,,,,,0,0,0,0,,,,,,,,,,,,,,,,,,,595.4819934999999,597.5650966,,,612.2746015,612.2746015,612.2746015,1,3.448463700000005,615.7488025,615.7488025,615.7488025,615.7488025,615.7488025,615.7488025,615.7488025,615.7488025,None,None,None,,,,,,,,,,586.7154267,586.7154267,space,8.734680500000039,608.6276012,,,,,5,001,2024-07-17_09h56.25.979,robot_cogshifting_sign,2022.2.5,59.97339580162343,
"['L_Torso_Y_Back', 'L_Torso_Z_Back', 'L_Base_Z_Back', 'R_Torso_Z_Back']","{'laterality': 'R_Torso_Z_Back', 'localisation': 'L_Base_Z_Back', 'movement': 'L_Torso_Y_Back'}",localisation,"['laterality', 'localisation']",L_Base_Z_Back,2,2,robot,1,False,False,"['robot_stimuli\\L_Torso_Y_Back.mp4', 'robot_stimuli\\L_Torso_Z_Back.mp4', 'robot_stimuli\\L_Base_Z_Back.mp4', 'robot_stimuli\\R_Torso_Z_Back.mp4']",robot_stimuli\L_Base_Z_Back.mp4,5,,,,,,,,,,,,,0,1,1,1,,,,,,,,,,,,,,,,,,,615.7488025,617.8242220999999,,,632.3914864,632.3914864,632.3914864,3,2.8987371000000195,635.3154727,635.3154727,635.3154727,635.3154727,635.3154727,635.3154727,635.3154727,635.3154727,None,None,None,,,,,,,,,,615.7488025,615.7488025,None,,628.7542593,615.7488025,615.7488025,,,5,001,2024-07-17_09h56.25.979,robot_cogshifting_sign,2022.2.5,59.97339580162343,
"['R_Torso_Y_For', 'R_Torso_Z_Back', 'L_Torso_Z_For', 'R_Head_Z_Back']","{'laterality': 'L_Torso_Z_For', 'localisation': 'R_Head_Z_Back', 'movement': 'R_Torso_Y_For'}",laterality,"['laterality', 'movement']",L_Torso_Z_For,2,2,robot,1,False,False,"['robot_stimuli\\R_Torso_Y_For.mp4', 'robot_stimuli\\R_Torso_Z_Back.mp4', 'robot_stimuli\\L_Torso_Z_For.mp4', 'robot_stimuli\\R_Head_Z_Back.mp4']",robot_stimuli\L_Torso_Z_For.mp4,5,,,,,,,,,,,,,0,2,2,2,,,,,,,,,,,,,,,,,,,635.3154727,637.4054385,,,652.217307,652.217307,652.217307,3,26.36913710000006,678.6153581,678.6153581,678.6153581,678.6153581,678.6153581,678.6153581,678.6153581,678.6153581,None,None,None,,,,,,,,,,635.3154727,635.3154727,None,,648.5885261999999,635.3154727,635.3154727,,,5,001,2024-07-17_09h56.25.979,robot_cogshifting_sign,2022.2.5,59.97339580162343,
"['R_Torso_X_Back', 'R_Arm_X_For', 'L_Torso_X_For', 'R_Torso_Y_Back']","{'laterality': 'L_Torso_X_For', 'localisation': 'R_Arm_X_For', 'movement': 'R_Torso_Y_Back'}",movement,"['laterality', 'movement']",R_Torso_Y_Back,3,2,robot,1,False,False,"['robot_stimuli\\R_Torso_X_Back.mp4', 'robot_stimuli\\R_Arm_X_For.mp4', 'robot_stimuli\\L_Torso_X_For.mp4', 'robot_stimuli\\R_Torso_Y_Back.mp4']",robot_stimuli\R_Torso_Y_Back.mp4,5,,,,,,,,,,,,,0,3,3,3,,,,,,,,,,,,,,,,,,,678.6153581,680.6917953999999,,,695.5252378,695.5252378,695.5252378,4,4.237813700000018,699.7818717,699.7818717,699.7818717,699.7818717,699.7818717,699.7818717,699.7818717,699.7818717,None,None,None,,,,,,,,,,678.6153581,678.6153581,None,,691.8795603,678.6153581,678.6153581,,,5,001,2024-07-17_09h56.25.979,robot_cogshifting_sign,2022.2.5,59.97339580162343,
"['R_Torso_Z_Back', 'L_Torso_Z_Back', 'L_Torso_Y_Back', 'L_Base_Z_For']","{'laterality': 'R_Torso_Z_Back', 'localisation': 'L_Base_Z_For', 'movement': 'L_Torso_Y_Back'}",laterality,"['laterality', 'localisation']",R_Torso_Z_Back,0,2,robot,1,False,False,"['robot_stimuli\\R_Torso_Z_Back.mp4', 'robot_stimuli\\L_Torso_Z_Back.mp4', 'robot_stimuli\\L_Torso_Y_Back.mp4', 'robot_stimuli\\L_Base_Z_For.mp4']",robot_stimuli\R_Torso_Z_Back.mp4,5,,,,,,,,,,,,,0,4,4,4,,,,,,,,,,,,,,,,,,,699.7818717,701.8563326,,,716.4246743,716.4246743,716.4246743,1,1.7290856999999988,718.1820404,718.1820404,718.1820404,718.1820404,718.1820404,718.1820404,718.1820404,718.1820404,None,None,None,,,,,,,,,,699.7818717,699.7818717,None,,712.773514,699.7818717,699.7818717,,,5,001,2024-07-17_09h56.25.979,robot_cogshifting_sign,2022.2.5,59.97339580162343,
"['L_Base_X_For', 'R_Base_Z_Back', 'R_Base_X_For', 'R_Head_X_For']","{'laterality': 'L_Base_X_For', 'localisation': 'R_Head_X_For', 'movement': 'R_Base_Z_Back'}",laterality,"['laterality', 'movement']",L_Base_X_For,0,2,robot,1,False,False,"['robot_stimuli\\L_Base_X_For.mp4', 'robot_stimuli\\R_Base_Z_Back.mp4', 'robot_stimuli\\R_Base_X_For.mp4', 'robot_stimuli\\R_Head_X_For.mp4']",robot_stimuli\L_Base_X_For.mp4,5,,,,,,,,,,,,,0,5,5,5,,,,,,,,,,,,,,,,,,,718.1820404,720.2575471,,,734.802698,734.802698,734.802698,1,1.2945171999999303,736.1150885,736.1150885,736.1150885,736.1150885,736.1150885,736.1150885,736.1150885,736.1150885,None,None,None,,,,,,,,,,718.1820404,718.1820404,None,,731.1703483,718.1820404,718.1820404,,,5,001,2024-07-17_09h56.25.979,robot_cogshifting_sign,2022.2.5,59.97339580162343,
"['R_Base_Y_For', 'L_Base_Y_Back', 'L_Arm_Y_Back', 'L_Base_X_For']","{'laterality': 'R_Base_Y_For', 'localisation': 'L_Arm_Y_Back', 'movement': 'L_Base_X_For'}",localisation,"['localisation', 'movement']",L_Arm_Y_Back,2,2,robot,1,False,False,"['robot_stimuli\\R_Base_Y_For.mp4', 'robot_stimuli\\L_Base_Y_Back.mp4', 'robot_stimuli\\L_Arm_Y_Back.mp4', 'robot_stimuli\\L_Base_X_For.mp4']",robot_stimuli\L_Arm_Y_Back.mp4,5,,,,,,,,,,,,,0,6,6,6,,,,,,,,,,,,,,,,,,,736.1150885,738.1913134,,,752.8934756,752.8934756,752.8934756,3,2.1329101999999267,755.0487856999999,755.0487856999999,755.0487856999999,755.0487856999999,755.0487856999999,755.0487856999999,755.0487856999999,755.0487856999999,None,None,None,,,,,,,,,,736.1150885,736.1150885,None,,749.3261527,736.1150885,736.1150885,,,5,001,2024-07-17_09h56.25.979,robot_cogshifting_sign,2022.2.5,59.97339580162343,
"['R_Torso_X_For', 'R_Head_Y_For', 'R_Torso_Y_Back', 'L_Torso_Y_For']","{'laterality': 'L_Torso_Y_For', 'localisation': 'R_Head_Y_For', 'movement': 'R_Torso_X_For'}",localisation,"['localisation', 'movement']",R_Head_Y_For,1,2,robot,1,False,False,"['robot_stimuli\\R_Torso_X_For.mp4', 'robot_stimuli\\R_Head_Y_For.mp4', 'robot_stimuli\\R_Torso_Y_Back.mp4', 'robot_stimuli\\L_Torso_Y_For.mp4']",robot_stimuli\R_Head_Y_For.mp4,5,,,,,,,,,,,,,0,7,7,7,,,,,,,,,,,,,,,,,,,755.0487856999999,757.1303637999999,,,771.9532075,771.9532075,771.9532075,2,4.6008428999999325,776.5818746,776.5818746,776.5818746,776.5818746,776.5818746,776.5818746,776.5818746,776.5818746,None,None,None,,,,,,,,,,755.0487856999999,755.0487856999999,None,,768.3118419,755.0487856999999,755.0487856999999,,,5,001,2024-07-17_09h56.25.979,robot_cogshifting_sign,2022.2.5,59.97339580162343,
"['R_Base_Z_For', 'L_Base_X_Back', 'R_Base_X_Back', 'R_Arm_X_For']","{'laterality': 'L_Base_X_Back', 'localisation': 'R_Arm_X_For', 'movement': 'R_Base_Z_For'}",movement,"['localisation', 'movement']",R_Base_Z_For,0,2,robot,1,False,True,"['robot_stimuli\\R_Base_Z_For.mp4', 'robot_stimuli\\L_Base_X_Back.mp4', 'robot_stimuli\\R_Base_X_Back.mp4', 'robot_stimuli\\R_Arm_X_For.mp4']",robot_stimuli\R_Base_Z_For.mp4,5,,,,,,,,,,,,,0,8,8,8,,,,,,,,,,,,,,,,,,,776.5818746,778.6574787,,,793.4262289999999,793.4262289999999,793.4262289999999,1,1.5998994999999496,795.0746368,800.4578984999999,795.0746368,800.4578984999999,795.0746368,800.4578984999999,795.0746368,800.4578984999999,56.23456790123457,4.467495999999983,space,,,5.3421086000000315,,,,,,,776.5818746,776.5818746,None,,789.7916151,776.5818746,776.5818746,,,5,001,2024-07-17_09h56.25.979,robot_cogshifting_sign,2022.2.5,59.97339580162343,
"['L_Base_Z_Back', 'L_Torso_Y_Back', 'L_Torso_Z_For', 'R_Torso_Z_Back']","{'laterality': 'R_Torso_Z_Back', 'localisation': 'L_Base_Z_Back', 'movement': 'L_Torso_Y_Back'}",localisation,"['laterality', 'localisation', 'movement']",L_Base_Z_Back,0,3,robot,1,True,False,"['robot_stimuli\\L_Base_Z_Back.mp4', 'robot_stimuli\\L_Torso_Y_Back.mp4', 'robot_stimuli\\L_Torso_Z_For.mp4', 'robot_stimuli\\R_Torso_Z_Back.mp4']",robot_stimuli\L_Base_Z_Back.mp4,5,,,,,,,,,,,,,0,9,9,9,,,,,,,,,,,,,,,,,,,816.4819478,818.5551512,,,833.2213664999999,833.2213664999999,833.2213664999999,2,2.7653126999999387,836.0153835,836.0153835,836.0153835,836.0153835,836.0153835,836.0153835,836.0153835,836.0153835,None,None,None,,,,,,,,,,800.4578984999999,800.4578984999999,space,16.000170299999994,829.5847104999999,,,,,5,001,2024-07-17_09h56.25.979,robot_cogshifting_sign,2022.2.5,59.97339580162343,
"['R_Torso_Z_For', 'R_Head_Z_For', 'R_Torso_Y_Back', 'L_Torso_Z_For']","{'laterality': 'L_Torso_Z_For', 'localisation': 'R_Head_Z_For', 'movement': 'R_Torso_Y_Back'}",laterality,"['laterality', 'localisation', 'movement']",L_Torso_Z_For,3,3,robot,1,False,False,"['robot_stimuli\\R_Torso_Z_For.mp4', 'robot_stimuli\\R_Head_Z_For.mp4', 'robot_stimuli\\R_Torso_Y_Back.mp4', 'robot_stimuli\\L_Torso_Z_For.mp4']",robot_stimuli\L_Torso_Z_For.mp4,5,,,,,,,,,,,,,0,10,10,10,,,,,,,,,,,,,,,,,,,836.0153835,838.0922205999999,,,852.8882663999999,852.8882663999999,852.8882663999999,4,1.825754400000008,854.7319444,854.7319444,854.7319444,854.7319444,854.7319444,854.7319444,854.7319444,854.7319444,None,None,None,,,,,,,,,,836.0153835,836.0153835,None,,849.2536173,836.0153835,836.0153835,,,5,001,2024-07-17_09h56.25.979,robot_cogshifting_sign,2022.2.5,59.97339580162343,
"['R_Torso_X_Back', 'L_Torso_Y_For', 'L_Head_X_Back', 'L_Torso_X_Back']","{'laterality': 'R_Torso_X_Back', 'localisation': 'L_Head_X_Back', 'movement': 'L_Torso_Y_For'}",localisation,"['laterality', 'localisation', 'movement']",L_Head_X_Back,2,3,robot,1,False,False,"['robot_stimuli\\R_Torso_X_Back.mp4', 'robot_stimuli\\L_Torso_Y_For.mp4', 'robot_stimuli\\L_Head_X_Back.mp4', 'robot_stimuli\\L_Torso_X_Back.mp4']",robot_stimuli\L_Head_X_Back.mp4,5,,,,,,,,,,,,,0,11,11,11,,,,,,,,,,,,,,,,,,,854.7319444,856.8066901999999,,,871.6242055,871.6242055,871.6242055,3,2.025712200000001,873.6824305,873.6824305,873.6824305,873.6824305,873.6824305,873.6824305,873.6824305,873.6824305,None,None,None,,,,,,,,,,854.7319444,854.7319444,None,,867.9878544,854.7319444,854.7319444,,,5,001,2024-07-17_09h56.25.979,robot_cogshifting_sign,2022.2.5,59.97339580162343,
"['R_Torso_Z_Back', 'L_Base_Z_Back', 'R_Base_Z_Back', 'R_Base_X_For']","{'laterality': 'L_Base_Z_Back', 'localisation': 'R_Torso_Z_Back', 'movement': 'R_Base_X_For'}",movement,"['laterality', 'localisation', 'movement']",R_Base_X_For,3,3,robot,1,False,False,"['robot_stimuli\\R_Torso_Z_Back.mp4', 'robot_stimuli\\L_Base_Z_Back.mp4', 'robot_stimuli\\R_Base_Z_Back.mp4', 'robot_stimuli\\R_Base_X_For.mp4']",robot_stimuli\R_Base_X_For.mp4,5,,,,,,,,,,,,,0,12,12,12,,,,,,,,,,,,,,,,,,,873.6824305,875.7555120999999,,,890.3410908,890.3410908,890.3410908,4,4.940136099999975,895.2985567,895.2985567,895.2985567,895.2985567,895.2985567,895.2985567,895.2985567,895.2985567,None,None,None,,,,,,,,,,873.6824305,873.6824305,None,,886.8051297999999,873.6824305,873.6824305,,,5,001,2024-07-17_09h56.25.979,robot_cogshifting_sign,2022.2.5,59.97339580162343,
"['R_Torso_X_Back', 'R_Base_Y_For', 'R_Torso_Y_For', 'L_Torso_Y_For']","{'laterality': 'L_Torso_Y_For', 'localisation': 'R_Base_Y_For', 'movement': 'R_Torso_X_Back'}",laterality,"['laterality', 'localisation', 'movement']",L_Torso_Y_For,3,3,robot,1,False,False,"['robot_stimuli\\R_Torso_X_Back.mp4', 'robot_stimuli\\R_Base_Y_For.mp4', 'robot_stimuli\\R_Torso_Y_For.mp4', 'robot_stimuli\\L_Torso_Y_For.mp4']",robot_stimuli\L_Torso_Y_For.mp4,5,,,,,,,,,,,,,0,13,13,13,,,,,,,,,,,,,,,,,,,895.2985567,897.3740659,,,912.1898337,912.1898337,912.1898337,4,1.6835173999998716,913.8985651999999,913.8985651999999,913.8985651999999,913.8985651999999,913.8985651999999,913.8985651999999,913.8985651999999,913.8985651999999,None,None,None,,,,,,,,,,895.2985567,895.2985567,None,,908.5430199,895.2985567,895.2985567,,,5,001,2024-07-17_09h56.25.979,robot_cogshifting_sign,2022.2.5,59.97339580162343,
"['L_Head_Y_Back', 'R_Head_Y_Back', 'L_Head_X_For', 'L_Base_Y_Back']","{'laterality': 'R_Head_Y_Back', 'localisation': 'L_Base_Y_Back', 'movement': 'L_Head_X_For'}",localisation,"['laterality', 'localisation', 'movement']",L_Base_Y_Back,3,3,robot,1,False,False,"['robot_stimuli\\L_Head_Y_Back.mp4', 'robot_stimuli\\R_Head_Y_Back.mp4', 'robot_stimuli\\L_Head_X_For.mp4', 'robot_stimuli\\L_Base_Y_Back.mp4']",robot_stimuli\L_Base_Y_Back.mp4,5,,,,,,,,,,,,,0,14,14,14,,,,,,,,,,,,,,,,,,,913.8985651999999,915.9784837,,,930.6892218999999,930.6892218999999,930.6892218999999,4,3.400834299999886,934.1150888,934.1150888,934.1150888,934.1150888,934.1150888,934.1150888,934.1150888,934.1150888,None,None,None,,,,,,,,,,913.8985651999999,913.8985651999999,None,,927.1061861000001,913.8985651999999,913.8985651999999,,,5,001,2024-07-17_09h56.25.979,robot_cogshifting_sign,2022.2.5,59.97339580162343,
"['R_Base_Y_Back', 'L_Base_X_For', 'R_Torso_X_Back', 'R_Base_X_Back']","{'laterality': 'L_Base_X_For', 'localisation': 'R_Torso_X_Back', 'movement': 'R_Base_Y_Back'}",movement,"['laterality', 'localisation', 'movement']",R_Base_Y_Back,0,3,robot,1,False,False,"['robot_stimuli\\R_Base_Y_Back.mp4', 'robot_stimuli\\L_Base_X_For.mp4', 'robot_stimuli\\R_Torso_X_Back.mp4', 'robot_stimuli\\R_Base_X_Back.mp4']",robot_stimuli\R_Base_Y_Back.mp4,5,,,,,,,,,,,,,0,15,15,15,,,,,,,,,,,,,,,,,,,934.1150888,936.1944309999999,,,950.9546814,950.9546814,950.9546814,1,1.8393544000001185,952.8151410999999,952.8151410999999,952.8151410999999,952.8151410999999,952.8151410999999,952.8151410999999,952.8151410999999,952.8151410999999,None,None,None,,,,,,,,,,934.1150888,934.1150888,None,,947.3185435,934.1150888,934.1150888,,,5,001,2024-07-17_09h56.25.979,robot_cogshifting_sign,2022.2.5,59.97339580162343,
"['R_Arm_X_For', 'R_Torso_X_For', 'R_Torso_Z_For', 'L_Torso_X_Back']","{'laterality': 'L_Torso_X_Back', 'localisation': 'R_Arm_X_For', 'movement': 'R_Torso_Z_For'}",laterality,"['laterality', 'localisation', 'movement']",L_Torso_X_Back,3,3,robot,1,False,False,"['robot_stimuli\\R_Arm_X_For.mp4', 'robot_stimuli\\R_Torso_X_For.mp4', 'robot_stimuli\\R_Torso_Z_For.mp4', 'robot_stimuli\\L_Torso_X_Back.mp4']",robot_stimuli\L_Torso_X_Back.mp4,5,,,,,,,,,,,,,0,16,16,16,,,,,,,,,,,,,,,,,,,952.8151410999999,954.8908377,,,969.7076867000001,969.7076867000001,969.7076867000001,4,1.6060121999999666,971.3317462,971.3317462,971.3317462,971.3317462,971.3317462,971.3317462,971.3317462,971.3317462,None,None,None,,,,,,,,,,952.8151410999999,952.8151410999999,None,,966.0695274,952.8151410999999,952.8151410999999,,,5,001,2024-07-17_09h56.25.979,robot_cogshifting_sign,2022.2.5,59.97339580162343,
"['L_Base_X_Back', 'R_Base_X_For', 'L_Arm_X_Back', 'L_Base_Y_For']","{'laterality': 'R_Base_X_For', 'localisation': 'L_Arm_X_Back', 'movement': 'L_Base_Y_For'}",movement,"['laterality', 'localisation', 'movement']",L_Base_Y_For,3,3,robot,1,False,True,"['robot_stimuli\\L_Base_X_Back.mp4', 'robot_stimuli\\R_Base_X_For.mp4', 'robot_stimuli\\L_Arm_X_Back.mp4', 'robot_stimuli\\L_Base_Y_For.mp4']",robot_stimuli\L_Base_Y_For.mp4,5,,,,,,,,,,,,,0,17,17,17,,,,,,,,,,,,,,,,,,,971.3317462,973.4070411,,,988.0074439,988.0074439,988.0074439,4,6.362602199999927,994.4246827,998.7491656,994.4246827,998.7491656,994.4246827,998.7491656,994.4246827,998.7491656,65.03086419753087,3.631509699999924,space,,,4.256502000000026,,,,,,,971.3317462,971.3317462,None,,984.4697596999999,971.3317462,971.3317462,,,5,001,2024-07-17_09h56.25.979,robot_cogshifting_sign,2022.2.5,59.97339580162343,
"['R_Head_Y_Back', 'L_Head_Y_For', 'R_Torso_Y_Back', 'R_Head_X_Back']","{'laterality': 'L_Head_Y_For', 'localisation': 'R_Torso_Y_Back', 'movement': 'R_Head_X_Back'}",localisation,['localisation'],R_Torso_Y_Back,2,1,robot,1,True,False,"['robot_stimuli\\R_Head_Y_Back.mp4', 'robot_stimuli\\L_Head_Y_For.mp4', 'robot_stimuli\\R_Torso_Y_Back.mp4', 'robot_stimuli\\R_Head_X_Back.mp4']",robot_stimuli\R_Torso_Y_Back.mp4,5,,,,,,,,,,,,,0,18,18,18,,,,,,,,,,,,,,,,,,,1005.9316274,1008.0104506999999,,,1022.8457959,1022.8457959,1022.8457959,3,0.45190319999990436,1023.3150092999999,1023.3150092999999,1023.3150092999999,1023.3150092999999,1023.3150092999999,1023.3150092999999,1023.3150092999999,1023.3150092999999,None,None,None,,,,,,,,,,998.7491656,998.7491656,space,7.155150099999972,1019.207576,,,,,5,001,2024-07-17_09h56.25.979,robot_cogshifting_sign,2022.2.5,59.97339580162343,
"['L_Head_Z_Back', 'L_Base_X_For', 'L_Base_Z_For', 'R_Base_Z_Back']","{'laterality': 'R_Base_Z_Back', 'localisation': 'L_Head_Z_Back', 'movement': 'L_Base_X_For'}",movement,['movement'],L_Base_X_For,1,1,robot,1,False,False,"['robot_stimuli\\L_Head_Z_Back.mp4', 'robot_stimuli\\L_Base_X_For.mp4', 'robot_stimuli\\L_Base_Z_For.mp4', 'robot_stimuli\\R_Base_Z_Back.mp4']",robot_stimuli\L_Base_X_For.mp4,5,,,,,,,,,,,,,0,19,19,19,,,,,,,,,,,,,,,,,,,1023.3150092999999,1025.404157,,,1040.0257282,1040.0257282,1040.0257282,2,7.886733300000245,1047.9315572,1047.9315572,1047.9315572,1047.9315572,1047.9315572,1047.9315572,1047.9315572,1047.9315572,None,None,None,,,,,,,,,,1023.3150092999999,1023.3150092999999,None,,1036.4898729,1023.3150092999999,1023.3150092999999,,,5,001,2024-07-17_09h56.25.979,robot_cogshifting_sign,2022.2.5,59.97339580162343,
"['L_Base_X_Back', 'R_Torso_X_Back', 'L_Torso_X_For', 'L_Torso_Y_Back']","{'laterality': 'R_Torso_X_Back', 'localisation': 'L_Base_X_Back', 'movement': 'L_Torso_Y_Back'}",movement,['movement'],L_Torso_Y_Back,3,1,robot,1,False,False,"['robot_stimuli\\L_Base_X_Back.mp4', 'robot_stimuli\\R_Torso_X_Back.mp4', 'robot_stimuli\\L_Torso_X_For.mp4', 'robot_stimuli\\L_Torso_Y_Back.mp4']",robot_stimuli\L_Torso_Y_Back.mp4,5,,,,,,,,,,,,,0,20,20,20,,,,,,,,,,,,,,,,,,,1047.9315572,1050.0025663,,,1064.6566806,1064.6566806,1064.6566806,4,1.2560035999999428,1065.931409,1065.931409,1065.931409,1065.931409,1065.931409,1065.931409,1065.931409,1065.931409,None,None,None,,,,,,,,,,1047.9315572,1047.9315572,None,,1061.1576612,1047.9315572,1047.9315572,,,5,001,2024-07-17_09h56.25.979,robot_cogshifting_sign,2022.2.5,59.97339580162343,
"['R_Torso_Z_Back', 'L_Torso_Y_Back', 'R_Torso_Y_Back', 'R_Arm_Y_For']","{'laterality': 'L_Torso_Y_Back', 'localisation': 'R_Arm_Y_For', 'movement': 'R_Torso_Z_Back'}",laterality,['laterality'],L_Torso_Y_Back,1,1,robot,1,False,False,"['robot_stimuli\\R_Torso_Z_Back.mp4', 'robot_stimuli\\L_Torso_Y_Back.mp4', 'robot_stimuli\\R_Torso_Y_Back.mp4', 'robot_stimuli\\R_Arm_Y_For.mp4']",robot_stimuli\L_Torso_Y_Back.mp4,5,,,,,,,,,,,,,0,21,21,21,,,,,,,,,,,,,,,,,,,1065.931409,1068.0083794,,,1082.5596967,1082.5596967,1082.5596967,2,1.6900302000000949,1084.2817607,1084.2817607,1084.2817607,1084.2817607,1084.2817607,1084.2817607,1084.2817607,1084.2817607,None,None,None,,,,,,,,,,1065.931409,1065.931409,None,,1079.0564954,1065.931409,1065.931409,,,5,001,2024-07-17_09h56.25.979,robot_cogshifting_sign,2022.2.5,59.97339580162343,
"['L_Torso_Z_Back', 'L_Torso_X_Back', 'L_Base_X_Back', 'R_Torso_X_For']","{'laterality': 'R_Torso_X_For', 'localisation': 'L_Base_X_Back', 'movement': 'L_Torso_Z_Back'}",laterality,['laterality'],R_Torso_X_For,3,1,robot,1,False,False,"['robot_stimuli\\L_Torso_Z_Back.mp4', 'robot_stimuli\\L_Torso_X_Back.mp4', 'robot_stimuli\\L_Base_X_Back.mp4', 'robot_stimuli\\R_Torso_X_For.mp4']",robot_stimuli\R_Torso_X_For.mp4,5,,,,,,,,,,,,,0,22,22,22,,,,,,,,,,,,,,,,,,,1084.2817607,1086.3523374,,,1101.0041199,1101.0041199,1101.0041199,4,0.5257699999999232,1101.5482809,1101.5482809,1101.5482809,1101.5482809,1101.5482809,1101.5482809,1101.5482809,1101.5482809,None,None,None,,,,,,,,,,1084.2817607,1084.2817607,None,,1097.3614561,1084.2817607,1084.2817607,,,5,001,2024-07-17_09h56.25.979,robot_cogshifting_sign,2022.2.5,59.97339580162343,
"['L_Torso_Z_For', 'L_Arm_Z_For', 'R_Arm_Z_Back', 'L_Arm_Y_Back']","{'laterality': 'R_Arm_Z_Back', 'localisation': 'L_Torso_Z_For', 'movement': 'L_Arm_Y_Back'}",laterality,['laterality'],R_Arm_Z_Back,2,1,robot,1,False,False,"['robot_stimuli\\L_Torso_Z_For.mp4', 'robot_stimuli\\L_Arm_Z_For.mp4', 'robot_stimuli\\R_Arm_Z_Back.mp4', 'robot_stimuli\\L_Arm_Y_Back.mp4']",robot_stimuli\R_Arm_Z_Back.mp4,5,,,,,,,,,,,,,0,23,23,23,,,,,,,,,,,,,,,,,,,1101.5482809,1103.6214253,,,1118.4209325,1118.4209325,1118.4209325,3,0.5797925000001243,1119.0315828,1119.0315828,1119.0315828,1119.0315828,1119.0315828,1119.0315828,1119.0315828,1119.0315828,None,None,None,,,,,,,,,,1101.5482809,1101.5482809,None,,1114.7779229,1101.5482809,1101.5482809,,,5,001,2024-07-17_09h56.25.979,robot_cogshifting_sign,2022.2.5,59.97339580162343,
"['L_Base_X_For', 'L_Arm_X_Back', 'L_Base_Y_Back', 'R_Base_X_Back']","{'laterality': 'R_Base_X_Back', 'localisation': 'L_Arm_X_Back', 'movement': 'L_Base_Y_Back'}",movement,['movement'],L_Base_Y_Back,2,1,robot,1,False,False,"['robot_stimuli\\L_Base_X_For.mp4', 'robot_stimuli\\L_Arm_X_Back.mp4', 'robot_stimuli\\L_Base_Y_Back.mp4', 'robot_stimuli\\R_Base_X_Back.mp4']",robot_stimuli\L_Base_Y_Back.mp4,5,,,,,,,,,,,,,0,24,24,24,,,,,,,,,,,,,,,,,,,1119.0315828,1121.1056225,,,1135.7565738,1135.7565738,1135.7565738,3,0.3080560000000361,1136.0814999,1136.0814999,1136.0814999,1136.0814999,1136.0814999,1136.0814999,1136.0814999,1136.0814999,None,None,None,,,,,,,,,,1119.0315828,1119.0315828,None,,1132.1216834,1119.0315828,1119.0315828,,,5,001,2024-07-17_09h56.25.979,robot_cogshifting_sign,2022.2.5,59.97339580162343,
"['L_Base_Y_Back', 'R_Base_X_Back', 'R_Base_Y_Back', 'R_Arm_Y_For']","{'laterality': 'L_Base_Y_Back', 'localisation': 'R_Arm_Y_For', 'movement': 'R_Base_X_Back'}",localisation,['localisation'],R_Arm_Y_For,3,1,robot,1,False,False,"['robot_stimuli\\L_Base_Y_Back.mp4', 'robot_stimuli\\R_Base_X_Back.mp4', 'robot_stimuli\\R_Base_Y_Back.mp4', 'robot_stimuli\\R_Arm_Y_For.mp4']",robot_stimuli\R_Arm_Y_For.mp4,5,,,,,,,,,,,,,0,25,25,25,,,,,,,,,,,,,,,,,,,1136.0814999,1138.1582081,,,1152.7410641,1152.7410641,1152.7410641,4,1.1470568000001578,1153.9150832,1153.9150832,1153.9150832,1153.9150832,1153.9150832,1153.9150832,1153.9150832,1153.9150832,None,None,None,,,,,,,,,,1136.0814999,1136.0814999,None,,1149.2391976,1136.0814999,1136.0814999,,,5,001,2024-07-17_09h56.25.979,robot_cogshifting_sign,2022.2.5,59.97339580162343,
"['L_Torso_X_For', 'L_Arm_Y_For', 'L_Arm_X_For', 'R_Arm_X_Back']","{'laterality': 'R_Arm_X_Back', 'localisation': 'L_Torso_X_For', 'movement': 'L_Arm_Y_For'}",localisation,['localisation'],L_Torso_X_For,0,1,robot,1,False,True,"['robot_stimuli\\L_Torso_X_For.mp4', 'robot_stimuli\\L_Arm_Y_For.mp4', 'robot_stimuli\\L_Arm_X_For.mp4', 'robot_stimuli\\R_Arm_X_Back.mp4']",robot_stimuli\L_Torso_X_For.mp4,5,,,,,,,,,,,,,0,26,26,26,,,,,,,,,,,,,,,,,,,1153.9150832,1155.987365,,,1170.7675457,1170.7675457,1170.7675457,1,0.6006637000002257,1171.4234044,1175.6566162,1171.4234044,1175.6566162,1171.4234044,1175.6566162,1171.4234044,1175.6566162,37.71604938271605,3.842986200000041,space,,,4.17815660000015,,,,,,,1153.9150832,1153.9150832,None,,1167.1362146,1153.9150832,1153.9150832,,,5,001,2024-07-17_09h56.25.979,robot_cogshifting_sign,2022.2.5,59.97339580162343,
"['blue_bottom_K_0', 'blue_left_W_0', 'red_left_K_0', 'blue_left_B_45']","{'color': 'red_left_K_0', 'position': 'blue_bottom_K_0', 'orientation': 'blue_left_B_45'}",color,"['color', 'orientation']",red_left_K_0,2,2,letter,2,True,False,"['robot_stimuli\\\\filler.mp4', 'robot_stimuli\\\\filler.mp4', 'robot_stimuli\\\\filler.mp4', 'robot_stimuli\\\\filler.mp4']",robot_stimuli\\filler.mp4,5,,,,,,,,,,,,,0,27,27,27,,,,,,,,,,,,,,,,,,,1178.7315915,1180.7910309,,,1189.478279,1189.478279,1189.478279,3,4.266437599999975,1193.7648087999999,1193.7648087999999,1193.7648087999999,1193.7648087999999,1193.7648087999999,1193.7648087999999,1193.7648087999999,1193.7648087999999,None,None,None,,,,,,,,,,1175.6566162,1175.6566162,space,3.057324999999949,,,,1187.4626792,1189.478279,5,001,2024-07-17_09h56.25.979,robot_cogshifting_sign,2022.2.5,59.97339580162343,
"['blue_left_V_45', 'red_left_C_45', 'blue_left_G_0', 'blue_bottom_K_45']","{'color': 'red_left_C_45', 'position': 'blue_bottom_K_45', 'orientation': 'blue_left_G_0'}",orientation,"['orientation', 'position']",blue_left_G_0,2,2,letter,2,False,False,"['robot_stimuli\\\\filler.mp4', 'robot_stimuli\\\\filler.mp4', 'robot_stimuli\\\\filler.mp4', 'robot_stimuli\\\\filler.mp4']",robot_stimuli\\filler.mp4,5,,,,,,,,,,,,,0,28,28,28,,,,,,,,,,,,,,,,,,,1193.7648087999999,1195.8266088999999,,,1204.7090061,1204.7090061,1204.7090061,3,3.010870600000274,1207.7482279,1207.7482279,1207.7482279,1207.7482279,1207.7482279,1207.7482279,1207.7482279,1207.7482279,None,None,None,,,,,,,,,,1193.7648087999999,1193.7648087999999,None,,,1193.7648087999999,1193.7648087999999,1202.4854389,1204.7090061,5,001,2024-07-17_09h56.25.979,robot_cogshifting_sign,2022.2.5,59.97339580162343,
"['blue_top_D_0', 'red_top_T_45', 'blue_bottom_M_45', 'blue_top_V_45']","{'color': 'red_top_T_45', 'position': 'blue_bottom_M_45', 'orientation': 'blue_top_D_0'}",position,"['orientation', 'position']",blue_bottom_M_45,2,2,letter,2,False,False,"['robot_stimuli\\\\filler.mp4', 'robot_stimuli\\\\filler.mp4', 'robot_stimuli\\\\filler.mp4', 'robot_stimuli\\\\filler.mp4']",robot_stimuli\\filler.mp4,5,,,,,,,,,,,,,0,29,29,29,,,,,,,,,,,,,,,,,,,1207.7482279,1209.8070699,,,1218.4838287,1218.4838287,1218.4838287,3,1.5719565000001268,1220.0821861,1220.0821861,1220.0821861,1220.0821861,1220.0821861,1220.0821861,1220.0821861,1220.0821861,None,None,None,,,,,,,,,,1207.7482279,1207.7482279,None,,,1207.7482279,1207.7482279,1216.465126,1218.4838287,5,001,2024-07-17_09h56.25.979,robot_cogshifting_sign,2022.2.5,59.97339580162343,
"['red_right_N_45', 'red_left_Z_0', 'red_left_V_45', 'blue_left_P_45']","{'color': 'blue_left_P_45', 'position': 'red_right_N_45', 'orientation': 'red_left_Z_0'}",color,"['color', 'position']",blue_left_P_45,3,2,letter,2,False,False,"['robot_stimuli\\\\filler.mp4', 'robot_stimuli\\\\filler.mp4', 'robot_stimuli\\\\filler.mp4', 'robot_stimuli\\\\filler.mp4']",robot_stimuli\\filler.mp4,5,,,,,,,,,,,,,0,30,30,30,,,,,,,,,,,,,,,,,,,1220.0821861,1222.1404086999999,,,1231.0487718,1231.0487718,1231.0487718,4,1.8076774000000597,1232.8814192,1232.8814192,1232.8814192,1232.8814192,1232.8814192,1232.8814192,1232.8814192,1232.8814192,None,None,None,,,,,,,,,,1220.0821861,1220.0821861,None,,,1220.0821861,1220.0821861,1229.0288532,1231.0487718,5,001,2024-07-17_09h56.25.979,robot_cogshifting_sign,2022.2.5,59.97339580162343,
"['red_bottom_H_0', 'blue_bottom_P_45', 'blue_left_L_0', 'blue_bottom_M_0']","{'color': 'red_bottom_H_0', 'position': 'blue_left_L_0', 'orientation': 'blue_bottom_P_45'}",position,"['color', 'position']",blue_left_L_0,2,2,letter,2,False,False,"['robot_stimuli\\\\filler.mp4', 'robot_stimuli\\\\filler.mp4', 'robot_stimuli\\\\filler.mp4', 'robot_stimuli\\\\filler.mp4']",robot_stimuli\\filler.mp4,5,,,,,,,,,,,,,0,31,31,31,,,,,,,,,,,,,,,,,,,1232.8814192,1234.940285,,,1243.4330582999999,1243.4330582999999,1243.4330582999999,3,1.6397862999999262,1245.0983204,1245.0983204,1245.0983204,1245.0983204,1245.0983204,1245.0983204,1245.0983204,1245.0983204,None,None,None,,,,,,,,,,1232.8814192,1232.8814192,None,,,1232.8814192,1232.8814192,1241.2186863,1243.4330582999999,5,001,2024-07-17_09h56.25.979,robot_cogshifting_sign,2022.2.5,59.97339580162343,
"['red_top_X_45', 'red_right_Q_0', 'red_top_F_0', 'blue_top_P_0']","{'color': 'blue_top_P_0', 'position': 'red_right_Q_0', 'orientation': 'red_top_X_45'}",orientation,"['orientation', 'position']",red_top_X_45,0,2,letter,2,False,False,"['robot_stimuli\\\\filler.mp4', 'robot_stimuli\\\\filler.mp4', 'robot_stimuli\\\\filler.mp4', 'robot_stimuli\\\\filler.mp4']",robot_stimuli\\filler.mp4,5,,,,,,,,,,,,,0,32,32,32,,,,,,,,,,,,,,,,,,,1245.0983204,1247.1608003,,,1255.6267308,1255.6267308,1255.6267308,1,1.6938061000000317,1257.3481437,1257.3481437,1257.3481437,1257.3481437,1257.3481437,1257.3481437,1257.3481437,1257.3481437,None,None,None,,,,,,,,,,1245.0983204,1245.0983204,None,,,1245.0983204,1245.0983204,1253.6102237,1255.6267308,5,001,2024-07-17_09h56.25.979,robot_cogshifting_sign,2022.2.5,59.97339580162343,
"['blue_right_F_0', 'red_bottom_L_0', 'red_right_K_0', 'red_right_C_45']","{'color': 'blue_right_F_0', 'position': 'red_bottom_L_0', 'orientation': 'red_right_C_45'}",orientation,"['color', 'orientation']",red_right_C_45,3,2,letter,2,False,False,"['robot_stimuli\\\\filler.mp4', 'robot_stimuli\\\\filler.mp4', 'robot_stimuli\\\\filler.mp4', 'robot_stimuli\\\\filler.mp4']",robot_stimuli\\filler.mp4,5,,,,,,,,,,,,,0,33,33,33,,,,,,,,,,,,,,,,,,,1257.3481437,1259.4021186,,,1268.0799976,1268.0799976,1268.0799976,4,0.9358308000000335,1269.048206,1269.048206,1269.048206,1269.048206,1269.048206,1269.048206,1269.048206,1269.048206,None,None,None,,,,,,,,,,1257.3481437,1257.3481437,None,,,1257.3481437,1257.3481437,1266.0646755999999,1268.0799976,5,001,2024-07-17_09h56.25.979,robot_cogshifting_sign,2022.2.5,59.97339580162343,
"['blue_bottom_C_45', 'red_left_C_45', 'red_bottom_X_0', 'red_bottom_L_45']","{'color': 'blue_bottom_C_45', 'position': 'red_left_C_45', 'orientation': 'red_bottom_X_0'}",color,"['color', 'position']",blue_bottom_C_45,0,2,letter,2,False,False,"['robot_stimuli\\\\filler.mp4', 'robot_stimuli\\\\filler.mp4', 'robot_stimuli\\\\filler.mp4', 'robot_stimuli\\\\filler.mp4']",robot_stimuli\\filler.mp4,5,,,,,,,,,,,,,0,34,34,34,,,,,,,,,,,,,,,,,,,1269.048206,1271.0997431,,,1279.9837324999999,1279.9837324999999,1279.9837324999999,1,2.6578495999999205,1282.666133,1282.666133,1282.666133,1282.666133,1282.666133,1282.666133,1282.666133,1282.666133,None,None,None,,,,,,,,,,1269.048206,1269.048206,None,,,1269.048206,1269.048206,1277.7724764,1279.9837324999999,5,001,2024-07-17_09h56.25.979,robot_cogshifting_sign,2022.2.5,59.97339580162343,
"['blue_top_J_0', 'red_top_B_45', 'blue_right_L_45', 'blue_top_Q_45']","{'color': 'red_top_B_45', 'position': 'blue_right_L_45', 'orientation': 'blue_top_J_0'}",position,"['orientation', 'position']",blue_right_L_45,2,2,letter,2,False,True,"['robot_stimuli\\\\filler.mp4', 'robot_stimuli\\\\filler.mp4', 'robot_stimuli\\\\filler.mp4', 'robot_stimuli\\\\filler.mp4']",robot_stimuli\\filler.mp4,5,,,,,,,,,,,,,0,35,35,35,,,,,,,,,,,,,,,,,,,1282.666133,,,,1293.4240519,1293.4240519,1293.4240519,3,1.8404150000000783,1295.3074262999999,1298.2869862999999,1295.3074262999999,1298.2869862999999,1295.3074262999999,1298.2869862999999,1295.3074262999999,1298.2869862999999,41.26543209876544,2.525173800000175,space,,,2.924620599999983,,,,,,,1282.666133,1282.666133,None,,,1282.666133,1282.666133,1291.4104244999999,1293.4240519,5,001,2024-07-17_09h56.25.979,robot_cogshifting_sign,2022.2.5,59.97339580162343,
"['blue_top_B_45', 'red_top_X_0', 'red_right_Z_45', 'red_top_M_45']","{'color': 'blue_top_B_45', 'position': 'red_right_Z_45', 'orientation': 'red_top_X_0'}",color,"['color', 'orientation', 'position']",blue_top_B_45,0,3,letter,2,True,False,"['robot_stimuli\\\\filler.mp4', 'robot_stimuli\\\\filler.mp4', 'robot_stimuli\\\\filler.mp4', 'robot_stimuli\\\\filler.mp4']",robot_stimuli\\filler.mp4,5,,,,,,,,,,,,,0,36,36,36,,,,,,,,,,,,,,,,,,,1306.8981749,1308.9529459999999,,,1317.4436395999999,1317.4436395999999,1317.4436395999999,1,1.2539587999999213,1318.7147471,1318.7147471,1318.7147471,1318.7147471,1318.7147471,1318.7147471,1318.7147471,1318.7147471,None,None,None,,,,,,,,,,1298.2869862999999,1298.2869862999999,space,8.584598900000131,,,,1315.4289873999999,1317.4436395999999,5,001,2024-07-17_09h56.25.979,robot_cogshifting_sign,2022.2.5,59.97339580162343,
"['blue_top_C_0', 'blue_top_B_45', 'red_top_W_45', 'blue_left_D_45']","{'color': 'red_top_W_45', 'position': 'blue_left_D_45', 'orientation': 'blue_top_C_0'}",orientation,"['color', 'orientation', 'position']",blue_top_C_0,0,3,letter,2,False,False,"['robot_stimuli\\\\filler.mp4', 'robot_stimuli\\\\filler.mp4', 'robot_stimuli\\\\filler.mp4', 'robot_stimuli\\\\filler.mp4']",robot_stimuli\\filler.mp4,5,,,,,,,,,,,,,0,37,37,37,,,,,,,,,,,,,,,,,,,1318.7147471,1320.7720489,,,1329.0486816,1329.0486816,1329.0486816,1,9.128569000000155,1338.1981726,1338.1981726,1338.1981726,1338.1981726,1338.1981726,1338.1981726,1338.1981726,1338.1981726,None,None,None,,,,,,,,,,1318.7147471,1318.7147471,None,,,1318.7147471,1318.7147471,1327.0324304,1329.0486816,5,001,2024-07-17_09h56.25.979,robot_cogshifting_sign,2022.2.5,59.97339580162343,
"['red_right_Z_45', 'blue_right_M_45', 'red_bottom_J_45', 'red_right_Z_0']","{'color': 'blue_right_M_45', 'position': 'red_bottom_J_45', 'orientation': 'red_right_Z_0'}",position,"['color', 'orientation', 'position']",red_bottom_J_45,2,3,letter,2,False,False,"['robot_stimuli\\\\filler.mp4', 'robot_stimuli\\\\filler.mp4', 'robot_stimuli\\\\filler.mp4', 'robot_stimuli\\\\filler.mp4']",robot_stimuli\\filler.mp4,5,,,,,,,,,,,,,0,38,38,38,,,,,,,,,,,,,,,,,,,1338.1981726,1340.2583002,,,1349.1078293,1349.1078293,1349.1078293,3,5.549069000000102,1354.6816239,1354.6816239,1354.6816239,1354.6816239,1354.6816239,1354.6816239,1354.6816239,1354.6816239,None,None,None,,,,,,,,,,1338.1981726,1338.1981726,None,,,1338.1981726,1338.1981726,1347.0963385999999,1349.1078293,5,001,2024-07-17_09h56.25.979,robot_cogshifting_sign,2022.2.5,59.97339580162343,
"['red_bottom_R_0', 'red_right_Z_45', 'red_bottom_P_45', 'blue_bottom_C_45']","{'color': 'blue_bottom_C_45', 'position': 'red_right_Z_45', 'orientation': 'red_bottom_R_0'}",color,"['color', 'orientation', 'position']",blue_bottom_C_45,3,3,letter,2,False,False,"['robot_stimuli\\\\filler.mp4', 'robot_stimuli\\\\filler.mp4', 'robot_stimuli\\\\filler.mp4', 'robot_stimuli\\\\filler.mp4']",robot_stimuli\\filler.mp4,5,,,,,,,,,,,,,0,39,39,39,,,,,,,,,,,,,,,,,,,1354.6816239,1356.7364272,,,1365.6270864,1365.6270864,1365.6270864,4,2.2136609000001073,1367.8647426,1367.8647426,1367.8647426,1367.8647426,1367.8647426,1367.8647426,1367.8647426,1367.8647426,None,None,None,,,,,,,,,,1354.6816239,1354.6816239,None,,,1354.6816239,1354.6816239,1363.6129463,1365.6270864,5,001,2024-07-17_09h56.25.979,robot_cogshifting_sign,2022.2.5,59.97339580162343,
"['red_left_C_0', 'red_bottom_B_45', 'blue_bottom_K_0', 'red_bottom_G_0']","{'color': 'blue_bottom_K_0', 'position': 'red_left_C_0', 'orientation': 'red_bottom_B_45'}",orientation,"['color', 'orientation', 'position']",red_bottom_B_45,1,3,letter,2,False,False,"['robot_stimuli\\\\filler.mp4', 'robot_stimuli\\\\filler.mp4', 'robot_stimuli\\\\filler.mp4', 'robot_stimuli\\\\filler.mp4']",robot_stimuli\\filler.mp4,5,,,,,,,,,,,,,0,40,40,40,,,,,,,,,,,,,,,,,,,1367.8647426,1369.9233788,,,1378.8090481,1378.8090481,1378.8090481,2,2.990593700000275,1381.831352,1381.831352,1381.831352,1381.831352,1381.831352,1381.831352,1381.831352,1381.831352,None,None,None,,,,,,,,,,1367.8647426,1367.8647426,None,,,1367.8647426,1367.8647426,1376.7923446,1378.8090481,5,001,2024-07-17_09h56.25.979,robot_cogshifting_sign,2022.2.5,59.97339580162343,
"['red_top_G_45', 'blue_left_R_45', 'red_left_H_45', 'red_left_K_0']","{'color': 'blue_left_R_45', 'position': 'red_top_G_45', 'orientation': 'red_left_K_0'}",orientation,"['color', 'orientation', 'position']",red_left_K_0,3,3,letter,2,False,False,"['robot_stimuli\\\\filler.mp4', 'robot_stimuli\\\\filler.mp4', 'robot_stimuli\\\\filler.mp4', 'robot_stimuli\\\\filler.mp4']",robot_stimuli\\filler.mp4,5,,,,,,,,,,,,,0,41,41,41,,,,,,,,,,,,,,,,,,,1381.831352,1383.8852904999999,,,1392.3565244,1392.3565244,1392.3565244,4,1.1803484999999938,1393.5647089,1393.5647089,1393.5647089,1393.5647089,1393.5647089,1393.5647089,1393.5647089,1393.5647089,None,None,None,,,,,,,,,,1381.831352,1381.831352,None,,,1381.831352,1381.831352,1390.3478624,1392.3565244,5,001,2024-07-17_09h56.25.979,robot_cogshifting_sign,2022.2.5,59.97339580162343,
"['red_bottom_H_45', 'red_left_S_45', 'red_left_F_0', 'blue_left_N_45']","{'color': 'blue_left_N_45', 'position': 'red_bottom_H_45', 'orientation': 'red_left_F_0'}",position,"['color', 'orientation', 'position']",red_bottom_H_45,0,3,letter,2,False,False,"['robot_stimuli\\\\filler.mp4', 'robot_stimuli\\\\filler.mp4', 'robot_stimuli\\\\filler.mp4', 'robot_stimuli\\\\filler.mp4']",robot_stimuli\\filler.mp4,5,,,,,,,,,,,,,0,42,42,42,,,,,,,,,,,,,,,,,,,1393.5647089,1395.6194728,,,1404.337893,1404.337893,1404.337893,1,2.270674800000009,1406.6312954999999,1406.6312954999999,1406.6312954999999,1406.6312954999999,1406.6312954999999,1406.6312954999999,1406.6312954999999,1406.6312954999999,None,None,None,,,,,,,,,,1393.5647089,1393.5647089,None,,,1393.5647089,1393.5647089,1402.1208593,1404.337893,5,001,2024-07-17_09h56.25.979,robot_cogshifting_sign,2022.2.5,59.97339580162343,
"['blue_right_B_0', 'red_right_R_45', 'blue_left_T_45', 'blue_right_L_45']","{'color': 'red_right_R_45', 'position': 'blue_left_T_45', 'orientation': 'blue_right_B_0'}",position,"['color', 'orientation', 'position']",blue_left_T_45,2,3,letter,2,False,False,"['robot_stimuli\\\\filler.mp4', 'robot_stimuli\\\\filler.mp4', 'robot_stimuli\\\\filler.mp4', 'robot_stimuli\\\\filler.mp4']",robot_stimuli\\filler.mp4,5,,,,,,,,,,,,,0,43,43,43,,,,,,,,,,,,,,,,,,,1406.6312954999999,1408.6999945999999,,,1417.5706043999999,1417.5706043999999,1417.5706043999999,3,2.6536222000001572,1420.2481997,1420.2481997,1420.2481997,1420.2481997,1420.2481997,1420.2481997,1420.2481997,1420.2481997,None,None,None,,,,,,,,,,1406.6312954999999,1406.6312954999999,None,,,1406.6312954999999,1406.6312954999999,1415.3541036,1417.5706043999999,5,001,2024-07-17_09h56.25.979,robot_cogshifting_sign,2022.2.5,59.97339580162343,
"['red_right_H_0', 'red_top_L_0', 'blue_top_X_0', 'red_top_N_45']","{'color': 'blue_top_X_0', 'position': 'red_right_H_0', 'orientation': 'red_top_N_45'}",color,"['color', 'orientation', 'position']",blue_top_X_0,2,3,letter,2,False,True,"['robot_stimuli\\\\filler.mp4', 'robot_stimuli\\\\filler.mp4', 'robot_stimuli\\\\filler.mp4', 'robot_stimuli\\\\filler.mp4']",robot_stimuli\\filler.mp4,5,,,,,,,,,,,,,0,44,44,44,,,,,,,,,,,,,,,,,,,1420.2481997,1422.3071987,,,1431.3894148,1431.3894148,1431.3894148,3,2.0109802999999857,1433.4572237,1436.8412733999999,1433.4572237,1436.8412733999999,1433.4572237,1436.8412733999999,1433.4572237,1436.8412733999999,50.21604938271606,3.0319954999999936,space,,,3.3190080000001245,,,,,,,1420.2481997,1420.2481997,None,,,1420.2481997,1420.2481997,1429.167395,1431.3894148,5,001,2024-07-17_09h56.25.979,robot_cogshifting_sign,2022.2.5,59.97339580162343,
"['blue_bottom_M_0', 'blue_right_D_0', 'red_right_J_0', 'blue_right_S_45']","{'color': 'red_right_J_0', 'position': 'blue_bottom_M_0', 'orientation': 'blue_right_S_45'}",orientation,['orientation'],blue_right_S_45,3,1,letter,2,True,False,"['robot_stimuli\\\\filler.mp4', 'robot_stimuli\\\\filler.mp4', 'robot_stimuli\\\\filler.mp4', 'robot_stimuli\\\\filler.mp4']",robot_stimuli\\filler.mp4,5,,,,,,,,,,,,,0,45,45,45,,,,,,,,,,,,,,,,,,,1444.314719,1446.3743566,,,1455.0641822,1455.0641822,1455.0641822,4,0.3361865000001245,1455.4313155,1455.4313155,1455.4313155,1455.4313155,1455.4313155,1455.4313155,1455.4313155,1455.4313155,None,None,None,,,,,,,,,,1436.8412733999999,1436.8412733999999,space,7.454849600000173,,,,1453.0428574999999,1455.0641822,5,001,2024-07-17_09h56.25.979,robot_cogshifting_sign,2022.2.5,59.97339580162343,
"['blue_right_S_0', 'blue_top_G_0', 'blue_top_T_45', 'red_top_H_0']","{'color': 'red_top_H_0', 'position': 'blue_right_S_0', 'orientation': 'blue_top_T_45'}",orientation,['orientation'],blue_top_T_45,2,1,letter,2,False,False,"['robot_stimuli\\\\filler.mp4', 'robot_stimuli\\\\filler.mp4', 'robot_stimuli\\\\filler.mp4', 'robot_stimuli\\\\filler.mp4']",robot_stimuli\\filler.mp4,5,,,,,,,,,,,,,0,46,46,46,,,,,,,,,,,,,,,,,,,1455.4313155,1457.4833678999998,,,1465.9733671,1465.9733671,1465.9733671,3,0.45007720000030815,1466.447983,1466.447983,1466.447983,1466.447983,1466.447983,1466.447983,1466.447983,1466.447983,None,None,None,,,,,,,,,,1455.4313155,1455.4313155,None,,,1455.4313155,1455.4313155,1463.9595695,1465.9733671,5,001,2024-07-17_09h56.25.979,robot_cogshifting_sign,2022.2.5,59.97339580162343,
"['blue_top_V_45', 'red_top_F_0', 'blue_right_S_0', 'blue_top_L_0']","{'color': 'red_top_F_0', 'position': 'blue_right_S_0', 'orientation': 'blue_top_V_45'}",color,['color'],red_top_F_0,1,1,letter,2,False,False,"['robot_stimuli\\\\filler.mp4', 'robot_stimuli\\\\filler.mp4', 'robot_stimuli\\\\filler.mp4', 'robot_stimuli\\\\filler.mp4']",robot_stimuli\\filler.mp4,5,,,,,,,,,,,,,0,47,47,47,,,,,,,,,,,,,,,,,,,1466.447983,1468.5024349999999,,,1477.3977617,1477.3977617,1477.3977617,2,0.38608010000002935,1477.8145221,1477.8145221,1477.8145221,1477.8145221,1477.8145221,1477.8145221,1477.8145221,1477.8145221,None,None,None,,,,,,,,,,1466.447983,1466.447983,None,,,1466.447983,1466.447983,1475.3797751,1477.3977617,5,001,2024-07-17_09h56.25.979,robot_cogshifting_sign,2022.2.5,59.97339580162343,
"['red_top_S_0', 'red_bottom_Q_45', 'red_bottom_D_0', 'blue_bottom_G_0']","{'color': 'blue_bottom_G_0', 'position': 'red_top_S_0', 'orientation': 'red_bottom_Q_45'}",position,['position'],red_top_S_0,0,1,letter,2,False,False,"['robot_stimuli\\\\filler.mp4', 'robot_stimuli\\\\filler.mp4', 'robot_stimuli\\\\filler.mp4', 'robot_stimuli\\\\filler.mp4']",robot_stimuli\\filler.mp4,5,,,,,,,,,,,,,0,48,48,48,,,,,,,,,,,,,,,,,,,1477.8145221,1479.8694967,,,1488.1640527,1488.1640527,1488.1640527,1,0.36484910000008597,1488.5480079,1488.5480079,1488.5480079,1488.5480079,1488.5480079,1488.5480079,1488.5480079,1488.5480079,None,None,None,,,,,,,,,,1477.8145221,1477.8145221,None,,,1477.8145221,1477.8145221,1486.1460141,1488.1640527,5,001,2024-07-17_09h56.25.979,robot_cogshifting_sign,2022.2.5,59.97339580162343,
"['blue_bottom_S_0', 'blue_left_F_0', 'blue_bottom_B_45', 'red_bottom_W_0']","{'color': 'red_bottom_W_0', 'position': 'blue_left_F_0', 'orientation': 'blue_bottom_B_45'}",color,['color'],red_bottom_W_0,3,1,letter,2,False,False,"['robot_stimuli\\\\filler.mp4', 'robot_stimuli\\\\filler.mp4', 'robot_stimuli\\\\filler.mp4', 'robot_stimuli\\\\filler.mp4']",robot_stimuli\\filler.mp4,5,,,,,,,,,,,,,0,49,49,49,,,,,,,,,,,,,,,,,,,1488.5480079,1490.6055864,,,1499.2803304,1499.2803304,1499.2803304,4,0.24844109999999375,1499.548036,1499.548036,1499.548036,1499.548036,1499.548036,1499.548036,1499.548036,1499.548036,None,None,None,,,,,,,,,,1488.5480079,1488.5480079,None,,,1488.5480079,1488.5480079,1497.2582055,1499.2803304,5,001,2024-07-17_09h56.25.979,robot_cogshifting_sign,2022.2.5,59.97339580162343,
"['red_right_K_45', 'red_top_Q_0', 'blue_right_Q_0', 'red_right_T_0']","{'color': 'blue_right_Q_0', 'position': 'red_top_Q_0', 'orientation': 'red_right_K_45'}",position,['position'],red_top_Q_0,1,1,letter,2,False,False,"['robot_stimuli\\\\filler.mp4', 'robot_stimuli\\\\filler.mp4', 'robot_stimuli\\\\filler.mp4', 'robot_stimuli\\\\filler.mp4']",robot_stimuli\\filler.mp4,5,,,,,,,,,,,,,0,50,50,50,,,,,,,,,,,,,,,,,,,1499.548036,1501.6023261,,,1510.6946212999999,1510.6946212999999,1510.6946212999999,2,0.6585294000003188,1511.3812174,1511.3812174,1511.3812174,1511.3812174,1511.3812174,1511.3812174,1511.3812174,1511.3812174,None,None,None,,,,,,,,,,1499.548036,1499.548036,None,,,1499.548036,1499.548036,1508.4857084999999,1510.6946212999999,5,001,2024-07-17_09h56.25.979,robot_cogshifting_sign,2022.2.5,59.97339580162343,
"['blue_bottom_T_45', 'blue_right_D_0', 'blue_bottom_J_0', 'red_bottom_V_0']","{'color': 'red_bottom_V_0', 'position': 'blue_right_D_0', 'orientation': 'blue_bottom_T_45'}",orientation,['orientation'],blue_bottom_T_45,0,1,letter,2,False,False,"['robot_stimuli\\\\filler.mp4', 'robot_stimuli\\\\filler.mp4', 'robot_stimuli\\\\filler.mp4', 'robot_stimuli\\\\filler.mp4']",robot_stimuli\\filler.mp4,5,,,,,,,,,,,,,0,51,51,51,,,,,,,,,,,,,,,,,,,1511.3812174,1513.435371,,,1522.3181571,1522.3181571,1522.3181571,1,0.5379135000000161,1522.8812484,1522.8812484,1522.8812484,1522.8812484,1522.8812484,1522.8812484,1522.8812484,1522.8812484,None,None,None,,,,,,,,,,1511.3812174,1511.3812174,None,,,1511.3812174,1511.3812174,1520.1046566,1522.3181571,5,001,2024-07-17_09h56.25.979,robot_cogshifting_sign,2022.2.5,59.97339580162343,
"['blue_right_D_0', 'blue_bottom_B_0', 'blue_bottom_C_45', 'red_bottom_B_0']","{'color': 'red_bottom_B_0', 'position': 'blue_right_D_0', 'orientation': 'blue_bottom_C_45'}",position,['position'],blue_right_D_0,0,1,letter,2,False,False,"['robot_stimuli\\\\filler.mp4', 'robot_stimuli\\\\filler.mp4', 'robot_stimuli\\\\filler.mp4', 'robot_stimuli\\\\filler.mp4']",robot_stimuli\\filler.mp4,5,,,,,,,,,,,,,0,52,52,52,,,,,,,,,,,,,,,,,,,1522.8812484,1524.9362867,,,1533.6345704,1533.6345704,1533.6345704,1,0.27002350000016406,1533.9312412,1533.9312412,1533.9312412,1533.9312412,1533.9312412,1533.9312412,1533.9312412,1533.9312412,None,None,None,,,,,,,,,,1522.8812484,1522.8812484,None,,,1522.8812484,1522.8812484,1531.6150215,1533.6345704,5,001,2024-07-17_09h56.25.979,robot_cogshifting_sign,2022.2.5,59.97339580162343,
"['blue_top_H_0', 'red_top_R_0', 'blue_top_S_45', 'blue_left_J_0']","{'color': 'red_top_R_0', 'position': 'blue_left_J_0', 'orientation': 'blue_top_S_45'}",color,['color'],red_top_R_0,1,1,letter,2,False,True,"['robot_stimuli\\\\filler.mp4', 'robot_stimuli\\\\filler.mp4', 'robot_stimuli\\\\filler.mp4', 'robot_stimuli\\\\filler.mp4']",robot_stimuli\\filler.mp4,5,,,,,,,,,,,,,0,53,53,53,,,,,,,,,,,,,,,,,,,1533.9312412,1535.9962808999999,,,1544.4735269,1544.4735269,1544.4735269,2,0.34259540000012123,1544.8757202,1547.982673,1544.8757202,1547.982673,1544.8757202,1547.982673,1544.8757202,1547.982673,45.4320987654321,2.817452499999945,space,,,3.0517228000000642,,,,,,,1533.9312412,1533.9312412,None,,,1533.9312412,1533.9312412,1542.4479478,1544.4735269,5,001,2024-07-17_09h56.25.979,robot_cogshifting_sign,2022.2.5,59.97339580162343,
"['R_Head_Z_Back', 'L_Head_X_Back', 'L_Head_Z_Back', 'L_Base_Z_Back']","{'laterality': 'R_Head_Z_Back', 'localisation': 'L_Base_Z_Back', 'movement': 'L_Head_X_Back'}",movement,"['laterality', 'localisation', 'movement']",L_Head_X_Back,1,3,robot,3,True,False,"['robot_stimuli\\R_Head_Z_Back.mp4', 'robot_stimuli\\L_Head_X_Back.mp4', 'robot_stimuli\\L_Head_Z_Back.mp4', 'robot_stimuli\\L_Base_Z_Back.mp4']",robot_stimuli\L_Head_X_Back.mp4,5,,,,,,,,,,,,,0,54,54,54,,,,,,,,,,,,,,,,,,,1557.2311849999999,1559.3141685,,,1574.1591074,1574.1591074,1574.1591074,1,6.864774099999934,1581.048024,1581.048024,1581.048024,1581.048024,1581.048024,1581.048024,1581.048024,1581.048024,None,None,None,,,,,,,,,,1547.982673,1547.982673,space,9.21666710000018,1570.5094859,,,,,5,001,2024-07-17_09h56.25.979,robot_cogshifting_sign,2022.2.5,59.97339580162343,
"['R_Arm_X_Back', 'R_Base_Z_For', 'L_Arm_Z_Back', 'R_Arm_Z_For']","{'laterality': 'L_Arm_Z_Back', 'localisation': 'R_Base_Z_For', 'movement': 'R_Arm_X_Back'}",laterality,"['laterality', 'localisation', 'movement']",L_Arm_Z_Back,2,3,robot,3,False,False,"['robot_stimuli\\R_Arm_X_Back.mp4', 'robot_stimuli\\R_Base_Z_For.mp4', 'robot_stimuli\\L_Arm_Z_Back.mp4', 'robot_stimuli\\R_Arm_Z_For.mp4']",robot_stimuli\L_Arm_Z_Back.mp4,5,,,,,,,,,,,,,0,55,55,55,,,,,,,,,,,,,,,,,,,1581.048024,1583.1364866,,,1597.9581982,1597.9581982,1597.9581982,3,2.5455989999999957,1600.5313975,1600.5313975,1600.5313975,1600.5313975,1600.5313975,1600.5313975,1600.5313975,1600.5313975,None,None,None,,,,,,,,,,1581.048024,1581.048024,None,,1594.3247778,1581.048024,1581.048024,,,5,001,2024-07-17_09h56.25.979,robot_cogshifting_sign,2022.2.5,59.97339580162343,
"['L_Head_Z_Back', 'L_Arm_Z_Back', 'R_Head_Z_For', 'L_Head_Y_Back']","{'laterality': 'R_Head_Z_For', 'localisation': 'L_Arm_Z_Back', 'movement': 'L_Head_Y_Back'}",laterality,"['laterality', 'localisation', 'movement']",R_Head_Z_For,2,3,robot,3,False,False,"['robot_stimuli\\L_Head_Z_Back.mp4', 'robot_stimuli\\L_Arm_Z_Back.mp4', 'robot_stimuli\\R_Head_Z_For.mp4', 'robot_stimuli\\L_Head_Y_Back.mp4']",robot_stimuli\R_Head_Z_For.mp4,5,,,,,,,,,,,,,0,56,56,56,,,,,,,,,,,,,,,,,,,1600.5313975,1602.6016517,,,1617.4383189999999,1617.4383189999999,1617.4383189999999,3,4.722542700000034,1622.1812597,1622.1812597,1622.1812597,1622.1812597,1622.1812597,1622.1812597,1622.1812597,1622.1812597,None,None,None,,,,,,,,,,1600.5313975,1600.5313975,None,,1613.7948204,1600.5313975,1600.5313975,,,5,001,2024-07-17_09h56.25.979,robot_cogshifting_sign,2022.2.5,59.97339580162343,
"['L_Torso_Z_For', 'R_Arm_Z_For', 'R_Torso_Z_For', 'R_Torso_Y_Back']","{'laterality': 'L_Torso_Z_For', 'localisation': 'R_Arm_Z_For', 'movement': 'R_Torso_Y_Back'}",localisation,"['laterality', 'localisation', 'movement']",R_Arm_Z_For,1,3,robot,3,False,False,"['robot_stimuli\\L_Torso_Z_For.mp4', 'robot_stimuli\\R_Arm_Z_For.mp4', 'robot_stimuli\\R_Torso_Z_For.mp4', 'robot_stimuli\\R_Torso_Y_Back.mp4']",robot_stimuli\R_Arm_Z_For.mp4,5,,,,,,,,,,,,,0,57,57,57,,,,,,,,,,,,,,,,,,,1622.1812597,1624.2518384999998,,,1639.0844043,1639.0844043,1639.0844043,2,1.9233001000001906,1641.0312966,1641.0312966,1641.0312966,1641.0312966,1641.0312966,1641.0312966,1641.0312966,1641.0312966,None,None,None,,,,,,,,,,1622.1812597,1622.1812597,None,,1635.4587413,1622.1812597,1622.1812597,,,5,001,2024-07-17_09h56.25.979,robot_cogshifting_sign,2022.2.5,59.97339580162343,
"['R_Base_Z_For', 'L_Base_Y_Back', 'R_Torso_Y_Back', 'R_Base_Y_Back']","{'laterality': 'L_Base_Y_Back', 'localisation': 'R_Torso_Y_Back', 'movement': 'R_Base_Z_For'}",localisation,"['laterality', 'localisation', 'movement']",R_Torso_Y_Back,2,3,robot,3,False,False,"['robot_stimuli\\R_Base_Z_For.mp4', 'robot_stimuli\\L_Base_Y_Back.mp4', 'robot_stimuli\\R_Torso_Y_Back.mp4', 'robot_stimuli\\R_Base_Y_Back.mp4']",robot_stimuli\R_Torso_Y_Back.mp4,5,,,,,,,,,,,,,0,58,58,58,,,,,,,,,,,,,,,,,,,1641.0312966,1643.1071777,,,1657.8319397999999,1657.8319397999999,1657.8319397999999,3,0.5431841000001469,1658.3979252,1658.3979252,1658.3979252,1658.3979252,1658.3979252,1658.3979252,1658.3979252,1658.3979252,None,None,None,,,,,,,,,,1641.0312966,1641.0312966,None,,1654.1995921,1641.0312966,1641.0312966,,,5,001,2024-07-17_09h56.25.979,robot_cogshifting_sign,2022.2.5,59.97339580162343,
"['L_Head_X_For', 'R_Head_X_Back', 'R_Head_Y_For', 'R_Arm_X_Back']","{'laterality': 'L_Head_X_For', 'localisation': 'R_Arm_X_Back', 'movement': 'R_Head_Y_For'}",movement,"['laterality', 'localisation', 'movement']",R_Head_Y_For,2,3,robot,3,False,False,"['robot_stimuli\\L_Head_X_For.mp4', 'robot_stimuli\\R_Head_X_Back.mp4', 'robot_stimuli\\R_Head_Y_For.mp4', 'robot_stimuli\\R_Arm_X_Back.mp4']",robot_stimuli\R_Head_Y_For.mp4,5,,,,,,,,,,,,,0,59,59,59,,,,,,,,,,,,,,,,,,,1658.3979252,1660.4686588,,,1675.2237058,1675.2237058,1675.2237058,3,8.344362400000094,1683.597757,1683.597757,1683.597757,1683.597757,1683.597757,1683.597757,1683.597757,1683.597757,None,None,None,,,,,,,,,,1658.3979252,1658.3979252,None,,1671.5767956,1658.3979252,1658.3979252,,,5,001,2024-07-17_09h56.25.979,robot_cogshifting_sign,2022.2.5,59.97339580162343,
"['L_Torso_X_For', 'R_Torso_Y_For', 'L_Base_Y_For', 'L_Torso_Y_For']","{'laterality': 'R_Torso_Y_For', 'localisation': 'L_Base_Y_For', 'movement': 'L_Torso_X_For'}",laterality,"['laterality', 'localisation', 'movement']",R_Torso_Y_For,1,3,robot,3,False,False,"['robot_stimuli\\L_Torso_X_For.mp4', 'robot_stimuli\\R_Torso_Y_For.mp4', 'robot_stimuli\\L_Base_Y_For.mp4', 'robot_stimuli\\L_Torso_Y_For.mp4']",robot_stimuli\R_Torso_Y_For.mp4,5,,,,,,,,,,,,,0,60,60,60,,,,,,,,,,,,,,,,,,,1683.597757,1685.6755116,,,1700.390928,1700.390928,1700.390928,2,1.296641700000194,1701.7144387,1701.7144387,1701.7144387,1701.7144387,1701.7144387,1701.7144387,1701.7144387,1701.7144387,None,None,None,,,,,,,,,,1683.597757,1683.597757,None,,1696.7465554999999,1683.597757,1683.597757,,,5,001,2024-07-17_09h56.25.979,robot_cogshifting_sign,2022.2.5,59.97339580162343,
"['R_Arm_X_For', 'L_Torso_X_For', 'L_Arm_Z_Back', 'L_Arm_X_For']","{'laterality': 'R_Arm_X_For', 'localisation': 'L_Torso_X_For', 'movement': 'L_Arm_Z_Back'}",localisation,"['laterality', 'localisation', 'movement']",L_Torso_X_For,1,3,robot,3,False,False,"['robot_stimuli\\R_Arm_X_For.mp4', 'robot_stimuli\\L_Torso_X_For.mp4', 'robot_stimuli\\L_Arm_Z_Back.mp4', 'robot_stimuli\\L_Arm_X_For.mp4']",robot_stimuli\L_Torso_X_For.mp4,5,,,,,,,,,,,,,0,61,61,61,,,,,,,,,,,,,,,,,,,1701.7144387,1703.7889573,,,1718.5885807,1718.5885807,1718.5885807,2,4.683931900000246,1723.2978693,1723.2978693,1723.2978693,1723.2978693,1723.2978693,1723.2978693,1723.2978693,1723.2978693,None,None,None,,,,,,,,,,1701.7144387,1701.7144387,None,,1714.9552903,1701.7144387,1701.7144387,,,5,001,2024-07-17_09h56.25.979,robot_cogshifting_sign,2022.2.5,59.97339580162343,
"['R_Torso_X_Back', 'L_Torso_X_For', 'L_Torso_Z_Back', 'L_Arm_X_For']","{'laterality': 'R_Torso_X_Back', 'localisation': 'L_Arm_X_For', 'movement': 'L_Torso_Z_Back'}",movement,"['laterality', 'localisation', 'movement']",L_Torso_Z_Back,2,3,robot,3,False,True,"['robot_stimuli\\R_Torso_X_Back.mp4', 'robot_stimuli\\L_Torso_X_For.mp4', 'robot_stimuli\\L_Torso_Z_Back.mp4', 'robot_stimuli\\L_Arm_X_For.mp4']",robot_stimuli\L_Torso_Z_Back.mp4,5,,,,,,,,,,,,,0,62,62,62,,,,,,,,,,,,,,,,,,,1723.2978693,1725.3689036,,,1740.0409005,1740.0409005,1740.0409005,3,7.535310600000187,1747.6225892,1750.7573538,1747.6225892,1750.7573538,1747.6225892,1750.7573538,1747.6225892,1750.7573538,68.42592592592592,2.896989000000076,space,,,3.06479080000004,,,,,,,1723.2978693,1723.2978693,None,,1736.4062864,1723.2978693,1723.2978693,,,5,001,2024-07-17_09h56.25.979,robot_cogshifting_sign,2022.2.5,59.97339580162343,
"['R_Arm_Z_For', 'L_Base_Z_For', 'R_Base_Z_For', 'R_Base_Y_For']","{'laterality': 'L_Base_Z_For', 'localisation': 'R_Arm_Z_For', 'movement': 'R_Base_Y_For'}",laterality,"['laterality', 'localisation']",L_Base_Z_For,1,2,robot,3,True,False,"['robot_stimuli\\R_Arm_Z_For.mp4', 'robot_stimuli\\L_Base_Z_For.mp4', 'robot_stimuli\\R_Base_Z_For.mp4', 'robot_stimuli\\R_Base_Y_For.mp4']",robot_stimuli\L_Base_Z_For.mp4,5,,,,,,,,,,,,,0,63,63,63,,,,,,,,,,,,,,,,,,,1752.8476853,1754.9246899,,,1769.7194637999999,1769.7194637999999,1769.7194637999999,2,3.096530200000146,1772.8476483,1772.8476483,1772.8476483,1772.8476483,1772.8476483,1772.8476483,1772.8476483,1772.8476483,None,None,None,,,,,,,,,,1750.7573538,1750.7573538,space,2.0734527000001464,1766.0851409,,,,,5,001,2024-07-17_09h56.25.979,robot_cogshifting_sign,2022.2.5,59.97339580162343,
"['L_Base_Z_For', 'R_Base_Z_For', 'R_Head_Z_For', 'R_Base_Y_For']","{'laterality': 'L_Base_Z_For', 'localisation': 'R_Head_Z_For', 'movement': 'R_Base_Y_For'}",movement,"['laterality', 'movement']",R_Base_Y_For,3,2,robot,3,False,False,"['robot_stimuli\\L_Base_Z_For.mp4', 'robot_stimuli\\R_Base_Z_For.mp4', 'robot_stimuli\\R_Head_Z_For.mp4', 'robot_stimuli\\R_Base_Y_For.mp4']",robot_stimuli\R_Base_Y_For.mp4,5,,,,,,,,,,,,,0,64,64,64,,,,,,,,,,,,,,,,,,,1772.8476483,1774.9220031,,,1789.7400175999999,1789.7400175999999,1789.7400175999999,4,1.1635587000000243,1790.931092,1790.931092,1790.931092,1790.931092,1790.931092,1790.931092,1790.931092,1790.931092,None,None,None,,,,,,,,,,1772.8476483,1772.8476483,None,,1786.0931062,1772.8476483,1772.8476483,,,5,001,2024-07-17_09h56.25.979,robot_cogshifting_sign,2022.2.5,59.97339580162343,
"['L_Head_Y_For', 'R_Head_X_For', 'L_Arm_X_For', 'L_Head_X_For']","{'laterality': 'R_Head_X_For', 'localisation': 'L_Arm_X_For', 'movement': 'L_Head_Y_For'}",localisation,"['laterality', 'localisation']",L_Arm_X_For,2,2,robot,3,False,False,"['robot_stimuli\\L_Head_Y_For.mp4', 'robot_stimuli\\R_Head_X_For.mp4', 'robot_stimuli\\L_Arm_X_For.mp4', 'robot_stimuli\\L_Head_X_For.mp4']",robot_stimuli\L_Arm_X_For.mp4,5,,,,,,,,,,,,,0,65,65,65,,,,,,,,,,,,,,,,,,,1790.931092,1793.0070235,,,1807.7560909,1807.7560909,1807.7560909,3,1.8274075999999724,1809.6143483,1809.6143483,1809.6143483,1809.6143483,1809.6143483,1809.6143483,1809.6143483,1809.6143483,None,None,None,,,,,,,,,,1790.931092,1790.931092,None,,1804.1760686999999,1790.931092,1790.931092,,,5,001,2024-07-17_09h56.25.979,robot_cogshifting_sign,2022.2.5,59.97339580162343,
"['R_Base_Z_For', 'R_Arm_X_For', 'L_Arm_Z_For', 'R_Arm_Z_For']","{'laterality': 'L_Arm_Z_For', 'localisation': 'R_Base_Z_For', 'movement': 'R_Arm_X_For'}",movement,"['laterality', 'movement']",R_Arm_X_For,1,2,robot,3,False,False,"['robot_stimuli\\R_Base_Z_For.mp4', 'robot_stimuli\\R_Arm_X_For.mp4', 'robot_stimuli\\L_Arm_Z_For.mp4', 'robot_stimuli\\R_Arm_Z_For.mp4']",robot_stimuli\R_Arm_X_For.mp4,5,,,,,,,,,,,,,0,66,66,66,,,,,,,,,,,,,,,,,,,1809.6143483,1811.6887701,,,1826.4722130999999,1826.4722130999999,1826.4722130999999,2,3.159445100000042,1829.6642749999999,1829.6642749999999,1829.6642749999999,1829.6642749999999,1829.6642749999999,1829.6642749999999,1829.6642749999999,1829.6642749999999,None,None,None,,,,,,,,,,1809.6143483,1809.6143483,None,,1822.8385045,1809.6143483,1809.6143483,,,5,001,2024-07-17_09h56.25.979,robot_cogshifting_sign,2022.2.5,59.97339580162343,
"['L_Torso_X_For', 'R_Torso_X_For', 'L_Torso_Z_For', 'L_Base_X_For']","{'laterality': 'R_Torso_X_For', 'localisation': 'L_Base_X_For', 'movement': 'L_Torso_Z_For'}",localisation,"['laterality', 'localisation']",L_Base_X_For,3,2,robot,3,False,False,"['robot_stimuli\\L_Torso_X_For.mp4', 'robot_stimuli\\R_Torso_X_For.mp4', 'robot_stimuli\\L_Torso_Z_For.mp4', 'robot_stimuli\\L_Base_X_For.mp4']",robot_stimuli\L_Base_X_For.mp4,5,,,,,,,,,,,,,0,67,67,67,,,,,,,,,,,,,,,,,,,1829.6642749999999,1831.7395988,,,1846.4920129,1846.4920129,1846.4920129,4,1.9232844000000142,1848.447558,1848.447558,1848.447558,1848.447558,1848.447558,1848.447558,1848.447558,1848.447558,None,None,None,,,,,,,,,,1829.6642749999999,1829.6642749999999,None,,1842.9135306,1829.6642749999999,1829.6642749999999,,,5,001,2024-07-17_09h56.25.979,robot_cogshifting_sign,2022.2.5,59.97339580162343,
"['L_Torso_Y_For', 'R_Torso_Y_Back', 'L_Torso_Z_For', 'L_Base_Y_For']","{'laterality': 'R_Torso_Y_Back', 'localisation': 'L_Base_Y_For', 'movement': 'L_Torso_Z_For'}",laterality,"['laterality', 'localisation']",R_Torso_Y_Back,1,2,robot,3,False,False,"['robot_stimuli\\L_Torso_Y_For.mp4', 'robot_stimuli\\R_Torso_Y_Back.mp4', 'robot_stimuli\\L_Torso_Z_For.mp4', 'robot_stimuli\\L_Base_Y_For.mp4']",robot_stimuli\R_Torso_Y_Back.mp4,5,,,,,,,,,,,,,0,68,68,68,,,,,,,,,,,,,,,,,,,1848.447558,1850.5187441,,,1865.2746068,1865.2746068,1865.2746068,2,1.5416604999999919,1866.847928,1866.847928,1866.847928,1866.847928,1866.847928,1866.847928,1866.847928,1866.847928,None,None,None,,,,,,,,,,1848.447558,1848.447558,None,,1861.7397128999999,1848.447558,1848.447558,,,5,001,2024-07-17_09h56.25.979,robot_cogshifting_sign,2022.2.5,59.97339580162343,
"['R_Torso_Z_For', 'L_Base_Z_Back', 'L_Torso_Y_For', 'L_Torso_Z_For']","{'laterality': 'R_Torso_Z_For', 'localisation': 'L_Base_Z_Back', 'movement': 'L_Torso_Y_For'}",movement,"['laterality', 'movement']",L_Torso_Y_For,2,2,robot,3,False,False,"['robot_stimuli\\R_Torso_Z_For.mp4', 'robot_stimuli\\L_Base_Z_Back.mp4', 'robot_stimuli\\L_Torso_Y_For.mp4', 'robot_stimuli\\L_Torso_Z_For.mp4']",robot_stimuli\L_Torso_Y_For.mp4,5,,,,,,,,,,,,,0,69,69,69,,,,,,,,,,,,,,,,,,,1866.847928,1868.921238,,,1883.7419648999999,1883.7419648999999,1883.7419648999999,3,1.0733056000000971,1884.8475765,1884.8475765,1884.8475765,1884.8475765,1884.8475765,1884.8475765,1884.8475765,1884.8475765,None,None,None,,,,,,,,,,1866.847928,1866.847928,None,,1880.1060708999998,1866.847928,1866.847928,,,5,001,2024-07-17_09h56.25.979,robot_cogshifting_sign,2022.2.5,59.97339580162343,
"['R_Torso_X_Back', 'L_Torso_X_Back', 'R_Torso_Z_For', 'R_Arm_X_For']","{'laterality': 'L_Torso_X_Back', 'localisation': 'R_Arm_X_For', 'movement': 'R_Torso_Z_For'}",localisation,"['localisation', 'movement']",R_Arm_X_For,3,2,robot,3,False,False,"['robot_stimuli\\R_Torso_X_Back.mp4', 'robot_stimuli\\L_Torso_X_Back.mp4', 'robot_stimuli\\R_Torso_Z_For.mp4', 'robot_stimuli\\R_Arm_X_For.mp4']",robot_stimuli\R_Arm_X_For.mp4,5,,,,,,,,,,,,,0,70,70,70,,,,,,,,,,,,,,,,,,,1884.8475765,1886.9234973,,,1901.7189792,1901.7189792,1901.7189792,4,1.4888517999999777,1903.2307834,1903.2307834,1903.2307834,1903.2307834,1903.2307834,1903.2307834,1903.2307834,1903.2307834,None,None,None,,,,,,,,,,1884.8475765,1884.8475765,None,,1898.0757358,1884.8475765,1884.8475765,,,5,001,2024-07-17_09h56.25.979,robot_cogshifting_sign,2022.2.5,59.97339580162343,
"['R_Base_Y_For', 'L_Base_Z_For', 'L_Base_Y_Back', 'L_Torso_Y_For']","{'laterality': 'R_Base_Y_For', 'localisation': 'L_Torso_Y_For', 'movement': 'L_Base_Z_For'}",laterality,"['laterality', 'movement']",R_Base_Y_For,0,2,robot,3,False,True,"['robot_stimuli\\R_Base_Y_For.mp4', 'robot_stimuli\\L_Base_Z_For.mp4', 'robot_stimuli\\L_Base_Y_Back.mp4', 'robot_stimuli\\L_Torso_Y_For.mp4']",robot_stimuli\R_Base_Y_For.mp4,5,,,,,,,,,,,,,0,71,71,71,,,,,,,,,,,,,,,,,,,1903.2307834,1905.3062115999999,,,1920.0321916999999,1920.0321916999999,1920.0321916999999,2,4.0478763999999074,1924.1262113,1928.8509167,1924.1262113,1928.8509167,1924.1262113,1928.8509167,1924.1262113,1928.8509167,63.48765432098766,4.342611199999965,space,,,4.657593999999975,,,,,,,1903.2307834,1903.2307834,None,,1916.4085854,1903.2307834,1903.2307834,,,5,001,2024-07-17_09h56.25.979,robot_cogshifting_sign,2022.2.5,59.97339580162343,
"['L_Arm_X_Back', 'L_Arm_Y_Back', 'R_Arm_Y_For', 'L_Base_Y_Back']","{'laterality': 'R_Arm_Y_For', 'localisation': 'L_Base_Y_Back', 'movement': 'L_Arm_X_Back'}",localisation,['localisation'],L_Base_Y_Back,3,1,robot,3,True,False,"['robot_stimuli\\L_Arm_X_Back.mp4', 'robot_stimuli\\L_Arm_Y_Back.mp4', 'robot_stimuli\\R_Arm_Y_For.mp4', 'robot_stimuli\\L_Base_Y_Back.mp4']",robot_stimuli\L_Base_Y_Back.mp4,5,,,,,,,,,,,,,0,72,72,72,,,,,,,,,,,,,,,,,,,1931.697819,1933.7726112,,,1948.4038145999998,1948.4038145999998,1948.4038145999998,4,0.5560822000001764,1948.9808027,1948.9808027,1948.9808027,1948.9808027,1948.9808027,1948.9808027,1948.9808027,1948.9808027,None,None,None,,,,,,,,,,1928.8509167,1928.8509167,space,2.8293258000000634,1944.8259663999997,,,,,5,001,2024-07-17_09h56.25.979,robot_cogshifting_sign,2022.2.5,59.97339580162343,
"['L_Torso_Y_Back', 'R_Torso_Z_Back', 'L_Torso_Z_Back', 'L_Head_Z_For']","{'laterality': 'R_Torso_Z_Back', 'localisation': 'L_Head_Z_For', 'movement': 'L_Torso_Y_Back'}",laterality,['laterality'],R_Torso_Z_Back,1,1,robot,3,False,False,"['robot_stimuli\\L_Torso_Y_Back.mp4', 'robot_stimuli\\R_Torso_Z_Back.mp4', 'robot_stimuli\\L_Torso_Z_Back.mp4', 'robot_stimuli\\L_Head_Z_For.mp4']",robot_stimuli\R_Torso_Z_Back.mp4,5,,,,,,,,,,,,,0,73,73,73,,,,,,,,,,,,,,,,,,,1948.9808027,1951.0519079,,,1965.6069063,1965.6069063,1965.6069063,2,0.399848200000136,1966.0307287,1966.0307287,1966.0307287,1966.0307287,1966.0307287,1966.0307287,1966.0307287,1966.0307287,None,None,None,,,,,,,,,,1948.9808027,1948.9808027,None,,1961.959958,1948.9808027,1948.9808027,,,5,001,2024-07-17_09h56.25.979,robot_cogshifting_sign,2022.2.5,59.97339580162343,
"['L_Arm_X_For', 'R_Arm_X_Back', 'L_Arm_Y_Back', 'L_Base_X_For']","{'laterality': 'R_Arm_X_Back', 'localisation': 'L_Base_X_For', 'movement': 'L_Arm_Y_Back'}",movement,['movement'],L_Arm_Y_Back,2,1,robot,3,False,False,"['robot_stimuli\\L_Arm_X_For.mp4', 'robot_stimuli\\R_Arm_X_Back.mp4', 'robot_stimuli\\L_Arm_Y_Back.mp4', 'robot_stimuli\\L_Base_X_For.mp4']",robot_stimuli\L_Arm_Y_Back.mp4,5,,,,,,,,,,,,,0,74,74,74,,,,,,,,,,,,,,,,,,,1966.0307287,1968.1006302,,,1982.8224139999998,1982.8224139999998,1982.8224139999998,3,0.29656030000019484,1983.1476541000002,1983.1476541000002,1983.1476541000002,1983.1476541000002,1983.1476541000002,1983.1476541000002,1983.1476541000002,1983.1476541000002,None,None,None,,,,,,,,,,1966.0307287,1966.0307287,None,,1979.2537892999999,1966.0307287,1966.0307287,,,5,001,2024-07-17_09h56.25.979,robot_cogshifting_sign,2022.2.5,59.97339580162343,
"['R_Head_Y_For', 'L_Head_Y_For', 'R_Arm_Y_For', 'R_Head_Z_Back']","{'laterality': 'L_Head_Y_For', 'localisation': 'R_Arm_Y_For', 'movement': 'R_Head_Z_Back'}",localisation,['localisation'],R_Arm_Y_For,2,1,robot,3,False,False,"['robot_stimuli\\R_Head_Y_For.mp4', 'robot_stimuli\\L_Head_Y_For.mp4', 'robot_stimuli\\R_Arm_Y_For.mp4', 'robot_stimuli\\R_Head_Z_Back.mp4']",robot_stimuli\R_Arm_Y_For.mp4,5,,,,,,,,,,,,,0,75,75,75,,,,,,,,,,,,,,,,,,,1983.1476541000002,1985.221489,,,1999.8867535999998,1999.8867535999998,1999.8867535999998,3,0.272966700000282,2000.1807030999998,2000.1807030999998,2000.1807030999998,2000.1807030999998,2000.1807030999998,2000.1807030999998,2000.1807030999998,2000.1807030999998,None,None,None,,,,,,,,,,1983.1476541000002,1983.1476541000002,None,,1996.2505209,1983.1476541000002,1983.1476541000002,,,5,001,2024-07-17_09h56.25.979,robot_cogshifting_sign,2022.2.5,59.97339580162343,
"['L_Arm_X_Back', 'L_Arm_Y_For', 'L_Base_Y_For', 'R_Arm_Y_For']","{'laterality': 'R_Arm_Y_For', 'localisation': 'L_Base_Y_For', 'movement': 'L_Arm_X_Back'}",localisation,['localisation'],L_Base_Y_For,2,1,robot,3,False,False,"['robot_stimuli\\L_Arm_X_Back.mp4', 'robot_stimuli\\L_Arm_Y_For.mp4', 'robot_stimuli\\L_Base_Y_For.mp4', 'robot_stimuli\\R_Arm_Y_For.mp4']",robot_stimuli\L_Base_Y_For.mp4,5,,,,,,,,,,,,,0,76,76,76,,,,,,,,,,,,,,,,,,,2000.1807030999998,2002.2514078,,,2016.8038533,2016.8038533,2016.8038533,3,2.1081164000001564,2018.9308455,2018.9308455,2018.9308455,2018.9308455,2018.9308455,2018.9308455,2018.9308455,2018.9308455,None,None,None,,,,,,,,,,2000.1807030999998,2000.1807030999998,None,,2013.3043481999998,2000.1807030999998,2000.1807030999998,,,5,001,2024-07-17_09h56.25.979,robot_cogshifting_sign,2022.2.5,59.97339580162343,
"['L_Base_X_For', 'L_Arm_Z_Back', 'L_Arm_X_For', 'R_Arm_X_For']","{'laterality': 'R_Arm_X_For', 'localisation': 'L_Base_X_For', 'movement': 'L_Arm_Z_Back'}",movement,['movement'],L_Arm_Z_Back,1,1,robot,3,False,False,"['robot_stimuli\\L_Base_X_For.mp4', 'robot_stimuli\\L_Arm_Z_Back.mp4', 'robot_stimuli\\L_Arm_X_For.mp4', 'robot_stimuli\\R_Arm_X_For.mp4']",robot_stimuli\L_Arm_Z_Back.mp4,5,,,,,,,,,,,,,0,77,77,77,,,,,,,,,,,,,,,,,,,2018.9308455,2021.0046217999998,,,2035.7198227999997,2035.7198227999997,2035.7198227999997,2,1.0076346999998833,2036.7474644999998,2036.7474644999998,2036.7474644999998,2036.7474644999998,2036.7474644999998,2036.7474644999998,2036.7474644999998,2036.7474644999998,None,None,None,,,,,,,,,,2018.9308455,2018.9308455,None,,2032.0846676,2018.9308455,2018.9308455,,,5,001,2024-07-17_09h56.25.979,robot_cogshifting_sign,2022.2.5,59.97339580162343,
"['L_Head_Y_Back', 'R_Head_Y_For', 'R_Head_X_Back', 'R_Torso_Y_Back']","{'laterality': 'L_Head_Y_Back', 'localisation': 'R_Torso_Y_Back', 'movement': 'R_Head_X_Back'}",laterality,['laterality'],L_Head_Y_Back,0,1,robot,3,False,False,"['robot_stimuli\\L_Head_Y_Back.mp4', 'robot_stimuli\\R_Head_Y_For.mp4', 'robot_stimuli\\R_Head_X_Back.mp4', 'robot_stimuli\\R_Torso_Y_Back.mp4']",robot_stimuli\L_Head_Y_Back.mp4,5,,,,,,,,,,,,,0,78,78,78,,,,,,,,,,,,,,,,,,,2036.7474644999998,2038.8245983000002,,,2053.607415,2053.607415,2053.607415,1,0.4001425999999384,2054.0307588,2054.0307588,2054.0307588,2054.0307588,2054.0307588,2054.0307588,2054.0307588,2054.0307588,None,None,None,,,,,,,,,,2036.7474644999998,2036.7474644999998,None,,2049.9729459,2036.7474644999998,2036.7474644999998,,,5,001,2024-07-17_09h56.25.979,robot_cogshifting_sign,2022.2.5,59.97339580162343,
"['L_Torso_X_For', 'L_Arm_X_For', 'L_Torso_Y_For', 'R_Torso_X_For']","{'laterality': 'R_Torso_X_For', 'localisation': 'L_Arm_X_For', 'movement': 'L_Torso_Y_For'}",movement,['movement'],L_Torso_Y_For,2,1,robot,3,False,False,"['robot_stimuli\\L_Torso_X_For.mp4', 'robot_stimuli\\L_Arm_X_For.mp4', 'robot_stimuli\\L_Torso_Y_For.mp4', 'robot_stimuli\\R_Torso_X_For.mp4']",robot_stimuli\L_Torso_Y_For.mp4,5,,,,,,,,,,,,,0,79,79,79,,,,,,,,,,,,,,,,,,,2054.0307588,2056.106929,,,2070.8892186,2070.8892186,2070.8892186,3,0.28570900000018185,2071.1973961,2071.1973961,2071.1973961,2071.1973961,2071.1973961,2071.1973961,2071.1973961,2071.1973961,None,None,None,,,,,,,,,,2054.0307588,2054.0307588,None,,2067.2537649,2054.0307588,2054.0307588,,,5,001,2024-07-17_09h56.25.979,robot_cogshifting_sign,2022.2.5,59.97339580162343,
"['R_Head_X_For', 'R_Torso_X_For', 'R_Torso_Y_Back', 'L_Torso_X_For']","{'laterality': 'L_Torso_X_For', 'localisation': 'R_Head_X_For', 'movement': 'R_Torso_Y_Back'}",laterality,['laterality'],L_Torso_X_For,3,1,robot,3,False,True,"['robot_stimuli\\R_Head_X_For.mp4', 'robot_stimuli\\R_Torso_X_For.mp4', 'robot_stimuli\\R_Torso_Y_Back.mp4', 'robot_stimuli\\L_Torso_X_For.mp4']",robot_stimuli\L_Torso_X_For.mp4,5,,,,,,,,,,,,,0,80,80,80,,,,,,,,,,,,,,,,,,,2071.1973961,2073.271741,,,2088.0827678,2088.0827678,2088.0827678,4,1.004860800000145,2089.1423825,2101.6188467,2089.1423825,2101.6188467,2089.1423825,2101.6188467,2089.1423825,2101.6188467,29.999999999999993,11.471681200000148,space,,,12.423778899999846,,,,,,,2071.1973961,2071.1973961,None,,2084.4570955,2071.1973961,2071.1973961,,,5,001,2024-07-17_09h56.25.979,robot_cogshifting_sign,2022.2.5,59.97339580162343,
"['red_bottom_G_0', 'blue_bottom_F_0', 'red_right_Q_0', 'red_bottom_V_45']","{'color': 'blue_bottom_F_0', 'position': 'red_right_Q_0', 'orientation': 'red_bottom_V_45'}",position,['position'],red_right_Q_0,2,1,letter,4,True,False,"['robot_stimuli\\\\filler.mp4', 'robot_stimuli\\\\filler.mp4', 'robot_stimuli\\\\filler.mp4', 'robot_stimuli\\\\filler.mp4']",robot_stimuli\\filler.mp4,5,,,,,,,,,,,,,0,81,81,81,,,,,,,,,,,,,,,,,,,2106.1806143999997,2108.2355758,,,2116.9324613999997,2116.9324613999997,2116.9324613999997,3,0.4021915000002565,2117.3642489999997,2117.3642489999997,2117.3642489999997,2117.3642489999997,2117.3642489999997,2117.3642489999997,2117.3642489999997,2117.3642489999997,None,None,None,,,,,,,,,,2101.6188467,2101.6188467,space,4.541150599999995,,,,2114.9088756,2116.9324613999997,5,001,2024-07-17_09h56.25.979,robot_cogshifting_sign,2022.2.5,59.97339580162343,
"['blue_right_P_0', 'blue_bottom_G_45', 'red_right_Q_45', 'blue_right_L_45']","{'color': 'red_right_Q_45', 'position': 'blue_bottom_G_45', 'orientation': 'blue_right_P_0'}",orientation,['orientation'],blue_right_P_0,0,1,letter,4,False,False,"['robot_stimuli\\\\filler.mp4', 'robot_stimuli\\\\filler.mp4', 'robot_stimuli\\\\filler.mp4', 'robot_stimuli\\\\filler.mp4']",robot_stimuli\\filler.mp4,5,,,,,,,,,,,,,0,82,82,82,,,,,,,,,,,,,,,,,,,2117.3642489999997,2119.4288443,,,2128.1153363,2128.1153363,2128.1153363,1,0.1871749999999821,2128.3302097,2128.3302097,2128.3302097,2128.3302097,2128.3302097,2128.3302097,2128.3302097,2128.3302097,None,None,None,,,,,,,,,,2117.3642489999997,2117.3642489999997,None,,,2117.3642489999997,2117.3642489999997,2126.0902889999998,2128.1153363,5,001,2024-07-17_09h56.25.979,robot_cogshifting_sign,2022.2.5,59.97339580162343,
"['red_top_J_0', 'red_top_B_45', 'red_left_D_0', 'blue_top_J_0']","{'color': 'blue_top_J_0', 'position': 'red_left_D_0', 'orientation': 'red_top_B_45'}",position,['position'],red_left_D_0,2,1,letter,4,False,False,"['robot_stimuli\\\\filler.mp4', 'robot_stimuli\\\\filler.mp4', 'robot_stimuli\\\\filler.mp4', 'robot_stimuli\\\\filler.mp4']",robot_stimuli\\filler.mp4,5,,,,,,,,,,,,,0,83,83,83,,,,,,,,,,,,,,,,,,,2128.3302097,2130.3947743,,,2139.0764824,2139.0764824,2139.0764824,3,0.5309234000000771,2139.6307979,2139.6307979,2139.6307979,2139.6307979,2139.6307979,2139.6307979,2139.6307979,2139.6307979,None,None,None,,,,,,,,,,2128.3302097,2128.3302097,None,,,2128.3302097,2128.3302097,2137.0613892,2139.0764824,5,001,2024-07-17_09h56.25.979,robot_cogshifting_sign,2022.2.5,59.97339580162343,
"['blue_top_F_0', 'red_top_R_0', 'blue_left_R_0', 'blue_top_C_45']","{'color': 'red_top_R_0', 'position': 'blue_left_R_0', 'orientation': 'blue_top_C_45'}",orientation,['orientation'],blue_top_C_45,3,1,letter,4,False,False,"['robot_stimuli\\\\filler.mp4', 'robot_stimuli\\\\filler.mp4', 'robot_stimuli\\\\filler.mp4', 'robot_stimuli\\\\filler.mp4']",robot_stimuli\\filler.mp4,5,,,,,,,,,,,,,0,84,84,84,,,,,,,,,,,,,,,,,,,2139.6307979,2141.6859298,,,2150.3725836,2150.3725836,2150.3725836,4,0.28158870000011404,2150.6810672,2150.6810672,2150.6810672,2150.6810672,2150.6810672,2150.6810672,2150.6810672,2150.6810672,None,None,None,,,,,,,,,,2139.6307979,2139.6307979,None,,,2139.6307979,2139.6307979,2148.3594937,2150.3725836,5,001,2024-07-17_09h56.25.979,robot_cogshifting_sign,2022.2.5,59.97339580162343,
"['red_left_Z_0', 'blue_right_Z_0', 'blue_left_J_45', 'blue_left_B_0']","{'color': 'red_left_Z_0', 'position': 'blue_right_Z_0', 'orientation': 'blue_left_J_45'}",color,['color'],red_left_Z_0,0,1,letter,4,False,False,"['robot_stimuli\\\\filler.mp4', 'robot_stimuli\\\\filler.mp4', 'robot_stimuli\\\\filler.mp4', 'robot_stimuli\\\\filler.mp4']",robot_stimuli\\filler.mp4,5,,,,,,,,,,,,,0,85,85,85,,,,,,,,,,,,,,,,,,,2150.6810672,2152.7354221,,,2161.2156781,2161.2156781,2161.2156781,1,1.8633877000001604,2163.0973221,2163.0973221,2163.0973221,2163.0973221,2163.0973221,2163.0973221,2163.0973221,2163.0973221,None,None,None,,,,,,,,,,2150.6810672,2150.6810672,None,,,2150.6810672,2150.6810672,2159.1950906,2161.2156781,5,001,2024-07-17_09h56.25.979,robot_cogshifting_sign,2022.2.5,59.97339580162343,
"['red_left_F_0', 'red_bottom_J_0', 'blue_left_R_0', 'red_left_F_45']","{'color': 'blue_left_R_0', 'position': 'red_bottom_J_0', 'orientation': 'red_left_F_45'}",position,['position'],red_bottom_J_0,1,1,letter,4,False,False,"['robot_stimuli\\\\filler.mp4', 'robot_stimuli\\\\filler.mp4', 'robot_stimuli\\\\filler.mp4', 'robot_stimuli\\\\filler.mp4']",robot_stimuli\\filler.mp4,5,,,,,,,,,,,,,0,86,86,86,,,,,,,,,,,,,,,,,,,2163.0973221,2165.1535264,,,2173.8413421,2173.8413421,2173.8413421,2,0.5652853000000988,2174.430779,2174.430779,2174.430779,2174.430779,2174.430779,2174.430779,2174.430779,2174.430779,None,None,None,,,,,,,,,,2163.0973221,2163.0973221,None,,,2163.0973221,2163.0973221,2171.6209917,2173.8413421,5,001,2024-07-17_09h56.25.979,robot_cogshifting_sign,2022.2.5,59.97339580162343,
"['blue_left_D_0', 'blue_left_W_45', 'red_left_K_0', 'blue_bottom_W_0']","{'color': 'red_left_K_0', 'position': 'blue_bottom_W_0', 'orientation': 'blue_left_W_45'}",color,['color'],red_left_K_0,2,1,letter,4,False,False,"['robot_stimuli\\\\filler.mp4', 'robot_stimuli\\\\filler.mp4', 'robot_stimuli\\\\filler.mp4', 'robot_stimuli\\\\filler.mp4']",robot_stimuli\\filler.mp4,5,,,,,,,,,,,,,0,87,87,87,,,,,,,,,,,,,,,,,,,2174.430779,2176.4874217,,,2185.1645928,2185.1645928,2185.1645928,3,0.7307390000000424,2185.9141939,2185.9141939,2185.9141939,2185.9141939,2185.9141939,2185.9141939,2185.9141939,2185.9141939,None,None,None,,,,,,,,,,2174.430779,2174.430779,None,,,2174.430779,2174.430779,2182.9579786,2185.1645928,5,001,2024-07-17_09h56.25.979,robot_cogshifting_sign,2022.2.5,59.97339580162343,
"['red_top_M_45', 'blue_top_F_0', 'red_top_P_0', 'red_left_C_0']","{'color': 'blue_top_F_0', 'position': 'red_left_C_0', 'orientation': 'red_top_M_45'}",orientation,['orientation'],red_top_M_45,0,1,letter,4,False,False,"['robot_stimuli\\\\filler.mp4', 'robot_stimuli\\\\filler.mp4', 'robot_stimuli\\\\filler.mp4', 'robot_stimuli\\\\filler.mp4']",robot_stimuli\\filler.mp4,5,,,,,,,,,,,,,0,88,88,88,,,,,,,,,,,,,,,,,,,2185.9141939,2187.968048,,,2197.0408064,2197.0408064,2197.0408064,1,0.32550299999998344,2197.3972406,2197.3972406,2197.3972406,2197.3972406,2197.3972406,2197.3972406,2197.3972406,2197.3972406,None,None,None,,,,,,,,,,2185.9141939,2185.9141939,None,,,2185.9141939,2185.9141939,2194.8225422,2197.0408064,5,001,2024-07-17_09h56.25.979,robot_cogshifting_sign,2022.2.5,59.97339580162343,
"['red_left_G_0', 'blue_left_G_0', 'blue_bottom_R_0', 'blue_left_L_45']","{'color': 'red_left_G_0', 'position': 'blue_bottom_R_0', 'orientation': 'blue_left_L_45'}",color,['color'],red_left_G_0,0,1,letter,4,False,True,"['robot_stimuli\\\\filler.mp4', 'robot_stimuli\\\\filler.mp4', 'robot_stimuli\\\\filler.mp4', 'robot_stimuli\\\\filler.mp4']",robot_stimuli\\filler.mp4,5,,,,,,,,,,,,,0,89,89,89,,,,,,,,,,,,,,,,,,,2197.3972406,2199.4515983,,,2207.9404173,2207.9404173,2207.9404173,1,0.4505899000000255,2208.4387683,2213.6514359,2208.4387683,2213.6514359,2208.4387683,2213.6514359,2208.4387683,2213.6514359,22.12962962962963,3.4121362000000772,space,,,5.143708500000187,,,,,,,2197.3972406,2197.3972406,None,,,2197.3972406,2197.3972406,2205.9299118999998,2207.9404173,5,001,2024-07-17_09h56.25.979,robot_cogshifting_sign,2022.2.5,59.97339580162343,
"['blue_bottom_W_0', 'blue_left_P_45', 'red_bottom_B_45', 'blue_bottom_K_45']","{'color': 'red_bottom_B_45', 'position': 'blue_left_P_45', 'orientation': 'blue_bottom_W_0'}",orientation,"['color', 'orientation', 'position']",blue_bottom_W_0,0,3,letter,4,True,False,"['robot_stimuli\\\\filler.mp4', 'robot_stimuli\\\\filler.mp4', 'robot_stimuli\\\\filler.mp4', 'robot_stimuli\\\\filler.mp4']",robot_stimuli\\filler.mp4,5,,,,,,,,,,,,,0,90,90,90,,,,,,,,,,,,,,,,,,,2218.2306942,2220.2855927,,,2228.7616448999997,2228.7616448999997,2228.7616448999997,1,5.084317700000113,2233.8640916,2233.8640916,2233.8640916,2233.8640916,2233.8640916,2233.8640916,2233.8640916,2233.8640916,None,None,None,,,,,,,,,,2213.6514359,2213.6514359,space,4.54713500000021,,,,2226.7480638,2228.7616448999997,5,001,2024-07-17_09h56.25.979,robot_cogshifting_sign,2022.2.5,59.97339580162343,
"['blue_left_N_0', 'red_right_L_0', 'blue_right_L_0', 'blue_right_X_45']","{'color': 'red_right_L_0', 'position': 'blue_left_N_0', 'orientation': 'blue_right_X_45'}",color,"['color', 'orientation', 'position']",red_right_L_0,1,3,letter,4,False,False,"['robot_stimuli\\\\filler.mp4', 'robot_stimuli\\\\filler.mp4', 'robot_stimuli\\\\filler.mp4', 'robot_stimuli\\\\filler.mp4']",robot_stimuli\\filler.mp4,5,,,,,,,,,,,,,0,91,91,91,,,,,,,,,,,,,,,,,,,2233.8640916,2235.9248749,,,2244.4053000999997,2244.4053000999997,2244.4053000999997,2,1.5213544000002486,2245.947245,2245.947245,2245.947245,2245.947245,2245.947245,2245.947245,2245.947245,2245.947245,None,None,None,,,,,,,,,,2233.8640916,2233.8640916,None,,,2233.8640916,2233.8640916,2242.1865665,2244.4053000999997,5,001,2024-07-17_09h56.25.979,robot_cogshifting_sign,2022.2.5,59.97339580162343,
"['red_left_J_45', 'blue_left_W_0', 'red_left_Z_0', 'red_right_N_0']","{'color': 'blue_left_W_0', 'position': 'red_right_N_0', 'orientation': 'red_left_J_45'}",position,"['color', 'orientation', 'position']",red_right_N_0,3,3,letter,4,False,False,"['robot_stimuli\\\\filler.mp4', 'robot_stimuli\\\\filler.mp4', 'robot_stimuli\\\\filler.mp4', 'robot_stimuli\\\\filler.mp4']",robot_stimuli\\filler.mp4,5,,,,,,,,,,,,,0,92,92,92,,,,,,,,,,,,,,,,,,,2245.947245,2248.0017179,,,2256.6800425,2256.6800425,2256.6800425,4,0.5019286000001131,2257.2141639,2257.2141639,2257.2141639,2257.2141639,2257.2141639,2257.2141639,2257.2141639,2257.2141639,None,None,None,,,,,,,,,,2245.947245,2245.947245,None,,,2245.947245,2245.947245,2254.6612182,2256.6800425,5,001,2024-07-17_09h56.25.979,robot_cogshifting_sign,2022.2.5,59.97339580162343,
"['blue_bottom_Z_0', 'red_bottom_D_45', 'red_right_M_0', 'red_bottom_X_0']","{'color': 'blue_bottom_Z_0', 'position': 'red_right_M_0', 'orientation': 'red_bottom_D_45'}",position,"['color', 'orientation', 'position']",red_right_M_0,2,3,letter,4,False,False,"['robot_stimuli\\\\filler.mp4', 'robot_stimuli\\\\filler.mp4', 'robot_stimuli\\\\filler.mp4', 'robot_stimuli\\\\filler.mp4']",robot_stimuli\\filler.mp4,5,,,,,,,,,,,,,0,93,93,93,,,,,,,,,,,,,,,,,,,2257.2141639,2259.2691613,,,2267.9438578,2267.9438578,2267.9438578,3,4.030859500000091,2271.9972395,2271.9972395,2271.9972395,2271.9972395,2271.9972395,2271.9972395,2271.9972395,2271.9972395,None,None,None,,,,,,,,,,2257.2141639,2257.2141639,None,,,2257.2141639,2257.2141639,2265.926589,2267.9438578,5,001,2024-07-17_09h56.25.979,robot_cogshifting_sign,2022.2.5,59.97339580162343,
"['red_bottom_W_0', 'red_bottom_S_45', 'red_left_D_0', 'blue_bottom_T_0']","{'color': 'blue_bottom_T_0', 'position': 'red_left_D_0', 'orientation': 'red_bottom_S_45'}",color,"['color', 'orientation', 'position']",blue_bottom_T_0,3,3,letter,4,False,False,"['robot_stimuli\\\\filler.mp4', 'robot_stimuli\\\\filler.mp4', 'robot_stimuli\\\\filler.mp4', 'robot_stimuli\\\\filler.mp4']",robot_stimuli\\filler.mp4,5,,,,,,,,,,,,,0,94,94,94,,,,,,,,,,,,,,,,,,,2271.9972395,2274.0647102,,,2282.7414842,2282.7414842,2282.7414842,4,1.3371471999998477,2284.0974161,2284.0974161,2284.0974161,2284.0974161,2284.0974161,2284.0974161,2284.0974161,2284.0974161,None,None,None,,,,,,,,,,2271.9972395,2271.9972395,None,,,2271.9972395,2271.9972395,2280.7287662,2282.7414842,5,001,2024-07-17_09h56.25.979,robot_cogshifting_sign,2022.2.5,59.97339580162343,
"['blue_right_R_0', 'red_right_G_45', 'blue_bottom_G_45', 'blue_right_P_45']","{'color': 'red_right_G_45', 'position': 'blue_bottom_G_45', 'orientation': 'blue_right_R_0'}",position,"['color', 'orientation', 'position']",blue_bottom_G_45,2,3,letter,4,False,False,"['robot_stimuli\\\\filler.mp4', 'robot_stimuli\\\\filler.mp4', 'robot_stimuli\\\\filler.mp4', 'robot_stimuli\\\\filler.mp4']",robot_stimuli\\filler.mp4,5,,,,,,,,,,,,,0,95,95,95,,,,,,,,,,,,,,,,,,,2284.0974161,2286.1508623,,,2294.8387556,2294.8387556,2294.8387556,2,6.296237400000294,2301.1639462,2301.1639462,2301.1639462,2301.1639462,2301.1639462,2301.1639462,2301.1639462,2301.1639462,None,None,None,,,,,,,,,,2284.0974161,2284.0974161,None,,,2284.0974161,2284.0974161,2292.6262527999997,2294.8387556,5,001,2024-07-17_09h56.25.979,robot_cogshifting_sign,2022.2.5,59.97339580162343,
