sequence,is_target,condition,stimuli,block,is_block_beginning,is_block_ending,fname,subject,retraining.thisRepN,retraining.thisTrialN,retraining.thisN,retraining.thisIndex,training.thisRepN,training.thisTrialN,training.thisN,training.thisIndex,trials.thisRepN,trials.thisTrialN,trials.thisN,trials.thisIndex,langage_text.started,langage_key.started,langage_key.keys,langage_key.rt,intro_text.started,intro_key.started,intro_key.keys,intro_key.rt,training_robot_intro_text.started,training_robot_intro_key.started,training_robot_intro_key.keys,training_robot_intro_key.rt,cross.started,cross.stopped,training_letter.started,training_robot_key.started,training_robot_question.started,training_robot_keys.started,training_letter.stopped,training_robot_key.keys,RSME_labels.started,RSME_labels.stopped,RSME_ticks.started,RSME_ticks.stopped,RSME_text.started,RSME_text.stopped,RSME_key.started,RSME_key.stopped,RSME_ticks.response,RSME_ticks.rt,RSME_key.keys,training_robot_intro_text.stopped,training_robot_intro_key.stopped,training_robot_key.rt,RSME_key.rt,training_robot_movie.started,experiment_beginning_text.started,experiment_beginning_keys.started,experiment_beginning_key.started,experiment_beginning_key.keys,experiment_beginning_key.rt,block_intro_text.started,block_intro_key.started,block_intro_key.keys,block_intro_key.rt,movie.started,key.started,key.keys,key.rt,block_intro_text.stopped,block_intro_key.stopped,letter.started,letter.stopped,participant,session,date,expName,psychopyVersion,frameRate,
,,,,,,,,,,,,,,,,,,,,,13.607058899999998,13.607058899999998,f,634.2686616999999,,,,,,,,,,,,,,,,,,,,,,,,,,,,,,,,,,,,,,,,,,,,,,,,,,5,001,2024-06-07_13h51.21.659,robot_nback_sign,2022.2.5,59.9341443621769,
,,,,,,,,,,,,,,,,,,,,,,,,,647.9344136999999,647.9344136999999,space,262.09383950000006,,,,,,,,,,,,,,,,,,,,,,,,,,,,,,,,,,,,,,,,,,,,,,5,001,2024-06-07_13h51.21.659,robot_nback_sign,2022.2.5,59.9341443621769,
L,False,1,letter,2,True,False,robot_stimuli\\filler.mp4,5,0,0,0,0,0,0,0,0,,,,,,,,,,,,,910.0742915,910.0742915,space,6.066228999999879,916.1597502999999,917.6368446999999,917.6368446999999,917.6368446999999,917.6368446999999,917.6368446999999,919.9650614000001,None,919.9650614000001,919.9650614000001,919.9650614000001,919.9650614000001,919.9650614000001,919.9650614000001,919.9650614000001,919.9650614000001,None,None,None,,,,,,,,,,,,,,,,,,,,,,,5,001,2024-06-07_13h51.21.659,robot_nback_sign,2022.2.5,59.9341443621769,
P,False,1,letter,2,False,False,robot_stimuli\\filler.mp4,5,0,0,0,0,0,1,1,1,,,,,,,,,,,,,919.9650614000001,919.9650614000001,None,,919.9650614000001,,921.0430456,921.0430456,921.0430456,921.0430456,923.0738508000001,n,923.0738508000001,923.0738508000001,923.0738508000001,923.0738508000001,923.0738508000001,923.0738508000001,923.0738508000001,923.0738508000001,None,None,None,919.9650614000001,919.9650614000001,0.7773471999999799,,,,,,,,,,,,,,,,,,,,5,001,2024-06-07_13h51.21.659,robot_nback_sign,2022.2.5,59.9341443621769,
P,True,1,letter,2,False,False,robot_stimuli\\filler.mp4,5,0,0,0,0,0,2,2,2,,,,,,,,,,,,,923.0738508000001,923.0738508000001,None,,923.0738508000001,924.1451450999999,924.1451450999999,924.1451450999999,924.1451450999999,924.1451450999999,926.3727734,c,926.3727734,926.3727734,926.3727734,926.3727734,926.3727734,926.3727734,926.3727734,926.3727734,None,None,None,923.0738508000001,923.0738508000001,1.8188475999998843,,,,,,,,,,,,,,,,,,,,5,001,2024-06-07_13h51.21.659,robot_nback_sign,2022.2.5,59.9341443621769,
S,False,1,letter,2,False,False,robot_stimuli\\filler.mp4,5,0,0,0,0,0,3,3,3,,,,,,,,,,,,,926.3727734,926.3727734,None,,926.3727734,927.4441972999999,927.4441972999999,927.4441972999999,927.4441972999999,927.4441972999999,929.4768819,n,929.4768819,929.4768819,929.4768819,929.4768819,929.4768819,929.4768819,929.4768819,929.4768819,None,None,None,926.3727734,926.3727734,1.3038913000001173,,,,,,,,,,,,,,,,,,,,5,001,2024-06-07_13h51.21.659,robot_nback_sign,2022.2.5,59.9341443621769,
S,True,1,letter,2,False,False,robot_stimuli\\filler.mp4,5,0,0,0,0,0,4,4,4,,,,,,,,,,,,,929.4768819,929.4768819,None,,929.4768819,930.5465247999999,930.5465247999999,930.5465247999999,930.5465247999999,930.5465247999999,932.7794987999999,None,932.7794987999999,932.7794987999999,932.7794987999999,932.7794987999999,932.7794987999999,932.7794987999999,932.7794987999999,932.7794987999999,None,None,None,929.4768819,929.4768819,,,,,,,,,,,,,,,,,,,,,5,001,2024-06-07_13h51.21.659,robot_nback_sign,2022.2.5,59.9341443621769,
T,False,1,letter,2,False,True,robot_stimuli\\filler.mp4,5,0,0,0,0,0,5,5,5,,,,,,,,,,,,,932.7794987999999,932.7794987999999,None,,932.7794987999999,,933.8605194999999,933.8605194999999,933.8605194999999,933.8605194999999,935.9504825,n,935.9504825,963.4596315,935.9504825,963.4596315,935.9504825,963.4596315,935.9504825,963.4596315,60.401234567901234,24.415323899999976,space,932.7794987999999,932.7794987999999,1.0152171000000578,27.43766089999994,,,,,,,,,,,,,,,,,,,5,001,2024-06-07_13h51.21.659,robot_nback_sign,2022.2.5,59.9341443621769,
Z,False,2,letter,2,True,False,robot_stimuli\\filler.mp4,5,0,0,0,0,0,6,6,6,,,,,,,,,,,,,963.4596315,963.4596315,space,6.9928091999998685,970.4765392,971.5493121999999,971.5493121999999,971.5493121999999,971.5493121999999,971.5493121999999,973.7794711,None,973.7794711,973.7794711,973.7794711,973.7794711,973.7794711,973.7794711,973.7794711,973.7794711,None,None,None,,,,,,,,,,,,,,,,,,,,,,,5,001,2024-06-07_13h51.21.659,robot_nback_sign,2022.2.5,59.9341443621769,
V,False,2,letter,2,False,False,robot_stimuli\\filler.mp4,5,0,0,0,0,0,7,7,7,,,,,,,,,,,,,973.7794711,973.7794711,None,,973.7794711,,974.8608651999999,974.8608651999999,974.8608651999999,974.8608651999999,976.8923822999999,n,976.8923822999999,976.8923822999999,976.8923822999999,976.8923822999999,976.8923822999999,976.8923822999999,976.8923822999999,976.8923822999999,None,None,None,973.7794711,973.7794711,0.8955378000001417,,,,,,,,,,,,,,,,,,,,5,001,2024-06-07_13h51.21.659,robot_nback_sign,2022.2.5,59.9341443621769,
Z,True,2,letter,2,False,False,robot_stimuli\\filler.mp4,5,0,0,0,0,0,8,8,8,,,,,,,,,,,,,976.8923822999999,976.8923822999999,None,,976.8923822999999,977.9584483,977.9584483,977.9584483,977.9584483,977.9584483,979.9931960999999,c,979.9931960999999,979.9931960999999,979.9931960999999,979.9931960999999,979.9931960999999,979.9931960999999,979.9931960999999,979.9931960999999,None,None,None,976.8923822999999,976.8923822999999,0.7263590999999394,,,,,,,,,,,,,,,,,,,,5,001,2024-06-07_13h51.21.659,robot_nback_sign,2022.2.5,59.9341443621769,
V,True,2,letter,2,False,False,robot_stimuli\\filler.mp4,5,0,0,0,0,0,9,9,9,,,,,,,,,,,,,979.9931960999999,979.9931960999999,None,,979.9931960999999,981.0597896999999,981.0597896999999,981.0597896999999,981.0597896999999,981.0597896999999,983.0949668,c,983.0949668,983.0949668,983.0949668,983.0949668,983.0949668,983.0949668,983.0949668,983.0949668,None,None,None,979.9931960999999,979.9931960999999,1.2810030999999924,,,,,,,,,,,,,,,,,,,,5,001,2024-06-07_13h51.21.659,robot_nback_sign,2022.2.5,59.9341443621769,
X,False,2,letter,2,False,False,robot_stimuli\\filler.mp4,5,0,0,0,0,0,10,10,10,,,,,,,,,,,,,983.0949668,983.0949668,None,,983.0949668,,984.1782118,984.1782118,984.1782118,984.1782118,986.4122882999999,n,986.4122882999999,986.4122882999999,986.4122882999999,986.4122882999999,986.4122882999999,986.4122882999999,986.4122882999999,986.4122882999999,None,None,None,983.0949668,983.0949668,0.5627152999998941,,,,,,,,,,,,,,,,,,,,5,001,2024-06-07_13h51.21.659,robot_nback_sign,2022.2.5,59.9341443621769,
D,False,2,letter,2,False,True,robot_stimuli\\filler.mp4,5,0,0,0,0,0,11,11,11,,,,,,,,,,,,,986.4122882999999,986.4122882999999,None,,986.4122882999999,,987.4931697000001,987.4931697000001,987.4931697000001,987.4931697000001,989.5512499,n,989.5512499,997.5242331999999,989.5512499,997.5242331999999,989.5512499,997.5242331999999,989.5512499,997.5242331999999,37.40740740740741,6.1492955999999594,space,986.4122882999999,986.4122882999999,0.6233032000000946,7.908506699999947,,,,,,,,,,,,,,,,,,,5,001,2024-06-07_13h51.21.659,robot_nback_sign,2022.2.5,59.9341443621769,
P,False,3,letter,2,True,False,robot_stimuli\\filler.mp4,5,0,0,0,0,0,12,12,12,,,,,,,,,,,,,997.5242331999999,997.5242331999999,space,6.158951299999984,1003.709919,1004.7786722,1004.7786722,1004.7786722,1004.7786722,1004.7786722,1007.0068299000001,n,1007.0068299000001,1007.0068299000001,1007.0068299000001,1007.0068299000001,1007.0068299000001,1007.0068299000001,1007.0068299000001,1007.0068299000001,None,None,None,,,1.4664647000000457,,,,,,,,,,,,,,,,,,,,5,001,2024-06-07_13h51.21.659,robot_nback_sign,2022.2.5,59.9341443621769,
V,False,3,letter,2,False,False,robot_stimuli\\filler.mp4,5,0,0,0,0,0,13,13,13,,,,,,,,,,,,,1007.0068299000001,1007.0068299000001,None,,1007.0068299000001,1008.0776422999999,1008.0776422999999,1008.0776422999999,1008.0776422999999,1008.0776422999999,1010.1039623999999,n,1010.1039623999999,1010.1039623999999,1010.1039623999999,1010.1039623999999,1010.1039623999999,1010.1039623999999,1010.1039623999999,1010.1039623999999,None,None,None,1007.0068299000001,1007.0068299000001,0.7116332999999884,,,,,,,,,,,,,,,,,,,,5,001,2024-06-07_13h51.21.659,robot_nback_sign,2022.2.5,59.9341443621769,
H,False,3,letter,2,False,False,robot_stimuli\\filler.mp4,5,0,0,0,0,0,14,14,14,,,,,,,,,,,,,1010.1039623999999,1010.1039623999999,None,,1010.1039623999999,1011.1786097999999,1011.1786097999999,1011.1786097999999,1011.1786097999999,1011.1786097999999,1013.4152341999999,n,1013.4152341999999,1013.4152341999999,1013.4152341999999,1013.4152341999999,1013.4152341999999,1013.4152341999999,1013.4152341999999,1013.4152341999999,None,None,None,1010.1039623999999,1010.1039623999999,0.8087124999998139,,,,,,,,,,,,,,,,,,,,5,001,2024-06-07_13h51.21.659,robot_nback_sign,2022.2.5,59.9341443621769,
P,True,3,letter,2,False,False,robot_stimuli\\filler.mp4,5,0,0,0,0,0,15,15,15,,,,,,,,,,,,,1013.4152341999999,1013.4152341999999,None,,1013.4152341999999,1014.4907365,1014.4907365,1014.4907365,1014.4907365,1014.4907365,1016.5249688999999,None,1016.5249688999999,1016.5249688999999,1016.5249688999999,1016.5249688999999,1016.5249688999999,1016.5249688999999,1016.5249688999999,1016.5249688999999,None,None,None,1013.4152341999999,1013.4152341999999,,,,,,,,,,,,,,,,,,,,,5,001,2024-06-07_13h51.21.659,robot_nback_sign,2022.2.5,59.9341443621769,
V,True,3,letter,2,False,False,robot_stimuli\\filler.mp4,5,0,0,0,0,0,16,16,16,,,,,,,,,,,,,1016.5249688999999,1016.5249688999999,None,,1016.5249688999999,1017.5905157000001,1017.5905157000001,1017.5905157000001,1017.5905157000001,1017.5905157000001,1019.6214214999999,c,1019.6214214999999,1019.6214214999999,1019.6214214999999,1019.6214214999999,1019.6214214999999,1019.6214214999999,1019.6214214999999,1019.6214214999999,None,None,None,1016.5249688999999,1016.5249688999999,1.254258300000032,,,,,,,,,,,,,,,,,,,,5,001,2024-06-07_13h51.21.659,robot_nback_sign,2022.2.5,59.9341443621769,
J,False,3,letter,2,False,True,robot_stimuli\\filler.mp4,5,0,0,0,0,0,17,17,17,,,,,,,,,,,,,1019.6214214999999,1019.6214214999999,None,,1019.6214214999999,1020.6938193,1020.6938193,1020.6938193,1020.6938193,1020.6938193,1022.7499136999999,n,1022.7499136999999,1028.0379668,1022.7499136999999,1028.0379668,1022.7499136999999,1028.0379668,1022.7499136999999,1028.0379668,47.74691358024691,4.0233932000001005,space,1019.6214214999999,1019.6214214999999,1.3982730999999546,5.222024300000015,,,,,,,,,,,,,,,,,,,5,001,2024-06-07_13h51.21.659,robot_nback_sign,2022.2.5,59.9341443621769,
R_Head_Z_Back,False,1,robot,1,True,False,robot_stimuli\R_Head_Z_Back.mp4,5,0,0,0,0,0,18,18,18,,,,,,,,,,,,,1028.0379668,1028.0379668,space,6.703050199999865,1034.7599691,1035.8815441000002,,1035.8815441000002,1035.8815441000002,1035.8815441000002,,None,1039.5041481,1039.5041481,1039.5041481,1039.5041481,1039.5041481,1039.5041481,1039.5041481,1039.5041481,None,None,None,,,,,1035.8815441000002,,,,,,,,,,,,,,,,,,5,001,2024-06-07_13h51.21.659,robot_nback_sign,2022.2.5,59.9341443621769,
R_Base_Y_For,False,1,robot,1,False,False,robot_stimuli\R_Base_Y_For.mp4,5,0,0,0,0,0,19,19,19,,,,,,,,,,,,,1039.5041481,1039.5041481,None,,1039.5041481,1040.6148484,,1040.6148484,1040.6148484,1040.6148484,,n,1044.2580392,1044.2580392,1044.2580392,1044.2580392,1044.2580392,1044.2580392,1044.2580392,1044.2580392,None,None,None,1039.5041481,1039.5041481,1.900882699999869,,1040.6148484,,,,,,,,,,,,,,,,,,5,001,2024-06-07_13h51.21.659,robot_nback_sign,2022.2.5,59.9341443621769,
L_Torso_Z_For,False,1,robot,1,False,False,robot_stimuli\L_Torso_Z_For.mp4,5,0,0,0,0,0,20,20,20,,,,,,,,,,,,,1044.2580392,1044.2580392,None,,1044.2580392,1045.3601306,,1045.3601306,1045.3601306,1045.3601306,,n,1049.006969,1049.006969,1049.006969,1049.006969,1049.006969,1049.006969,1049.006969,1049.006969,None,None,None,1044.2580392,1044.2580392,1.292009700000193,,1045.3601306,,,,,,,,,,,,,,,,,,5,001,2024-06-07_13h51.21.659,robot_nback_sign,2022.2.5,59.9341443621769,
R_Base_Z_For,False,1,robot,1,False,False,robot_stimuli\R_Base_Z_For.mp4,5,0,0,0,0,0,21,21,21,,,,,,,,,,,,,1049.006969,1049.006969,None,,1049.006969,1050.1119202,,1050.1119202,1050.1119202,1050.1119202,,c,1053.7556451,1053.7556451,1053.7556451,1053.7556451,1053.7556451,1053.7556451,1053.7556451,1053.7556451,None,None,None,1049.006969,1049.006969,2.6208322999999325,,1050.1119202,,,,,,,,,,,,,,,,,,5,001,2024-06-07_13h51.21.659,robot_nback_sign,2022.2.5,59.9341443621769,
R_Base_Z_For,True,1,robot,1,False,False,robot_stimuli\R_Base_Z_For.mp4,5,0,0,0,0,0,22,22,22,,,,,,,,,,,,,1053.7556451,1053.7556451,None,,1053.7556451,1054.8545719,,1054.8545719,1054.8545719,1054.8545719,,c,1058.4945972,1058.4945972,1058.4945972,1058.4945972,1058.4945972,1058.4945972,1058.4945972,1058.4945972,None,None,None,1053.7556451,1053.7556451,1.9815485999998543,,1054.8545719,,,,,,,,,,,,,,,,,,5,001,2024-06-07_13h51.21.659,robot_nback_sign,2022.2.5,59.9341443621769,
R_Base_Z_For,True,1,robot,1,False,True,robot_stimuli\R_Base_Z_For.mp4,5,0,0,0,0,0,23,23,23,,,,,,,,,,,,,1058.4945972,1058.4945972,None,,1058.4945972,,,1059.6060057000002,1059.6060057000002,1059.6060057000002,,c,1063.2655567000002,1068.0141922,1063.2655567000002,1068.0141922,1063.2655567000002,1068.0141922,1063.2655567000002,1068.0141922,45.74074074074074,2.8745916000000307,space,1058.4945972,1058.4945972,2.1180783999999164,4.706149200000112,1059.6060057000002,,,,,,,,,,,,,,,,,,5,001,2024-06-07_13h51.21.659,robot_nback_sign,2022.2.5,59.9341443621769,
R_Head_Y_For,False,2,robot,1,True,False,robot_stimuli\R_Head_Y_For.mp4,5,0,0,0,0,0,24,24,24,,,,,,,,,,,,,1068.0141922,1068.0141922,space,1.8543846999999403,1069.8934385,1070.9879034,,1070.9879034,1070.9879034,1070.9879034,,n,1074.6218364000001,1074.6218364000001,1074.6218364000001,1074.6218364000001,1074.6218364000001,1074.6218364000001,1074.6218364000001,1074.6218364000001,None,None,None,,,1.9516817999998182,,1070.9879034,,,,,,,,,,,,,,,,,,5,001,2024-06-07_13h51.21.659,robot_nback_sign,2022.2.5,59.9341443621769,
R_Head_Y_For,False,2,robot,1,False,False,robot_stimuli\R_Head_Y_For.mp4,5,0,0,0,0,0,25,25,25,,,,,,,,,,,,,1074.6218364000001,1074.6218364000001,None,,1074.6218364000001,1075.7224582000001,,1075.7224582000001,1075.7224582000001,1075.7224582000001,,n,1079.3743148,1079.3743148,1079.3743148,1079.3743148,1079.3743148,1079.3743148,1079.3743148,1079.3743148,None,None,None,1074.6218364000001,1074.6218364000001,1.6502366000000563,,1075.7224582000001,,,,,,,,,,,,,,,,,,5,001,2024-06-07_13h51.21.659,robot_nback_sign,2022.2.5,59.9341443621769,
R_Head_Y_For,True,2,robot,1,False,False,robot_stimuli\R_Head_Y_For.mp4,5,0,0,0,0,0,26,26,26,,,,,,,,,,,,,1079.3743148,1079.3743148,None,,1079.3743148,1080.4678294,,1080.4678294,1080.4678294,1080.4678294,,c,1084.1106182,1084.1106182,1084.1106182,1084.1106182,1084.1106182,1084.1106182,1084.1106182,1084.1106182,None,None,None,1079.3743148,1079.3743148,1.9918117999999083,,1080.4678294,,,,,,,,,,,,,,,,,,5,001,2024-06-07_13h51.21.659,robot_nback_sign,2022.2.5,59.9341443621769,
L_Arm_X_Back,False,2,robot,1,False,False,robot_stimuli\L_Arm_X_Back.mp4,5,0,0,0,0,0,27,27,27,,,,,,,,,,,,,1084.1106182,1084.1106182,None,,1084.1106182,1085.2068821,,1085.2068821,1085.2068821,1085.2068821,,n,1088.8616696000001,1088.8616696000001,1088.8616696000001,1088.8616696000001,1088.8616696000001,1088.8616696000001,1088.8616696000001,1088.8616696000001,None,None,None,1084.1106182,1084.1106182,1.5968132000001276,,1085.2068821,,,,,,,,,,,,,,,,,,5,001,2024-06-07_13h51.21.659,robot_nback_sign,2022.2.5,59.9341443621769,
R_Torso_Z_Back,False,2,robot,1,False,False,robot_stimuli\R_Torso_Z_Back.mp4,5,0,0,0,0,0,28,28,28,,,,,,,,,,,,,1088.8616696000001,1088.8616696000001,None,,1088.8616696000001,,,1089.9725358,1089.9725358,1089.9725358,,n,1093.6045056,1093.6045056,1093.6045056,1093.6045056,1093.6045056,1093.6045056,1093.6045056,1093.6045056,None,None,None,1088.8616696000001,1088.8616696000001,2.5199458999998967,,1089.9725358,,,,,,,,,,,,,,,,,,5,001,2024-06-07_13h51.21.659,robot_nback_sign,2022.2.5,59.9341443621769,
L_Arm_X_Back,True,2,robot,1,False,True,robot_stimuli\L_Arm_X_Back.mp4,5,0,0,0,0,0,29,29,29,,,,,,,,,,,,,1093.6045056,1093.6045056,None,,1093.6045056,1094.7036816,,1094.7036816,1094.7036816,1094.7036816,,c,1098.3729189,1103.6555493,1098.3729189,1103.6555493,1098.3729189,1103.6555493,1098.3729189,1103.6555493,37.87037037037037,4.147164200000134,space,1093.6045056,1093.6045056,1.4691974000000698,5.230873399999922,1094.7036816,,,,,,,,,,,,,,,,,,5,001,2024-06-07_13h51.21.659,robot_nback_sign,2022.2.5,59.9341443621769,
L_Arm_Z_For,False,3,robot,1,True,False,robot_stimuli\L_Arm_Z_For.mp4,5,0,0,0,0,0,30,30,30,,,,,,,,,,,,,1103.6555493,1103.6555493,space,1.0855955000000392,1104.7600784,1105.8428331,,1105.8428331,1105.8428331,1105.8428331,,n,1109.4933382000002,1109.4933382000002,1109.4933382000002,1109.4933382000002,1109.4933382000002,1109.4933382000002,1109.4933382000002,1109.4933382000002,None,None,None,,,3.0011531999999477,,1105.8428331,,,,,,,,,,,,,,,,,,5,001,2024-06-07_13h51.21.659,robot_nback_sign,2022.2.5,59.9341443621769,
R_Head_Z_For,False,3,robot,1,False,False,robot_stimuli\R_Head_Z_For.mp4,5,0,0,0,0,0,31,31,31,,,,,,,,,,,,,1109.4933382000002,1109.4933382000002,None,,1109.4933382000002,1110.5852406000001,,1110.5852406000001,1110.5852406000001,1110.5852406000001,,n,1114.2280229,1114.2280229,1114.2280229,1114.2280229,1114.2280229,1114.2280229,1114.2280229,1114.2280229,None,None,None,1109.4933382000002,1109.4933382000002,2.794094899999976,,1110.5852406000001,,,,,,,,,,,,,,,,,,5,001,2024-06-07_13h51.21.659,robot_nback_sign,2022.2.5,59.9341443621769,
L_Torso_Y_For,False,3,robot,1,False,False,robot_stimuli\L_Torso_Y_For.mp4,5,0,0,0,0,0,32,32,32,,,,,,,,,,,,,1114.2280229,1114.2280229,None,,1114.2280229,,,1115.3383395,1115.3383395,1115.3383395,,n,1118.9816495,1118.9816495,1118.9816495,1118.9816495,1118.9816495,1118.9816495,1118.9816495,1118.9816495,None,None,None,1114.2280229,1114.2280229,2.425007799999861,,1115.3383395,,,,,,,,,,,,,,,,,,5,001,2024-06-07_13h51.21.659,robot_nback_sign,2022.2.5,59.9341443621769,
L_Arm_Z_For,True,3,robot,1,False,False,robot_stimuli\L_Arm_Z_For.mp4,5,0,0,0,0,0,33,33,33,,,,,,,,,,,,,1118.9816495,1118.9816495,None,,1118.9816495,1120.0880104,,1120.0880104,1120.0880104,1120.0880104,,n,1123.7200628,1123.7200628,1123.7200628,1123.7200628,1123.7200628,1123.7200628,1123.7200628,1123.7200628,None,None,None,1118.9816495,1118.9816495,2.9566101999999717,,1120.0880104,,,,,,,,,,,,,,,,,,5,001,2024-06-07_13h51.21.659,robot_nback_sign,2022.2.5,59.9341443621769,
L_Arm_X_Back,False,3,robot,1,False,False,robot_stimuli\L_Arm_X_Back.mp4,5,0,0,0,0,0,34,34,34,,,,,,,,,,,,,1123.7200628,1123.7200628,None,,1123.7200628,1124.8096573,,1124.8096573,1124.8096573,1124.8096573,,n,1128.4594767,1128.4594767,1128.4594767,1128.4594767,1128.4594767,1128.4594767,1128.4594767,1128.4594767,None,None,None,1123.7200628,1123.7200628,3.210850499999964,,1124.8096573,,,,,,,,,,,,,,,,,,5,001,2024-06-07_13h51.21.659,robot_nback_sign,2022.2.5,59.9341443621769,
L_Torso_Y_For,True,3,robot,1,False,True,robot_stimuli\L_Torso_Y_For.mp4,5,0,0,0,0,0,35,35,35,,,,,,,,,,,,,1128.4594767,1128.4594767,None,,1128.4594767,1129.5443380000002,,1129.5443380000002,1129.5443380000002,1129.5443380000002,,None,1133.2252383,1140.2165691,1133.2252383,1140.2165691,1133.2252383,1140.2165691,1133.2252383,1140.2165691,61.635802469135804,4.78345400000012,space,1128.4594767,1128.4594767,,6.915461399999998,1129.5443380000002,,,,,,,,,,,,,,,,,,5,001,2024-06-07_13h51.21.659,robot_nback_sign,2022.2.5,59.9341443621769,
,,,,,,,,,0,0,0,0,,,,,,,,,,,,,,,,,,,,,,,,,,,,,,,,,,,,,,,,,,,,,1140.2165691,1140.2165691,1140.2165691,n,2.3400420999999767,,,,,,,,,,,,,5,001,2024-06-07_13h51.21.659,robot_nback_sign,2022.2.5,59.9341443621769,
L,False,1,letter,2,True,False,robot_stimuli\\filler.mp4,5,1,0,1,0,0,0,0,0,,,,,,,,,,,,,1142.5772437,1142.5772437,space,4.218213500000132,1146.8270384,1147.900932,1147.900932,1147.900932,1147.900932,1147.900932,1150.1242219,n,1150.1242219,1150.1242219,1150.1242219,1150.1242219,1150.1242219,1150.1242219,1150.1242219,1150.1242219,None,None,None,,,1.4072832000000233,,,,,,,,,,,,,,,,,,,,5,001,2024-06-07_13h51.21.659,robot_nback_sign,2022.2.5,59.9341443621769,
P,False,1,letter,2,False,False,robot_stimuli\\filler.mp4,5,1,0,1,0,0,1,1,1,,,,,,,,,,,,,1150.1242219,1150.1242219,None,,1150.1242219,1151.181876,1151.181876,1151.181876,1151.181876,1151.181876,1153.2148773000001,n,1153.2148773000001,1153.2148773000001,1153.2148773000001,1153.2148773000001,1153.2148773000001,1153.2148773000001,1153.2148773000001,1153.2148773000001,None,None,None,1150.1242219,1150.1242219,0.9736138000001517,,,,,,,,,,,,,,,,,,,,5,001,2024-06-07_13h51.21.659,robot_nback_sign,2022.2.5,59.9341443621769,
P,True,1,letter,2,False,False,robot_stimuli\\filler.mp4,5,1,0,1,0,0,2,2,2,,,,,,,,,,,,,1153.2148773000001,1153.2148773000001,None,,1153.2148773000001,1154.2897112,1154.2897112,1154.2897112,1154.2897112,1154.2897112,1156.3263461000001,c,1156.3263461000001,1156.3263461000001,1156.3263461000001,1156.3263461000001,1156.3263461000001,1156.3263461000001,1156.3263461000001,1156.3263461000001,None,None,None,1153.2148773000001,1153.2148773000001,0.6831903999999156,,,,,,,,,,,,,,,,,,,,5,001,2024-06-07_13h51.21.659,robot_nback_sign,2022.2.5,59.9341443621769,
S,False,1,letter,2,False,False,robot_stimuli\\filler.mp4,5,1,0,1,0,0,3,3,3,,,,,,,,,,,,,1156.3263461000001,1156.3263461000001,None,,1156.3263461000001,1157.3836728,1157.3836728,1157.3836728,1157.3836728,1157.3836728,1159.4072559,n,1159.4072559,1159.4072559,1159.4072559,1159.4072559,1159.4072559,1159.4072559,1159.4072559,1159.4072559,None,None,None,1156.3263461000001,1156.3263461000001,0.8768703000001494,,,,,,,,,,,,,,,,,,,,5,001,2024-06-07_13h51.21.659,robot_nback_sign,2022.2.5,59.9341443621769,
S,True,1,letter,2,False,False,robot_stimuli\\filler.mp4,5,1,0,1,0,0,4,4,4,,,,,,,,,,,,,1159.4072559,1159.4072559,None,,1159.4072559,1160.4627083,1160.4627083,1160.4627083,1160.4627083,1160.4627083,1162.4947534,c,1162.4947534,1162.4947534,1162.4947534,1162.4947534,1162.4947534,1162.4947534,1162.4947534,1162.4947534,None,None,None,1159.4072559,1159.4072559,0.7576294999999789,,,,,,,,,,,,,,,,,,,,5,001,2024-06-07_13h51.21.659,robot_nback_sign,2022.2.5,59.9341443621769,
T,False,1,letter,2,False,True,robot_stimuli\\filler.mp4,5,1,0,1,0,0,5,5,5,,,,,,,,,,,,,1162.4947534,1162.4947534,None,,1162.4947534,,1163.5782281000002,1163.5782281000002,1163.5782281000002,1163.5782281000002,1165.8375219000002,n,1165.8375219000002,1171.6868171,1165.8375219000002,1171.6868171,1165.8375219000002,1171.6868171,1165.8375219000002,1171.6868171,25.67901234567901,3.258181400000012,space,1162.4947534,1162.4947534,1.0815337999998462,5.798645200000095,,,,,,,,,,,,,,,,,,,5,001,2024-06-07_13h51.21.659,robot_nback_sign,2022.2.5,59.9341443621769,
Z,False,2,letter,2,True,False,robot_stimuli\\filler.mp4,5,1,0,1,0,0,6,6,6,,,,,,,,,,,,,1171.6868171,1171.6868171,space,0.5726861999999926,1172.2765245,1173.3365837000001,1173.3365837000001,1173.3365837000001,1173.3365837000001,1173.3365837000001,1175.5644831000002,None,1175.5644831000002,1175.5644831000002,1175.5644831000002,1175.5644831000002,1175.5644831000002,1175.5644831000002,1175.5644831000002,1175.5644831000002,None,None,None,,,,,,,,,,,,,,,,,,,,,,,5,001,2024-06-07_13h51.21.659,robot_nback_sign,2022.2.5,59.9341443621769,
V,False,2,letter,2,False,False,robot_stimuli\\filler.mp4,5,1,0,1,0,0,7,7,7,,,,,,,,,,,,,1175.5644831000002,1175.5644831000002,None,,1175.5644831000002,1176.6311599,1176.6311599,1176.6311599,1176.6311599,1176.6311599,1178.8575156000002,n,1178.8575156000002,1178.8575156000002,1178.8575156000002,1178.8575156000002,1178.8575156000002,1178.8575156000002,1178.8575156000002,1178.8575156000002,None,None,None,1175.5644831000002,1175.5644831000002,0.868286399999846,,,,,,,,,,,,,,,,,,,,5,001,2024-06-07_13h51.21.659,robot_nback_sign,2022.2.5,59.9341443621769,
Z,True,2,letter,2,False,False,robot_stimuli\\filler.mp4,5,1,0,1,0,0,8,8,8,,,,,,,,,,,,,1178.8575156000002,1178.8575156000002,None,,1178.8575156000002,1179.9256083,1179.9256083,1179.9256083,1179.9256083,1179.9256083,1181.9493647000002,c,1181.9493647000002,1181.9493647000002,1181.9493647000002,1181.9493647000002,1181.9493647000002,1181.9493647000002,1181.9493647000002,1181.9493647000002,None,None,None,1178.8575156000002,1178.8575156000002,0.6216130999999621,,,,,,,,,,,,,,,,,,,,5,001,2024-06-07_13h51.21.659,robot_nback_sign,2022.2.5,59.9341443621769,
V,True,2,letter,2,False,False,robot_stimuli\\filler.mp4,5,1,0,1,0,0,9,9,9,,,,,,,,,,,,,1181.9493647000002,1181.9493647000002,None,,1181.9493647000002,1183.0144035,1183.0144035,1183.0144035,1183.0144035,1183.0144035,1185.2438117000002,c,1185.2438117000002,1185.2438117000002,1185.2438117000002,1185.2438117000002,1185.2438117000002,1185.2438117000002,1185.2438117000002,1185.2438117000002,None,None,None,1181.9493647000002,1181.9493647000002,0.7510605999999314,,,,,,,,,,,,,,,,,,,,5,001,2024-06-07_13h51.21.659,robot_nback_sign,2022.2.5,59.9341443621769,
X,False,2,letter,2,False,False,robot_stimuli\\filler.mp4,5,1,0,1,0,0,10,10,10,,,,,,,,,,,,,1185.2438117000002,1185.2438117000002,None,,1185.2438117000002,1186.2987701000002,1186.2987701000002,1186.2987701000002,1186.2987701000002,1186.2987701000002,1188.53096,n,1188.53096,1188.53096,1188.53096,1188.53096,1188.53096,1188.53096,1188.53096,1188.53096,None,None,None,1185.2438117000002,1185.2438117000002,0.8813198999999656,,,,,,,,,,,,,,,,,,,,5,001,2024-06-07_13h51.21.659,robot_nback_sign,2022.2.5,59.9341443621769,
D,False,2,letter,2,False,True,robot_stimuli\\filler.mp4,5,1,0,1,0,0,11,11,11,,,,,,,,,,,,,1188.53096,1188.53096,None,,1188.53096,1189.5972522000002,1189.5972522000002,1189.5972522000002,1189.5972522000002,1189.5972522000002,1191.649646,n,1191.649646,1195.6567517,1191.649646,1195.6567517,1191.649646,1195.6567517,1191.649646,1195.6567517,27.22222222222222,2.853023000000121,space,1188.53096,1188.53096,0.7350552999999707,3.9460977000001947,,,,,,,,,,,,,,,,,,,5,001,2024-06-07_13h51.21.659,robot_nback_sign,2022.2.5,59.9341443621769,
P,False,3,letter,2,True,False,robot_stimuli\\filler.mp4,5,1,0,1,0,0,12,12,12,,,,,,,,,,,,,1195.6567517,1195.6567517,space,0.5066841999999667,1196.1937803,1197.2569950000002,1197.2569950000002,1197.2569950000002,1197.2569950000002,1197.2569950000002,1199.4752176000002,n,1199.4752176000002,1199.4752176000002,1199.4752176000002,1199.4752176000002,1199.4752176000002,1199.4752176000002,1199.4752176000002,1199.4752176000002,None,None,None,,,1.1957209999999066,,,,,,,,,,,,,,,,,,,,5,001,2024-06-07_13h51.21.659,robot_nback_sign,2022.2.5,59.9341443621769,
V,False,3,letter,2,False,False,robot_stimuli\\filler.mp4,5,1,0,1,0,0,13,13,13,,,,,,,,,,,,,1199.4752176000002,1199.4752176000002,None,,1199.4752176000002,1200.5410865000001,1200.5410865000001,1200.5410865000001,1200.5410865000001,1200.5410865000001,1202.5766988,n,1202.5766988,1202.5766988,1202.5766988,1202.5766988,1202.5766988,1202.5766988,1202.5766988,1202.5766988,None,None,None,1199.4752176000002,1199.4752176000002,0.43879290000003834,,,,,,,,,,,,,,,,,,,,5,001,2024-06-07_13h51.21.659,robot_nback_sign,2022.2.5,59.9341443621769,
H,False,3,letter,2,False,False,robot_stimuli\\filler.mp4,5,1,0,1,0,0,14,14,14,,,,,,,,,,,,,1202.5766988,1202.5766988,None,,1202.5766988,1203.6440542,1203.6440542,1203.6440542,1203.6440542,1203.6440542,1205.6736147000001,n,1205.6736147000001,1205.6736147000001,1205.6736147000001,1205.6736147000001,1205.6736147000001,1205.6736147000001,1205.6736147000001,1205.6736147000001,None,None,None,1202.5766988,1202.5766988,0.6730343000000119,,,,,,,,,,,,,,,,,,,,5,001,2024-06-07_13h51.21.659,robot_nback_sign,2022.2.5,59.9341443621769,
P,True,3,letter,2,False,False,robot_stimuli\\filler.mp4,5,1,0,1,0,0,15,15,15,,,,,,,,,,,,,1205.6736147000001,1205.6736147000001,None,,1205.6736147000001,1206.7310915,1206.7310915,1206.7310915,1206.7310915,1206.7310915,1208.7549478,n,1208.7549478,1208.7549478,1208.7549478,1208.7549478,1208.7549478,1208.7549478,1208.7549478,1208.7549478,None,None,None,1205.6736147000001,1205.6736147000001,0.6250804999998252,,,,,,,,,,,,,,,,,,,,5,001,2024-06-07_13h51.21.659,robot_nback_sign,2022.2.5,59.9341443621769,
V,True,3,letter,2,False,False,robot_stimuli\\filler.mp4,5,1,0,1,0,0,16,16,16,,,,,,,,,,,,,1208.7549478,1208.7549478,None,,1208.7549478,1209.8153302,1209.8153302,1209.8153302,1209.8153302,1209.8153302,1212.0476587,n,1212.0476587,1212.0476587,1212.0476587,1212.0476587,1212.0476587,1212.0476587,1212.0476587,1212.0476587,None,None,None,1208.7549478,1208.7549478,0.5580576999999209,,,,,,,,,,,,,,,,,,,,5,001,2024-06-07_13h51.21.659,robot_nback_sign,2022.2.5,59.9341443621769,
J,False,3,letter,2,False,True,robot_stimuli\\filler.mp4,5,1,0,1,0,0,17,17,17,,,,,,,,,,,,,1212.0476587,1212.0476587,None,,1212.0476587,1213.1170074000001,1213.1170074000001,1213.1170074000001,1213.1170074000001,1213.1170074000001,1215.3746794,c,1215.3746794,1220.0822285000002,1215.3746794,1220.0822285000002,1215.3746794,1220.0822285000002,1215.3746794,1220.0822285000002,49.598765432098766,3.069030899999916,space,1212.0476587,1212.0476587,1.7987890999998797,4.636941699999937,,,,,,,,,,,,,,,,,,,5,001,2024-06-07_13h51.21.659,robot_nback_sign,2022.2.5,59.9341443621769,
R_Head_Z_Back,False,1,robot,1,True,False,robot_stimuli\R_Head_Z_Back.mp4,5,1,0,1,0,0,18,18,18,,,,,,,,,,,,,1220.0822285000002,1220.0822285000002,space,1.0172643000001642,1221.1271543,1222.210808,,1222.210808,1222.210808,1222.210808,,None,1225.8606939000001,1225.8606939000001,1225.8606939000001,1225.8606939000001,1225.8606939000001,1225.8606939000001,1225.8606939000001,1225.8606939000001,None,None,None,,,,,1222.210808,,,,,,,,,,,,,,,,,,5,001,2024-06-07_13h51.21.659,robot_nback_sign,2022.2.5,59.9341443621769,
R_Base_Y_For,False,1,robot,1,False,False,robot_stimuli\R_Base_Y_For.mp4,5,1,0,1,0,0,19,19,19,,,,,,,,,,,,,1225.8606939000001,1225.8606939000001,None,,1225.8606939000001,1226.9407237,,1226.9407237,1226.9407237,1226.9407237,,n,1230.5915245,1230.5915245,1230.5915245,1230.5915245,1230.5915245,1230.5915245,1230.5915245,1230.5915245,None,None,None,1225.8606939000001,1225.8606939000001,1.1034042999998235,,1226.9407237,,,,,,,,,,,,,,,,,,5,001,2024-06-07_13h51.21.659,robot_nback_sign,2022.2.5,59.9341443621769,
L_Torso_Z_For,False,1,robot,1,False,False,robot_stimuli\L_Torso_Z_For.mp4,5,1,0,1,0,0,20,20,20,,,,,,,,,,,,,1230.5915245,1230.5915245,None,,1230.5915245,1231.6772802,,1231.6772802,1231.6772802,1231.6772802,,n,1235.3257132,1235.3257132,1235.3257132,1235.3257132,1235.3257132,1235.3257132,1235.3257132,1235.3257132,None,None,None,1230.5915245,1230.5915245,1.0551246999999364,,1231.6772802,,,,,,,,,,,,,,,,,,5,001,2024-06-07_13h51.21.659,robot_nback_sign,2022.2.5,59.9341443621769,
R_Base_Z_For,False,1,robot,1,False,False,robot_stimuli\R_Base_Z_For.mp4,5,1,0,1,0,0,21,21,21,,,,,,,,,,,,,1235.3257132,1235.3257132,None,,1235.3257132,1236.4054503,,1236.4054503,1236.4054503,1236.4054503,,n,1240.0386149,1240.0386149,1240.0386149,1240.0386149,1240.0386149,1240.0386149,1240.0386149,1240.0386149,None,None,None,1235.3257132,1235.3257132,2.6940031000000033,,1236.4054503,,,,,,,,,,,,,,,,,,5,001,2024-06-07_13h51.21.659,robot_nback_sign,2022.2.5,59.9341443621769,
R_Base_Z_For,True,1,robot,1,False,False,robot_stimuli\R_Base_Z_For.mp4,5,1,0,1,0,0,22,22,22,,,,,,,,,,,,,1240.0386149,1240.0386149,None,,1240.0386149,1241.1348643000001,,1241.1348643000001,1241.1348643000001,1241.1348643000001,,c,1244.7729263,1244.7729263,1244.7729263,1244.7729263,1244.7729263,1244.7729263,1244.7729263,1244.7729263,None,None,None,1240.0386149,1240.0386149,2.332669299999992,,1241.1348643000001,,,,,,,,,,,,,,,,,,5,001,2024-06-07_13h51.21.659,robot_nback_sign,2022.2.5,59.9341443621769,
R_Base_Z_For,True,1,robot,1,False,True,robot_stimuli\R_Base_Z_For.mp4,5,1,0,1,0,0,23,23,23,,,,,,,,,,,,,1244.7729263,1244.7729263,None,,1244.7729263,1245.8525259,,1245.8525259,1245.8525259,1245.8525259,,c,1249.5193541,1252.9219631,1249.5193541,1252.9219631,1249.5193541,1252.9219631,1249.5193541,1252.9219631,37.25308641975308,2.3967357999999876,space,1244.7729263,1244.7729263,1.2877219999998886,3.348629299999942,1245.8525259,,,,,,,,,,,,,,,,,,5,001,2024-06-07_13h51.21.659,robot_nback_sign,2022.2.5,59.9341443621769,
R_Head_Y_For,False,2,robot,1,True,False,robot_stimuli\R_Head_Y_For.mp4,5,1,0,1,0,0,24,24,24,,,,,,,,,,,,,1252.9219631,1252.9219631,space,0.6583427999999856,1253.6104954,1254.6910655000001,,1254.6910655000001,1254.6910655000001,1254.6910655000001,,n,1258.3399857000002,1258.3399857000002,1258.3399857000002,1258.3399857000002,1258.3399857000002,1258.3399857000002,1258.3399857000002,1258.3399857000002,None,None,None,,,3.1611419000001604,,1254.6910655000001,,,,,,,,,,,,,,,,,,5,001,2024-06-07_13h51.21.659,robot_nback_sign,2022.2.5,59.9341443621769,
R_Head_Y_For,False,2,robot,1,False,False,robot_stimuli\R_Head_Y_For.mp4,5,1,0,1,0,0,25,25,25,,,,,,,,,,,,,1258.3399857000002,1258.3399857000002,None,,1258.3399857000002,1259.4199912000001,,1259.4199912000001,1259.4199912000001,1259.4199912000001,,n,1263.0597478000002,1263.0597478000002,1263.0597478000002,1263.0597478000002,1263.0597478000002,1263.0597478000002,1263.0597478000002,1263.0597478000002,None,None,None,1258.3399857000002,1258.3399857000002,2.2166878999999824,,1259.4199912000001,,,,,,,,,,,,,,,,,,5,001,2024-06-07_13h51.21.659,robot_nback_sign,2022.2.5,59.9341443621769,
R_Head_Y_For,True,2,robot,1,False,False,robot_stimuli\R_Head_Y_For.mp4,5,1,0,1,0,0,26,26,26,,,,,,,,,,,,,1263.0597478000002,1263.0597478000002,None,,1263.0597478000002,1264.1361141,,1264.1361141,1264.1361141,1264.1361141,,c,1267.7753016000001,1267.7753016000001,1267.7753016000001,1267.7753016000001,1267.7753016000001,1267.7753016000001,1267.7753016000001,1267.7753016000001,None,None,None,1263.0597478000002,1263.0597478000002,1.1318933999999388,,1264.1361141,,,,,,,,,,,,,,,,,,5,001,2024-06-07_13h51.21.659,robot_nback_sign,2022.2.5,59.9341443621769,
L_Arm_X_Back,False,2,robot,1,False,False,robot_stimuli\L_Arm_X_Back.mp4,5,1,0,1,0,0,27,27,27,,,,,,,,,,,,,1267.7753016000001,1267.7753016000001,None,,1267.7753016000001,1268.8552221,,1268.8552221,1268.8552221,1268.8552221,,n,1272.4955563,1272.4955563,1272.4955563,1272.4955563,1272.4955563,1272.4955563,1272.4955563,1272.4955563,None,None,None,1267.7753016000001,1267.7753016000001,2.260341000000011,,1268.8552221,,,,,,,,,,,,,,,,,,5,001,2024-06-07_13h51.21.659,robot_nback_sign,2022.2.5,59.9341443621769,
R_Torso_Z_Back,False,2,robot,1,False,False,robot_stimuli\R_Torso_Z_Back.mp4,5,1,0,1,0,0,28,28,28,,,,,,,,,,,,,1272.4955563,1272.4955563,None,,1272.4955563,,,1273.5905774,1273.5905774,1273.5905774,,n,1277.2425255,1277.2425255,1277.2425255,1277.2425255,1277.2425255,1277.2425255,1277.2425255,1277.2425255,None,None,None,1272.4955563,1272.4955563,1.717498099999915,,1273.5905774,,,,,,,,,,,,,,,,,,5,001,2024-06-07_13h51.21.659,robot_nback_sign,2022.2.5,59.9341443621769,
L_Arm_X_Back,True,2,robot,1,False,True,robot_stimuli\L_Arm_X_Back.mp4,5,1,0,1,0,0,29,29,29,,,,,,,,,,,,,1277.2425255,1277.2425255,None,,1277.2425255,1278.3228256,,1278.3228256,1278.3228256,1278.3228256,,c,1281.9996716,1285.2532137,1281.9996716,1285.2532137,1281.9996716,1285.2532137,1281.9996716,1285.2532137,37.71604938271605,2.223037100000056,space,1277.2425255,1277.2425255,1.249970500000103,3.1879804000001,1278.3228256,,,,,,,,,,,,,,,,,,5,001,2024-06-07_13h51.21.659,robot_nback_sign,2022.2.5,59.9341443621769,
L_Arm_Z_For,False,3,robot,1,True,False,robot_stimuli\L_Arm_Z_For.mp4,5,1,0,1,0,0,30,30,30,,,,,,,,,,,,,1285.2532137,1285.2532137,space,0.2789134999999021,1285.5605165000002,1286.6410386,,1286.6410386,1286.6410386,1286.6410386,,n,1290.2924493,1290.2924493,1290.2924493,1290.2924493,1290.2924493,1290.2924493,1290.2924493,1290.2924493,None,None,None,,,3.106782299999935,,1286.6410386,,,,,,,,,,,,,,,,,,5,001,2024-06-07_13h51.21.659,robot_nback_sign,2022.2.5,59.9341443621769,
R_Head_Z_For,False,3,robot,1,False,False,robot_stimuli\R_Head_Z_For.mp4,5,1,0,1,0,0,31,31,31,,,,,,,,,,,,,1290.2924493,1290.2924493,None,,1290.2924493,1291.3720514000001,,1291.3720514000001,1291.3720514000001,1291.3720514000001,,n,1295.0027213,1295.0027213,1295.0027213,1295.0027213,1295.0027213,1295.0027213,1295.0027213,1295.0027213,None,None,None,1290.2924493,1290.2924493,1.9686600000000851,,1291.3720514000001,,,,,,,,,,,,,,,,,,5,001,2024-06-07_13h51.21.659,robot_nback_sign,2022.2.5,59.9341443621769,
L_Torso_Y_For,False,3,robot,1,False,False,robot_stimuli\L_Torso_Y_For.mp4,5,1,0,1,0,0,32,32,32,,,,,,,,,,,,,1295.0027213,1295.0027213,None,,1295.0027213,1296.0884535,,1296.0884535,1296.0884535,1296.0884535,,n,1299.7213094,1299.7213094,1299.7213094,1299.7213094,1299.7213094,1299.7213094,1299.7213094,1299.7213094,None,None,None,1295.0027213,1295.0027213,3.3478599000000884,,1296.0884535,,,,,,,,,,,,,,,,,,5,001,2024-06-07_13h51.21.659,robot_nback_sign,2022.2.5,59.9341443621769,
L_Arm_Z_For,True,3,robot,1,False,False,robot_stimuli\L_Arm_Z_For.mp4,5,1,0,1,0,0,33,33,33,,,,,,,,,,,,,1299.7213094,1299.7213094,None,,1299.7213094,1300.8221233000002,,1300.8221233000002,1300.8221233000002,1300.8221233000002,,c,1304.4610022000002,1304.4610022000002,1304.4610022000002,1304.4610022000002,1304.4610022000002,1304.4610022000002,1304.4610022000002,1304.4610022000002,None,None,None,1299.7213094,1299.7213094,2.5257000000000005,,1300.8221233000002,,,,,,,,,,,,,,,,,,5,001,2024-06-07_13h51.21.659,robot_nback_sign,2022.2.5,59.9341443621769,
L_Arm_X_Back,False,3,robot,1,False,False,robot_stimuli\L_Arm_X_Back.mp4,5,1,0,1,0,0,34,34,34,,,,,,,,,,,,,1304.4610022000002,1304.4610022000002,None,,1304.4610022000002,1305.5390623,,1305.5390623,1305.5390623,1305.5390623,,n,1309.1689774000001,1309.1689774000001,1309.1689774000001,1309.1689774000001,1309.1689774000001,1309.1689774000001,1309.1689774000001,1309.1689774000001,None,None,None,1304.4610022000002,1304.4610022000002,2.0336872999999684,,1305.5390623,,,,,,,,,,,,,,,,,,5,001,2024-06-07_13h51.21.659,robot_nback_sign,2022.2.5,59.9341443621769,
L_Torso_Y_For,True,3,robot,1,False,True,robot_stimuli\L_Torso_Y_For.mp4,5,1,0,1,0,0,35,35,35,,,,,,,,,,,,,1309.1689774000001,1309.1689774000001,None,,1309.1689774000001,1310.2561013000002,,1310.2561013000002,1310.2561013000002,1310.2561013000002,,c,1313.9328209,1322.0130100000001,1313.9328209,1322.0130100000001,1313.9328209,1322.0130100000001,1313.9328209,1322.0130100000001,56.38888888888889,3.943639100000155,space,1309.1689774000001,1309.1689774000001,1.9559302999999488,8.014557800000006,1310.2561013000002,,,,,,,,,,,,,,,,,,5,001,2024-06-07_13h51.21.659,robot_nback_sign,2022.2.5,59.9341443621769,
,,,,,,,,,1,0,1,0,,,,,,,,,,,,,,,,,,,,,,,,,,,,,,,,,,,,,,,,,,,,,1322.0130100000001,1322.0130100000001,1322.0130100000001,c,2.455057900000014,,,,,,,,,,,,,5,001,2024-06-07_13h51.21.659,robot_nback_sign,2022.2.5,59.9341443621769,
L_Head_Z_For,False,2,robot,1,True,False,robot_stimuli\L_Head_Z_For.mp4,5,,,,,,,,,0,0,0,0,,,,,,,,,,,,,1330.0604636,1331.1472128,,,,,,,1334.7986943,1334.7986943,1334.7986943,1334.7986943,1334.7986943,1334.7986943,1334.7986943,1334.7986943,None,None,None,,,,,,,,,,,1324.5322235,1324.5322235,space,5.503931600000072,1331.1472128,1331.1472128,c,2.8654159999999536,,,,,5,001,2024-06-07_13h51.21.659,robot_nback_sign,2022.2.5,59.9341443621769,
L_Torso_Y_For,False,2,robot,1,False,False,robot_stimuli\L_Torso_Y_For.mp4,5,,,,,,,,,0,1,1,1,,,,,,,,,,,,,1334.7986943,1335.9023219,,,,,,,1339.5435739000002,1339.5435739000002,1339.5435739000002,1339.5435739000002,1339.5435739000002,1339.5435739000002,1339.5435739000002,1339.5435739000002,None,None,None,,,,,,,,,,,1334.7986943,1334.7986943,None,,1335.9023219,1335.9023219,n,1.582547500000004,1334.7986943,1334.7986943,,,5,001,2024-06-07_13h51.21.659,robot_nback_sign,2022.2.5,59.9341443621769,
L_Torso_X_For,False,2,robot,1,False,False,robot_stimuli\L_Torso_X_For.mp4,5,,,,,,,,,0,2,2,2,,,,,,,,,,,,,1339.5435739000002,1340.6251918,,,,,,,1344.2760271000002,1344.2760271000002,1344.2760271000002,1344.2760271000002,1344.2760271000002,1344.2760271000002,1344.2760271000002,1344.2760271000002,None,None,None,,,,,,,,,,,1339.5435739000002,1339.5435739000002,None,,1340.6251918,1340.6251918,n,1.0990386999997952,1339.5435739000002,1339.5435739000002,,,5,001,2024-06-07_13h51.21.659,robot_nback_sign,2022.2.5,59.9341443621769,
L_Head_X_Back,False,2,robot,1,False,False,robot_stimuli\L_Head_X_Back.mp4,5,,,,,,,,,0,3,3,3,,,,,,,,,,,,,1344.2760271000002,1345.3567246,,,,,,,1349.0077322000002,1349.0077322000002,1349.0077322000002,1349.0077322000002,1349.0077322000002,1349.0077322000002,1349.0077322000002,1349.0077322000002,None,None,None,,,,,,,,,,,1344.2760271000002,1344.2760271000002,None,,1345.3567246,1345.3567246,n,1.9677792999999326,1344.2760271000002,1344.2760271000002,,,5,001,2024-06-07_13h51.21.659,robot_nback_sign,2022.2.5,59.9341443621769,
L_Torso_X_For,True,2,robot,1,False,False,robot_stimuli\L_Torso_X_For.mp4,5,,,,,,,,,0,4,4,4,,,,,,,,,,,,,1349.0077322000002,1350.0880857000002,,,,,,,1353.7275940000002,1353.7275940000002,1353.7275940000002,1353.7275940000002,1353.7275940000002,1353.7275940000002,1353.7275940000002,1353.7275940000002,None,None,None,,,,,,,,,,,1349.0077322000002,1349.0077322000002,None,,1350.0880857000002,1350.0880857000002,c,2.3005894999999725,1349.0077322000002,1349.0077322000002,,,5,001,2024-06-07_13h51.21.659,robot_nback_sign,2022.2.5,59.9341443621769,
R_Base_Z_Back,False,2,robot,1,False,False,robot_stimuli\R_Base_Z_Back.mp4,5,,,,,,,,,0,5,5,5,,,,,,,,,,,,,1353.7275940000002,1354.8053295,,,,,,,1358.3460102000001,1358.3460102000001,1358.3460102000001,1358.3460102000001,1358.3460102000001,1358.3460102000001,1358.3460102000001,1358.3460102000001,None,None,None,,,,,,,,,,,1353.7275940000002,1353.7275940000002,None,,1354.8053295,1354.8053295,n,1.5582113000001243,1353.7275940000002,1353.7275940000002,,,5,001,2024-06-07_13h51.21.659,robot_nback_sign,2022.2.5,59.9341443621769,
L_Torso_Y_Back,False,2,robot,1,False,False,robot_stimuli\L_Torso_Y_Back.mp4,5,,,,,,,,,0,6,6,6,,,,,,,,,,,,,1358.3460102000001,,,,,,,,1362.9625855000002,1362.9625855000002,1362.9625855000002,1362.9625855000002,1362.9625855000002,1362.9625855000002,1362.9625855000002,1362.9625855000002,None,None,None,,,,,,,,,,,1358.3460102000001,1358.3460102000001,None,,1359.4446974,1359.4446974,c,3.439081800000025,1358.3460102000001,1358.3460102000001,,,5,001,2024-06-07_13h51.21.659,robot_nback_sign,2022.2.5,59.9341443621769,
R_Head_Y_Back,False,2,robot,1,False,False,robot_stimuli\R_Head_Y_Back.mp4,5,,,,,,,,,0,7,7,7,,,,,,,,,,,,,1362.9625855000002,,,,,,,,1367.7089755000002,1367.7089755000002,1367.7089755000002,1367.7089755000002,1367.7089755000002,1367.7089755000002,1367.7089755000002,1367.7089755000002,None,None,None,,,,,,,,,,,1362.9625855000002,1362.9625855000002,None,,1364.0590416,1364.0590416,n,1.6886092000000588,1362.9625855000002,1362.9625855000002,,,5,001,2024-06-07_13h51.21.659,robot_nback_sign,2022.2.5,59.9341443621769,
R_Arm_Y_For,False,2,robot,1,False,False,robot_stimuli\R_Arm_Y_For.mp4,5,,,,,,,,,0,8,8,8,,,,,,,,,,,,,1367.7089755000002,1368.7924758000001,,,,,,,1372.3088731,1372.3088731,1372.3088731,1372.3088731,1372.3088731,1372.3088731,1372.3088731,1372.3088731,None,None,None,,,,,,,,,,,1367.7089755000002,1367.7089755000002,None,,1368.7924758000001,1368.7924758000001,n,2.0206096999998806,1367.7089755000002,1367.7089755000002,,,5,001,2024-06-07_13h51.21.659,robot_nback_sign,2022.2.5,59.9341443621769,
R_Base_Z_Back,False,2,robot,1,False,False,robot_stimuli\R_Base_Z_Back.mp4,5,,,,,,,,,0,9,9,9,,,,,,,,,,,,,1372.3088731,1373.3889531,,,,,,,1376.9200638,1376.9200638,1376.9200638,1376.9200638,1376.9200638,1376.9200638,1376.9200638,1376.9200638,None,None,None,,,,,,,,,,,1372.3088731,1372.3088731,None,,1373.3889531,1373.3889531,n,1.6160779999998738,1372.3088731,1372.3088731,,,5,001,2024-06-07_13h51.21.659,robot_nback_sign,2022.2.5,59.9341443621769,
L_Head_Y_Back,False,2,robot,1,False,False,robot_stimuli\L_Head_Y_Back.mp4,5,,,,,,,,,0,10,10,10,,,,,,,,,,,,,1376.9200638,1378.006448,,,,,,,1381.6593993000001,1381.6593993000001,1381.6593993000001,1381.6593993000001,1381.6593993000001,1381.6593993000001,1381.6593993000001,1381.6593993000001,None,None,None,,,,,,,,,,,1376.9200638,1376.9200638,None,,1378.006448,1378.006448,n,2.4863316000001703,1376.9200638,1376.9200638,,,5,001,2024-06-07_13h51.21.659,robot_nback_sign,2022.2.5,59.9341443621769,
L_Arm_Y_For,False,2,robot,1,False,False,robot_stimuli\L_Arm_Y_For.mp4,5,,,,,,,,,0,11,11,11,,,,,,,,,,,,,1381.6593993000001,1382.7425269,,,,,,,1386.3930639,1386.3930639,1386.3930639,1386.3930639,1386.3930639,1386.3930639,1386.3930639,1386.3930639,None,None,None,,,,,,,,,,,1381.6593993000001,1381.6593993000001,None,,1382.7425269,1382.7425269,c,2.045602300000013,1381.6593993000001,1381.6593993000001,,,5,001,2024-06-07_13h51.21.659,robot_nback_sign,2022.2.5,59.9341443621769,
L_Torso_X_For,False,2,robot,1,False,False,robot_stimuli\L_Torso_X_For.mp4,5,,,,,,,,,0,12,12,12,,,,,,,,,,,,,1386.3930639,1387.4720358000002,,,,,,,1391.1110501,1391.1110501,1391.1110501,1391.1110501,1391.1110501,1391.1110501,1391.1110501,1391.1110501,None,None,None,,,,,,,,,,,1386.3930639,1386.3930639,None,,1387.4720358000002,1387.4720358000002,n,2.6529126000001213,1386.3930639,1386.3930639,,,5,001,2024-06-07_13h51.21.659,robot_nback_sign,2022.2.5,59.9341443621769,
R_Base_X_For,False,2,robot,1,False,False,robot_stimuli\R_Base_X_For.mp4,5,,,,,,,,,0,13,13,13,,,,,,,,,,,,,1391.1110501,1392.1946706,,,,,,,1395.7358876,1395.7358876,1395.7358876,1395.7358876,1395.7358876,1395.7358876,1395.7358876,1395.7358876,None,None,None,,,,,,,,,,,1391.1110501,1391.1110501,None,,1392.1946706,1392.1946706,n,3.2022164999999347,1391.1110501,1391.1110501,,,5,001,2024-06-07_13h51.21.659,robot_nback_sign,2022.2.5,59.9341443621769,
R_Base_X_For,False,2,robot,1,False,False,robot_stimuli\R_Base_X_For.mp4,5,,,,,,,,,0,14,14,14,,,,,,,,,,,,,1395.7358876,1396.8189335000002,,,,,,,1400.359202,1400.359202,1400.359202,1400.359202,1400.359202,1400.359202,1400.359202,1400.359202,None,None,None,,,,,,,,,,,1395.7358876,1395.7358876,None,,1396.8189335000002,1396.8189335000002,None,,1395.7358876,1395.7358876,,,5,001,2024-06-07_13h51.21.659,robot_nback_sign,2022.2.5,59.9341443621769,
L_Base_X_Back,False,2,robot,1,False,False,robot_stimuli\L_Base_X_Back.mp4,5,,,,,,,,,0,15,15,15,,,,,,,,,,,,,1400.359202,1401.4385040000002,,,,,,,1405.0558377,1405.0558377,1405.0558377,1405.0558377,1405.0558377,1405.0558377,1405.0558377,1405.0558377,None,None,None,,,,,,,,,,,1400.359202,1400.359202,None,,1401.4385040000002,1401.4385040000002,n,2.4779069000001925,1400.359202,1400.359202,,,5,001,2024-06-07_13h51.21.659,robot_nback_sign,2022.2.5,59.9341443621769,
L_Arm_Z_For,False,2,robot,1,False,False,robot_stimuli\L_Arm_Z_For.mp4,5,,,,,,,,,0,16,16,16,,,,,,,,,,,,,1405.0558377,1406.1375752000001,,,,,,,1409.7761155,1409.7761155,1409.7761155,1409.7761155,1409.7761155,1409.7761155,1409.7761155,1409.7761155,None,None,None,,,,,,,,,,,1405.0558377,1405.0558377,None,,1406.1375752000001,1406.1375752000001,n,1.4833983000001751,1405.0558377,1405.0558377,,,5,001,2024-06-07_13h51.21.659,robot_nback_sign,2022.2.5,59.9341443621769,
L_Base_X_Back,True,2,robot,1,False,False,robot_stimuli\L_Base_X_Back.mp4,5,,,,,,,,,0,17,17,17,,,,,,,,,,,,,1409.7761155,1410.8546365000002,,,,,,,1414.459828,1414.459828,1414.459828,1414.459828,1414.459828,1414.459828,1414.459828,1414.459828,None,None,None,,,,,,,,,,,1409.7761155,1409.7761155,None,,1410.8546365000002,1410.8546365000002,c,2.4609079000000236,1409.7761155,1409.7761155,,,5,001,2024-06-07_13h51.21.659,robot_nback_sign,2022.2.5,59.9341443621769,
L_Arm_Z_For,True,2,robot,1,False,False,robot_stimuli\L_Arm_Z_For.mp4,5,,,,,,,,,0,18,18,18,,,,,,,,,,,,,1414.459828,1415.5394941000002,,,,,,,1419.1933232000001,1419.1933232000001,1419.1933232000001,1419.1933232000001,1419.1933232000001,1419.1933232000001,1419.1933232000001,1419.1933232000001,None,None,None,,,,,,,,,,,1414.459828,1414.459828,None,,1415.5394941000002,1415.5394941000002,c,2.7365702000000454,1414.459828,1414.459828,,,5,001,2024-06-07_13h51.21.659,robot_nback_sign,2022.2.5,59.9341443621769,
R_Torso_Z_Back,False,2,robot,1,False,False,robot_stimuli\R_Torso_Z_Back.mp4,5,,,,,,,,,0,19,19,19,,,,,,,,,,,,,1419.1933232000001,1420.2872682,,,,,,,1423.9212472000002,1423.9212472000002,1423.9212472000002,1423.9212472000002,1423.9212472000002,1423.9212472000002,1423.9212472000002,1423.9212472000002,None,None,None,,,,,,,,,,,1419.1933232000001,1419.1933232000001,None,,1420.2872682,1420.2872682,n,2.4535667000000956,1419.1933232000001,1419.1933232000001,,,5,001,2024-06-07_13h51.21.659,robot_nback_sign,2022.2.5,59.9341443621769,
R_Arm_Y_Back,False,2,robot,1,False,False,robot_stimuli\R_Arm_Y_Back.mp4,5,,,,,,,,,0,20,20,20,,,,,,,,,,,,,1423.9212472000002,1425.0196747,,,,,,,1428.6595765000002,1428.6595765000002,1428.6595765000002,1428.6595765000002,1428.6595765000002,1428.6595765000002,1428.6595765000002,1428.6595765000002,None,None,None,,,,,,,,,,,1423.9212472000002,1423.9212472000002,None,,1425.0196747,1425.0196747,n,2.088966199999817,1423.9212472000002,1423.9212472000002,,,5,001,2024-06-07_13h51.21.659,robot_nback_sign,2022.2.5,59.9341443621769,
L_Arm_Y_Back,False,2,robot,1,False,False,robot_stimuli\L_Arm_Y_Back.mp4,5,,,,,,,,,0,21,21,21,,,,,,,,,,,,,1428.6595765000002,1429.7434941000001,,,,,,,1433.3959667000001,1433.3959667000001,1433.3959667000001,1433.3959667000001,1433.3959667000001,1433.3959667000001,1433.3959667000001,1433.3959667000001,None,None,None,,,,,,,,,,,1428.6595765000002,1428.6595765000002,None,,1429.7434941000001,1429.7434941000001,c,2.716463999999945,1428.6595765000002,1428.6595765000002,,,5,001,2024-06-07_13h51.21.659,robot_nback_sign,2022.2.5,59.9341443621769,
R_Arm_X_For,False,2,robot,1,False,False,robot_stimuli\R_Arm_X_For.mp4,5,,,,,,,,,0,22,22,22,,,,,,,,,,,,,1433.3959667000001,,,,,,,,1438.1415418000001,1438.1415418000001,1438.1415418000001,1438.1415418000001,1438.1415418000001,1438.1415418000001,1438.1415418000001,1438.1415418000001,None,None,None,,,,,,,,,,,1433.3959667000001,1433.3959667000001,None,,1434.5023578,1434.5023578,c,1.4712528999999392,1433.3959667000001,1433.3959667000001,,,5,001,2024-06-07_13h51.21.659,robot_nback_sign,2022.2.5,59.9341443621769,
R_Torso_Y_Back,False,2,robot,1,False,False,robot_stimuli\R_Torso_Y_Back.mp4,5,,,,,,,,,0,23,23,23,,,,,,,,,,,,,1438.1415418000001,1439.2290237,,,,,,,1442.8689462,1442.8689462,1442.8689462,1442.8689462,1442.8689462,1442.8689462,1442.8689462,1442.8689462,None,None,None,,,,,,,,,,,1438.1415418000001,1438.1415418000001,None,,1439.2290237,1439.2290237,None,,1438.1415418000001,1438.1415418000001,,,5,001,2024-06-07_13h51.21.659,robot_nback_sign,2022.2.5,59.9341443621769,
L_Arm_X_For,False,2,robot,1,False,False,robot_stimuli\L_Arm_X_For.mp4,5,,,,,,,,,0,24,24,24,,,,,,,,,,,,,1442.8689462,1443.9563173000001,,,,,,,1447.6059012,1447.6059012,1447.6059012,1447.6059012,1447.6059012,1447.6059012,1447.6059012,1447.6059012,None,None,None,,,,,,,,,,,1442.8689462,1442.8689462,None,,1443.9563173000001,1443.9563173000001,None,,1442.8689462,1442.8689462,,,5,001,2024-06-07_13h51.21.659,robot_nback_sign,2022.2.5,59.9341443621769,
R_Torso_Y_For,False,2,robot,1,False,False,robot_stimuli\R_Torso_Y_For.mp4,5,,,,,,,,,0,25,25,25,,,,,,,,,,,,,1447.6059012,1448.6885012,,,,,,,1452.3190063000002,1452.3190063000002,1452.3190063000002,1452.3190063000002,1452.3190063000002,1452.3190063000002,1452.3190063000002,1452.3190063000002,None,None,None,,,,,,,,,,,1447.6059012,1447.6059012,None,,1448.6885012,1448.6885012,n,2.828045699999933,1447.6059012,1447.6059012,,,5,001,2024-06-07_13h51.21.659,robot_nback_sign,2022.2.5,59.9341443621769,
L_Arm_X_For,True,2,robot,1,False,False,robot_stimuli\L_Arm_X_For.mp4,5,,,,,,,,,0,26,26,26,,,,,,,,,,,,,1452.3190063000002,1453.4051906000002,,,,,,,1457.0573675,1457.0573675,1457.0573675,1457.0573675,1457.0573675,1457.0573675,1457.0573675,1457.0573675,None,None,None,,,,,,,,,,,1452.3190063000002,1452.3190063000002,None,,1453.4051906000002,1453.4051906000002,c,1.9990803999999969,1452.3190063000002,1452.3190063000002,,,5,001,2024-06-07_13h51.21.659,robot_nback_sign,2022.2.5,59.9341443621769,
L_Head_Z_Back,False,2,robot,1,False,False,robot_stimuli\L_Head_Z_Back.mp4,5,,,,,,,,,0,27,27,27,,,,,,,,,,,,,1457.0573675,1458.1379267,,,,,,,1461.7689599,1461.7689599,1461.7689599,1461.7689599,1461.7689599,1461.7689599,1461.7689599,1461.7689599,None,None,None,,,,,,,,,,,1457.0573675,1457.0573675,None,,1458.1379267,1458.1379267,n,1.8259230000001878,1457.0573675,1457.0573675,,,5,001,2024-06-07_13h51.21.659,robot_nback_sign,2022.2.5,59.9341443621769,
R_Arm_Z_Back,False,2,robot,1,False,False,robot_stimuli\R_Arm_Z_Back.mp4,5,,,,,,,,,0,28,28,28,,,,,,,,,,,,,1461.7689599,1462.8598788000002,,,,,,,1466.5099845,1466.5099845,1466.5099845,1466.5099845,1466.5099845,1466.5099845,1466.5099845,1466.5099845,None,None,None,,,,,,,,,,,1461.7689599,1461.7689599,None,,1462.8598788000002,1462.8598788000002,c,2.47219759999993,1461.7689599,1461.7689599,,,5,001,2024-06-07_13h51.21.659,robot_nback_sign,2022.2.5,59.9341443621769,
R_Torso_Z_For,False,2,robot,1,False,False,robot_stimuli\R_Torso_Z_For.mp4,5,,,,,,,,,0,29,29,29,,,,,,,,,,,,,1466.5099845,1467.5905693000002,,,,,,,1471.2414209,1471.2414209,1471.2414209,1471.2414209,1471.2414209,1471.2414209,1471.2414209,1471.2414209,None,None,None,,,,,,,,,,,1466.5099845,1466.5099845,None,,1467.5905693000002,1467.5905693000002,n,2.43046949999993,1466.5099845,1466.5099845,,,5,001,2024-06-07_13h51.21.659,robot_nback_sign,2022.2.5,59.9341443621769,
R_Torso_X_Back,False,2,robot,1,False,False,robot_stimuli\R_Torso_X_Back.mp4,5,,,,,,,,,0,30,30,30,,,,,,,,,,,,,1471.2414209,1472.3208007,,,,,,,1475.9605719,1475.9605719,1475.9605719,1475.9605719,1475.9605719,1475.9605719,1475.9605719,1475.9605719,None,None,None,,,,,,,,,,,1471.2414209,1471.2414209,None,,1472.3208007,1472.3208007,c,2.4762762000001146,1471.2414209,1471.2414209,,,5,001,2024-06-07_13h51.21.659,robot_nback_sign,2022.2.5,59.9341443621769,
R_Torso_Z_For,True,2,robot,1,False,False,robot_stimuli\R_Torso_Z_For.mp4,5,,,,,,,,,0,31,31,31,,,,,,,,,,,,,1475.9605719,1477.0378418,,,,,,,1480.6681098000001,1480.6681098000001,1480.6681098000001,1480.6681098000001,1480.6681098000001,1480.6681098000001,1480.6681098000001,1480.6681098000001,None,None,None,,,,,,,,,,,1475.9605719,1475.9605719,None,,1477.0378418,1477.0378418,c,3.366530200000028,1475.9605719,1475.9605719,,,5,001,2024-06-07_13h51.21.659,robot_nback_sign,2022.2.5,59.9341443621769,
R_Torso_X_Back,True,2,robot,1,False,False,robot_stimuli\R_Torso_X_Back.mp4,5,,,,,,,,,0,32,32,32,,,,,,,,,,,,,1480.6681098000001,1481.7564861,,,,,,,1485.4074611,1485.4074611,1485.4074611,1485.4074611,1485.4074611,1485.4074611,1485.4074611,1485.4074611,None,None,None,,,,,,,,,,,1480.6681098000001,1480.6681098000001,None,,1481.7564861,1481.7564861,c,3.4070873999999947,1480.6681098000001,1480.6681098000001,,,5,001,2024-06-07_13h51.21.659,robot_nback_sign,2022.2.5,59.9341443621769,
L_Head_X_Back,False,2,robot,1,False,False,robot_stimuli\L_Head_X_Back.mp4,5,,,,,,,,,0,33,33,33,,,,,,,,,,,,,1485.4074611,1486.4889984000001,,,,,,,1490.1408917,1490.1408917,1490.1408917,1490.1408917,1490.1408917,1490.1408917,1490.1408917,1490.1408917,None,None,None,,,,,,,,,,,1485.4074611,1485.4074611,None,,1486.4889984000001,1486.4889984000001,n,2.315143100000199,1485.4074611,1485.4074611,,,5,001,2024-06-07_13h51.21.659,robot_nback_sign,2022.2.5,59.9341443621769,
L_Head_X_For,False,2,robot,1,False,False,robot_stimuli\L_Head_X_For.mp4,5,,,,,,,,,0,34,34,34,,,,,,,,,,,,,1490.1408917,1491.2231021,,,,,,,1494.8082541,1494.8082541,1494.8082541,1494.8082541,1494.8082541,1494.8082541,1494.8082541,1494.8082541,None,None,None,,,,,,,,,,,1490.1408917,1490.1408917,None,,1491.2231021,1491.2231021,n,2.230389300000155,1490.1408917,1490.1408917,,,5,001,2024-06-07_13h51.21.659,robot_nback_sign,2022.2.5,59.9341443621769,
R_Base_X_Back,False,2,robot,1,False,False,robot_stimuli\R_Base_X_Back.mp4,5,,,,,,,,,0,35,35,35,,,,,,,,,,,,,1494.8082541,1495.886976,,,,,,,1499.5273112,1499.5273112,1499.5273112,1499.5273112,1499.5273112,1499.5273112,1499.5273112,1499.5273112,None,None,None,,,,,,,,,,,1494.8082541,1494.8082541,None,,1495.886976,1495.886976,n,2.0383181999999067,1494.8082541,1494.8082541,,,5,001,2024-06-07_13h51.21.659,robot_nback_sign,2022.2.5,59.9341443621769,
R_Base_Y_For,False,2,robot,1,False,False,robot_stimuli\R_Base_Y_For.mp4,5,,,,,,,,,0,36,36,36,,,,,,,,,,,,,1499.5273112,1500.6060619,,,,,,,1504.2587605,1504.2587605,1504.2587605,1504.2587605,1504.2587605,1504.2587605,1504.2587605,1504.2587605,None,None,None,,,,,,,,,,,1499.5273112,1499.5273112,None,,1500.6060619,1500.6060619,n,2.2233182000000795,1499.5273112,1499.5273112,,,5,001,2024-06-07_13h51.21.659,robot_nback_sign,2022.2.5,59.9341443621769,
R_Arm_Y_Back,False,2,robot,1,False,False,robot_stimuli\R_Arm_Y_Back.mp4,5,,,,,,,,,0,37,37,37,,,,,,,,,,,,,1504.2587605,1505.338268,,,,,,,1508.9780106,1508.9780106,1508.9780106,1508.9780106,1508.9780106,1508.9780106,1508.9780106,1508.9780106,None,None,None,,,,,,,,,,,1504.2587605,1504.2587605,None,,1505.338268,1505.338268,n,2.4257858000001704,1504.2587605,1504.2587605,,,5,001,2024-06-07_13h51.21.659,robot_nback_sign,2022.2.5,59.9341443621769,
L_Head_X_Back,False,2,robot,1,False,False,robot_stimuli\L_Head_X_Back.mp4,5,,,,,,,,,0,38,38,38,,,,,,,,,,,,,1508.9780106,1510.0554434,,,,,,,1513.7071759,1513.7071759,1513.7071759,1513.7071759,1513.7071759,1513.7071759,1513.7071759,1513.7071759,None,None,None,,,,,,,,,,,1508.9780106,1508.9780106,None,,1510.0554434,1510.0554434,n,2.132845700000047,1508.9780106,1508.9780106,,,5,001,2024-06-07_13h51.21.659,robot_nback_sign,2022.2.5,59.9341443621769,
L_Head_Z_For,False,2,robot,1,False,False,robot_stimuli\L_Head_Z_For.mp4,5,,,,,,,,,0,39,39,39,,,,,,,,,,,,,1513.7071759,1514.7890862000002,,,,,,,1518.440487,1518.440487,1518.440487,1518.440487,1518.440487,1518.440487,1518.440487,1518.440487,None,None,None,,,,,,,,,,,1513.7071759,1513.7071759,None,,1514.7890862000002,1514.7890862000002,n,2.792489100000097,1513.7071759,1513.7071759,,,5,001,2024-06-07_13h51.21.659,robot_nback_sign,2022.2.5,59.9341443621769,
R_Arm_X_Back,False,2,robot,1,False,False,robot_stimuli\R_Arm_X_Back.mp4,5,,,,,,,,,0,40,40,40,,,,,,,,,,,,,1518.440487,1519.5215116000002,,,,,,,1523.1620883,1523.1620883,1523.1620883,1523.1620883,1523.1620883,1523.1620883,1523.1620883,1523.1620883,None,None,None,,,,,,,,,,,1518.440487,1518.440487,None,,1519.5215116000002,1519.5215116000002,None,,1518.440487,1518.440487,,,5,001,2024-06-07_13h51.21.659,robot_nback_sign,2022.2.5,59.9341443621769,
L_Head_Z_For,True,2,robot,1,False,False,robot_stimuli\L_Head_Z_For.mp4,5,,,,,,,,,0,41,41,41,,,,,,,,,,,,,1523.1620883,,,,,,,,1527.8854812000002,1527.8854812000002,1527.8854812000002,1527.8854812000002,1527.8854812000002,1527.8854812000002,1527.8854812000002,1527.8854812000002,None,None,None,,,,,,,,,,,1523.1620883,1523.1620883,None,,1524.2548252000001,1524.2548252000001,n,2.59698570000009,1523.1620883,1523.1620883,,,5,001,2024-06-07_13h51.21.659,robot_nback_sign,2022.2.5,59.9341443621769,
L_Base_X_Back,False,2,robot,1,False,False,robot_stimuli\L_Base_X_Back.mp4,5,,,,,,,,,0,42,42,42,,,,,,,,,,,,,1527.8854812000002,1528.9707507,,,,,,,1532.5769707000002,1532.5769707000002,1532.5769707000002,1532.5769707000002,1532.5769707000002,1532.5769707000002,1532.5769707000002,1532.5769707000002,None,None,None,,,,,,,,,,,1527.8854812000002,1527.8854812000002,None,,1528.9707507,1528.9707507,n,2.538014099999913,1527.8854812000002,1527.8854812000002,,,5,001,2024-06-07_13h51.21.659,robot_nback_sign,2022.2.5,59.9341443621769,
L_Head_Z_For,True,2,robot,1,False,False,robot_stimuli\L_Head_Z_For.mp4,5,,,,,,,,,0,43,43,43,,,,,,,,,,,,,1532.5769707000002,1533.6571367000001,,,,,,,1537.3062104,1537.3062104,1537.3062104,1537.3062104,1537.3062104,1537.3062104,1537.3062104,1537.3062104,None,None,None,,,,,,,,,,,1532.5769707000002,1532.5769707000002,None,,1533.6571367000001,1533.6571367000001,c,1.226689700000037,1532.5769707000002,1532.5769707000002,,,5,001,2024-06-07_13h51.21.659,robot_nback_sign,2022.2.5,59.9341443621769,
R_Torso_Y_Back,False,2,robot,1,False,False,robot_stimuli\R_Torso_Y_Back.mp4,5,,,,,,,,,0,44,44,44,,,,,,,,,,,,,1537.3062104,1538.3901808,,,,,,,1542.0408669,1542.0408669,1542.0408669,1542.0408669,1542.0408669,1542.0408669,1542.0408669,1542.0408669,None,None,None,,,,,,,,,,,1537.3062104,1537.3062104,None,,1538.3901808,1538.3901808,c,2.7095089000000314,1537.3062104,1537.3062104,,,5,001,2024-06-07_13h51.21.659,robot_nback_sign,2022.2.5,59.9341443621769,
L_Base_X_Back,False,2,robot,1,False,False,robot_stimuli\L_Base_X_Back.mp4,5,,,,,,,,,0,45,45,45,,,,,,,,,,,,,1542.0408669,1543.1215656000002,,,,,,,1546.7186934000001,1546.7186934000001,1546.7186934000001,1546.7186934000001,1546.7186934000001,1546.7186934000001,1546.7186934000001,1546.7186934000001,None,None,None,,,,,,,,,,,1542.0408669,1542.0408669,None,,1543.1215656000002,1543.1215656000002,n,3.074447099999901,1542.0408669,1542.0408669,,,5,001,2024-06-07_13h51.21.659,robot_nback_sign,2022.2.5,59.9341443621769,
R_Torso_Y_Back,True,2,robot,1,False,False,robot_stimuli\R_Torso_Y_Back.mp4,5,,,,,,,,,0,46,46,46,,,,,,,,,,,,,1546.7186934000001,1547.8051643000001,,,,,,,1551.4358137000002,1551.4358137000002,1551.4358137000002,1551.4358137000002,1551.4358137000002,1551.4358137000002,1551.4358137000002,1551.4358137000002,None,None,None,,,,,,,,,,,1546.7186934000001,1546.7186934000001,None,,1547.8051643000001,1547.8051643000001,c,2.6073084000000506,1546.7186934000001,1546.7186934000001,,,5,001,2024-06-07_13h51.21.659,robot_nback_sign,2022.2.5,59.9341443621769,
L_Arm_X_Back,False,2,robot,1,False,False,robot_stimuli\L_Arm_X_Back.mp4,5,,,,,,,,,0,47,47,47,,,,,,,,,,,,,1551.4358137000002,1552.5245739000002,,,,,,,1556.1751531,1556.1751531,1556.1751531,1556.1751531,1556.1751531,1556.1751531,1556.1751531,1556.1751531,None,None,None,,,,,,,,,,,1551.4358137000002,1551.4358137000002,None,,1552.5245739000002,1552.5245739000002,n,2.1842679999998325,1551.4358137000002,1551.4358137000002,,,5,001,2024-06-07_13h51.21.659,robot_nback_sign,2022.2.5,59.9341443621769,
R_Base_Z_For,False,2,robot,1,False,False,robot_stimuli\R_Base_Z_For.mp4,5,,,,,,,,,0,48,48,48,,,,,,,,,,,,,1556.1751531,1557.2576860000001,,,,,,,1560.9100467,1560.9100467,1560.9100467,1560.9100467,1560.9100467,1560.9100467,1560.9100467,1560.9100467,None,None,None,,,,,,,,,,,1556.1751531,1556.1751531,None,,1557.2576860000001,1557.2576860000001,c,2.0114269999999976,1556.1751531,1556.1751531,,,5,001,2024-06-07_13h51.21.659,robot_nback_sign,2022.2.5,59.9341443621769,
L_Arm_X_Back,True,2,robot,1,False,True,robot_stimuli\L_Arm_X_Back.mp4,5,,,,,,,,,0,49,49,49,,,,,,,,,,,,,1560.9100467,1561.9892314,,,,,,,1565.650644,1571.6630553,1565.650644,1571.6630553,1565.650644,1571.6630553,1565.650644,1571.6630553,71.35802469135803,4.32957169999986,space,,,,5.9692513999999335,,,,,,,1560.9100467,1560.9100467,None,,1561.9892314,1561.9892314,c,1.870527399999986,1560.9100467,1560.9100467,,,5,001,2024-06-07_13h51.21.659,robot_nback_sign,2022.2.5,59.9341443621769,
R_Torso_Z_For,False,1,robot,1,True,False,robot_stimuli\R_Torso_Z_For.mp4,5,,,,,,,,,0,50,50,50,,,,,,,,,,,,,1577.6111033000002,1578.6900593,,,,,,,1582.3189338000002,1582.3189338000002,1582.3189338000002,1582.3189338000002,1582.3189338000002,1582.3189338000002,1582.3189338000002,1582.3189338000002,None,None,None,,,,,,,,,,,1571.6630553,1571.6630553,space,5.926087499999852,1578.6900593,1578.6900593,n,1.842972900000035,,,,,5,001,2024-06-07_13h51.21.659,robot_nback_sign,2022.2.5,59.9341443621769,
L_Arm_X_For,False,1,robot,1,False,False,robot_stimuli\L_Arm_X_For.mp4,5,,,,,,,,,0,51,51,51,,,,,,,,,,,,,1582.3189338000002,1583.4039504,,,,,,,1587.0436136,1587.0436136,1587.0436136,1587.0436136,1587.0436136,1587.0436136,1587.0436136,1587.0436136,None,None,None,,,,,,,,,,,1582.3189338000002,1582.3189338000002,None,,1583.4039504,1583.4039504,n,1.6003320999999175,1582.3189338000002,1582.3189338000002,,,5,001,2024-06-07_13h51.21.659,robot_nback_sign,2022.2.5,59.9341443621769,
L_Arm_X_For,True,1,robot,1,False,False,robot_stimuli\L_Arm_X_For.mp4,5,,,,,,,,,0,52,52,52,,,,,,,,,,,,,1587.0436136,1588.1194116000001,,,,,,,1591.7594765000001,1591.7594765000001,1591.7594765000001,1591.7594765000001,1591.7594765000001,1591.7594765000001,1591.7594765000001,1591.7594765000001,None,None,None,,,,,,,,,,,1587.0436136,1587.0436136,None,,1588.1194116000001,1588.1194116000001,c,1.7978728000001354,1587.0436136,1587.0436136,,,5,001,2024-06-07_13h51.21.659,robot_nback_sign,2022.2.5,59.9341443621769,
L_Arm_X_For,True,1,robot,1,False,False,robot_stimuli\L_Arm_X_For.mp4,5,,,,,,,,,0,53,53,53,,,,,,,,,,,,,1591.7594765000001,1592.8332085000002,,,,,,,1596.4734448000002,1596.4734448000002,1596.4734448000002,1596.4734448000002,1596.4734448000002,1596.4734448000002,1596.4734448000002,1596.4734448000002,None,None,None,,,,,,,,,,,1591.7594765000001,1591.7594765000001,None,,1592.8332085000002,1592.8332085000002,c,2.355498600000004,1591.7594765000001,1591.7594765000001,,,5,001,2024-06-07_13h51.21.659,robot_nback_sign,2022.2.5,59.9341443621769,
L_Arm_X_For,True,1,robot,1,False,False,robot_stimuli\L_Arm_X_For.mp4,5,,,,,,,,,0,54,54,54,,,,,,,,,,,,,1596.4734448000002,1597.5526262,,,,,,,1601.1929351,1601.1929351,1601.1929351,1601.1929351,1601.1929351,1601.1929351,1601.1929351,1601.1929351,None,None,None,,,,,,,,,,,1596.4734448000002,1596.4734448000002,None,,1597.5526262,1597.5526262,c,2.1558547999999007,1596.4734448000002,1596.4734448000002,,,5,001,2024-06-07_13h51.21.659,robot_nback_sign,2022.2.5,59.9341443621769,
L_Arm_X_For,True,1,robot,1,False,False,robot_stimuli\L_Arm_X_For.mp4,5,,,,,,,,,0,55,55,55,,,,,,,,,,,,,1601.1929351,1602.2674259,,,,,,,1605.9088085,1605.9088085,1605.9088085,1605.9088085,1605.9088085,1605.9088085,1605.9088085,1605.9088085,None,None,None,,,,,,,,,,,1601.1929351,1601.1929351,None,,1602.2674259,1602.2674259,c,2.2179328999999086,1601.1929351,1601.1929351,,,5,001,2024-06-07_13h51.21.659,robot_nback_sign,2022.2.5,59.9341443621769,
L_Torso_Y_Back,False,1,robot,1,False,False,robot_stimuli\L_Torso_Y_Back.mp4,5,,,,,,,,,0,56,56,56,,,,,,,,,,,,,1605.9088085,1606.9904181000002,,,,,,,1610.5072831,1610.5072831,1610.5072831,1610.5072831,1610.5072831,1610.5072831,1610.5072831,1610.5072831,None,None,None,,,,,,,,,,,1605.9088085,1605.9088085,None,,1606.9904181000002,1606.9904181000002,n,1.8070877000000962,1605.9088085,1605.9088085,,,5,001,2024-06-07_13h51.21.659,robot_nback_sign,2022.2.5,59.9341443621769,
L_Head_Z_For,False,1,robot,1,False,False,robot_stimuli\L_Head_Z_For.mp4,5,,,,,,,,,0,57,57,57,,,,,,,,,,,,,1610.5072831,1611.590222,,,,,,,1615.2396216000002,1615.2396216000002,1615.2396216000002,1615.2396216000002,1615.2396216000002,1615.2396216000002,1615.2396216000002,1615.2396216000002,None,None,None,,,,,,,,,,,1610.5072831,1610.5072831,None,,1611.590222,1611.590222,n,1.8067821999999012,1610.5072831,1610.5072831,,,5,001,2024-06-07_13h51.21.659,robot_nback_sign,2022.2.5,59.9341443621769,
R_Torso_X_For,False,1,robot,1,False,False,robot_stimuli\R_Torso_X_For.mp4,5,,,,,,,,,0,58,58,58,,,,,,,,,,,,,1615.2396216000002,1616.3221786000001,,,,,,,1619.9523147,1619.9523147,1619.9523147,1619.9523147,1619.9523147,1619.9523147,1619.9523147,1619.9523147,None,None,None,,,,,,,,,,,1615.2396216000002,1615.2396216000002,None,,1616.3221786000001,1616.3221786000001,n,2.762022999999857,1615.2396216000002,1615.2396216000002,,,5,001,2024-06-07_13h51.21.659,robot_nback_sign,2022.2.5,59.9341443621769,
L_Base_Z_For,False,1,robot,1,False,False,robot_stimuli\L_Base_Z_For.mp4,5,,,,,,,,,0,59,59,59,,,,,,,,,,,,,1619.9523147,1621.038593,,,,,,,1624.6693506000001,1624.6693506000001,1624.6693506000001,1624.6693506000001,1624.6693506000001,1624.6693506000001,1624.6693506000001,1624.6693506000001,None,None,None,,,,,,,,,,,1619.9523147,1619.9523147,None,,1621.038593,1621.038593,n,2.2939743000000306,1619.9523147,1619.9523147,,,5,001,2024-06-07_13h51.21.659,robot_nback_sign,2022.2.5,59.9341443621769,
L_Base_Z_For,True,1,robot,1,False,False,robot_stimuli\L_Base_Z_For.mp4,5,,,,,,,,,0,60,60,60,,,,,,,,,,,,,1624.6693506000001,1625.7513137,,,,,,,1629.391174,1629.391174,1629.391174,1629.391174,1629.391174,1629.391174,1629.391174,1629.391174,None,None,None,,,,,,,,,,,1624.6693506000001,1624.6693506000001,None,,1625.7513137,1625.7513137,c,1.532701800000126,1624.6693506000001,1624.6693506000001,,,5,001,2024-06-07_13h51.21.659,robot_nback_sign,2022.2.5,59.9341443621769,
L_Torso_Z_Back,False,1,robot,1,False,False,robot_stimuli\L_Torso_Z_Back.mp4,5,,,,,,,,,0,61,61,61,,,,,,,,,,,,,1629.391174,1630.4727234000002,,,,,,,1633.9783587000002,1633.9783587000002,1633.9783587000002,1633.9783587000002,1633.9783587000002,1633.9783587000002,1633.9783587000002,1633.9783587000002,None,None,None,,,,,,,,,,,1629.391174,1629.391174,None,,1630.4727234000002,1630.4727234000002,n,2.404562499999969,1629.391174,1629.391174,,,5,001,2024-06-07_13h51.21.659,robot_nback_sign,2022.2.5,59.9341443621769,
L_Torso_Z_For,False,1,robot,1,False,False,robot_stimuli\L_Torso_Z_For.mp4,5,,,,,,,,,0,62,62,62,,,,,,,,,,,,,1633.9783587000002,1635.0554452000001,,,,,,,1638.6937099000002,1638.6937099000002,1638.6937099000002,1638.6937099000002,1638.6937099000002,1638.6937099000002,1638.6937099000002,1638.6937099000002,None,None,None,,,,,,,,,,,1633.9783587000002,1633.9783587000002,None,,1635.0554452000001,1635.0554452000001,n,2.060295299999865,1633.9783587000002,1633.9783587000002,,,5,001,2024-06-07_13h51.21.659,robot_nback_sign,2022.2.5,59.9341443621769,
L_Arm_X_For,False,1,robot,1,False,False,robot_stimuli\L_Arm_X_For.mp4,5,,,,,,,,,0,63,63,63,,,,,,,,,,,,,1638.6937099000002,1639.7722899,,,,,,,1643.4117672,1643.4117672,1643.4117672,1643.4117672,1643.4117672,1643.4117672,1643.4117672,1643.4117672,None,None,None,,,,,,,,,,,1638.6937099000002,1638.6937099000002,None,,1639.7722899,1639.7722899,n,2.2561752999998532,1638.6937099000002,1638.6937099000002,,,5,001,2024-06-07_13h51.21.659,robot_nback_sign,2022.2.5,59.9341443621769,
R_Torso_Z_For,False,1,robot,1,False,False,robot_stimuli\R_Torso_Z_For.mp4,5,,,,,,,,,0,64,64,64,,,,,,,,,,,,,1643.4117672,1644.4898601,,,,,,,1648.1198687,1648.1198687,1648.1198687,1648.1198687,1648.1198687,1648.1198687,1648.1198687,1648.1198687,None,None,None,,,,,,,,,,,1643.4117672,1643.4117672,None,,1644.4898601,1644.4898601,n,1.9466921999997737,1643.4117672,1643.4117672,,,5,001,2024-06-07_13h51.21.659,robot_nback_sign,2022.2.5,59.9341443621769,
R_Head_Y_For,False,1,robot,1,False,False,robot_stimuli\R_Head_Y_For.mp4,5,,,,,,,,,0,65,65,65,,,,,,,,,,,,,1648.1198687,1649.2047534,,,,,,,1652.8356312,1652.8356312,1652.8356312,1652.8356312,1652.8356312,1652.8356312,1652.8356312,1652.8356312,None,None,None,,,,,,,,,,,1648.1198687,1648.1198687,None,,1649.2047534,1649.2047534,n,1.703131500000012,1648.1198687,1648.1198687,,,5,001,2024-06-07_13h51.21.659,robot_nback_sign,2022.2.5,59.9341443621769,
L_Arm_Y_Back,False,1,robot,1,False,False,robot_stimuli\L_Arm_Y_Back.mp4,5,,,,,,,,,0,66,66,66,,,,,,,,,,,,,1652.8356312,1653.9227339000001,,,,,,,1657.5570698000001,1657.5570698000001,1657.5570698000001,1657.5570698000001,1657.5570698000001,1657.5570698000001,1657.5570698000001,1657.5570698000001,None,None,None,,,,,,,,,,,1652.8356312,1652.8356312,None,,1653.9227339000001,1653.9227339000001,n,2.6581380999999453,1652.8356312,1652.8356312,,,5,001,2024-06-07_13h51.21.659,robot_nback_sign,2022.2.5,59.9341443621769,
L_Torso_X_For,False,1,robot,1,False,False,robot_stimuli\L_Torso_X_For.mp4,5,,,,,,,,,0,67,67,67,,,,,,,,,,,,,1657.5570698000001,1658.6545094,,,,,,,1662.2943391000001,1662.2943391000001,1662.2943391000001,1662.2943391000001,1662.2943391000001,1662.2943391000001,1662.2943391000001,1662.2943391000001,None,None,None,,,,,,,,,,,1657.5570698000001,1657.5570698000001,None,,1658.6545094,1658.6545094,n,2.6867960000000437,1657.5570698000001,1657.5570698000001,,,5,001,2024-06-07_13h51.21.659,robot_nback_sign,2022.2.5,59.9341443621769,
L_Arm_Y_For,False,1,robot,1,False,False,robot_stimuli\L_Arm_Y_For.mp4,5,,,,,,,,,0,68,68,68,,,,,,,,,,,,,1662.2943391000001,1663.3715788000002,,,,,,,1667.0223914,1667.0223914,1667.0223914,1667.0223914,1667.0223914,1667.0223914,1667.0223914,1667.0223914,None,None,None,,,,,,,,,,,1662.2943391000001,1662.2943391000001,None,,1663.3715788000002,1663.3715788000002,n,2.008885999999933,1662.2943391000001,1662.2943391000001,,,5,001,2024-06-07_13h51.21.659,robot_nback_sign,2022.2.5,59.9341443621769,
R_Arm_X_Back,False,1,robot,1,False,False,robot_stimuli\R_Arm_X_Back.mp4,5,,,,,,,,,0,69,69,69,,,,,,,,,,,,,1667.0223914,1668.1036779,,,,,,,1671.7438428,1671.7438428,1671.7438428,1671.7438428,1671.7438428,1671.7438428,1671.7438428,1671.7438428,None,None,None,,,,,,,,,,,1667.0223914,1667.0223914,None,,1668.1036779,1668.1036779,n,2.0932455000000516,1667.0223914,1667.0223914,,,5,001,2024-06-07_13h51.21.659,robot_nback_sign,2022.2.5,59.9341443621769,
L_Torso_Y_Back,False,1,robot,1,False,False,robot_stimuli\L_Torso_Y_Back.mp4,5,,,,,,,,,0,70,70,70,,,,,,,,,,,,,1671.7438428,1672.8228646,,,,,,,1676.3429927000002,1676.3429927000002,1676.3429927000002,1676.3429927000002,1676.3429927000002,1676.3429927000002,1676.3429927000002,1676.3429927000002,None,None,None,,,,,,,,,,,1671.7438428,1671.7438428,None,,1672.8228646,1672.8228646,n,2.109254100000129,1671.7438428,1671.7438428,,,5,001,2024-06-07_13h51.21.659,robot_nback_sign,2022.2.5,59.9341443621769,
L_Torso_X_Back,False,1,robot,1,False,False,robot_stimuli\L_Torso_X_Back.mp4,5,,,,,,,,,0,71,71,71,,,,,,,,,,,,,1676.3429927000002,1677.4386972,,,,,,,1681.0774755,1681.0774755,1681.0774755,1681.0774755,1681.0774755,1681.0774755,1681.0774755,1681.0774755,None,None,None,,,,,,,,,,,1676.3429927000002,1676.3429927000002,None,,1677.4386972,1677.4386972,n,2.6379304000000445,1676.3429927000002,1676.3429927000002,,,5,001,2024-06-07_13h51.21.659,robot_nback_sign,2022.2.5,59.9341443621769,
L_Torso_Z_For,False,1,robot,1,False,False,robot_stimuli\L_Torso_Z_For.mp4,5,,,,,,,,,0,72,72,72,,,,,,,,,,,,,1681.0774755,1682.1627829000001,,,,,,,1685.8028828000001,1685.8028828000001,1685.8028828000001,1685.8028828000001,1685.8028828000001,1685.8028828000001,1685.8028828000001,1685.8028828000001,None,None,None,,,,,,,,,,,1681.0774755,1681.0774755,None,,1682.1627829000001,1682.1627829000001,n,2.458848399999937,1681.0774755,1681.0774755,,,5,001,2024-06-07_13h51.21.659,robot_nback_sign,2022.2.5,59.9341443621769,
L_Base_Y_Back,False,1,robot,1,False,False,robot_stimuli\L_Base_Y_Back.mp4,5,,,,,,,,,0,73,73,73,,,,,,,,,,,,,1685.8028828000001,1686.8929446000002,,,,,,,1690.4810307,1690.4810307,1690.4810307,1690.4810307,1690.4810307,1690.4810307,1690.4810307,1690.4810307,None,None,None,,,,,,,,,,,1685.8028828000001,1685.8028828000001,None,,1686.8929446000002,1686.8929446000002,n,2.288048400000065,1685.8028828000001,1685.8028828000001,,,5,001,2024-06-07_13h51.21.659,robot_nback_sign,2022.2.5,59.9341443621769,
L_Base_Y_Back,True,1,robot,1,False,False,robot_stimuli\L_Base_Y_Back.mp4,5,,,,,,,,,0,74,74,74,,,,,,,,,,,,,1690.4810307,,,,,,,,1695.1457633,1695.1457633,1695.1457633,1695.1457633,1695.1457633,1695.1457633,1695.1457633,1695.1457633,None,None,None,,,,,,,,,,,1690.4810307,1690.4810307,None,,1691.5685889000001,1691.5685889000001,c,1.8438693999999884,1690.4810307,1690.4810307,,,5,001,2024-06-07_13h51.21.659,robot_nback_sign,2022.2.5,59.9341443621769,
L_Base_X_For,False,1,robot,1,False,False,robot_stimuli\L_Base_X_For.mp4,5,,,,,,,,,0,75,75,75,,,,,,,,,,,,,1695.1457633,,,,,,,,1699.8283704,1699.8283704,1699.8283704,1699.8283704,1699.8283704,1699.8283704,1699.8283704,1699.8283704,None,None,None,,,,,,,,,,,1695.1457633,1695.1457633,None,,1696.2550423,1696.2550423,c,2.022064600000107,1695.1457633,1695.1457633,,,5,001,2024-06-07_13h51.21.659,robot_nback_sign,2022.2.5,59.9341443621769,
L_Torso_Z_For,False,1,robot,1,False,False,robot_stimuli\L_Torso_Z_For.mp4,5,,,,,,,,,0,76,76,76,,,,,,,,,,,,,1699.8283704,1700.9061921,,,,,,,1704.5385357,1704.5385357,1704.5385357,1704.5385357,1704.5385357,1704.5385357,1704.5385357,1704.5385357,None,None,None,,,,,,,,,,,1699.8283704,1699.8283704,None,,1700.9061921,1700.9061921,n,1.994060299999859,1699.8283704,1699.8283704,,,5,001,2024-06-07_13h51.21.659,robot_nback_sign,2022.2.5,59.9341443621769,
L_Head_Z_Back,False,1,robot,1,False,False,robot_stimuli\L_Head_Z_Back.mp4,5,,,,,,,,,0,77,77,77,,,,,,,,,,,,,1704.5385357,1705.6226900000001,,,,,,,1709.2658746000002,1709.2658746000002,1709.2658746000002,1709.2658746000002,1709.2658746000002,1709.2658746000002,1709.2658746000002,1709.2658746000002,None,None,None,,,,,,,,,,,1704.5385357,1704.5385357,None,,1705.6226900000001,1705.6226900000001,n,2.5497432999999035,1704.5385357,1704.5385357,,,5,001,2024-06-07_13h51.21.659,robot_nback_sign,2022.2.5,59.9341443621769,
L_Torso_Y_Back,False,1,robot,1,False,False,robot_stimuli\L_Torso_Y_Back.mp4,5,,,,,,,,,0,78,78,78,,,,,,,,,,,,,1709.2658746000002,1710.3704605,,,,,,,1713.8691555,1713.8691555,1713.8691555,1713.8691555,1713.8691555,1713.8691555,1713.8691555,1713.8691555,None,None,None,,,,,,,,,,,1709.2658746000002,1709.2658746000002,None,,1710.3704605,1710.3704605,n,1.9775239000001363,1709.2658746000002,1709.2658746000002,,,5,001,2024-06-07_13h51.21.659,robot_nback_sign,2022.2.5,59.9341443621769,
L_Arm_Z_For,False,1,robot,1,False,False,robot_stimuli\L_Arm_Z_For.mp4,5,,,,,,,,,0,79,79,79,,,,,,,,,,,,,1713.8691555,1714.9538199,,,,,,,1718.587456,1718.587456,1718.587456,1718.587456,1718.587456,1718.587456,1718.587456,1718.587456,None,None,None,,,,,,,,,,,1713.8691555,1713.8691555,None,,1714.9538199,1714.9538199,n,3.4033195999998895,1713.8691555,1713.8691555,,,5,001,2024-06-07_13h51.21.659,robot_nback_sign,2022.2.5,59.9341443621769,
L_Torso_Y_Back,False,1,robot,1,False,False,robot_stimuli\L_Torso_Y_Back.mp4,5,,,,,,,,,0,80,80,80,,,,,,,,,,,,,1718.587456,1719.6720756,,,,,,,1723.1692331000002,1723.1692331000002,1723.1692331000002,1723.1692331000002,1723.1692331000002,1723.1692331000002,1723.1692331000002,1723.1692331000002,None,None,None,,,,,,,,,,,1718.587456,1718.587456,None,,1719.6720756,1719.6720756,n,1.7256036000001984,1718.587456,1718.587456,,,5,001,2024-06-07_13h51.21.659,robot_nback_sign,2022.2.5,59.9341443621769,
L_Torso_Y_Back,True,1,robot,1,False,False,robot_stimuli\L_Torso_Y_Back.mp4,5,,,,,,,,,0,81,81,81,,,,,,,,,,,,,1723.1692331000002,1724.2520801,,,,,,,1727.7586523,1727.7586523,1727.7586523,1727.7586523,1727.7586523,1727.7586523,1727.7586523,1727.7586523,None,None,None,,,,,,,,,,,1723.1692331000002,1723.1692331000002,None,,1724.2520801,1724.2520801,c,1.7597025999999403,1723.1692331000002,1723.1692331000002,,,5,001,2024-06-07_13h51.21.659,robot_nback_sign,2022.2.5,59.9341443621769,
R_Arm_X_For,False,1,robot,1,False,False,robot_stimuli\R_Arm_X_For.mp4,5,,,,,,,,,0,82,82,82,,,,,,,,,,,,,1727.7586523,1728.8378803,,,,,,,1732.4789258,1732.4789258,1732.4789258,1732.4789258,1732.4789258,1732.4789258,1732.4789258,1732.4789258,None,None,None,,,,,,,,,,,1727.7586523,1727.7586523,None,,1728.8378803,1728.8378803,n,2.7035060999999985,1727.7586523,1727.7586523,,,5,001,2024-06-07_13h51.21.659,robot_nback_sign,2022.2.5,59.9341443621769,
L_Torso_Z_Back,False,1,robot,1,False,False,robot_stimuli\L_Torso_Z_Back.mp4,5,,,,,,,,,0,83,83,83,,,,,,,,,,,,,1732.4789258,1733.5556455,,,,,,,1737.0518061,1737.0518061,1737.0518061,1737.0518061,1737.0518061,1737.0518061,1737.0518061,1737.0518061,None,None,None,,,,,,,,,,,1732.4789258,1732.4789258,None,,1733.5556455,1733.5556455,n,1.3368819999999175,1732.4789258,1732.4789258,,,5,001,2024-06-07_13h51.21.659,robot_nback_sign,2022.2.5,59.9341443621769,
L_Head_Z_Back,False,1,robot,1,False,False,robot_stimuli\L_Head_Z_Back.mp4,5,,,,,,,,,0,84,84,84,,,,,,,,,,,,,1737.0518061,1738.1394108000002,,,,,,,1741.7681663,1741.7681663,1741.7681663,1741.7681663,1741.7681663,1741.7681663,1741.7681663,1741.7681663,None,None,None,,,,,,,,,,,1737.0518061,1737.0518061,None,,1738.1394108000002,1738.1394108000002,n,3.457082299999996,1737.0518061,1737.0518061,,,5,001,2024-06-07_13h51.21.659,robot_nback_sign,2022.2.5,59.9341443621769,
L_Head_Z_Back,True,1,robot,1,False,False,robot_stimuli\L_Head_Z_Back.mp4,5,,,,,,,,,0,85,85,85,,,,,,,,,,,,,1741.7681663,1742.8522163,,,,,,,1746.4904395,1746.4904395,1746.4904395,1746.4904395,1746.4904395,1746.4904395,1746.4904395,1746.4904395,None,None,None,,,,,,,,,,,1741.7681663,1741.7681663,None,,1742.8522163,1742.8522163,c,2.07304150000013,1741.7681663,1741.7681663,,,5,001,2024-06-07_13h51.21.659,robot_nback_sign,2022.2.5,59.9341443621769,
L_Torso_Z_For,False,1,robot,1,False,False,robot_stimuli\L_Torso_Z_For.mp4,5,,,,,,,,,0,86,86,86,,,,,,,,,,,,,1746.4904395,1747.5722304,,,,,,,1751.2090928,1751.2090928,1751.2090928,1751.2090928,1751.2090928,1751.2090928,1751.2090928,1751.2090928,None,None,None,,,,,,,,,,,1746.4904395,1746.4904395,None,,1747.5722304,1747.5722304,n,1.3131352000001186,1746.4904395,1746.4904395,,,5,001,2024-06-07_13h51.21.659,robot_nback_sign,2022.2.5,59.9341443621769,
R_Torso_Y_Back,False,1,robot,1,False,False,robot_stimuli\R_Torso_Y_Back.mp4,5,,,,,,,,,0,87,87,87,,,,,,,,,,,,,1751.2090928,1752.2899375000002,,,,,,,1755.9398948,1755.9398948,1755.9398948,1755.9398948,1755.9398948,1755.9398948,1755.9398948,1755.9398948,None,None,None,,,,,,,,,,,1751.2090928,1751.2090928,None,,1752.2899375000002,1752.2899375000002,n,1.7874396999999078,1751.2090928,1751.2090928,,,5,001,2024-06-07_13h51.21.659,robot_nback_sign,2022.2.5,59.9341443621769,
L_Torso_Y_For,False,1,robot,1,False,False,robot_stimuli\L_Torso_Y_For.mp4,5,,,,,,,,,0,88,88,88,,,,,,,,,,,,,1755.9398948,1757.0219832,,,,,,,1760.6524026000002,1760.6524026000002,1760.6524026000002,1760.6524026000002,1760.6524026000002,1760.6524026000002,1760.6524026000002,1760.6524026000002,None,None,None,,,,,,,,,,,1755.9398948,1755.9398948,None,,1757.0219832,1757.0219832,n,2.135389000000117,1755.9398948,1755.9398948,,,5,001,2024-06-07_13h51.21.659,robot_nback_sign,2022.2.5,59.9341443621769,
R_Head_X_Back,False,1,robot,1,False,False,robot_stimuli\R_Head_X_Back.mp4,5,,,,,,,,,0,89,89,89,,,,,,,,,,,,,1760.6524026000002,1761.7434001000001,,,,,,,1765.3965591,1765.3965591,1765.3965591,1765.3965591,1765.3965591,1765.3965591,1765.3965591,1765.3965591,None,None,None,,,,,,,,,,,1760.6524026000002,1760.6524026000002,None,,1761.7434001000001,1761.7434001000001,n,2.8291528000000596,1760.6524026000002,1760.6524026000002,,,5,001,2024-06-07_13h51.21.659,robot_nback_sign,2022.2.5,59.9341443621769,
R_Head_X_Back,True,1,robot,1,False,False,robot_stimuli\R_Head_X_Back.mp4,5,,,,,,,,,0,90,90,90,,,,,,,,,,,,,1765.3965591,,,,,,,,1770.1396801,1770.1396801,1770.1396801,1770.1396801,1770.1396801,1770.1396801,1770.1396801,1770.1396801,None,None,None,,,,,,,,,,,1765.3965591,1765.3965591,None,,1766.5001357,1766.5001357,c,2.4640325000001155,1765.3965591,1765.3965591,,,5,001,2024-06-07_13h51.21.659,robot_nback_sign,2022.2.5,59.9341443621769,
R_Head_Z_Back,False,1,robot,1,False,False,robot_stimuli\R_Head_Z_Back.mp4,5,,,,,,,,,0,91,91,91,,,,,,,,,,,,,1770.1396801,1771.2224737000001,,,,,,,1774.872032,1774.872032,1774.872032,1774.872032,1774.872032,1774.872032,1774.872032,1774.872032,None,None,None,,,,,,,,,,,1770.1396801,1770.1396801,None,,1771.2224737000001,1771.2224737000001,n,2.973483699999946,1770.1396801,1770.1396801,,,5,001,2024-06-07_13h51.21.659,robot_nback_sign,2022.2.5,59.9341443621769,
L_Head_Z_Back,False,1,robot,1,False,False,robot_stimuli\L_Head_Z_Back.mp4,5,,,,,,,,,0,92,92,92,,,,,,,,,,,,,1774.872032,1775.9569747,,,,,,,1779.6055860000001,1779.6055860000001,1779.6055860000001,1779.6055860000001,1779.6055860000001,1779.6055860000001,1779.6055860000001,1779.6055860000001,None,None,None,,,,,,,,,,,1774.872032,1774.872032,None,,1775.9569747,1775.9569747,n,3.0155771000000584,1774.872032,1774.872032,,,5,001,2024-06-07_13h51.21.659,robot_nback_sign,2022.2.5,59.9341443621769,
R_Arm_X_Back,False,1,robot,1,False,False,robot_stimuli\R_Arm_X_Back.mp4,5,,,,,,,,,0,93,93,93,,,,,,,,,,,,,1779.6055860000001,1780.6878822,,,,,,,1784.326739,1784.326739,1784.326739,1784.326739,1784.326739,1784.326739,1784.326739,1784.326739,None,None,None,,,,,,,,,,,1779.6055860000001,1779.6055860000001,None,,1780.6878822,1780.6878822,n,2.7013565000000597,1779.6055860000001,1779.6055860000001,,,5,001,2024-06-07_13h51.21.659,robot_nback_sign,2022.2.5,59.9341443621769,
R_Arm_Z_For,False,1,robot,1,False,False,robot_stimuli\R_Arm_Z_For.mp4,5,,,,,,,,,0,94,94,94,,,,,,,,,,,,,1784.326739,1785.4064197,,,,,,,1789.0560095,1789.0560095,1789.0560095,1789.0560095,1789.0560095,1789.0560095,1789.0560095,1789.0560095,None,None,None,,,,,,,,,,,1784.326739,1784.326739,None,,1785.4064197,1785.4064197,n,2.6861832000000447,1784.326739,1784.326739,,,5,001,2024-06-07_13h51.21.659,robot_nback_sign,2022.2.5,59.9341443621769,
R_Arm_Z_For,True,1,robot,1,False,False,robot_stimuli\R_Arm_Z_For.mp4,5,,,,,,,,,0,95,95,95,,,,,,,,,,,,,1789.0560095,1790.136025,,,,,,,1793.7758712,1793.7758712,1793.7758712,1793.7758712,1793.7758712,1793.7758712,1793.7758712,1793.7758712,None,None,None,,,,,,,,,,,1789.0560095,1789.0560095,None,,1790.136025,1790.136025,c,2.3403876999999227,1789.0560095,1789.0560095,,,5,001,2024-06-07_13h51.21.659,robot_nback_sign,2022.2.5,59.9341443621769,
R_Arm_Y_For,False,1,robot,1,False,False,robot_stimuli\R_Arm_Y_For.mp4,5,,,,,,,,,0,96,96,96,,,,,,,,,,,,,1793.7758712,1794.8554615,,,,,,,1798.3617866000002,1798.3617866000002,1798.3617866000002,1798.3617866000002,1798.3617866000002,1798.3617866000002,1798.3617866000002,1798.3617866000002,None,None,None,,,,,,,,,,,1793.7758712,1793.7758712,None,,1794.8554615,1794.8554615,n,2.42847500000002,1793.7758712,1793.7758712,,,5,001,2024-06-07_13h51.21.659,robot_nback_sign,2022.2.5,59.9341443621769,
L_Torso_X_Back,False,1,robot,1,False,False,robot_stimuli\L_Torso_X_Back.mp4,5,,,,,,,,,0,97,97,97,,,,,,,,,,,,,1798.3617866000002,1799.4415379000002,,,,,,,1803.0919157,1803.0919157,1803.0919157,1803.0919157,1803.0919157,1803.0919157,1803.0919157,1803.0919157,None,None,None,,,,,,,,,,,1798.3617866000002,1798.3617866000002,None,,1799.4415379000002,1799.4415379000002,n,1.6116121000000874,1798.3617866000002,1798.3617866000002,,,5,001,2024-06-07_13h51.21.659,robot_nback_sign,2022.2.5,59.9341443621769,
L_Torso_Z_Back,False,1,robot,1,False,False,robot_stimuli\L_Torso_Z_Back.mp4,5,,,,,,,,,0,98,98,98,,,,,,,,,,,,,1803.0919157,1804.1781311,,,,,,,1807.6945464,1807.6945464,1807.6945464,1807.6945464,1807.6945464,1807.6945464,1807.6945464,1807.6945464,None,None,None,,,,,,,,,,,1803.0919157,1803.0919157,None,,1804.1781311,1804.1781311,n,2.3299672999999927,1803.0919157,1803.0919157,,,5,001,2024-06-07_13h51.21.659,robot_nback_sign,2022.2.5,59.9341443621769,
R_Arm_Z_Back,False,1,robot,1,False,True,robot_stimuli\R_Arm_Z_Back.mp4,5,,,,,,,,,0,99,99,99,,,,,,,,,,,,,1807.6945464,1808.7718016000001,,,,,,,1812.4436647,1818.42126,1812.4436647,1818.42126,1812.4436647,1818.42126,1812.4436647,1818.42126,38.48765432098765,4.267760200000112,space,,,,5.93652490000008,,,,,,,1807.6945464,1807.6945464,None,,1808.7718016000001,1808.7718016000001,n,1.6329132000001607,1807.6945464,1807.6945464,,,5,001,2024-06-07_13h51.21.659,robot_nback_sign,2022.2.5,59.9341443621769,
R_Torso_X_Back,False,3,robot,1,True,False,robot_stimuli\R_Torso_X_Back.mp4,5,,,,,,,,,0,100,100,100,,,,,,,,,,,,,1834.5616581000002,1835.6418471000002,,,,,,,1839.2694064,1839.2694064,1839.2694064,1839.2694064,1839.2694064,1839.2694064,1839.2694064,1839.2694064,None,None,None,,,,,,,,,,,1818.42126,1818.42126,space,16.120628699999855,1835.6418471000002,1835.6418471000002,n,0.923105000000163,,,,,5,001,2024-06-07_13h51.21.659,robot_nback_sign,2022.2.5,59.9341443621769,
L_Head_X_For,False,3,robot,1,False,False,robot_stimuli\L_Head_X_For.mp4,5,,,,,,,,,0,101,101,101,,,,,,,,,,,,,1839.2694064,1840.3565405000002,,,,,,,1843.9401518000002,1843.9401518000002,1843.9401518000002,1843.9401518000002,1843.9401518000002,1843.9401518000002,1843.9401518000002,1843.9401518000002,None,None,None,,,,,,,,,,,1839.2694064,1839.2694064,None,,1840.3565405000002,1840.3565405000002,None,,1839.2694064,1839.2694064,,,5,001,2024-06-07_13h51.21.659,robot_nback_sign,2022.2.5,59.9341443621769,
R_Head_Z_Back,False,3,robot,1,False,False,robot_stimuli\R_Head_Z_Back.mp4,5,,,,,,,,,0,102,102,102,,,,,,,,,,,,,1843.9401518000002,1845.0223258,,,,,,,1848.6615635,1848.6615635,1848.6615635,1848.6615635,1848.6615635,1848.6615635,1848.6615635,1848.6615635,None,None,None,,,,,,,,,,,1843.9401518000002,1843.9401518000002,None,,1845.0223258,1845.0223258,n,2.6947952999999814,1843.9401518000002,1843.9401518000002,,,5,001,2024-06-07_13h51.21.659,robot_nback_sign,2022.2.5,59.9341443621769,
L_Head_X_For,False,3,robot,1,False,False,robot_stimuli\L_Head_X_For.mp4,5,,,,,,,,,0,103,103,103,,,,,,,,,,,,,1848.6615635,1849.7398364,,,,,,,1853.322065,1853.322065,1853.322065,1853.322065,1853.322065,1853.322065,1853.322065,1853.322065,None,None,None,,,,,,,,,,,1848.6615635,1848.6615635,None,,1849.7398364,1849.7398364,n,2.4975712999999757,1848.6615635,1848.6615635,,,5,001,2024-06-07_13h51.21.659,robot_nback_sign,2022.2.5,59.9341443621769,
L_Head_X_For,True,3,robot,1,False,False,robot_stimuli\L_Head_X_For.mp4,5,,,,,,,,,0,104,104,104,,,,,,,,,,,,,1853.322065,1854.4031391,,,,,,,1857.9769808,1857.9769808,1857.9769808,1857.9769808,1857.9769808,1857.9769808,1857.9769808,1857.9769808,None,None,None,,,,,,,,,,,1853.322065,1853.322065,None,,1854.4031391,1854.4031391,c,2.2409290999999882,1853.322065,1853.322065,,,5,001,2024-06-07_13h51.21.659,robot_nback_sign,2022.2.5,59.9341443621769,
R_Head_X_Back,False,3,robot,1,False,False,robot_stimuli\R_Head_X_Back.mp4,5,,,,,,,,,0,105,105,105,,,,,,,,,,,,,1857.9769808,1859.0556407000001,,,,,,,1862.6936053000002,1862.6936053000002,1862.6936053000002,1862.6936053000002,1862.6936053000002,1862.6936053000002,1862.6936053000002,1862.6936053000002,None,None,None,,,,,,,,,,,1857.9769808,1857.9769808,None,,1859.0556407000001,1859.0556407000001,n,2.3884145000000387,1857.9769808,1857.9769808,,,5,001,2024-06-07_13h51.21.659,robot_nback_sign,2022.2.5,59.9341443621769,
L_Base_Y_For,False,3,robot,1,False,False,robot_stimuli\L_Base_Y_For.mp4,5,,,,,,,,,0,106,106,106,,,,,,,,,,,,,1862.6936053000002,1863.7725432,,,,,,,1867.3123469000002,1867.3123469000002,1867.3123469000002,1867.3123469000002,1867.3123469000002,1867.3123469000002,1867.3123469000002,1867.3123469000002,None,None,None,,,,,,,,,,,1862.6936053000002,1862.6936053000002,None,,1863.7725432,1863.7725432,n,2.392637600000029,1862.6936053000002,1862.6936053000002,,,5,001,2024-06-07_13h51.21.659,robot_nback_sign,2022.2.5,59.9341443621769,
L_Torso_Y_Back,False,3,robot,1,False,False,robot_stimuli\L_Torso_Y_Back.mp4,5,,,,,,,,,0,107,107,107,,,,,,,,,,,,,1867.3123469000002,1868.3891856,,,,,,,1871.8862397,1871.8862397,1871.8862397,1871.8862397,1871.8862397,1871.8862397,1871.8862397,1871.8862397,None,None,None,,,,,,,,,,,1867.3123469000002,1867.3123469000002,None,,1868.3891856,1868.3891856,n,1.9514838000000907,1867.3123469000002,1867.3123469000002,,,5,001,2024-06-07_13h51.21.659,robot_nback_sign,2022.2.5,59.9341443621769,
L_Head_X_Back,False,3,robot,1,False,False,robot_stimuli\L_Head_X_Back.mp4,5,,,,,,,,,0,108,108,108,,,,,,,,,,,,,1871.8862397,1872.973306,,,,,,,1876.6123707000002,1876.6123707000002,1876.6123707000002,1876.6123707000002,1876.6123707000002,1876.6123707000002,1876.6123707000002,1876.6123707000002,None,None,None,,,,,,,,,,,1871.8862397,1871.8862397,None,,1872.973306,1872.973306,c,2.296062199999909,1871.8862397,1871.8862397,,,5,001,2024-06-07_13h51.21.659,robot_nback_sign,2022.2.5,59.9341443621769,
L_Base_Y_For,True,3,robot,1,False,False,robot_stimuli\L_Base_Y_For.mp4,5,,,,,,,,,0,109,109,109,,,,,,,,,,,,,1876.6123707000002,1877.6954058000001,,,,,,,1881.242661,1881.242661,1881.242661,1881.242661,1881.242661,1881.242661,1881.242661,1881.242661,None,None,None,,,,,,,,,,,1876.6123707000002,1876.6123707000002,None,,1877.6954058000001,1877.6954058000001,None,,1876.6123707000002,1876.6123707000002,,,5,001,2024-06-07_13h51.21.659,robot_nback_sign,2022.2.5,59.9341443621769,
L_Torso_X_Back,False,3,robot,1,False,False,robot_stimuli\L_Torso_X_Back.mp4,5,,,,,,,,,0,110,110,110,,,,,,,,,,,,,1881.242661,1882.3217904,,,,,,,1885.9615743000002,1885.9615743000002,1885.9615743000002,1885.9615743000002,1885.9615743000002,1885.9615743000002,1885.9615743000002,1885.9615743000002,None,None,None,,,,,,,,,,,1881.242661,1881.242661,None,,1882.3217904,1882.3217904,n,2.580014200000136,1881.242661,1881.242661,,,5,001,2024-06-07_13h51.21.659,robot_nback_sign,2022.2.5,59.9341443621769,
L_Base_Z_Back,False,3,robot,1,False,False,robot_stimuli\L_Base_Z_Back.mp4,5,,,,,,,,,0,111,111,111,,,,,,,,,,,,,1885.9615743000002,1887.0436789,,,,,,,1890.6928472000002,1890.6928472000002,1890.6928472000002,1890.6928472000002,1890.6928472000002,1890.6928472000002,1890.6928472000002,1890.6928472000002,None,None,None,,,,,,,,,,,1885.9615743000002,1885.9615743000002,None,,1887.0436789,1887.0436789,n,2.6410213999998575,1885.9615743000002,1885.9615743000002,,,5,001,2024-06-07_13h51.21.659,robot_nback_sign,2022.2.5,59.9341443621769,
R_Head_X_Back,False,3,robot,1,False,False,robot_stimuli\R_Head_X_Back.mp4,5,,,,,,,,,0,112,112,112,,,,,,,,,,,,,1890.6928472000002,1891.7732789000002,,,,,,,1895.4019917,1895.4019917,1895.4019917,1895.4019917,1895.4019917,1895.4019917,1895.4019917,1895.4019917,None,None,None,,,,,,,,,,,1890.6928472000002,1890.6928472000002,None,,1891.7732789000002,1891.7732789000002,n,2.359923000000066,1890.6928472000002,1890.6928472000002,,,5,001,2024-06-07_13h51.21.659,robot_nback_sign,2022.2.5,59.9341443621769,
L_Base_Y_Back,False,3,robot,1,False,False,robot_stimuli\L_Base_Y_Back.mp4,5,,,,,,,,,0,113,113,113,,,,,,,,,,,,,1895.4019917,1896.4898711,,,,,,,1900.0619274,1900.0619274,1900.0619274,1900.0619274,1900.0619274,1900.0619274,1900.0619274,1900.0619274,None,None,None,,,,,,,,,,,1895.4019917,1895.4019917,None,,1896.4898711,1896.4898711,c,2.8585986000001355,1895.4019917,1895.4019917,,,5,001,2024-06-07_13h51.21.659,robot_nback_sign,2022.2.5,59.9341443621769,
L_Base_Z_Back,True,3,robot,1,False,False,robot_stimuli\L_Base_Z_Back.mp4,5,,,,,,,,,0,114,114,114,,,,,,,,,,,,,1900.0619274,1901.1392166,,,,,,,1904.7689326,1904.7689326,1904.7689326,1904.7689326,1904.7689326,1904.7689326,1904.7689326,1904.7689326,None,None,None,,,,,,,,,,,1900.0619274,1900.0619274,None,,1901.1392166,1901.1392166,n,2.5864085999999986,1900.0619274,1900.0619274,,,5,001,2024-06-07_13h51.21.659,robot_nback_sign,2022.2.5,59.9341443621769,
R_Base_X_For,False,3,robot,1,False,False,robot_stimuli\R_Base_X_For.mp4,5,,,,,,,,,0,115,115,115,,,,,,,,,,,,,1904.7689326,1905.8576094,,,,,,,1909.4070935,1909.4070935,1909.4070935,1909.4070935,1909.4070935,1909.4070935,1909.4070935,1909.4070935,None,None,None,,,,,,,,,,,1904.7689326,1904.7689326,None,,1905.8576094,1905.8576094,n,1.5719125000001384,1904.7689326,1904.7689326,,,5,001,2024-06-07_13h51.21.659,robot_nback_sign,2022.2.5,59.9341443621769,
R_Torso_Y_Back,False,3,robot,1,False,False,robot_stimuli\R_Torso_Y_Back.mp4,5,,,,,,,,,0,116,116,116,,,,,,,,,,,,,1909.4070935,1910.4899400000002,,,,,,,1914.1389847,1914.1389847,1914.1389847,1914.1389847,1914.1389847,1914.1389847,1914.1389847,1914.1389847,None,None,None,,,,,,,,,,,1909.4070935,1909.4070935,None,,1910.4899400000002,1910.4899400000002,n,2.3879952999999148,1909.4070935,1909.4070935,,,5,001,2024-06-07_13h51.21.659,robot_nback_sign,2022.2.5,59.9341443621769,
R_Base_X_For,False,3,robot,1,False,False,robot_stimuli\R_Base_X_For.mp4,5,,,,,,,,,0,117,117,117,,,,,,,,,,,,,1914.1389847,1915.2219687000002,,,,,,,1918.7531797000001,1918.7531797000001,1918.7531797000001,1918.7531797000001,1918.7531797000001,1918.7531797000001,1918.7531797000001,1918.7531797000001,None,None,None,,,,,,,,,,,1914.1389847,1914.1389847,None,,1915.2219687000002,1915.2219687000002,n,2.6800877999999955,1914.1389847,1914.1389847,,,5,001,2024-06-07_13h51.21.659,robot_nback_sign,2022.2.5,59.9341443621769,
R_Torso_X_Back,False,3,robot,1,False,False,robot_stimuli\R_Torso_X_Back.mp4,5,,,,,,,,,0,118,118,118,,,,,,,,,,,,,1918.7531797000001,1919.8422489000002,,,,,,,1923.4921615000003,1923.4921615000003,1923.4921615000003,1923.4921615000003,1923.4921615000003,1923.4921615000003,1923.4921615000003,1923.4921615000003,None,None,None,,,,,,,,,,,1918.7531797000001,1918.7531797000001,None,,1919.8422489000002,1919.8422489000002,c,2.2664811999999017,1918.7531797000001,1918.7531797000001,,,5,001,2024-06-07_13h51.21.659,robot_nback_sign,2022.2.5,59.9341443621769,
L_Torso_X_Back,False,3,robot,1,False,False,robot_stimuli\L_Torso_X_Back.mp4,5,,,,,,,,,0,119,119,119,,,,,,,,,,,,,1923.4921615000003,1924.5742868000002,,,,,,,1928.2295963000001,1928.2295963000001,1928.2295963000001,1928.2295963000001,1928.2295963000001,1928.2295963000001,1928.2295963000001,1928.2295963000001,None,None,None,,,,,,,,,,,1923.4921615000003,1923.4921615000003,None,,1924.5742868000002,1924.5742868000002,n,2.438691000000148,1923.4921615000003,1923.4921615000003,,,5,001,2024-06-07_13h51.21.659,robot_nback_sign,2022.2.5,59.9341443621769,
R_Base_X_For,True,3,robot,1,False,False,robot_stimuli\R_Base_X_For.mp4,5,,,,,,,,,0,120,120,120,,,,,,,,,,,,,1928.2295963000001,,,,,,,,1932.8801653,1932.8801653,1932.8801653,1932.8801653,1932.8801653,1932.8801653,1932.8801653,1932.8801653,None,None,None,,,,,,,,,,,1928.2295963000001,1928.2295963000001,None,,1929.3364070000002,1929.3364070000002,c,2.805539799999991,1928.2295963000001,1928.2295963000001,,,5,001,2024-06-07_13h51.21.659,robot_nback_sign,2022.2.5,59.9341443621769,
L_Torso_X_For,False,3,robot,1,False,False,robot_stimuli\L_Torso_X_For.mp4,5,,,,,,,,,0,121,121,121,,,,,,,,,,,,,1932.8801653,,,,,,,,1937.6211254,1937.6211254,1937.6211254,1937.6211254,1937.6211254,1937.6211254,1937.6211254,1937.6211254,None,None,None,,,,,,,,,,,1932.8801653,1932.8801653,None,,1933.9898934000003,1933.9898934000003,n,3.110942699999981,1932.8801653,1932.8801653,,,5,001,2024-06-07_13h51.21.659,robot_nback_sign,2022.2.5,59.9341443621769,
L_Arm_Z_For,False,3,robot,1,False,False,robot_stimuli\L_Arm_Z_For.mp4,5,,,,,,,,,0,122,122,122,,,,,,,,,,,,,1937.6211254,1938.7098399000001,,,,,,,1942.3630228000002,1942.3630228000002,1942.3630228000002,1942.3630228000002,1942.3630228000002,1942.3630228000002,1942.3630228000002,1942.3630228000002,None,None,None,,,,,,,,,,,1937.6211254,1937.6211254,None,,1938.7098399000001,1938.7098399000001,n,2.7992148000001578,1937.6211254,1937.6211254,,,5,001,2024-06-07_13h51.21.659,robot_nback_sign,2022.2.5,59.9341443621769,
R_Base_X_For,True,3,robot,1,False,False,robot_stimuli\R_Base_X_For.mp4,5,,,,,,,,,0,123,123,123,,,,,,,,,,,,,1942.3630228000002,,,,,,,,1947.0097668000003,1947.0097668000003,1947.0097668000003,1947.0097668000003,1947.0097668000003,1947.0097668000003,1947.0097668000003,1947.0097668000003,None,None,None,,,,,,,,,,,1942.3630228000002,1942.3630228000002,None,,1943.4698477000002,1943.4698477000002,None,,1942.3630228000002,1942.3630228000002,,,5,001,2024-06-07_13h51.21.659,robot_nback_sign,2022.2.5,59.9341443621769,
L_Base_X_Back,False,3,robot,1,False,False,robot_stimuli\L_Base_X_Back.mp4,5,,,,,,,,,0,124,124,124,,,,,,,,,,,,,1947.0097668000003,1948.091868,,,,,,,1951.7062054000003,1951.7062054000003,1951.7062054000003,1951.7062054000003,1951.7062054000003,1951.7062054000003,1951.7062054000003,1951.7062054000003,None,None,None,,,,,,,,,,,1947.0097668000003,1947.0097668000003,None,,1948.091868,1948.091868,n,2.5540772999996477,1947.0097668000003,1947.0097668000003,,,5,001,2024-06-07_13h51.21.659,robot_nback_sign,2022.2.5,59.9341443621769,
