sequence,is_target,condition,stimuli,block,is_block_beginning,is_block_ending,fname,subject,retraining.thisRepN,retraining.thisTrialN,retraining.thisN,retraining.thisIndex,training.thisRepN,training.thisTrialN,training.thisN,training.thisIndex,trials.thisRepN,trials.thisTrialN,trials.thisN,trials.thisIndex,langage_text.started,langage_key.started,langage_key.keys,langage_key.rt,intro_text.started,intro_key.started,intro_key.keys,intro_key.rt,training_robot_intro_text.started,training_robot_intro_key.started,training_robot_intro_key.keys,training_robot_intro_key.rt,cross.started,cross.stopped,training_letter.started,training_robot_key.started,training_robot_question.started,training_robot_keys.started,training_letter.stopped,training_robot_key.keys,RSME_labels.started,RSME_labels.stopped,RSME_ticks.started,RSME_ticks.stopped,RSME_text.started,RSME_text.stopped,RSME_key.started,RSME_key.stopped,RSME_ticks.response,RSME_ticks.rt,RSME_key.keys,training_robot_intro_text.stopped,training_robot_intro_key.stopped,training_robot_key.rt,RSME_key.rt,training_robot_movie.started,experiment_beginning_text.started,experiment_beginning_keys.started,experiment_beginning_key.started,experiment_beginning_key.keys,experiment_beginning_key.rt,block_intro_text.started,block_intro_key.started,block_intro_key.keys,block_intro_key.rt,movie.started,key.started,key.keys,key.rt,block_intro_text.stopped,block_intro_key.stopped,letter.started,letter.stopped,participant,session,date,expName,psychopyVersion,frameRate,
,,,,,,,,,,,,,,,,,,,,,23.1244729,23.1244729,f,1112.2618303000002,,,,,,,,,,,,,,,,,,,,,,,,,,,,,,,,,,,,,,,,,,,,,,,,,,10,001,2024-06-18_09h45.18.178,robot_nback_sign,2022.2.5,60.01385119685948,
,,,,,,,,,,,,,,,,,,,,,,,,,1135.4511241,1135.4511241,space,83.37443900000014,,,,,,,,,,,,,,,,,,,,,,,,,,,,,,,,,,,,,,,,,,,,,,10,001,2024-06-18_09h45.18.178,robot_nback_sign,2022.2.5,60.01385119685948,
P,False,1,letter,2,True,False,robot_stimuli\\filler.mp4,10,0,0,0,0,0,0,0,0,,,,,,,,,,,,,1218.8633729,1218.8633729,space,29.962573600000013,1248.8462573,1250.3439933,1250.3439933,1250.3439933,1250.3439933,1250.3439933,1252.6555667,None,1252.6555667,1252.6555667,1252.6555667,1252.6555667,1252.6555667,1252.6555667,1252.6555667,1252.6555667,None,None,None,,,,,,,,,,,,,,,,,,,,,,,10,001,2024-06-18_09h45.18.178,robot_nback_sign,2022.2.5,60.01385119685948,
F,False,1,letter,2,False,False,robot_stimuli\\filler.mp4,10,0,0,0,0,0,1,1,1,,,,,,,,,,,,,1252.6555667,1252.6555667,None,,1252.6555667,,1253.7301514,1253.7301514,1253.7301514,1253.7301514,1255.758733,None,1255.758733,1255.758733,1255.758733,1255.758733,1255.758733,1255.758733,1255.758733,1255.758733,None,None,None,1252.6555667,1252.6555667,,,,,,,,,,,,,,,,,,,,,10,001,2024-06-18_09h45.18.178,robot_nback_sign,2022.2.5,60.01385119685948,
N,False,1,letter,2,False,False,robot_stimuli\\filler.mp4,10,0,0,0,0,0,2,2,2,,,,,,,,,,,,,1255.758733,1255.758733,None,,1255.758733,1256.8300421,1256.8300421,1256.8300421,1256.8300421,1256.8300421,1258.8587761,None,1258.8587761,1258.8587761,1258.8587761,1258.8587761,1258.8587761,1258.8587761,1258.8587761,1258.8587761,None,None,None,1255.758733,1255.758733,,,,,,,,,,,,,,,,,,,,,10,001,2024-06-18_09h45.18.178,robot_nback_sign,2022.2.5,60.01385119685948,
N,True,1,letter,2,False,False,robot_stimuli\\filler.mp4,10,0,0,0,0,0,3,3,3,,,,,,,,,,,,,1258.8587761,1258.8587761,None,,1258.8587761,1259.9296893,1259.9296893,1259.9296893,1259.9296893,1259.9296893,1261.964029,None,1261.964029,1261.964029,1261.964029,1261.964029,1261.964029,1261.964029,1261.964029,1261.964029,None,None,None,1258.8587761,1258.8587761,,,,,,,,,,,,,,,,,,,,,10,001,2024-06-18_09h45.18.178,robot_nback_sign,2022.2.5,60.01385119685948,
N,True,1,letter,2,False,False,robot_stimuli\\filler.mp4,10,0,0,0,0,0,4,4,4,,,,,,,,,,,,,1261.964029,1261.964029,None,,1261.964029,,1263.0459563,1263.0459563,1263.0459563,1263.0459563,1265.0825474,c,1265.0825474,1265.0825474,1265.0825474,1265.0825474,1265.0825474,1265.0825474,1265.0825474,1265.0825474,None,None,None,1261.964029,1261.964029,0.6916079000002071,,,,,,,,,,,,,,,,,,,,10,001,2024-06-18_09h45.18.178,robot_nback_sign,2022.2.5,60.01385119685948,
J,False,1,letter,2,False,True,robot_stimuli\\filler.mp4,10,0,0,0,0,0,5,5,5,,,,,,,,,,,,,1265.0825474,1265.0825474,None,,1265.0825474,,1266.1673034,1266.1673034,1266.1673034,1266.1673034,1268.4545616999999,n,1268.4545616999999,1287.8047116999999,1268.4545616999999,1287.8047116999999,1268.4545616999999,1287.8047116999999,1268.4545616999999,1287.8047116999999,37.25308641975308,17.17423819999999,space,1265.0825474,1265.0825474,0.5770632999997076,19.28992070000001,,,,,,,,,,,,,,,,,,,10,001,2024-06-18_09h45.18.178,robot_nback_sign,2022.2.5,60.01385119685948,
S,False,2,letter,2,True,False,robot_stimuli\\filler.mp4,10,0,0,0,0,0,6,6,6,,,,,,,,,,,,,1287.8047116999999,1287.8047116999999,space,9.509076899999826,1297.3462098,1298.4253707999999,1298.4253707999999,1298.4253707999999,1298.4253707999999,1298.4253707999999,1300.4504898,n,1300.4504898,1300.4504898,1300.4504898,1300.4504898,1300.4504898,1300.4504898,1300.4504898,1300.4504898,None,None,None,,,0.968129899999866,,,,,,,,,,,,,,,,,,,,10,001,2024-06-18_09h45.18.178,robot_nback_sign,2022.2.5,60.01385119685948,
S,False,2,letter,2,False,False,robot_stimuli\\filler.mp4,10,0,0,0,0,0,7,7,7,,,,,,,,,,,,,1300.4504898,1300.4504898,None,,1300.4504898,1301.5268722,1301.5268722,1301.5268722,1301.5268722,1301.5268722,1303.5618607,n,1303.5618607,1303.5618607,1303.5618607,1303.5618607,1303.5618607,1303.5618607,1303.5618607,1303.5618607,None,None,None,1300.4504898,1300.4504898,1.530277199999972,,,,,,,,,,,,,,,,,,,,10,001,2024-06-18_09h45.18.178,robot_nback_sign,2022.2.5,60.01385119685948,
S,True,2,letter,2,False,False,robot_stimuli\\filler.mp4,10,0,0,0,0,0,8,8,8,,,,,,,,,,,,,1303.5618607,1303.5618607,None,,1303.5618607,1304.6282289,1304.6282289,1304.6282289,1304.6282289,1304.6282289,1306.6620069,c,1306.6620069,1306.6620069,1306.6620069,1306.6620069,1306.6620069,1306.6620069,1306.6620069,1306.6620069,None,None,None,1303.5618607,1303.5618607,0.5901149000000885,,,,,,,,,,,,,,,,,,,,10,001,2024-06-18_09h45.18.178,robot_nback_sign,2022.2.5,60.01385119685948,
S,True,2,letter,2,False,False,robot_stimuli\\filler.mp4,10,0,0,0,0,0,9,9,9,,,,,,,,,,,,,1306.6620069,1306.6620069,None,,1306.6620069,1307.7263911,1307.7263911,1307.7263911,1307.7263911,1307.7263911,1309.7630321,c,1309.7630321,1309.7630321,1309.7630321,1309.7630321,1309.7630321,1309.7630321,1309.7630321,1309.7630321,None,None,None,1306.6620069,1306.6620069,0.4912082000000453,,,,,,,,,,,,,,,,,,,,10,001,2024-06-18_09h45.18.178,robot_nback_sign,2022.2.5,60.01385119685948,
C,False,2,letter,2,False,False,robot_stimuli\\filler.mp4,10,0,0,0,0,0,10,10,10,,,,,,,,,,,,,1309.7630321,1309.7630321,None,,1309.7630321,1310.8364758999999,1310.8364758999999,1310.8364758999999,1310.8364758999999,1310.8364758999999,1312.8699124,n,1312.8699124,1312.8699124,1312.8699124,1312.8699124,1312.8699124,1312.8699124,1312.8699124,1312.8699124,None,None,None,1309.7630321,1309.7630321,1.316636700000089,,,,,,,,,,,,,,,,,,,,10,001,2024-06-18_09h45.18.178,robot_nback_sign,2022.2.5,60.01385119685948,
V,False,2,letter,2,False,True,robot_stimuli\\filler.mp4,10,0,0,0,0,0,11,11,11,,,,,,,,,,,,,1312.8699124,1312.8699124,None,,1312.8699124,1313.9500446,1313.9500446,1313.9500446,1313.9500446,1313.9500446,1316.2117418999999,n,1316.2117418999999,1329.5832334,1316.2117418999999,1329.5832334,1316.2117418999999,1329.5832334,1316.2117418999999,1329.5832334,36.94444444444444,6.470270199999959,space,1312.8699124,1312.8699124,1.6663285999997868,13.324561200000034,,,,,,,,,,,,,,,,,,,10,001,2024-06-18_09h45.18.178,robot_nback_sign,2022.2.5,60.01385119685948,
T,False,3,letter,2,True,False,robot_stimuli\\filler.mp4,10,0,0,0,0,0,12,12,12,,,,,,,,,,,,,1329.5832334,1329.5832334,space,1.9218964999999741,1331.5296653,1332.6031246,1332.6031246,1332.6031246,1332.6031246,1332.6031246,1334.834032,None,1334.834032,1334.834032,1334.834032,1334.834032,1334.834032,1334.834032,1334.834032,1334.834032,None,None,None,,,,,,,,,,,,,,,,,,,,,,,10,001,2024-06-18_09h45.18.178,robot_nback_sign,2022.2.5,60.01385119685948,
G,False,3,letter,2,False,False,robot_stimuli\\filler.mp4,10,0,0,0,0,0,13,13,13,,,,,,,,,,,,,1334.834032,1334.834032,None,,1334.834032,1335.9159144,1335.9159144,1335.9159144,1335.9159144,1335.9159144,1338.1543092,None,1338.1543092,1338.1543092,1338.1543092,1338.1543092,1338.1543092,1338.1543092,1338.1543092,1338.1543092,None,None,None,1334.834032,1334.834032,,,,,,,,,,,,,,,,,,,,,10,001,2024-06-18_09h45.18.178,robot_nback_sign,2022.2.5,60.01385119685948,
J,False,3,letter,2,False,False,robot_stimuli\\filler.mp4,10,0,0,0,0,0,14,14,14,,,,,,,,,,,,,1338.1543092,1338.1543092,None,,1338.1543092,1339.228602,1339.228602,1339.228602,1339.228602,1339.228602,1341.2655041,None,1341.2655041,1341.2655041,1341.2655041,1341.2655041,1341.2655041,1341.2655041,1341.2655041,1341.2655041,None,None,None,1338.1543092,1338.1543092,,,,,,,,,,,,,,,,,,,,,10,001,2024-06-18_09h45.18.178,robot_nback_sign,2022.2.5,60.01385119685948,
T,True,3,letter,2,False,False,robot_stimuli\\filler.mp4,10,0,0,0,0,0,15,15,15,,,,,,,,,,,,,1341.2655041,1341.2655041,None,,1341.2655041,,1342.3483703,1342.3483703,1342.3483703,1342.3483703,1344.5813693,c,1344.5813693,1344.5813693,1344.5813693,1344.5813693,1344.5813693,1344.5813693,1344.5813693,1344.5813693,None,None,None,1341.2655041,1341.2655041,1.5495160999998632,,,,,,,,,,,,,,,,,,,,10,001,2024-06-18_09h45.18.178,robot_nback_sign,2022.2.5,60.01385119685948,
C,False,3,letter,2,False,False,robot_stimuli\\filler.mp4,10,0,0,0,0,0,16,16,16,,,,,,,,,,,,,1344.5813693,1344.5813693,None,,1344.5813693,,1345.6647675,1345.6647675,1345.6647675,1345.6647675,1347.8962757,None,1347.8962757,1347.8962757,1347.8962757,1347.8962757,1347.8962757,1347.8962757,1347.8962757,1347.8962757,None,None,None,1344.5813693,1344.5813693,,,,,,,,,,,,,,,,,,,,,10,001,2024-06-18_09h45.18.178,robot_nback_sign,2022.2.5,60.01385119685948,
J,True,3,letter,2,False,True,robot_stimuli\\filler.mp4,10,0,0,0,0,0,17,17,17,,,,,,,,,,,,,1347.8962757,1347.8962757,None,,1347.8962757,1348.9650910999999,1348.9650910999999,1348.9650910999999,1348.9650910999999,1348.9650910999999,1351.2253802,c,1351.2253802,1365.7278069,1351.2253802,1365.7278069,1351.2253802,1365.7278069,1351.2253802,1365.7278069,36.79012345679013,13.921146599999929,space,1347.8962757,1347.8962757,1.4603061999998488,14.432030599999933,,,,,,,,,,,,,,,,,,,10,001,2024-06-18_09h45.18.178,robot_nback_sign,2022.2.5,60.01385119685948,
R_Base_Z_For,False,1,robot,1,True,False,robot_stimuli\R_Base_Z_For.mp4,10,0,0,0,0,0,18,18,18,,,,,,,,,,,,,1365.7278069,1365.7278069,space,2.184557200000171,1367.9295633,1369.0558596,,1369.0558596,1369.0558596,1369.0558596,,None,1372.6794835,1372.6794835,1372.6794835,1372.6794835,1372.6794835,1372.6794835,1372.6794835,1372.6794835,None,None,None,,,,,1369.0558596,,,,,,,,,,,,,,,,,,10,001,2024-06-18_09h45.18.178,robot_nback_sign,2022.2.5,60.01385119685948,
R_Base_Z_For,True,1,robot,1,False,False,robot_stimuli\R_Base_Z_For.mp4,10,0,0,0,0,0,19,19,19,,,,,,,,,,,,,1372.6794835,1372.6794835,None,,1372.6794835,1373.7753245,,1373.7753245,1373.7753245,1373.7753245,,c,1377.4086851,1377.4086851,1377.4086851,1377.4086851,1377.4086851,1377.4086851,1377.4086851,1377.4086851,None,None,None,1372.6794835,1372.6794835,1.810383999999857,,1373.7753245,,,,,,,,,,,,,,,,,,10,001,2024-06-18_09h45.18.178,robot_nback_sign,2022.2.5,60.01385119685948,
R_Arm_X_Back,False,1,robot,1,False,False,robot_stimuli\R_Arm_X_Back.mp4,10,0,0,0,0,0,20,20,20,,,,,,,,,,,,,1377.4086851,1377.4086851,None,,1377.4086851,1378.5137962,,1378.5137962,1378.5137962,1378.5137962,,None,1382.1586834,1382.1586834,1382.1586834,1382.1586834,1382.1586834,1382.1586834,1382.1586834,1382.1586834,None,None,None,1377.4086851,1377.4086851,,,1378.5137962,,,,,,,,,,,,,,,,,,10,001,2024-06-18_09h45.18.178,robot_nback_sign,2022.2.5,60.01385119685948,
L_Torso_Z_For,False,1,robot,1,False,False,robot_stimuli\L_Torso_Z_For.mp4,10,0,0,0,0,0,21,21,21,,,,,,,,,,,,,1382.1586834,1382.1586834,None,,1382.1586834,1383.2629385999999,,1383.2629385999999,1383.2629385999999,1383.2629385999999,,None,1386.9091864,1386.9091864,1386.9091864,1386.9091864,1386.9091864,1386.9091864,1386.9091864,1386.9091864,None,None,None,1382.1586834,1382.1586834,,,1383.2629385999999,,,,,,,,,,,,,,,,,,10,001,2024-06-18_09h45.18.178,robot_nback_sign,2022.2.5,60.01385119685948,
R_Head_X_For,False,1,robot,1,False,False,robot_stimuli\R_Head_X_For.mp4,10,0,0,0,0,0,22,22,22,,,,,,,,,,,,,1386.9091864,1386.9091864,None,,1386.9091864,1388.0125815,,1388.0125815,1388.0125815,1388.0125815,,None,1391.6594038,1391.6594038,1391.6594038,1391.6594038,1391.6594038,1391.6594038,1391.6594038,1391.6594038,None,None,None,1386.9091864,1386.9091864,,,1388.0125815,,,,,,,,,,,,,,,,,,10,001,2024-06-18_09h45.18.178,robot_nback_sign,2022.2.5,60.01385119685948,
R_Head_X_For,True,1,robot,1,False,True,robot_stimuli\R_Head_X_For.mp4,10,0,0,0,0,0,23,23,23,,,,,,,,,,,,,1391.6594038,1391.6594038,None,,1391.6594038,1392.7541109,,1392.7541109,1392.7541109,1392.7541109,,c,1396.4268501,1402.9433588,1396.4268501,1402.9433588,1396.4268501,1402.9433588,1396.4268501,1402.9433588,21.975308641975307,5.207104700000173,space,1391.6594038,1391.6594038,0.9268270999998265,6.470330300000086,1392.7541109,,,,,,,,,,,,,,,,,,10,001,2024-06-18_09h45.18.178,robot_nback_sign,2022.2.5,60.01385119685948,
L_Arm_Y_Back,False,2,robot,1,True,False,robot_stimuli\L_Arm_Y_Back.mp4,10,0,0,0,0,0,24,24,24,,,,,,,,,,,,,1402.9433588,1402.9433588,space,2.3051249000002088,1405.2801299,1406.3771387,,1406.3771387,1406.3771387,1406.3771387,,n,1410.0296002,1410.0296002,1410.0296002,1410.0296002,1410.0296002,1410.0296002,1410.0296002,1410.0296002,None,None,None,,,2.0161469999997905,,1406.3771387,,,,,,,,,,,,,,,,,,10,001,2024-06-18_09h45.18.178,robot_nback_sign,2022.2.5,60.01385119685948,
L_Base_Y_Back,False,2,robot,1,False,False,robot_stimuli\L_Base_Y_Back.mp4,10,0,0,0,0,0,25,25,25,,,,,,,,,,,,,1410.0296002,1410.0296002,None,,1410.0296002,1411.1279024,,1411.1279024,1411.1279024,1411.1279024,,n,1414.7153647,1414.7153647,1414.7153647,1414.7153647,1414.7153647,1414.7153647,1414.7153647,1414.7153647,None,None,None,1410.0296002,1410.0296002,2.1220127999999647,,1411.1279024,,,,,,,,,,,,,,,,,,10,001,2024-06-18_09h45.18.178,robot_nback_sign,2022.2.5,60.01385119685948,
L_Arm_Y_Back,True,2,robot,1,False,False,robot_stimuli\L_Arm_Y_Back.mp4,10,0,0,0,0,0,26,26,26,,,,,,,,,,,,,1414.7153647,1414.7153647,None,,1414.7153647,,,1415.8237188,1415.8237188,1415.8237188,,c,1419.4627105,1419.4627105,1419.4627105,1419.4627105,1419.4627105,1419.4627105,1419.4627105,1419.4627105,None,None,None,1414.7153647,1414.7153647,1.2347363999999459,,1415.8237188,,,,,,,,,,,,,,,,,,10,001,2024-06-18_09h45.18.178,robot_nback_sign,2022.2.5,60.01385119685948,
R_Head_X_Back,False,2,robot,1,False,False,robot_stimuli\R_Head_X_Back.mp4,10,0,0,0,0,0,27,27,27,,,,,,,,,,,,,1419.4627105,1419.4627105,None,,1419.4627105,1420.5620796,,1420.5620796,1420.5620796,1420.5620796,,n,1424.2156399,1424.2156399,1424.2156399,1424.2156399,1424.2156399,1424.2156399,1424.2156399,1424.2156399,None,None,None,1419.4627105,1419.4627105,1.0067034000000774,,1420.5620796,,,,,,,,,,,,,,,,,,10,001,2024-06-18_09h45.18.178,robot_nback_sign,2022.2.5,60.01385119685948,
R_Torso_Z_For,False,2,robot,1,False,False,robot_stimuli\R_Torso_Z_For.mp4,10,0,0,0,0,0,28,28,28,,,,,,,,,,,,,1424.2156399,1424.2156399,None,,1424.2156399,,,1425.3276951,1425.3276951,1425.3276951,,n,1428.9793083,1428.9793083,1428.9793083,1428.9793083,1428.9793083,1428.9793083,1428.9793083,1428.9793083,None,None,None,1424.2156399,1424.2156399,1.8666505999997014,,1425.3276951,,,,,,,,,,,,,,,,,,10,001,2024-06-18_09h45.18.178,robot_nback_sign,2022.2.5,60.01385119685948,
R_Head_X_Back,True,2,robot,1,False,True,robot_stimuli\R_Head_X_Back.mp4,10,0,0,0,0,0,29,29,29,,,,,,,,,,,,,1428.9793083,1428.9793083,None,,1428.9793083,1430.0751201,,1430.0751201,1430.0751201,1430.0751201,,c,1433.7608969999999,1437.8445069,1433.7608969999999,1437.8445069,1433.7608969999999,1437.8445069,1433.7608969999999,1437.8445069,25.370370370370367,3.4068215000002056,space,1428.9793083,1428.9793083,1.246655100000197,4.039615699999985,1430.0751201,,,,,,,,,,,,,,,,,,10,001,2024-06-18_09h45.18.178,robot_nback_sign,2022.2.5,60.01385119685948,
L_Arm_Y_For,False,3,robot,1,True,False,robot_stimuli\L_Arm_Y_For.mp4,10,0,0,0,0,0,30,30,30,,,,,,,,,,,,,1437.8445069,1437.8445069,space,1.9177667000001009,1439.7799759,1440.873805,,1440.873805,1440.873805,1440.873805,,n,1444.5151108999999,1444.5151108999999,1444.5151108999999,1444.5151108999999,1444.5151108999999,1444.5151108999999,1444.5151108999999,1444.5151108999999,None,None,None,,,1.5359054000000185,,1440.873805,,,,,,,,,,,,,,,,,,10,001,2024-06-18_09h45.18.178,robot_nback_sign,2022.2.5,60.01385119685948,
R_Arm_Y_Back,False,3,robot,1,False,False,robot_stimuli\R_Arm_Y_Back.mp4,10,0,0,0,0,0,31,31,31,,,,,,,,,,,,,1444.5151108999999,1444.5151108999999,None,,1444.5151108999999,,,1445.6135127999999,1445.6135127999999,1445.6135127999999,,n,1449.2638358,1449.2638358,1449.2638358,1449.2638358,1449.2638358,1449.2638358,1449.2638358,1449.2638358,None,None,None,1444.5151108999999,1444.5151108999999,2.3396729000000676,,1445.6135127999999,,,,,,,,,,,,,,,,,,10,001,2024-06-18_09h45.18.178,robot_nback_sign,2022.2.5,60.01385119685948,
R_Torso_X_For,False,3,robot,1,False,False,robot_stimuli\R_Torso_X_For.mp4,10,0,0,0,0,0,32,32,32,,,,,,,,,,,,,1449.2638358,1449.2638358,None,,1449.2638358,1450.3480694,,1450.3480694,1450.3480694,1450.3480694,,n,1453.989408,1453.989408,1453.989408,1453.989408,1453.989408,1453.989408,1453.989408,1453.989408,None,None,None,1449.2638358,1449.2638358,2.54928599999991,,1450.3480694,,,,,,,,,,,,,,,,,,10,001,2024-06-18_09h45.18.178,robot_nback_sign,2022.2.5,60.01385119685948,
L_Arm_Y_For,True,3,robot,1,False,False,robot_stimuli\L_Arm_Y_For.mp4,10,0,0,0,0,0,33,33,33,,,,,,,,,,,,,1453.989408,1453.989408,None,,1453.989408,1455.0876062,,1455.0876062,1455.0876062,1455.0876062,,c,1458.7278216,1458.7278216,1458.7278216,1458.7278216,1458.7278216,1458.7278216,1458.7278216,1458.7278216,None,None,None,1453.989408,1453.989408,1.8181665999997847,,1455.0876062,,,,,,,,,,,,,,,,,,10,001,2024-06-18_09h45.18.178,robot_nback_sign,2022.2.5,60.01385119685948,
R_Arm_Y_Back,True,3,robot,1,False,False,robot_stimuli\R_Arm_Y_Back.mp4,10,0,0,0,0,0,34,34,34,,,,,,,,,,,,,1458.7278216,1458.7278216,None,,1458.7278216,1459.8136678,,1459.8136678,1459.8136678,1459.8136678,,c,1463.4628573,1463.4628573,1463.4628573,1463.4628573,1463.4628573,1463.4628573,1463.4628573,1463.4628573,None,None,None,1458.7278216,1458.7278216,1.9641329000000667,,1459.8136678,,,,,,,,,,,,,,,,,,10,001,2024-06-18_09h45.18.178,robot_nback_sign,2022.2.5,60.01385119685948,
R_Head_X_For,False,3,robot,1,False,True,robot_stimuli\R_Head_X_For.mp4,10,0,0,0,0,0,35,35,35,,,,,,,,,,,,,1463.4628573,1463.4628573,None,,1463.4628573,1464.5470971,,1464.5470971,1464.5470971,1464.5470971,,n,1468.2258804,1489.6409969,1468.2258804,1489.6409969,1468.2258804,1489.6409969,1468.2258804,1489.6409969,50.52469135802469,20.70897059999993,space,1463.4628573,1463.4628573,1.6378654000002086,21.343427700000092,1464.5470971,,,,,,,,,,,,,,,,,,10,001,2024-06-18_09h45.18.178,robot_nback_sign,2022.2.5,60.01385119685948,
,,,,,,,,,0,0,0,0,,,,,,,,,,,,,,,,,,,,,,,,,,,,,,,,,,,,,,,,,,,,,1489.6409969,1489.6409969,1489.6409969,c,459.49779950000016,,,,,,,,,,,,,10,001,2024-06-18_09h45.18.178,robot_nback_sign,2022.2.5,60.01385119685948,
R_Base_Y_For,False,3,robot,1,True,False,robot_stimuli\R_Base_Y_For.mp4,10,,,,,,,,,0,0,0,0,,,,,,,,,,,,,1956.0144432,1957.0989656999998,,,,,,,1960.7532112000001,1960.7532112000001,1960.7532112000001,1960.7532112000001,1960.7532112000001,1960.7532112000001,1960.7532112000001,1960.7532112000001,None,None,None,,,,,,,,,,,1949.2024015999998,1949.2024015999998,space,6.784152599999942,1957.0989656999998,1957.0989656999998,n,2.56684130000005,,,,,10,001,2024-06-18_09h45.18.178,robot_nback_sign,2022.2.5,60.01385119685948,
R_Head_Z_Back,False,3,robot,1,False,False,robot_stimuli\R_Head_Z_Back.mp4,10,,,,,,,,,0,1,1,1,,,,,,,,,,,,,1960.7532112000001,1961.858958,,,,,,,1965.4893183000001,1965.4893183000001,1965.4893183000001,1965.4893183000001,1965.4893183000001,1965.4893183000001,1965.4893183000001,1965.4893183000001,None,None,None,,,,,,,,,,,1960.7532112000001,1960.7532112000001,None,,1961.858958,1961.858958,n,1.373766699999777,1960.7532112000001,1960.7532112000001,,,10,001,2024-06-18_09h45.18.178,robot_nback_sign,2022.2.5,60.01385119685948,
L_Torso_Z_Back,False,3,robot,1,False,False,robot_stimuli\L_Torso_Z_Back.mp4,10,,,,,,,,,0,2,2,2,,,,,,,,,,,,,1965.4893183000001,1966.5810970999999,,,,,,,1970.0886489000002,1970.0886489000002,1970.0886489000002,1970.0886489000002,1970.0886489000002,1970.0886489000002,1970.0886489000002,1970.0886489000002,None,None,None,,,,,,,,,,,1965.4893183000001,1965.4893183000001,None,,1966.5810970999999,1966.5810970999999,n,1.341193899999979,1965.4893183000001,1965.4893183000001,,,10,001,2024-06-18_09h45.18.178,robot_nback_sign,2022.2.5,60.01385119685948,
R_Torso_X_For,False,3,robot,1,False,False,robot_stimuli\R_Torso_X_For.mp4,10,,,,,,,,,0,3,3,3,,,,,,,,,,,,,1970.0886489000002,1971.1766418,,,,,,,1974.8300511,1974.8300511,1974.8300511,1974.8300511,1974.8300511,1974.8300511,1974.8300511,1974.8300511,None,None,None,,,,,,,,,,,1970.0886489000002,1970.0886489000002,None,,1971.1766418,1971.1766418,c,1.248834000000187,1970.0886489000002,1970.0886489000002,,,10,001,2024-06-18_09h45.18.178,robot_nback_sign,2022.2.5,60.01385119685948,
R_Arm_X_For,False,3,robot,1,False,False,robot_stimuli\R_Arm_X_For.mp4,10,,,,,,,,,0,4,4,4,,,,,,,,,,,,,1974.8300511,1975.9248704,,,,,,,1979.5639997,1979.5639997,1979.5639997,1979.5639997,1979.5639997,1979.5639997,1979.5639997,1979.5639997,None,None,None,,,,,,,,,,,1974.8300511,1974.8300511,None,,1975.9248704,1975.9248704,n,1.197056899999751,1974.8300511,1974.8300511,,,10,001,2024-06-18_09h45.18.178,robot_nback_sign,2022.2.5,60.01385119685948,
L_Base_X_Back,False,3,robot,1,False,False,robot_stimuli\L_Base_X_Back.mp4,10,,,,,,,,,0,5,5,5,,,,,,,,,,,,,1979.5639997,1980.6467053,,,,,,,1984.2629203,1984.2629203,1984.2629203,1984.2629203,1984.2629203,1984.2629203,1984.2629203,1984.2629203,None,None,None,,,,,,,,,,,1979.5639997,1979.5639997,None,,1980.6467053,1980.6467053,c,1.9706078000001241,1979.5639997,1979.5639997,,,10,001,2024-06-18_09h45.18.178,robot_nback_sign,2022.2.5,60.01385119685948,
R_Arm_Z_Back,False,3,robot,1,False,False,robot_stimuli\R_Arm_Z_Back.mp4,10,,,,,,,,,0,6,6,6,,,,,,,,,,,,,1984.2629203,1985.3469852,,,,,,,1988.9973260999998,1988.9973260999998,1988.9973260999998,1988.9973260999998,1988.9973260999998,1988.9973260999998,1988.9973260999998,1988.9973260999998,None,None,None,,,,,,,,,,,1984.2629203,1984.2629203,None,,1985.3469852,1985.3469852,n,2.6058328999999674,1984.2629203,1984.2629203,,,10,001,2024-06-18_09h45.18.178,robot_nback_sign,2022.2.5,60.01385119685948,
R_Arm_X_For,True,3,robot,1,False,False,robot_stimuli\R_Arm_X_For.mp4,10,,,,,,,,,0,7,7,7,,,,,,,,,,,,,1988.9973260999998,1990.0758104999998,,,,,,,1993.7260361,1993.7260361,1993.7260361,1993.7260361,1993.7260361,1993.7260361,1993.7260361,1993.7260361,None,None,None,,,,,,,,,,,1988.9973260999998,1988.9973260999998,None,,1990.0758104999998,1990.0758104999998,n,3.4776969999995515,1988.9973260999998,1988.9973260999998,,,10,001,2024-06-18_09h45.18.178,robot_nback_sign,2022.2.5,60.01385119685948,
L_Arm_Z_Back,False,3,robot,1,False,False,robot_stimuli\L_Arm_Z_Back.mp4,10,,,,,,,,,0,8,8,8,,,,,,,,,,,,,1993.7260361,1994.8086778,,,,,,,1998.4483609000001,1998.4483609000001,1998.4483609000001,1998.4483609000001,1998.4483609000001,1998.4483609000001,1998.4483609000001,1998.4483609000001,None,None,None,,,,,,,,,,,1993.7260361,1993.7260361,None,,1994.8086778,1994.8086778,n,1.5445010000000536,1993.7260361,1993.7260361,,,10,001,2024-06-18_09h45.18.178,robot_nback_sign,2022.2.5,60.01385119685948,
R_Head_Z_For,False,3,robot,1,False,False,robot_stimuli\R_Head_Z_For.mp4,10,,,,,,,,,0,9,9,9,,,,,,,,,,,,,1998.4483609000001,1999.5312012000002,,,,,,,2003.1734801,2003.1734801,2003.1734801,2003.1734801,2003.1734801,2003.1734801,2003.1734801,2003.1734801,None,None,None,,,,,,,,,,,1998.4483609000001,1998.4483609000001,None,,1999.5312012000002,1999.5312012000002,n,1.631015999999562,1998.4483609000001,1998.4483609000001,,,10,001,2024-06-18_09h45.18.178,robot_nback_sign,2022.2.5,60.01385119685948,
R_Base_Y_Back,False,3,robot,1,False,False,robot_stimuli\R_Base_Y_Back.mp4,10,,,,,,,,,0,10,10,10,,,,,,,,,,,,,2003.1734801,2004.2615899,,,,,,,2007.9127354,2007.9127354,2007.9127354,2007.9127354,2007.9127354,2007.9127354,2007.9127354,2007.9127354,None,None,None,,,,,,,,,,,2003.1734801,2003.1734801,None,,2004.2615899,2004.2615899,n,3.3168800999999064,2003.1734801,2003.1734801,,,10,001,2024-06-18_09h45.18.178,robot_nback_sign,2022.2.5,60.01385119685948,
L_Arm_Z_Back,True,3,robot,1,False,False,robot_stimuli\L_Arm_Z_Back.mp4,10,,,,,,,,,0,11,11,11,,,,,,,,,,,,,2007.9127354,2008.9916394,,,,,,,2012.6319580000002,2012.6319580000002,2012.6319580000002,2012.6319580000002,2012.6319580000002,2012.6319580000002,2012.6319580000002,2012.6319580000002,None,None,None,,,,,,,,,,,2007.9127354,2007.9127354,None,,2008.9916394,2008.9916394,c,3.561250800000124,2007.9127354,2007.9127354,,,10,001,2024-06-18_09h45.18.178,robot_nback_sign,2022.2.5,60.01385119685948,
R_Torso_Z_Back,False,3,robot,1,False,False,robot_stimuli\R_Torso_Z_Back.mp4,10,,,,,,,,,0,12,12,12,,,,,,,,,,,,,2012.6319580000002,,,,,,,,2017.3641452999998,2017.3641452999998,2017.3641452999998,2017.3641452999998,2017.3641452999998,2017.3641452999998,2017.3641452999998,2017.3641452999998,None,None,None,,,,,,,,,,,2012.6319580000002,2012.6319580000002,None,,2013.7253146,2013.7253146,n,2.6437025000002166,2012.6319580000002,2012.6319580000002,,,10,001,2024-06-18_09h45.18.178,robot_nback_sign,2022.2.5,60.01385119685948,
R_Arm_X_Back,False,3,robot,1,False,False,robot_stimuli\R_Arm_X_Back.mp4,10,,,,,,,,,0,13,13,13,,,,,,,,,,,,,2017.3641452999998,2018.4439641000001,,,,,,,2022.0932776000002,2022.0932776000002,2022.0932776000002,2022.0932776000002,2022.0932776000002,2022.0932776000002,2022.0932776000002,2022.0932776000002,None,None,None,,,,,,,,,,,2017.3641452999998,2017.3641452999998,None,,2018.4439641000001,2018.4439641000001,c,1.8782627000002492,2017.3641452999998,2017.3641452999998,,,10,001,2024-06-18_09h45.18.178,robot_nback_sign,2022.2.5,60.01385119685948,
R_Torso_X_Back,False,3,robot,1,False,False,robot_stimuli\R_Torso_X_Back.mp4,10,,,,,,,,,0,14,14,14,,,,,,,,,,,,,2022.0932776000002,2023.1804338999998,,,,,,,2026.8292264,2026.8292264,2026.8292264,2026.8292264,2026.8292264,2026.8292264,2026.8292264,2026.8292264,None,None,None,,,,,,,,,,,2022.0932776000002,2022.0932776000002,None,,2023.1804338999998,2023.1804338999998,n,3.50181669999958,2022.0932776000002,2022.0932776000002,,,10,001,2024-06-18_09h45.18.178,robot_nback_sign,2022.2.5,60.01385119685948,
L_Torso_Y_Back,False,3,robot,1,False,False,robot_stimuli\L_Torso_Y_Back.mp4,10,,,,,,,,,0,15,15,15,,,,,,,,,,,,,2026.8292264,2027.9132714,,,,,,,2031.4307437999998,2031.4307437999998,2031.4307437999998,2031.4307437999998,2031.4307437999998,2031.4307437999998,2031.4307437999998,2031.4307437999998,None,None,None,,,,,,,,,,,2026.8292264,2026.8292264,None,,2027.9132714,2027.9132714,None,,2026.8292264,2026.8292264,,,10,001,2024-06-18_09h45.18.178,robot_nback_sign,2022.2.5,60.01385119685948,
L_Base_X_Back,False,3,robot,1,False,False,robot_stimuli\L_Base_X_Back.mp4,10,,,,,,,,,0,16,16,16,,,,,,,,,,,,,2031.4307437999998,2032.5092818,,,,,,,2036.1078129999999,2036.1078129999999,2036.1078129999999,2036.1078129999999,2036.1078129999999,2036.1078129999999,2036.1078129999999,2036.1078129999999,None,None,None,,,,,,,,,,,2031.4307437999998,2031.4307437999998,None,,2032.5092818,2032.5092818,n,2.4922434000002056,2031.4307437999998,2031.4307437999998,,,10,001,2024-06-18_09h45.18.178,robot_nback_sign,2022.2.5,60.01385119685948,
L_Arm_Z_For,False,3,robot,1,False,False,robot_stimuli\L_Arm_Z_For.mp4,10,,,,,,,,,0,17,17,17,,,,,,,,,,,,,2036.1078129999999,2037.1965671,,,,,,,2040.8468962999998,2040.8468962999998,2040.8468962999998,2040.8468962999998,2040.8468962999998,2040.8468962999998,2040.8468962999998,2040.8468962999998,None,None,None,,,,,,,,,,,2036.1078129999999,2036.1078129999999,None,,2037.1965671,2037.1965671,n,2.6930977999997765,2036.1078129999999,2036.1078129999999,,,10,001,2024-06-18_09h45.18.178,robot_nback_sign,2022.2.5,60.01385119685948,
L_Torso_Y_For,False,3,robot,1,False,False,robot_stimuli\L_Torso_Y_For.mp4,10,,,,,,,,,0,18,18,18,,,,,,,,,,,,,2040.8468962999998,2041.9315894999997,,,,,,,2045.5819051,2045.5819051,2045.5819051,2045.5819051,2045.5819051,2045.5819051,2045.5819051,2045.5819051,None,None,None,,,,,,,,,,,2040.8468962999998,2040.8468962999998,None,,2041.9315894999997,2041.9315894999997,c,2.2942942000001665,2040.8468962999998,2040.8468962999998,,,10,001,2024-06-18_09h45.18.178,robot_nback_sign,2022.2.5,60.01385119685948,
R_Torso_Z_For,False,3,robot,1,False,False,robot_stimuli\R_Torso_Z_For.mp4,10,,,,,,,,,0,19,19,19,,,,,,,,,,,,,2045.5819051,2046.6606697,,,,,,,2050.3149854000003,2050.3149854000003,2050.3149854000003,2050.3149854000003,2050.3149854000003,2050.3149854000003,2050.3149854000003,2050.3149854000003,None,None,None,,,,,,,,,,,2045.5819051,2045.5819051,None,,2046.6606697,2046.6606697,n,2.828370100000228,2045.5819051,2045.5819051,,,10,001,2024-06-18_09h45.18.178,robot_nback_sign,2022.2.5,60.01385119685948,
L_Head_Y_For,False,3,robot,1,False,False,robot_stimuli\L_Head_Y_For.mp4,10,,,,,,,,,0,20,20,20,,,,,,,,,,,,,2050.3149854000003,2051.4084226,,,,,,,2055.0420986000004,2055.0420986000004,2055.0420986000004,2055.0420986000004,2055.0420986000004,2055.0420986000004,2055.0420986000004,2055.0420986000004,None,None,None,,,,,,,,,,,2050.3149854000003,2050.3149854000003,None,,2051.4084226,2051.4084226,n,1.7866322000001844,2050.3149854000003,2050.3149854000003,,,10,001,2024-06-18_09h45.18.178,robot_nback_sign,2022.2.5,60.01385119685948,
L_Torso_Y_For,True,3,robot,1,False,False,robot_stimuli\L_Torso_Y_For.mp4,10,,,,,,,,,0,21,21,21,,,,,,,,,,,,,2055.0420986000004,2056.1406768,,,,,,,2059.7713094,2059.7713094,2059.7713094,2059.7713094,2059.7713094,2059.7713094,2059.7713094,2059.7713094,None,None,None,,,,,,,,,,,2055.0420986000004,2055.0420986000004,None,,2056.1406768,2056.1406768,c,3.085460399999846,2055.0420986000004,2055.0420986000004,,,10,001,2024-06-18_09h45.18.178,robot_nback_sign,2022.2.5,60.01385119685948,
L_Head_Y_Back,False,3,robot,1,False,False,robot_stimuli\L_Head_Y_Back.mp4,10,,,,,,,,,0,22,22,22,,,,,,,,,,,,,2059.7713094,2060.8577688,,,,,,,2064.4984498000003,2064.4984498000003,2064.4984498000003,2064.4984498000003,2064.4984498000003,2064.4984498000003,2064.4984498000003,2064.4984498000003,None,None,None,,,,,,,,,,,2059.7713094,2059.7713094,None,,2060.8577688,2060.8577688,n,2.6957863999998324,2059.7713094,2059.7713094,,,10,001,2024-06-18_09h45.18.178,robot_nback_sign,2022.2.5,60.01385119685948,
R_Arm_X_Back,False,3,robot,1,False,False,robot_stimuli\R_Arm_X_Back.mp4,10,,,,,,,,,0,23,23,23,,,,,,,,,,,,,2064.4984498000003,2065.5798200000004,,,,,,,2069.2286434000002,2069.2286434000002,2069.2286434000002,2069.2286434000002,2069.2286434000002,2069.2286434000002,2069.2286434000002,2069.2286434000002,None,None,None,,,,,,,,,,,2064.4984498000003,2064.4984498000003,None,,2065.5798200000004,2065.5798200000004,n,1.6622319000000232,2064.4984498000003,2064.4984498000003,,,10,001,2024-06-18_09h45.18.178,robot_nback_sign,2022.2.5,60.01385119685948,
R_Arm_Z_Back,False,3,robot,1,False,False,robot_stimuli\R_Arm_Z_Back.mp4,10,,,,,,,,,0,24,24,24,,,,,,,,,,,,,2069.2286434000002,2070.3084127,,,,,,,2073.9383768000002,2073.9383768000002,2073.9383768000002,2073.9383768000002,2073.9383768000002,2073.9383768000002,2073.9383768000002,2073.9383768000002,None,None,None,,,,,,,,,,,2069.2286434000002,2069.2286434000002,None,,2070.3084127,2070.3084127,n,2.638311899999934,2069.2286434000002,2069.2286434000002,,,10,001,2024-06-18_09h45.18.178,robot_nback_sign,2022.2.5,60.01385119685948,
L_Arm_Y_Back,False,3,robot,1,False,False,robot_stimuli\L_Arm_Y_Back.mp4,10,,,,,,,,,0,25,25,25,,,,,,,,,,,,,2073.9383768000002,2075.0261919000004,,,,,,,2078.6656604,2078.6656604,2078.6656604,2078.6656604,2078.6656604,2078.6656604,2078.6656604,2078.6656604,None,None,None,,,,,,,,,,,2073.9383768000002,2073.9383768000002,None,,2075.0261919000004,2075.0261919000004,n,1.5039574999998138,2073.9383768000002,2073.9383768000002,,,10,001,2024-06-18_09h45.18.178,robot_nback_sign,2022.2.5,60.01385119685948,
R_Arm_X_Back,True,3,robot,1,False,False,robot_stimuli\R_Arm_X_Back.mp4,10,,,,,,,,,0,26,26,26,,,,,,,,,,,,,2078.6656604,,,,,,,,2083.3974566,2083.3974566,2083.3974566,2083.3974566,2083.3974566,2083.3974566,2083.3974566,2083.3974566,None,None,None,,,,,,,,,,,2078.6656604,2078.6656604,None,,2079.7582610000004,2079.7582610000004,n,3.027121499999538,2078.6656604,2078.6656604,,,10,001,2024-06-18_09h45.18.178,robot_nback_sign,2022.2.5,60.01385119685948,
L_Base_Z_For,False,3,robot,1,False,False,robot_stimuli\L_Base_Z_For.mp4,10,,,,,,,,,0,27,27,27,,,,,,,,,,,,,2083.3974566,2084.4759715,,,,,,,2088.115174,2088.115174,2088.115174,2088.115174,2088.115174,2088.115174,2088.115174,2088.115174,None,None,None,,,,,,,,,,,2083.3974566,2083.3974566,None,,2084.4759715,2084.4759715,n,3.4531662999999924,2083.3974566,2083.3974566,,,10,001,2024-06-18_09h45.18.178,robot_nback_sign,2022.2.5,60.01385119685948,
L_Arm_X_Back,False,3,robot,1,False,False,robot_stimuli\L_Arm_X_Back.mp4,10,,,,,,,,,0,28,28,28,,,,,,,,,,,,,2088.115174,2089.1986184,,,,,,,2092.8399768000004,2092.8399768000004,2092.8399768000004,2092.8399768000004,2092.8399768000004,2092.8399768000004,2092.8399768000004,2092.8399768000004,None,None,None,,,,,,,,,,,2088.115174,2088.115174,None,,2089.1986184,2089.1986184,c,3.4189615999996192,2088.115174,2088.115174,,,10,001,2024-06-18_09h45.18.178,robot_nback_sign,2022.2.5,60.01385119685948,
R_Arm_X_Back,True,3,robot,1,False,False,robot_stimuli\R_Arm_X_Back.mp4,10,,,,,,,,,0,29,29,29,,,,,,,,,,,,,2092.8399768000004,2093.9253396000004,,,,,,,2097.5561774000003,2097.5561774000003,2097.5561774000003,2097.5561774000003,2097.5561774000003,2097.5561774000003,2097.5561774000003,2097.5561774000003,None,None,None,,,,,,,,,,,2092.8399768000004,2092.8399768000004,None,,2093.9253396000004,2093.9253396000004,c,1.8533332999997754,2092.8399768000004,2092.8399768000004,,,10,001,2024-06-18_09h45.18.178,robot_nback_sign,2022.2.5,60.01385119685948,
L_Base_Z_For,True,3,robot,1,False,False,robot_stimuli\L_Base_Z_For.mp4,10,,,,,,,,,0,30,30,30,,,,,,,,,,,,,2097.5561774000003,2098.6426250000004,,,,,,,2102.2733365000004,2102.2733365000004,2102.2733365000004,2102.2733365000004,2102.2733365000004,2102.2733365000004,2102.2733365000004,2102.2733365000004,None,None,None,,,,,,,,,,,2097.5561774000003,2097.5561774000003,None,,2098.6426250000004,2098.6426250000004,c,2.4874111999999684,2097.5561774000003,2097.5561774000003,,,10,001,2024-06-18_09h45.18.178,robot_nback_sign,2022.2.5,60.01385119685948,
L_Head_X_Back,False,3,robot,1,False,False,robot_stimuli\L_Head_X_Back.mp4,10,,,,,,,,,0,31,31,31,,,,,,,,,,,,,2102.2733365000004,2103.3605085000004,,,,,,,2107.0105744,2107.0105744,2107.0105744,2107.0105744,2107.0105744,2107.0105744,2107.0105744,2107.0105744,None,None,None,,,,,,,,,,,2102.2733365000004,2102.2733365000004,None,,2103.3605085000004,2103.3605085000004,n,2.2411890999999002,2102.2733365000004,2102.2733365000004,,,10,001,2024-06-18_09h45.18.178,robot_nback_sign,2022.2.5,60.01385119685948,
R_Arm_X_Back,True,3,robot,1,False,False,robot_stimuli\R_Arm_X_Back.mp4,10,,,,,,,,,0,32,32,32,,,,,,,,,,,,,2107.0105744,2108.0917359,,,,,,,2111.7302609000003,2111.7302609000003,2111.7302609000003,2111.7302609000003,2111.7302609000003,2111.7302609000003,2111.7302609000003,2111.7302609000003,None,None,None,,,,,,,,,,,2107.0105744,2107.0105744,None,,2108.0917359,2108.0917359,c,2.9654443999999955,2107.0105744,2107.0105744,,,10,001,2024-06-18_09h45.18.178,robot_nback_sign,2022.2.5,60.01385119685948,
R_Torso_Y_For,False,3,robot,1,False,False,robot_stimuli\R_Torso_Y_For.mp4,10,,,,,,,,,0,33,33,33,,,,,,,,,,,,,2111.7302609000003,2112.8150389,,,,,,,2116.4556967000003,2116.4556967000003,2116.4556967000003,2116.4556967000003,2116.4556967000003,2116.4556967000003,2116.4556967000003,2116.4556967000003,None,None,None,,,,,,,,,,,2111.7302609000003,2111.7302609000003,None,,2112.8150389,2112.8150389,n,2.7142384999999365,2111.7302609000003,2111.7302609000003,,,10,001,2024-06-18_09h45.18.178,robot_nback_sign,2022.2.5,60.01385119685948,
R_Torso_Y_For,False,3,robot,1,False,False,robot_stimuli\R_Torso_Y_For.mp4,10,,,,,,,,,0,34,34,34,,,,,,,,,,,,,2116.4556967000003,2117.5442499,,,,,,,2121.1941285000003,2121.1941285000003,2121.1941285000003,2121.1941285000003,2121.1941285000003,2121.1941285000003,2121.1941285000003,2121.1941285000003,None,None,None,,,,,,,,,,,2116.4556967000003,2116.4556967000003,None,,2117.5442499,2117.5442499,n,2.4821712000000105,2116.4556967000003,2116.4556967000003,,,10,001,2024-06-18_09h45.18.178,robot_nback_sign,2022.2.5,60.01385119685948,
L_Head_Z_For,False,3,robot,1,False,False,robot_stimuli\L_Head_Z_For.mp4,10,,,,,,,,,0,35,35,35,,,,,,,,,,,,,2121.1941285000003,2122.2773386000003,,,,,,,2125.9270125000003,2125.9270125000003,2125.9270125000003,2125.9270125000003,2125.9270125000003,2125.9270125000003,2125.9270125000003,2125.9270125000003,None,None,None,,,,,,,,,,,2121.1941285000003,2121.1941285000003,None,,2122.2773386000003,2122.2773386000003,n,2.028414900000115,2121.1941285000003,2121.1941285000003,,,10,001,2024-06-18_09h45.18.178,robot_nback_sign,2022.2.5,60.01385119685948,
R_Arm_Y_For,False,3,robot,1,False,False,robot_stimuli\R_Arm_Y_For.mp4,10,,,,,,,,,0,36,36,36,,,,,,,,,,,,,2125.9270125000003,2127.0128014,,,,,,,2130.5290435,2130.5290435,2130.5290435,2130.5290435,2130.5290435,2130.5290435,2130.5290435,2130.5290435,None,None,None,,,,,,,,,,,2125.9270125000003,2125.9270125000003,None,,2127.0128014,2127.0128014,None,,2125.9270125000003,2125.9270125000003,,,10,001,2024-06-18_09h45.18.178,robot_nback_sign,2022.2.5,60.01385119685948,
L_Base_X_Back,False,3,robot,1,False,False,robot_stimuli\L_Base_X_Back.mp4,10,,,,,,,,,0,37,37,37,,,,,,,,,,,,,2130.5290435,2131.6097662,,,,,,,2135.2278001,2135.2278001,2135.2278001,2135.2278001,2135.2278001,2135.2278001,2135.2278001,2135.2278001,None,None,None,,,,,,,,,,,2130.5290435,2130.5290435,None,,2131.6097662,2131.6097662,c,3.0645111999999415,2130.5290435,2130.5290435,,,10,001,2024-06-18_09h45.18.178,robot_nback_sign,2022.2.5,60.01385119685948,
R_Base_Z_Back,False,3,robot,1,False,False,robot_stimuli\R_Base_Z_Back.mp4,10,,,,,,,,,0,38,38,38,,,,,,,,,,,,,2135.2278001,2136.3088868,,,,,,,2139.8608656,2139.8608656,2139.8608656,2139.8608656,2139.8608656,2139.8608656,2139.8608656,2139.8608656,None,None,None,,,,,,,,,,,2135.2278001,2135.2278001,None,,2136.3088868,2136.3088868,n,2.7321611999998083,2135.2278001,2135.2278001,,,10,001,2024-06-18_09h45.18.178,robot_nback_sign,2022.2.5,60.01385119685948,
L_Head_Y_For,False,3,robot,1,False,False,robot_stimuli\L_Head_Y_For.mp4,10,,,,,,,,,0,39,39,39,,,,,,,,,,,,,2139.8608656,2140.9447541000004,,,,,,,2144.5963372,2144.5963372,2144.5963372,2144.5963372,2144.5963372,2144.5963372,2144.5963372,2144.5963372,None,None,None,,,,,,,,,,,2139.8608656,2139.8608656,None,,2140.9447541000004,2140.9447541000004,n,2.7141499999999894,2139.8608656,2139.8608656,,,10,001,2024-06-18_09h45.18.178,robot_nback_sign,2022.2.5,60.01385119685948,
L_Base_X_Back,True,3,robot,1,False,False,robot_stimuli\L_Base_X_Back.mp4,10,,,,,,,,,0,40,40,40,,,,,,,,,,,,,2144.5963372,2145.6756884,,,,,,,2149.2741375,2149.2741375,2149.2741375,2149.2741375,2149.2741375,2149.2741375,2149.2741375,2149.2741375,None,None,None,,,,,,,,,,,2144.5963372,2144.5963372,None,,2145.6756884,2145.6756884,n,2.982510299999575,2144.5963372,2144.5963372,,,10,001,2024-06-18_09h45.18.178,robot_nback_sign,2022.2.5,60.01385119685948,
R_Base_Z_Back,True,3,robot,1,False,False,robot_stimuli\R_Base_Z_Back.mp4,10,,,,,,,,,0,41,41,41,,,,,,,,,,,,,2149.2741375,2150.3614524000004,,,,,,,2153.9105652000003,2153.9105652000003,2153.9105652000003,2153.9105652000003,2153.9105652000003,2153.9105652000003,2153.9105652000003,2153.9105652000003,None,None,None,,,,,,,,,,,2149.2741375,2149.2741375,None,,2150.3614524000004,2150.3614524000004,n,2.6562339999997846,2149.2741375,2149.2741375,,,10,001,2024-06-18_09h45.18.178,robot_nback_sign,2022.2.5,60.01385119685948,
R_Arm_Z_Back,False,3,robot,1,False,False,robot_stimuli\R_Arm_Z_Back.mp4,10,,,,,,,,,0,42,42,42,,,,,,,,,,,,,2153.9105652000003,2154.9918391,,,,,,,2158.6310116,2158.6310116,2158.6310116,2158.6310116,2158.6310116,2158.6310116,2158.6310116,2158.6310116,None,None,None,,,,,,,,,,,2153.9105652000003,2153.9105652000003,None,,2154.9918391,2154.9918391,n,1.6909425000000908,2153.9105652000003,2153.9105652000003,,,10,001,2024-06-18_09h45.18.178,robot_nback_sign,2022.2.5,60.01385119685948,
R_Arm_Z_For,False,3,robot,1,False,False,robot_stimuli\R_Arm_Z_For.mp4,10,,,,,,,,,0,43,43,43,,,,,,,,,,,,,2158.6310116,2159.7157168000003,,,,,,,2163.3563762000003,2163.3563762000003,2163.3563762000003,2163.3563762000003,2163.3563762000003,2163.3563762000003,2163.3563762000003,2163.3563762000003,None,None,None,,,,,,,,,,,2158.6310116,2158.6310116,None,,2159.7157168000003,2159.7157168000003,n,1.7253458999996099,2158.6310116,2158.6310116,,,10,001,2024-06-18_09h45.18.178,robot_nback_sign,2022.2.5,60.01385119685948,
L_Head_Y_For,False,3,robot,1,False,False,robot_stimuli\L_Head_Y_For.mp4,10,,,,,,,,,0,44,44,44,,,,,,,,,,,,,2163.3563762000003,2164.4432693000003,,,,,,,2168.0931291,2168.0931291,2168.0931291,2168.0931291,2168.0931291,2168.0931291,2168.0931291,2168.0931291,None,None,None,,,,,,,,,,,2163.3563762000003,2163.3563762000003,None,,2164.4432693000003,2164.4432693000003,n,1.0544809999998677,2163.3563762000003,2163.3563762000003,,,10,001,2024-06-18_09h45.18.178,robot_nback_sign,2022.2.5,60.01385119685948,
L_Head_X_For,False,3,robot,1,False,False,robot_stimuli\L_Head_X_For.mp4,10,,,,,,,,,0,45,45,45,,,,,,,,,,,,,2168.0931291,2169.1821901000003,,,,,,,2172.7551615,2172.7551615,2172.7551615,2172.7551615,2172.7551615,2172.7551615,2172.7551615,2172.7551615,None,None,None,,,,,,,,,,,2168.0931291,2168.0931291,None,,2169.1821901000003,2169.1821901000003,n,1.9316663000001597,2168.0931291,2168.0931291,,,10,001,2024-06-18_09h45.18.178,robot_nback_sign,2022.2.5,60.01385119685948,
L_Base_X_Back,False,3,robot,1,False,False,robot_stimuli\L_Base_X_Back.mp4,10,,,,,,,,,0,46,46,46,,,,,,,,,,,,,2172.7551615,2173.843678,,,,,,,2177.4588987,2177.4588987,2177.4588987,2177.4588987,2177.4588987,2177.4588987,2177.4588987,2177.4588987,None,None,None,,,,,,,,,,,2172.7551615,2172.7551615,None,,2173.843678,2173.843678,n,1.59072769999986,2172.7551615,2172.7551615,,,10,001,2024-06-18_09h45.18.178,robot_nback_sign,2022.2.5,60.01385119685948,
L_Torso_Y_For,False,3,robot,1,False,False,robot_stimuli\L_Torso_Y_For.mp4,10,,,,,,,,,0,47,47,47,,,,,,,,,,,,,2177.4588987,2178.5430732,,,,,,,2182.1934786,2182.1934786,2182.1934786,2182.1934786,2182.1934786,2182.1934786,2182.1934786,2182.1934786,None,None,None,,,,,,,,,,,2177.4588987,2177.4588987,None,,2178.5430732,2178.5430732,n,2.0745920999999896,2177.4588987,2177.4588987,,,10,001,2024-06-18_09h45.18.178,robot_nback_sign,2022.2.5,60.01385119685948,
L_Head_X_For,True,3,robot,1,False,False,robot_stimuli\L_Head_X_For.mp4,10,,,,,,,,,0,48,48,48,,,,,,,,,,,,,2182.1934786,2183.2767204,,,,,,,2186.8607291000003,2186.8607291000003,2186.8607291000003,2186.8607291000003,2186.8607291000003,2186.8607291000003,2186.8607291000003,2186.8607291000003,None,None,None,,,,,,,,,,,2182.1934786,2182.1934786,None,,2183.2767204,2183.2767204,c,1.1484378999996068,2182.1934786,2182.1934786,,,10,001,2024-06-18_09h45.18.178,robot_nback_sign,2022.2.5,60.01385119685948,
R_Base_Y_For,False,3,robot,1,False,True,robot_stimuli\R_Base_Y_For.mp4,10,,,,,,,,,0,49,49,49,,,,,,,,,,,,,2186.8607291000003,2187.9430189,,,,,,,2191.6031898,2204.6162107,2191.6031898,2204.6162107,2191.6031898,2204.6162107,2191.6031898,2204.6162107,80.0,7.352183699999841,space,,,,12.950140999999547,,,,,,,2186.8607291000003,2186.8607291000003,None,,2187.9430189,2187.9430189,n,2.6194262999995033,2186.8607291000003,2186.8607291000003,,,10,001,2024-06-18_09h45.18.178,robot_nback_sign,2022.2.5,60.01385119685948,
L_Base_X_Back,False,2,robot,1,True,False,robot_stimuli\L_Base_X_Back.mp4,10,,,,,,,,,0,50,50,50,,,,,,,,,,,,,2208.5146566000003,2209.5952261,,,,,,,2213.2112104000003,2213.2112104000003,2213.2112104000003,2213.2112104000003,2213.2112104000003,2213.2112104000003,2213.2112104000003,2213.2112104000003,None,None,None,,,,,,,,,,,2204.6162107,2204.6162107,space,3.880923299999921,2209.5952261,2209.5952261,None,,,,,,10,001,2024-06-18_09h45.18.178,robot_nback_sign,2022.2.5,60.01385119685948,
L_Torso_Y_Back,False,2,robot,1,False,False,robot_stimuli\L_Torso_Y_Back.mp4,10,,,,,,,,,0,51,51,51,,,,,,,,,,,,,2213.2112104000003,2214.2936983000004,,,,,,,2217.8130696000003,2217.8130696000003,2217.8130696000003,2217.8130696000003,2217.8130696000003,2217.8130696000003,2217.8130696000003,2217.8130696000003,None,None,None,,,,,,,,,,,2213.2112104000003,2213.2112104000003,None,,2214.2936983000004,2214.2936983000004,None,,2213.2112104000003,2213.2112104000003,,,10,001,2024-06-18_09h45.18.178,robot_nback_sign,2022.2.5,60.01385119685948,
L_Base_X_Back,True,2,robot,1,False,False,robot_stimuli\L_Base_X_Back.mp4,10,,,,,,,,,0,52,52,52,,,,,,,,,,,,,2217.8130696000003,2218.8949915000003,,,,,,,2222.50981,2222.50981,2222.50981,2222.50981,2222.50981,2222.50981,2222.50981,2222.50981,None,None,None,,,,,,,,,,,2217.8130696000003,2217.8130696000003,None,,2218.8949915000003,2218.8949915000003,c,2.3623704999997415,2217.8130696000003,2217.8130696000003,,,10,001,2024-06-18_09h45.18.178,robot_nback_sign,2022.2.5,60.01385119685948,
R_Torso_Z_For,False,2,robot,1,False,False,robot_stimuli\R_Torso_Z_For.mp4,10,,,,,,,,,0,53,53,53,,,,,,,,,,,,,2222.50981,2223.5927348,,,,,,,2227.2228990000003,2227.2228990000003,2227.2228990000003,2227.2228990000003,2227.2228990000003,2227.2228990000003,2227.2228990000003,2227.2228990000003,None,None,None,,,,,,,,,,,2222.50981,2222.50981,None,,2223.5927348,2223.5927348,n,2.23364549999971,2222.50981,2222.50981,,,10,001,2024-06-18_09h45.18.178,robot_nback_sign,2022.2.5,60.01385119685948,
L_Base_Z_Back,False,2,robot,1,False,False,robot_stimuli\L_Base_Z_Back.mp4,10,,,,,,,,,0,54,54,54,,,,,,,,,,,,,2227.2228990000003,2228.3146324000004,,,,,,,2231.9562967,2231.9562967,2231.9562967,2231.9562967,2231.9562967,2231.9562967,2231.9562967,2231.9562967,None,None,None,,,,,,,,,,,2227.2228990000003,2227.2228990000003,None,,2228.3146324000004,2228.3146324000004,n,3.0642755999994904,2227.2228990000003,2227.2228990000003,,,10,001,2024-06-18_09h45.18.178,robot_nback_sign,2022.2.5,60.01385119685948,
R_Torso_Z_For,True,2,robot,1,False,False,robot_stimuli\R_Torso_Z_For.mp4,10,,,,,,,,,0,55,55,55,,,,,,,,,,,,,2231.9562967,2233.0416569000004,,,,,,,2236.6819446000004,2236.6819446000004,2236.6819446000004,2236.6819446000004,2236.6819446000004,2236.6819446000004,2236.6819446000004,2236.6819446000004,None,None,None,,,,,,,,,,,2231.9562967,2231.9562967,None,,2233.0416569000004,2233.0416569000004,c,1.5526179000000582,2231.9562967,2231.9562967,,,10,001,2024-06-18_09h45.18.178,robot_nback_sign,2022.2.5,60.01385119685948,
L_Base_Z_For,False,2,robot,1,False,False,robot_stimuli\L_Base_Z_For.mp4,10,,,,,,,,,0,56,56,56,,,,,,,,,,,,,2236.6819446000004,2237.7582669000003,,,,,,,2241.3883155000003,2241.3883155000003,2241.3883155000003,2241.3883155000003,2241.3883155000003,2241.3883155000003,2241.3883155000003,2241.3883155000003,None,None,None,,,,,,,,,,,2236.6819446000004,2236.6819446000004,None,,2237.7582669000003,2237.7582669000003,n,2.3955552999998133,2236.6819446000004,2236.6819446000004,,,10,001,2024-06-18_09h45.18.178,robot_nback_sign,2022.2.5,60.01385119685948,
R_Arm_X_Back,False,2,robot,1,False,False,robot_stimuli\R_Arm_X_Back.mp4,10,,,,,,,,,0,57,57,57,,,,,,,,,,,,,2241.3883155000003,2242.4772768000003,,,,,,,2246.127234,2246.127234,2246.127234,2246.127234,2246.127234,2246.127234,2246.127234,2246.127234,None,None,None,,,,,,,,,,,2241.3883155000003,2241.3883155000003,None,,2242.4772768000003,2242.4772768000003,n,1.9329096999997262,2241.3883155000003,2241.3883155000003,,,10,001,2024-06-18_09h45.18.178,robot_nback_sign,2022.2.5,60.01385119685948,
R_Head_Z_For,False,2,robot,1,False,False,robot_stimuli\R_Head_Z_For.mp4,10,,,,,,,,,0,58,58,58,,,,,,,,,,,,,2246.127234,2247.2085374000003,,,,,,,2250.8497598000004,2250.8497598000004,2250.8497598000004,2250.8497598000004,2250.8497598000004,2250.8497598000004,2250.8497598000004,2250.8497598000004,None,None,None,,,,,,,,,,,2246.127234,2246.127234,None,,2247.2085374000003,2247.2085374000003,n,2.4657400999996923,2246.127234,2246.127234,,,10,001,2024-06-18_09h45.18.178,robot_nback_sign,2022.2.5,60.01385119685948,
R_Torso_X_For,False,2,robot,1,False,False,robot_stimuli\R_Torso_X_For.mp4,10,,,,,,,,,0,59,59,59,,,,,,,,,,,,,2250.8497598000004,,,,,,,,2255.5964835,2255.5964835,2255.5964835,2255.5964835,2255.5964835,2255.5964835,2255.5964835,2255.5964835,None,None,None,,,,,,,,,,,2250.8497598000004,2250.8497598000004,None,,2251.9444937000003,2251.9444937000003,n,3.008876699999945,2250.8497598000004,2250.8497598000004,,,10,001,2024-06-18_09h45.18.178,robot_nback_sign,2022.2.5,60.01385119685948,
R_Torso_Z_For,False,2,robot,1,False,False,robot_stimuli\R_Torso_Z_For.mp4,10,,,,,,,,,0,60,60,60,,,,,,,,,,,,,2255.5964835,2256.6764329000002,,,,,,,2260.3276851,2260.3276851,2260.3276851,2260.3276851,2260.3276851,2260.3276851,2260.3276851,2260.3276851,None,None,None,,,,,,,,,,,2255.5964835,2255.5964835,None,,2256.6764329000002,2256.6764329000002,n,3.2466324999997767,2255.5964835,2255.5964835,,,10,001,2024-06-18_09h45.18.178,robot_nback_sign,2022.2.5,60.01385119685948,
R_Torso_X_For,True,2,robot,1,False,False,robot_stimuli\R_Torso_X_For.mp4,10,,,,,,,,,0,61,61,61,,,,,,,,,,,,,2260.3276851,2261.4087537,,,,,,,2265.0386579,2265.0386579,2265.0386579,2265.0386579,2265.0386579,2265.0386579,2265.0386579,2265.0386579,None,None,None,,,,,,,,,,,2260.3276851,2260.3276851,None,,2261.4087537,2261.4087537,c,2.808733399999909,2260.3276851,2260.3276851,,,10,001,2024-06-18_09h45.18.178,robot_nback_sign,2022.2.5,60.01385119685948,
R_Torso_Z_For,True,2,robot,1,False,False,robot_stimuli\R_Torso_Z_For.mp4,10,,,,,,,,,0,62,62,62,,,,,,,,,,,,,2265.0386579,2266.1251733000004,,,,,,,2269.7557024000002,2269.7557024000002,2269.7557024000002,2269.7557024000002,2269.7557024000002,2269.7557024000002,2269.7557024000002,2269.7557024000002,None,None,None,,,,,,,,,,,2265.0386579,2265.0386579,None,,2266.1251733000004,2266.1251733000004,c,2.0372746999998697,2265.0386579,2265.0386579,,,10,001,2024-06-18_09h45.18.178,robot_nback_sign,2022.2.5,60.01385119685948,
L_Arm_X_For,False,2,robot,1,False,False,robot_stimuli\L_Arm_X_For.mp4,10,,,,,,,,,0,63,63,63,,,,,,,,,,,,,2269.7557024000002,2270.8439498000002,,,,,,,2274.4967801000003,2274.4967801000003,2274.4967801000003,2274.4967801000003,2274.4967801000003,2274.4967801000003,2274.4967801000003,2274.4967801000003,None,None,None,,,,,,,,,,,2269.7557024000002,2269.7557024000002,None,,2270.8439498000002,2270.8439498000002,n,1.6620128000001557,2269.7557024000002,2269.7557024000002,,,10,001,2024-06-18_09h45.18.178,robot_nback_sign,2022.2.5,60.01385119685948,
R_Torso_Z_For,True,2,robot,1,False,False,robot_stimuli\R_Torso_Z_For.mp4,10,,,,,,,,,0,64,64,64,,,,,,,,,,,,,2274.4967801000003,2275.5747484000003,,,,,,,2279.2135991,2279.2135991,2279.2135991,2279.2135991,2279.2135991,2279.2135991,2279.2135991,2279.2135991,None,None,None,,,,,,,,,,,2274.4967801000003,2274.4967801000003,None,,2275.5747484000003,2275.5747484000003,c,2.147973800000017,2274.4967801000003,2274.4967801000003,,,10,001,2024-06-18_09h45.18.178,robot_nback_sign,2022.2.5,60.01385119685948,
L_Arm_X_For,True,2,robot,1,False,False,robot_stimuli\L_Arm_X_For.mp4,10,,,,,,,,,0,65,65,65,,,,,,,,,,,,,2279.2135991,2280.2932356,,,,,,,2283.9436258,2283.9436258,2283.9436258,2283.9436258,2283.9436258,2283.9436258,2283.9436258,2283.9436258,None,None,None,,,,,,,,,,,2279.2135991,2279.2135991,None,,2280.2932356,2280.2932356,c,1.3239875999995263,2279.2135991,2279.2135991,,,10,001,2024-06-18_09h45.18.178,robot_nback_sign,2022.2.5,60.01385119685948,
R_Arm_X_Back,False,2,robot,1,False,False,robot_stimuli\R_Arm_X_Back.mp4,10,,,,,,,,,0,66,66,66,,,,,,,,,,,,,2283.9436258,2285.0248175,,,,,,,2288.6653958,2288.6653958,2288.6653958,2288.6653958,2288.6653958,2288.6653958,2288.6653958,2288.6653958,None,None,None,,,,,,,,,,,2283.9436258,2283.9436258,None,,2285.0248175,2285.0248175,n,1.5377090999997733,2283.9436258,2283.9436258,,,10,001,2024-06-18_09h45.18.178,robot_nback_sign,2022.2.5,60.01385119685948,
L_Base_X_Back,False,2,robot,1,False,False,robot_stimuli\L_Base_X_Back.mp4,10,,,,,,,,,0,67,67,67,,,,,,,,,,,,,2288.6653958,2289.7416846,,,,,,,2293.3431674000003,2293.3431674000003,2293.3431674000003,2293.3431674000003,2293.3431674000003,2293.3431674000003,2293.3431674000003,2293.3431674000003,None,None,None,,,,,,,,,,,2288.6653958,2288.6653958,None,,2289.7416846,2289.7416846,n,1.4849670999999205,2288.6653958,2288.6653958,,,10,001,2024-06-18_09h45.18.178,robot_nback_sign,2022.2.5,60.01385119685948,
R_Base_Z_Back,False,2,robot,1,False,False,robot_stimuli\R_Base_Z_Back.mp4,10,,,,,,,,,0,68,68,68,,,,,,,,,,,,,2293.3431674000003,2294.4409044000004,,,,,,,2297.9802515,2297.9802515,2297.9802515,2297.9802515,2297.9802515,2297.9802515,2297.9802515,2297.9802515,None,None,None,,,,,,,,,,,2293.3431674000003,2293.3431674000003,None,,2294.4409044000004,2294.4409044000004,n,1.3217347999995752,2293.3431674000003,2293.3431674000003,,,10,001,2024-06-18_09h45.18.178,robot_nback_sign,2022.2.5,60.01385119685948,
R_Head_Y_Back,False,2,robot,1,False,False,robot_stimuli\R_Head_Y_Back.mp4,10,,,,,,,,,0,69,69,69,,,,,,,,,,,,,2297.9802515,2299.0619806,,,,,,,2302.7132623,2302.7132623,2302.7132623,2302.7132623,2302.7132623,2302.7132623,2302.7132623,2302.7132623,None,None,None,,,,,,,,,,,2297.9802515,2297.9802515,None,,2299.0619806,2299.0619806,n,0.9730242999996506,2297.9802515,2297.9802515,,,10,001,2024-06-18_09h45.18.178,robot_nback_sign,2022.2.5,60.01385119685948,
L_Head_X_Back,False,2,robot,1,False,False,robot_stimuli\L_Head_X_Back.mp4,10,,,,,,,,,0,70,70,70,,,,,,,,,,,,,2302.7132623,2303.7918923,,,,,,,2307.4325155,2307.4325155,2307.4325155,2307.4325155,2307.4325155,2307.4325155,2307.4325155,2307.4325155,None,None,None,,,,,,,,,,,2302.7132623,2302.7132623,None,,2303.7918923,2303.7918923,n,0.9772878999999364,2302.7132623,2302.7132623,,,10,001,2024-06-18_09h45.18.178,robot_nback_sign,2022.2.5,60.01385119685948,
L_Arm_Z_For,False,2,robot,1,False,False,robot_stimuli\L_Arm_Z_For.mp4,10,,,,,,,,,0,71,71,71,,,,,,,,,,,,,2307.4325155,2308.5099227,,,,,,,2312.1415512000003,2312.1415512000003,2312.1415512000003,2312.1415512000003,2312.1415512000003,2312.1415512000003,2312.1415512000003,2312.1415512000003,None,None,None,,,,,,,,,,,2307.4325155,2307.4325155,None,,2308.5099227,2308.5099227,n,1.020342499999714,2307.4325155,2307.4325155,,,10,001,2024-06-18_09h45.18.178,robot_nback_sign,2022.2.5,60.01385119685948,
L_Head_X_Back,True,2,robot,1,False,False,robot_stimuli\L_Head_X_Back.mp4,10,,,,,,,,,0,72,72,72,,,,,,,,,,,,,2312.1415512000003,2313.2240523,,,,,,,2316.8623835000003,2316.8623835000003,2316.8623835000003,2316.8623835000003,2316.8623835000003,2316.8623835000003,2316.8623835000003,2316.8623835000003,None,None,None,,,,,,,,,,,2312.1415512000003,2312.1415512000003,None,,2313.2240523,2313.2240523,c,1.0100040999998043,2312.1415512000003,2312.1415512000003,,,10,001,2024-06-18_09h45.18.178,robot_nback_sign,2022.2.5,60.01385119685948,
R_Head_X_For,False,2,robot,1,False,False,robot_stimuli\R_Head_X_For.mp4,10,,,,,,,,,0,73,73,73,,,,,,,,,,,,,2316.8623835000003,2317.9424843,,,,,,,2321.5827323000003,2321.5827323000003,2321.5827323000003,2321.5827323000003,2321.5827323000003,2321.5827323000003,2321.5827323000003,2321.5827323000003,None,None,None,,,,,,,,,,,2316.8623835000003,2316.8623835000003,None,,2317.9424843,2317.9424843,n,1.754646199999769,2316.8623835000003,2316.8623835000003,,,10,001,2024-06-18_09h45.18.178,robot_nback_sign,2022.2.5,60.01385119685948,
R_Torso_Z_For,False,2,robot,1,False,False,robot_stimuli\R_Torso_Z_For.mp4,10,,,,,,,,,0,74,74,74,,,,,,,,,,,,,2321.5827323000003,,,,,,,,2326.3160405000003,2326.3160405000003,2326.3160405000003,2326.3160405000003,2326.3160405000003,2326.3160405000003,2326.3160405000003,2326.3160405000003,None,None,None,,,,,,,,,,,2321.5827323000003,2321.5827323000003,None,,2322.6752450000004,2322.6752450000004,n,1.6299120000000755,2321.5827323000003,2321.5827323000003,,,10,001,2024-06-18_09h45.18.178,robot_nback_sign,2022.2.5,60.01385119685948,
L_Torso_Y_Back,False,2,robot,1,False,False,robot_stimuli\L_Torso_Y_Back.mp4,10,,,,,,,,,0,75,75,75,,,,,,,,,,,,,2326.3160405000003,,,,,,,,2330.9265531,2330.9265531,2330.9265531,2330.9265531,2330.9265531,2330.9265531,2330.9265531,2330.9265531,None,None,None,,,,,,,,,,,2326.3160405000003,2326.3160405000003,None,,2327.4092307,2327.4092307,n,1.2000404000002334,2326.3160405000003,2326.3160405000003,,,10,001,2024-06-18_09h45.18.178,robot_nback_sign,2022.2.5,60.01385119685948,
L_Base_X_For,False,2,robot,1,False,False,robot_stimuli\L_Base_X_For.mp4,10,,,,,,,,,0,76,76,76,,,,,,,,,,,,,2330.9265531,2332.0100407,,,,,,,2335.5807682,2335.5807682,2335.5807682,2335.5807682,2335.5807682,2335.5807682,2335.5807682,2335.5807682,None,None,None,,,,,,,,,,,2330.9265531,2330.9265531,None,,2332.0100407,2332.0100407,n,1.920509499999497,2330.9265531,2330.9265531,,,10,001,2024-06-18_09h45.18.178,robot_nback_sign,2022.2.5,60.01385119685948,
R_Arm_Z_For,False,2,robot,1,False,False,robot_stimuli\R_Arm_Z_For.mp4,10,,,,,,,,,0,77,77,77,,,,,,,,,,,,,2335.5807682,2336.6595645,,,,,,,2340.3111642000003,2340.3111642000003,2340.3111642000003,2340.3111642000003,2340.3111642000003,2340.3111642000003,2340.3111642000003,2340.3111642000003,None,None,None,,,,,,,,,,,2335.5807682,2335.5807682,None,,2336.6595645,2336.6595645,n,1.2868322999999862,2335.5807682,2335.5807682,,,10,001,2024-06-18_09h45.18.178,robot_nback_sign,2022.2.5,60.01385119685948,
L_Base_X_Back,False,2,robot,1,False,False,robot_stimuli\L_Base_X_Back.mp4,10,,,,,,,,,0,78,78,78,,,,,,,,,,,,,2340.3111642000003,2341.393384,,,,,,,2345.0081907000003,2345.0081907000003,2345.0081907000003,2345.0081907000003,2345.0081907000003,2345.0081907000003,2345.0081907000003,2345.0081907000003,None,None,None,,,,,,,,,,,2340.3111642000003,2340.3111642000003,None,,2341.393384,2341.393384,c,1.4803894999997453,2340.3111642000003,2340.3111642000003,,,10,001,2024-06-18_09h45.18.178,robot_nback_sign,2022.2.5,60.01385119685948,
R_Arm_Z_For,True,2,robot,1,False,False,robot_stimuli\R_Arm_Z_For.mp4,10,,,,,,,,,0,79,79,79,,,,,,,,,,,,,2345.0081907000003,2346.0931008000002,,,,,,,2349.7236619,2349.7236619,2349.7236619,2349.7236619,2349.7236619,2349.7236619,2349.7236619,2349.7236619,None,None,None,,,,,,,,,,,2345.0081907000003,2345.0081907000003,None,,2346.0931008000002,2346.0931008000002,c,1.7080094999998607,2345.0081907000003,2345.0081907000003,,,10,001,2024-06-18_09h45.18.178,robot_nback_sign,2022.2.5,60.01385119685948,
L_Torso_Y_Back,False,2,robot,1,False,False,robot_stimuli\L_Torso_Y_Back.mp4,10,,,,,,,,,0,80,80,80,,,,,,,,,,,,,2349.7236619,2350.808863,,,,,,,2354.3154839000003,2354.3154839000003,2354.3154839000003,2354.3154839000003,2354.3154839000003,2354.3154839000003,2354.3154839000003,2354.3154839000003,None,None,None,,,,,,,,,,,2349.7236619,2349.7236619,None,,2350.808863,2350.808863,n,1.9056530999998529,2349.7236619,2349.7236619,,,10,001,2024-06-18_09h45.18.178,robot_nback_sign,2022.2.5,60.01385119685948,
R_Arm_Y_Back,False,2,robot,1,False,False,robot_stimuli\R_Arm_Y_Back.mp4,10,,,,,,,,,0,81,81,81,,,,,,,,,,,,,2354.3154839000003,2355.393168,,,,,,,2359.0444094000004,2359.0444094000004,2359.0444094000004,2359.0444094000004,2359.0444094000004,2359.0444094000004,2359.0444094000004,2359.0444094000004,None,None,None,,,,,,,,,,,2354.3154839000003,2354.3154839000003,None,,2355.393168,2355.393168,c,2.82445109999955,2354.3154839000003,2354.3154839000003,,,10,001,2024-06-18_09h45.18.178,robot_nback_sign,2022.2.5,60.01385119685948,
R_Head_Y_For,False,2,robot,1,False,False,robot_stimuli\R_Head_Y_For.mp4,10,,,,,,,,,0,82,82,82,,,,,,,,,,,,,2359.0444094000004,2360.1259068000004,,,,,,,2363.7563104,2363.7563104,2363.7563104,2363.7563104,2363.7563104,2363.7563104,2363.7563104,2363.7563104,None,None,None,,,,,,,,,,,2359.0444094000004,2359.0444094000004,None,,2360.1259068000004,2360.1259068000004,n,0.9960001999995427,2359.0444094000004,2359.0444094000004,,,10,001,2024-06-18_09h45.18.178,robot_nback_sign,2022.2.5,60.01385119685948,
L_Torso_Z_Back,False,2,robot,1,False,False,robot_stimuli\L_Torso_Z_Back.mp4,10,,,,,,,,,0,83,83,83,,,,,,,,,,,,,2363.7563104,2364.844324,,,,,,,2368.3611277,2368.3611277,2368.3611277,2368.3611277,2368.3611277,2368.3611277,2368.3611277,2368.3611277,None,None,None,,,,,,,,,,,2363.7563104,2363.7563104,None,,2364.844324,2364.844324,n,1.1499561999996502,2363.7563104,2363.7563104,,,10,001,2024-06-18_09h45.18.178,robot_nback_sign,2022.2.5,60.01385119685948,
R_Head_Y_For,True,2,robot,1,False,False,robot_stimuli\R_Head_Y_For.mp4,10,,,,,,,,,0,84,84,84,,,,,,,,,,,,,2368.3611277,2369.4456942,,,,,,,2373.0962445,2373.0962445,2373.0962445,2373.0962445,2373.0962445,2373.0962445,2373.0962445,2373.0962445,None,None,None,,,,,,,,,,,2368.3611277,2368.3611277,None,,2369.4456942,2369.4456942,c,1.404610899999824,2368.3611277,2368.3611277,,,10,001,2024-06-18_09h45.18.178,robot_nback_sign,2022.2.5,60.01385119685948,
L_Torso_X_Back,False,2,robot,1,False,False,robot_stimuli\L_Torso_X_Back.mp4,10,,,,,,,,,0,85,85,85,,,,,,,,,,,,,2373.0962445,2374.1803628000002,,,,,,,2377.8300661000003,2377.8300661000003,2377.8300661000003,2377.8300661000003,2377.8300661000003,2377.8300661000003,2377.8300661000003,2377.8300661000003,None,None,None,,,,,,,,,,,2373.0962445,2373.0962445,None,,2374.1803628000002,2374.1803628000002,n,2.9340716999997483,2373.0962445,2373.0962445,,,10,001,2024-06-18_09h45.18.178,robot_nback_sign,2022.2.5,60.01385119685948,
R_Torso_Z_For,False,2,robot,1,False,False,robot_stimuli\R_Torso_Z_For.mp4,10,,,,,,,,,0,86,86,86,,,,,,,,,,,,,2377.8300661000003,2378.9087997,,,,,,,2382.5487506000004,2382.5487506000004,2382.5487506000004,2382.5487506000004,2382.5487506000004,2382.5487506000004,2382.5487506000004,2382.5487506000004,None,None,None,,,,,,,,,,,2377.8300661000003,2377.8300661000003,None,,2378.9087997,2378.9087997,n,1.5658801000001574,2377.8300661000003,2377.8300661000003,,,10,001,2024-06-18_09h45.18.178,robot_nback_sign,2022.2.5,60.01385119685948,
L_Arm_Z_Back,False,2,robot,1,False,False,robot_stimuli\L_Arm_Z_Back.mp4,10,,,,,,,,,0,87,87,87,,,,,,,,,,,,,2382.5487506000004,2383.6256937000003,,,,,,,2387.2555255,2387.2555255,2387.2555255,2387.2555255,2387.2555255,2387.2555255,2387.2555255,2387.2555255,None,None,None,,,,,,,,,,,2382.5487506000004,2382.5487506000004,None,,2383.6256937000003,2383.6256937000003,n,1.2647852000002047,2382.5487506000004,2382.5487506000004,,,10,001,2024-06-18_09h45.18.178,robot_nback_sign,2022.2.5,60.01385119685948,
R_Head_X_Back,False,2,robot,1,False,False,robot_stimuli\R_Head_X_Back.mp4,10,,,,,,,,,0,88,88,88,,,,,,,,,,,,,2387.2555255,2388.3450477,,,,,,,2391.9940621,2391.9940621,2391.9940621,2391.9940621,2391.9940621,2391.9940621,2391.9940621,2391.9940621,None,None,None,,,,,,,,,,,2387.2555255,2387.2555255,None,,2388.3450477,2388.3450477,n,1.5048116999998626,2387.2555255,2387.2555255,,,10,001,2024-06-18_09h45.18.178,robot_nback_sign,2022.2.5,60.01385119685948,
R_Torso_Z_Back,False,2,robot,1,False,False,robot_stimuli\R_Torso_Z_Back.mp4,10,,,,,,,,,0,89,89,89,,,,,,,,,,,,,2391.9940621,2393.0778634000003,,,,,,,2396.7301134000004,2396.7301134000004,2396.7301134000004,2396.7301134000004,2396.7301134000004,2396.7301134000004,2396.7301134000004,2396.7301134000004,None,None,None,,,,,,,,,,,2391.9940621,2391.9940621,None,,2393.0778634000003,2393.0778634000003,n,1.7078497999998206,2391.9940621,2391.9940621,,,10,001,2024-06-18_09h45.18.178,robot_nback_sign,2022.2.5,60.01385119685948,
R_Head_X_Back,True,2,robot,1,False,False,robot_stimuli\R_Head_X_Back.mp4,10,,,,,,,,,0,90,90,90,,,,,,,,,,,,,2396.7301134000004,2397.8104381000003,,,,,,,2401.4611852000003,2401.4611852000003,2401.4611852000003,2401.4611852000003,2401.4611852000003,2401.4611852000003,2401.4611852000003,2401.4611852000003,None,None,None,,,,,,,,,,,2396.7301134000004,2396.7301134000004,None,,2397.8104381000003,2397.8104381000003,c,1.4635943999998915,2396.7301134000004,2396.7301134000004,,,10,001,2024-06-18_09h45.18.178,robot_nback_sign,2022.2.5,60.01385119685948,
R_Arm_X_For,False,2,robot,1,False,False,robot_stimuli\R_Arm_X_For.mp4,10,,,,,,,,,0,91,91,91,,,,,,,,,,,,,2401.4611852000003,2402.544127,,,,,,,2406.1942014,2406.1942014,2406.1942014,2406.1942014,2406.1942014,2406.1942014,2406.1942014,2406.1942014,None,None,None,,,,,,,,,,,2401.4611852000003,2401.4611852000003,None,,2402.544127,2402.544127,n,1.6256749000001207,2401.4611852000003,2401.4611852000003,,,10,001,2024-06-18_09h45.18.178,robot_nback_sign,2022.2.5,60.01385119685948,
L_Head_X_Back,False,2,robot,1,False,False,robot_stimuli\L_Head_X_Back.mp4,10,,,,,,,,,0,92,92,92,,,,,,,,,,,,,2406.1942014,2407.2764385,,,,,,,2410.9066705,2410.9066705,2410.9066705,2410.9066705,2410.9066705,2410.9066705,2410.9066705,2410.9066705,None,None,None,,,,,,,,,,,2406.1942014,2406.1942014,None,,2407.2764385,2407.2764385,n,2.429626500000012,2406.1942014,2406.1942014,,,10,001,2024-06-18_09h45.18.178,robot_nback_sign,2022.2.5,60.01385119685948,
L_Base_X_For,False,2,robot,1,False,False,robot_stimuli\L_Base_X_For.mp4,10,,,,,,,,,0,93,93,93,,,,,,,,,,,,,2410.9066705,2411.9926997000002,,,,,,,2415.5643399,2415.5643399,2415.5643399,2415.5643399,2415.5643399,2415.5643399,2415.5643399,2415.5643399,None,None,None,,,,,,,,,,,2410.9066705,2410.9066705,None,,2411.9926997000002,2411.9926997000002,n,1.8250310999999044,2410.9066705,2410.9066705,,,10,001,2024-06-18_09h45.18.178,robot_nback_sign,2022.2.5,60.01385119685948,
L_Arm_X_Back,False,2,robot,1,False,False,robot_stimuli\L_Arm_X_Back.mp4,10,,,,,,,,,0,94,94,94,,,,,,,,,,,,,2415.5643399,2416.6426002000003,,,,,,,2420.2747439,2420.2747439,2420.2747439,2420.2747439,2420.2747439,2420.2747439,2420.2747439,2420.2747439,None,None,None,,,,,,,,,,,2415.5643399,2415.5643399,None,,2416.6426002000003,2416.6426002000003,n,1.647697800000259,2415.5643399,2415.5643399,,,10,001,2024-06-18_09h45.18.178,robot_nback_sign,2022.2.5,60.01385119685948,
R_Head_Y_Back,False,2,robot,1,False,False,robot_stimuli\R_Head_Y_Back.mp4,10,,,,,,,,,0,95,95,95,,,,,,,,,,,,,2420.2747439,2421.3600088000003,,,,,,,2425.0092818000003,2425.0092818000003,2425.0092818000003,2425.0092818000003,2425.0092818000003,2425.0092818000003,2425.0092818000003,2425.0092818000003,None,None,None,,,,,,,,,,,2420.2747439,2420.2747439,None,,2421.3600088000003,2421.3600088000003,n,0.9308364000000608,2420.2747439,2420.2747439,,,10,001,2024-06-18_09h45.18.178,robot_nback_sign,2022.2.5,60.01385119685948,
L_Torso_Z_Back,False,2,robot,1,False,False,robot_stimuli\L_Torso_Z_Back.mp4,10,,,,,,,,,0,96,96,96,,,,,,,,,,,,,2425.0092818000003,2426.0978652000003,,,,,,,2429.6181373000004,2429.6181373000004,2429.6181373000004,2429.6181373000004,2429.6181373000004,2429.6181373000004,2429.6181373000004,2429.6181373000004,None,None,None,,,,,,,,,,,2425.0092818000003,2425.0092818000003,None,,2426.0978652000003,2426.0978652000003,n,1.912510200000014,2425.0092818000003,2425.0092818000003,,,10,001,2024-06-18_09h45.18.178,robot_nback_sign,2022.2.5,60.01385119685948,
R_Torso_Y_For,False,2,robot,1,False,False,robot_stimuli\R_Torso_Y_For.mp4,10,,,,,,,,,0,97,97,97,,,,,,,,,,,,,2429.6181373000004,,,,,,,,2434.3656338,2434.3656338,2434.3656338,2434.3656338,2434.3656338,2434.3656338,2434.3656338,2434.3656338,None,None,None,,,,,,,,,,,2429.6181373000004,2429.6181373000004,None,,2430.7246414,2430.7246414,n,2.325100399999627,2429.6181373000004,2429.6181373000004,,,10,001,2024-06-18_09h45.18.178,robot_nback_sign,2022.2.5,60.01385119685948,
L_Head_X_Back,False,2,robot,1,False,False,robot_stimuli\L_Head_X_Back.mp4,10,,,,,,,,,0,98,98,98,,,,,,,,,,,,,2434.3656338,2435.4428305,,,,,,,2439.0823559,2439.0823559,2439.0823559,2439.0823559,2439.0823559,2439.0823559,2439.0823559,2439.0823559,None,None,None,,,,,,,,,,,2434.3656338,2434.3656338,None,,2435.4428305,2435.4428305,n,1.3422192000000166,2434.3656338,2434.3656338,,,10,001,2024-06-18_09h45.18.178,robot_nback_sign,2022.2.5,60.01385119685948,
R_Torso_X_For,False,2,robot,1,False,True,robot_stimuli\R_Torso_X_For.mp4,10,,,,,,,,,0,99,99,99,,,,,,,,,,,,,2439.0823559,2440.1594172,,,,,,,2443.8209947,2458.2433257000002,2443.8209947,2458.2433257000002,2443.8209947,2458.2433257000002,2443.8209947,2458.2433257000002,59.629629629629626,12.86437100000012,space,,,,14.365913199999994,,,,,,,2439.0823559,2439.0823559,None,,2440.1594172,2440.1594172,c,0.9868536999999549,2439.0823559,2439.0823559,,,10,001,2024-06-18_09h45.18.178,robot_nback_sign,2022.2.5,60.01385119685948,
L_Arm_Z_For,False,1,robot,1,True,False,robot_stimuli\L_Arm_Z_For.mp4,10,,,,,,,,,0,100,100,100,,,,,,,,,,,,,2460.2483564000004,2461.3281394,,,,,,,2464.95597,2464.95597,2464.95597,2464.95597,2464.95597,2464.95597,2464.95597,2464.95597,None,None,None,,,,,,,,,,,2458.2433257000002,2458.2433257000002,space,1.983277999999899,2461.3281394,2461.3281394,None,,,,,,10,001,2024-06-18_09h45.18.178,robot_nback_sign,2022.2.5,60.01385119685948,
R_Torso_X_Back,False,1,robot,1,False,False,robot_stimuli\R_Torso_X_Back.mp4,10,,,,,,,,,0,101,101,101,,,,,,,,,,,,,2464.95597,2466.0428577000002,,,,,,,2469.6734831000003,2469.6734831000003,2469.6734831000003,2469.6734831000003,2469.6734831000003,2469.6734831000003,2469.6734831000003,2469.6734831000003,None,None,None,,,,,,,,,,,2464.95597,2464.95597,None,,2466.0428577000002,2466.0428577000002,n,0.9263625999999192,2464.95597,2464.95597,,,10,001,2024-06-18_09h45.18.178,robot_nback_sign,2022.2.5,60.01385119685948,
L_Base_X_Back,False,1,robot,1,False,False,robot_stimuli\L_Base_X_Back.mp4,10,,,,,,,,,0,102,102,102,,,,,,,,,,,,,2469.6734831000003,2470.7603940000004,,,,,,,2474.3810709000004,2474.3810709000004,2474.3810709000004,2474.3810709000004,2474.3810709000004,2474.3810709000004,2474.3810709000004,2474.3810709000004,None,None,None,,,,,,,,,,,2469.6734831000003,2469.6734831000003,None,,2470.7603940000004,2470.7603940000004,n,0.9784708999997918,2469.6734831000003,2469.6734831000003,,,10,001,2024-06-18_09h45.18.178,robot_nback_sign,2022.2.5,60.01385119685948,
L_Base_X_Back,True,1,robot,1,False,False,robot_stimuli\L_Base_X_Back.mp4,10,,,,,,,,,0,103,103,103,,,,,,,,,,,,,2474.3810709000004,2475.4715690000003,,,,,,,2479.0785045000002,2479.0785045000002,2479.0785045000002,2479.0785045000002,2479.0785045000002,2479.0785045000002,2479.0785045000002,2479.0785045000002,None,None,None,,,,,,,,,,,2474.3810709000004,2474.3810709000004,None,,2475.4715690000003,2475.4715690000003,c,2.306870000000089,2474.3810709000004,2474.3810709000004,,,10,001,2024-06-18_09h45.18.178,robot_nback_sign,2022.2.5,60.01385119685948,
R_Torso_Z_For,False,1,robot,1,False,False,robot_stimuli\R_Torso_Z_For.mp4,10,,,,,,,,,0,104,104,104,,,,,,,,,,,,,2479.0785045000002,2480.1618376,,,,,,,2483.8109857000004,2483.8109857000004,2483.8109857000004,2483.8109857000004,2483.8109857000004,2483.8109857000004,2483.8109857000004,2483.8109857000004,None,None,None,,,,,,,,,,,2479.0785045000002,2479.0785045000002,None,,2480.1618376,2480.1618376,n,1.5912517999997533,2479.0785045000002,2479.0785045000002,,,10,001,2024-06-18_09h45.18.178,robot_nback_sign,2022.2.5,60.01385119685948,
L_Arm_X_Back,False,1,robot,1,False,False,robot_stimuli\L_Arm_X_Back.mp4,10,,,,,,,,,0,105,105,105,,,,,,,,,,,,,2483.8109857000004,2484.8950585000002,,,,,,,2488.5455193000003,2488.5455193000003,2488.5455193000003,2488.5455193000003,2488.5455193000003,2488.5455193000003,2488.5455193000003,2488.5455193000003,None,None,None,,,,,,,,,,,2483.8109857000004,2483.8109857000004,None,,2484.8950585000002,2484.8950585000002,n,1.5949628999998993,2483.8109857000004,2483.8109857000004,,,10,001,2024-06-18_09h45.18.178,robot_nback_sign,2022.2.5,60.01385119685948,
L_Base_Y_For,False,1,robot,1,False,False,robot_stimuli\L_Base_Y_For.mp4,10,,,,,,,,,0,106,106,106,,,,,,,,,,,,,2488.5455193000003,2489.6313529000004,,,,,,,2493.1812201000002,2493.1812201000002,2493.1812201000002,2493.1812201000002,2493.1812201000002,2493.1812201000002,2493.1812201000002,2493.1812201000002,None,None,None,,,,,,,,,,,2488.5455193000003,2488.5455193000003,None,,2489.6313529000004,2489.6313529000004,n,1.8183831999997153,2488.5455193000003,2488.5455193000003,,,10,001,2024-06-18_09h45.18.178,robot_nback_sign,2022.2.5,60.01385119685948,
R_Head_Y_For,False,1,robot,1,False,False,robot_stimuli\R_Head_Y_For.mp4,10,,,,,,,,,0,107,107,107,,,,,,,,,,,,,2493.1812201000002,2494.2614219,,,,,,,2497.9114815000003,2497.9114815000003,2497.9114815000003,2497.9114815000003,2497.9114815000003,2497.9114815000003,2497.9114815000003,2497.9114815000003,None,None,None,,,,,,,,,,,2493.1812201000002,2493.1812201000002,None,,2494.2614219,2494.2614219,n,1.0285282999995786,2493.1812201000002,2493.1812201000002,,,10,001,2024-06-18_09h45.18.178,robot_nback_sign,2022.2.5,60.01385119685948,
R_Torso_X_For,False,1,robot,1,False,False,robot_stimuli\R_Torso_X_For.mp4,10,,,,,,,,,0,108,108,108,,,,,,,,,,,,,2497.9114815000003,2498.992,,,,,,,2502.6224518000004,2502.6224518000004,2502.6224518000004,2502.6224518000004,2502.6224518000004,2502.6224518000004,2502.6224518000004,2502.6224518000004,None,None,None,,,,,,,,,,,2497.9114815000003,2497.9114815000003,None,,2498.992,2498.992,n,0.9780407999998886,2497.9114815000003,2497.9114815000003,,,10,001,2024-06-18_09h45.18.178,robot_nback_sign,2022.2.5,60.01385119685948,
R_Arm_Z_Back,False,1,robot,1,False,False,robot_stimuli\R_Arm_Z_Back.mp4,10,,,,,,,,,0,109,109,109,,,,,,,,,,,,,2502.6224518000004,2503.7090931000002,,,,,,,2507.3487312,2507.3487312,2507.3487312,2507.3487312,2507.3487312,2507.3487312,2507.3487312,2507.3487312,None,None,None,,,,,,,,,,,2502.6224518000004,2502.6224518000004,None,,2503.7090931000002,2503.7090931000002,n,1.4211231000001305,2502.6224518000004,2502.6224518000004,,,10,001,2024-06-18_09h45.18.178,robot_nback_sign,2022.2.5,60.01385119685948,
R_Arm_Z_Back,True,1,robot,1,False,False,robot_stimuli\R_Arm_Z_Back.mp4,10,,,,,,,,,0,110,110,110,,,,,,,,,,,,,2507.3487312,2508.4237751,,,,,,,2512.0650396,2512.0650396,2512.0650396,2512.0650396,2512.0650396,2512.0650396,2512.0650396,2512.0650396,None,None,None,,,,,,,,,,,2507.3487312,2507.3487312,None,,2508.4237751,2508.4237751,c,1.8193066999999417,2507.3487312,2507.3487312,,,10,001,2024-06-18_09h45.18.178,robot_nback_sign,2022.2.5,60.01385119685948,
L_Head_Z_Back,False,1,robot,1,False,False,robot_stimuli\L_Head_Z_Back.mp4,10,,,,,,,,,0,111,111,111,,,,,,,,,,,,,2512.0650396,2513.1446209,,,,,,,2516.7956028000003,2516.7956028000003,2516.7956028000003,2516.7956028000003,2516.7956028000003,2516.7956028000003,2516.7956028000003,2516.7956028000003,None,None,None,,,,,,,,,,,2512.0650396,2512.0650396,None,,2513.1446209,2513.1446209,n,2.313767399999705,2512.0650396,2512.0650396,,,10,001,2024-06-18_09h45.18.178,robot_nback_sign,2022.2.5,60.01385119685948,
R_Arm_X_For,False,1,robot,1,False,False,robot_stimuli\R_Arm_X_For.mp4,10,,,,,,,,,0,112,112,112,,,,,,,,,,,,,2516.7956028000003,2517.8761827000003,,,,,,,2521.5144037,2521.5144037,2521.5144037,2521.5144037,2521.5144037,2521.5144037,2521.5144037,2521.5144037,None,None,None,,,,,,,,,,,2516.7956028000003,2516.7956028000003,None,,2517.8761827000003,2517.8761827000003,n,1.061254899999966,2516.7956028000003,2516.7956028000003,,,10,001,2024-06-18_09h45.18.178,robot_nback_sign,2022.2.5,60.01385119685948,
L_Base_X_Back,False,1,robot,1,False,False,robot_stimuli\L_Base_X_Back.mp4,10,,,,,,,,,0,113,113,113,,,,,,,,,,,,,2521.5144037,2522.5942708000002,,,,,,,2526.2103124,2526.2103124,2526.2103124,2526.2103124,2526.2103124,2526.2103124,2526.2103124,2526.2103124,None,None,None,,,,,,,,,,,2521.5144037,2521.5144037,None,,2522.5942708000002,2522.5942708000002,n,0.7517559000000062,2521.5144037,2521.5144037,,,10,001,2024-06-18_09h45.18.178,robot_nback_sign,2022.2.5,60.01385119685948,
L_Base_X_Back,True,1,robot,1,False,False,robot_stimuli\L_Base_X_Back.mp4,10,,,,,,,,,0,114,114,114,,,,,,,,,,,,,2526.2103124,2527.2929225000003,,,,,,,2530.8982444000003,2530.8982444000003,2530.8982444000003,2530.8982444000003,2530.8982444000003,2530.8982444000003,2530.8982444000003,2530.8982444000003,None,None,None,,,,,,,,,,,2526.2103124,2526.2103124,None,,2527.2929225000003,2527.2929225000003,c,1.6531640000000323,2526.2103124,2526.2103124,,,10,001,2024-06-18_09h45.18.178,robot_nback_sign,2022.2.5,60.01385119685948,
R_Base_X_Back,False,1,robot,1,False,False,robot_stimuli\R_Base_X_Back.mp4,10,,,,,,,,,0,115,115,115,,,,,,,,,,,,,2530.8982444000003,2531.9813126000004,,,,,,,2535.6311492,2535.6311492,2535.6311492,2535.6311492,2535.6311492,2535.6311492,2535.6311492,2535.6311492,None,None,None,,,,,,,,,,,2530.8982444000003,2530.8982444000003,None,,2531.9813126000004,2531.9813126000004,n,1.5412156999998103,2530.8982444000003,2530.8982444000003,,,10,001,2024-06-18_09h45.18.178,robot_nback_sign,2022.2.5,60.01385119685948,
L_Head_X_Back,False,1,robot,1,False,False,robot_stimuli\L_Head_X_Back.mp4,10,,,,,,,,,0,116,116,116,,,,,,,,,,,,,2535.6311492,2536.7098767,,,,,,,2540.3398763,2540.3398763,2540.3398763,2540.3398763,2540.3398763,2540.3398763,2540.3398763,2540.3398763,None,None,None,,,,,,,,,,,2535.6311492,2535.6311492,None,,2536.7098767,2536.7098767,n,0.6846382000000801,2535.6311492,2535.6311492,,,10,001,2024-06-18_09h45.18.178,robot_nback_sign,2022.2.5,60.01385119685948,
L_Base_X_For,False,1,robot,1,False,False,robot_stimuli\L_Base_X_For.mp4,10,,,,,,,,,0,117,117,117,,,,,,,,,,,,,2540.3398763,2541.4247077,,,,,,,2544.9987772000004,2544.9987772000004,2544.9987772000004,2544.9987772000004,2544.9987772000004,2544.9987772000004,2544.9987772000004,2544.9987772000004,None,None,None,,,,,,,,,,,2540.3398763,2540.3398763,None,,2541.4247077,2541.4247077,n,1.1925908999998853,2540.3398763,2540.3398763,,,10,001,2024-06-18_09h45.18.178,robot_nback_sign,2022.2.5,60.01385119685948,
R_Head_Z_For,False,1,robot,1,False,False,robot_stimuli\R_Head_Z_For.mp4,10,,,,,,,,,0,118,118,118,,,,,,,,,,,,,2544.9987772000004,2546.0766711,,,,,,,2549.7293854000004,2549.7293854000004,2549.7293854000004,2549.7293854000004,2549.7293854000004,2549.7293854000004,2549.7293854000004,2549.7293854000004,None,None,None,,,,,,,,,,,2544.9987772000004,2544.9987772000004,None,,2546.0766711,2546.0766711,n,0.8691334000002087,2544.9987772000004,2544.9987772000004,,,10,001,2024-06-18_09h45.18.178,robot_nback_sign,2022.2.5,60.01385119685948,
R_Head_X_Back,False,1,robot,1,False,False,robot_stimuli\R_Head_X_Back.mp4,10,,,,,,,,,0,119,119,119,,,,,,,,,,,,,2549.7293854000004,2550.8088273000003,,,,,,,2554.4433026,2554.4433026,2554.4433026,2554.4433026,2554.4433026,2554.4433026,2554.4433026,2554.4433026,None,None,None,,,,,,,,,,,2549.7293854000004,2549.7293854000004,None,,2550.8088273000003,2550.8088273000003,n,1.0969895999998869,2549.7293854000004,2549.7293854000004,,,10,001,2024-06-18_09h45.18.178,robot_nback_sign,2022.2.5,60.01385119685948,
R_Head_X_Back,True,1,robot,1,False,False,robot_stimuli\R_Head_X_Back.mp4,10,,,,,,,,,0,120,120,120,,,,,,,,,,,,,2554.4433026,2555.5388124,,,,,,,2559.1802544,2559.1802544,2559.1802544,2559.1802544,2559.1802544,2559.1802544,2559.1802544,2559.1802544,None,None,None,,,,,,,,,,,2554.4433026,2554.4433026,None,,2555.5388124,2555.5388124,c,1.856110599999937,2554.4433026,2554.4433026,,,10,001,2024-06-18_09h45.18.178,robot_nback_sign,2022.2.5,60.01385119685948,
L_Base_Y_Back,False,1,robot,1,False,False,robot_stimuli\L_Base_Y_Back.mp4,10,,,,,,,,,0,121,121,121,,,,,,,,,,,,,2559.1802544,2560.2594308000002,,,,,,,2563.8244781000003,2563.8244781000003,2563.8244781000003,2563.8244781000003,2563.8244781000003,2563.8244781000003,2563.8244781000003,2563.8244781000003,None,None,None,,,,,,,,,,,2559.1802544,2559.1802544,None,,2560.2594308000002,2560.2594308000002,n,1.9753218999996704,2559.1802544,2559.1802544,,,10,001,2024-06-18_09h45.18.178,robot_nback_sign,2022.2.5,60.01385119685948,
R_Arm_Y_For,False,1,robot,1,False,False,robot_stimuli\R_Arm_Y_For.mp4,10,,,,,,,,,0,122,122,122,,,,,,,,,,,,,2563.8244781000003,2564.9141999000003,,,,,,,2568.4303781000003,2568.4303781000003,2568.4303781000003,2568.4303781000003,2568.4303781000003,2568.4303781000003,2568.4303781000003,2568.4303781000003,None,None,None,,,,,,,,,,,2563.8244781000003,2563.8244781000003,None,,2564.9141999000003,2564.9141999000003,n,1.0242021000001102,2563.8244781000003,2563.8244781000003,,,10,001,2024-06-18_09h45.18.178,robot_nback_sign,2022.2.5,60.01385119685948,
L_Arm_Z_For,False,1,robot,1,False,False,robot_stimuli\L_Arm_Z_For.mp4,10,,,,,,,,,0,123,123,123,,,,,,,,,,,,,2568.4303781000003,2569.5105852,,,,,,,2573.1439887,2573.1439887,2573.1439887,2573.1439887,2573.1439887,2573.1439887,2573.1439887,2573.1439887,None,None,None,,,,,,,,,,,2568.4303781000003,2568.4303781000003,None,,2569.5105852,2569.5105852,n,1.4203740999998615,2568.4303781000003,2568.4303781000003,,,10,001,2024-06-18_09h45.18.178,robot_nback_sign,2022.2.5,60.01385119685948,
L_Torso_X_Back,False,1,robot,1,False,False,robot_stimuli\L_Torso_X_Back.mp4,10,,,,,,,,,0,124,124,124,,,,,,,,,,,,,2573.1439887,2574.2423616,,,,,,,2577.8823685,2577.8823685,2577.8823685,2577.8823685,2577.8823685,2577.8823685,2577.8823685,2577.8823685,None,None,None,,,,,,,,,,,2573.1439887,2573.1439887,None,,2574.2423616,2574.2423616,n,1.3681008000000645,2573.1439887,2573.1439887,,,10,001,2024-06-18_09h45.18.178,robot_nback_sign,2022.2.5,60.01385119685948,
L_Torso_X_Back,True,1,robot,1,False,False,robot_stimuli\L_Torso_X_Back.mp4,10,,,,,,,,,0,125,125,125,,,,,,,,,,,,,2577.8823685,2578.9620742,,,,,,,2582.6126309,2582.6126309,2582.6126309,2582.6126309,2582.6126309,2582.6126309,2582.6126309,2582.6126309,None,None,None,,,,,,,,,,,2577.8823685,2577.8823685,None,,2578.9620742,2578.9620742,c,1.9442623000001902,2577.8823685,2577.8823685,,,10,001,2024-06-18_09h45.18.178,robot_nback_sign,2022.2.5,60.01385119685948,
L_Torso_X_Back,True,1,robot,1,False,False,robot_stimuli\L_Torso_X_Back.mp4,10,,,,,,,,,0,126,126,126,,,,,,,,,,,,,2582.6126309,2583.6889779000003,,,,,,,2587.3277034000002,2587.3277034000002,2587.3277034000002,2587.3277034000002,2587.3277034000002,2587.3277034000002,2587.3277034000002,2587.3277034000002,None,None,None,,,,,,,,,,,2582.6126309,2582.6126309,None,,2583.6889779000003,2583.6889779000003,c,2.0093299999996077,2582.6126309,2582.6126309,,,10,001,2024-06-18_09h45.18.178,robot_nback_sign,2022.2.5,60.01385119685948,
L_Head_Z_Back,False,1,robot,1,False,False,robot_stimuli\L_Head_Z_Back.mp4,10,,,,,,,,,0,127,127,127,,,,,,,,,,,,,2587.3277034000002,2588.4083114,,,,,,,2592.0473771,2592.0473771,2592.0473771,2592.0473771,2592.0473771,2592.0473771,2592.0473771,2592.0473771,None,None,None,,,,,,,,,,,2587.3277034000002,2587.3277034000002,None,,2588.4083114,2588.4083114,n,1.6427550000000508,2587.3277034000002,2587.3277034000002,,,10,001,2024-06-18_09h45.18.178,robot_nback_sign,2022.2.5,60.01385119685948,
R_Arm_Z_Back,False,1,robot,1,False,False,robot_stimuli\R_Arm_Z_Back.mp4,10,,,,,,,,,0,128,128,128,,,,,,,,,,,,,2592.0473771,2593.1275636,,,,,,,2596.7779344,2596.7779344,2596.7779344,2596.7779344,2596.7779344,2596.7779344,2596.7779344,2596.7779344,None,None,None,,,,,,,,,,,2592.0473771,2592.0473771,None,,2593.1275636,2593.1275636,n,1.0737522000001434,2592.0473771,2592.0473771,,,10,001,2024-06-18_09h45.18.178,robot_nback_sign,2022.2.5,60.01385119685948,
R_Arm_Z_Back,True,1,robot,1,False,False,robot_stimuli\R_Arm_Z_Back.mp4,10,,,,,,,,,0,129,129,129,,,,,,,,,,,,,2596.7779344,2597.8567361,,,,,,,2601.4984312,2601.4984312,2601.4984312,2601.4984312,2601.4984312,2601.4984312,2601.4984312,2601.4984312,None,None,None,,,,,,,,,,,2596.7779344,2596.7779344,None,,2597.8567361,2597.8567361,c,2.5533393999996576,2596.7779344,2596.7779344,,,10,001,2024-06-18_09h45.18.178,robot_nback_sign,2022.2.5,60.01385119685948,
L_Head_Z_For,False,1,robot,1,False,False,robot_stimuli\L_Head_Z_For.mp4,10,,,,,,,,,0,130,130,130,,,,,,,,,,,,,2601.4984312,2602.5761740000003,,,,,,,2606.2069841,2606.2069841,2606.2069841,2606.2069841,2606.2069841,2606.2069841,2606.2069841,2606.2069841,None,None,None,,,,,,,,,,,2601.4984312,2601.4984312,None,,2602.5761740000003,2602.5761740000003,n,1.1539735999997163,2601.4984312,2601.4984312,,,10,001,2024-06-18_09h45.18.178,robot_nback_sign,2022.2.5,60.01385119685948,
R_Head_X_Back,False,1,robot,1,False,False,robot_stimuli\R_Head_X_Back.mp4,10,,,,,,,,,0,131,131,131,,,,,,,,,,,,,2606.2069841,2607.2932824000004,,,,,,,2610.9424956000003,2610.9424956000003,2610.9424956000003,2610.9424956000003,2610.9424956000003,2610.9424956000003,2610.9424956000003,2610.9424956000003,None,None,None,,,,,,,,,,,2606.2069841,2606.2069841,None,,2607.2932824000004,2607.2932824000004,n,2.213082999999841,2606.2069841,2606.2069841,,,10,001,2024-06-18_09h45.18.178,robot_nback_sign,2022.2.5,60.01385119685948,
R_Torso_X_For,False,1,robot,1,False,False,robot_stimuli\R_Torso_X_For.mp4,10,,,,,,,,,0,132,132,132,,,,,,,,,,,,,2610.9424956000003,2612.0261605,,,,,,,2615.6650646000003,2615.6650646000003,2615.6650646000003,2615.6650646000003,2615.6650646000003,2615.6650646000003,2615.6650646000003,2615.6650646000003,None,None,None,,,,,,,,,,,2610.9424956000003,2610.9424956000003,None,,2612.0261605,2612.0261605,n,1.1122293000000525,2610.9424956000003,2610.9424956000003,,,10,001,2024-06-18_09h45.18.178,robot_nback_sign,2022.2.5,60.01385119685948,
L_Head_X_For,False,1,robot,1,False,False,robot_stimuli\L_Head_X_For.mp4,10,,,,,,,,,0,133,133,133,,,,,,,,,,,,,2615.6650646000003,2616.7431592000003,,,,,,,2620.315168,2620.315168,2620.315168,2620.315168,2620.315168,2620.315168,2620.315168,2620.315168,None,None,None,,,,,,,,,,,2615.6650646000003,2615.6650646000003,None,,2616.7431592000003,2616.7431592000003,n,1.530043599999516,2615.6650646000003,2615.6650646000003,,,10,001,2024-06-18_09h45.18.178,robot_nback_sign,2022.2.5,60.01385119685948,
L_Torso_Z_For,False,1,robot,1,False,False,robot_stimuli\L_Torso_Z_For.mp4,10,,,,,,,,,0,134,134,134,,,,,,,,,,,,,2620.315168,2621.3943293,,,,,,,2625.042949,2625.042949,2625.042949,2625.042949,2625.042949,2625.042949,2625.042949,2625.042949,None,None,None,,,,,,,,,,,2620.315168,2620.315168,None,,2621.3943293,2621.3943293,n,1.4325763999997605,2620.315168,2620.315168,,,10,001,2024-06-18_09h45.18.178,robot_nback_sign,2022.2.5,60.01385119685948,
L_Base_Z_Back,False,1,robot,1,False,False,robot_stimuli\L_Base_Z_Back.mp4,10,,,,,,,,,0,135,135,135,,,,,,,,,,,,,2625.042949,2626.1284564000002,,,,,,,2629.7824902,2629.7824902,2629.7824902,2629.7824902,2629.7824902,2629.7824902,2629.7824902,2629.7824902,None,None,None,,,,,,,,,,,2625.042949,2625.042949,None,,2626.1284564000002,2626.1284564000002,n,1.3610733000002426,2625.042949,2625.042949,,,10,001,2024-06-18_09h45.18.178,robot_nback_sign,2022.2.5,60.01385119685948,
R_Base_Z_Back,False,1,robot,1,False,False,robot_stimuli\R_Base_Z_Back.mp4,10,,,,,,,,,0,136,136,136,,,,,,,,,,,,,2629.7824902,2630.8736670000003,,,,,,,2634.4131403,2634.4131403,2634.4131403,2634.4131403,2634.4131403,2634.4131403,2634.4131403,2634.4131403,None,None,None,,,,,,,,,,,2629.7824902,2629.7824902,None,,2630.8736670000003,2630.8736670000003,n,1.3364195000001189,2629.7824902,2629.7824902,,,10,001,2024-06-18_09h45.18.178,robot_nback_sign,2022.2.5,60.01385119685948,
R_Base_Z_Back,True,1,robot,1,False,False,robot_stimuli\R_Base_Z_Back.mp4,10,,,,,,,,,0,137,137,137,,,,,,,,,,,,,2634.4131403,2635.4895523,,,,,,,2639.035326,2639.035326,2639.035326,2639.035326,2639.035326,2639.035326,2639.035326,2639.035326,None,None,None,,,,,,,,,,,2634.4131403,2634.4131403,None,,2635.4895523,2635.4895523,c,1.2478721999998186,2634.4131403,2634.4131403,,,10,001,2024-06-18_09h45.18.178,robot_nback_sign,2022.2.5,60.01385119685948,
L_Arm_Z_Back,False,1,robot,1,False,False,robot_stimuli\L_Arm_Z_Back.mp4,10,,,,,,,,,0,138,138,138,,,,,,,,,,,,,2639.035326,,,,,,,,2643.7819349,2643.7819349,2643.7819349,2643.7819349,2643.7819349,2643.7819349,2643.7819349,2643.7819349,None,None,None,,,,,,,,,,,2639.035326,2639.035326,None,,2640.1417648,2640.1417648,n,1.6354255999997065,2639.035326,2639.035326,,,10,001,2024-06-18_09h45.18.178,robot_nback_sign,2022.2.5,60.01385119685948,
L_Base_Y_For,False,1,robot,1,False,False,robot_stimuli\L_Base_Y_For.mp4,10,,,,,,,,,0,139,139,139,,,,,,,,,,,,,2643.7819349,2644.8618828000003,,,,,,,2648.4115773000003,2648.4115773000003,2648.4115773000003,2648.4115773000003,2648.4115773000003,2648.4115773000003,2648.4115773000003,2648.4115773000003,None,None,None,,,,,,,,,,,2643.7819349,2643.7819349,None,,2644.8618828000003,2644.8618828000003,n,1.1172590999996999,2643.7819349,2643.7819349,,,10,001,2024-06-18_09h45.18.178,robot_nback_sign,2022.2.5,60.01385119685948,
L_Head_Z_For,False,1,robot,1,False,False,robot_stimuli\L_Head_Z_For.mp4,10,,,,,,,,,0,140,140,140,,,,,,,,,,,,,2648.4115773000003,2649.4954016,,,,,,,2653.1446848,2653.1446848,2653.1446848,2653.1446848,2653.1446848,2653.1446848,2653.1446848,2653.1446848,None,None,None,,,,,,,,,,,2648.4115773000003,2648.4115773000003,None,,2649.4954016,2649.4954016,n,1.2581566000000919,2648.4115773000003,2648.4115773000003,,,10,001,2024-06-18_09h45.18.178,robot_nback_sign,2022.2.5,60.01385119685948,
R_Torso_Y_Back,False,1,robot,1,False,False,robot_stimuli\R_Torso_Y_Back.mp4,10,,,,,,,,,0,141,141,141,,,,,,,,,,,,,2653.1446848,2654.2295558,,,,,,,2657.8773835,2657.8773835,2657.8773835,2657.8773835,2657.8773835,2657.8773835,2657.8773835,2657.8773835,None,None,None,,,,,,,,,,,2653.1446848,2653.1446848,None,,2654.2295558,2654.2295558,n,0.8678187999996396,2653.1446848,2653.1446848,,,10,001,2024-06-18_09h45.18.178,robot_nback_sign,2022.2.5,60.01385119685948,
L_Arm_X_Back,False,1,robot,1,False,False,robot_stimuli\L_Arm_X_Back.mp4,10,,,,,,,,,0,142,142,142,,,,,,,,,,,,,2657.8773835,2658.9602035000003,,,,,,,2662.5906616,2662.5906616,2662.5906616,2662.5906616,2662.5906616,2662.5906616,2662.5906616,2662.5906616,None,None,None,,,,,,,,,,,2657.8773835,2657.8773835,None,,2658.9602035000003,2658.9602035000003,n,1.5936171000000456,2657.8773835,2657.8773835,,,10,001,2024-06-18_09h45.18.178,robot_nback_sign,2022.2.5,60.01385119685948,
L_Arm_X_Back,True,1,robot,1,False,False,robot_stimuli\L_Arm_X_Back.mp4,10,,,,,,,,,0,143,143,143,,,,,,,,,,,,,2662.5906616,2663.6732857,,,,,,,2667.3104952000003,2667.3104952000003,2667.3104952000003,2667.3104952000003,2667.3104952000003,2667.3104952000003,2667.3104952000003,2667.3104952000003,None,None,None,,,,,,,,,,,2662.5906616,2662.5906616,None,,2663.6732857,2663.6732857,c,2.041835899999768,2662.5906616,2662.5906616,,,10,001,2024-06-18_09h45.18.178,robot_nback_sign,2022.2.5,60.01385119685948,
L_Arm_X_Back,True,1,robot,1,False,False,robot_stimuli\L_Arm_X_Back.mp4,10,,,,,,,,,0,144,144,144,,,,,,,,,,,,,2667.3104952000003,2668.3907524,,,,,,,2672.0276818,2672.0276818,2672.0276818,2672.0276818,2672.0276818,2672.0276818,2672.0276818,2672.0276818,None,None,None,,,,,,,,,,,2667.3104952000003,2667.3104952000003,None,,2668.3907524,2668.3907524,c,2.0835322999998596,2667.3104952000003,2667.3104952000003,,,10,001,2024-06-18_09h45.18.178,robot_nback_sign,2022.2.5,60.01385119685948,
L_Torso_Z_For,False,1,robot,1,False,False,robot_stimuli\L_Torso_Z_For.mp4,10,,,,,,,,,0,145,145,145,,,,,,,,,,,,,2672.0276818,2673.1117187,,,,,,,2676.7622831000003,2676.7622831000003,2676.7622831000003,2676.7622831000003,2676.7622831000003,2676.7622831000003,2676.7622831000003,2676.7622831000003,None,None,None,,,,,,,,,,,2672.0276818,2672.0276818,None,,2673.1117187,2673.1117187,n,2.001946600000082,2672.0276818,2672.0276818,,,10,001,2024-06-18_09h45.18.178,robot_nback_sign,2022.2.5,60.01385119685948,
L_Base_X_For,False,1,robot,1,False,False,robot_stimuli\L_Base_X_For.mp4,10,,,,,,,,,0,146,146,146,,,,,,,,,,,,,2676.7622831000003,2677.8430549,,,,,,,2681.4151853000003,2681.4151853000003,2681.4151853000003,2681.4151853000003,2681.4151853000003,2681.4151853000003,2681.4151853000003,2681.4151853000003,None,None,None,,,,,,,,,,,2676.7622831000003,2676.7622831000003,None,,2677.8430549,2677.8430549,n,2.0080387000000144,2676.7622831000003,2676.7622831000003,,,10,001,2024-06-18_09h45.18.178,robot_nback_sign,2022.2.5,60.01385119685948,
L_Base_Z_For,False,1,robot,1,False,False,robot_stimuli\L_Base_Z_For.mp4,10,,,,,,,,,0,147,147,147,,,,,,,,,,,,,2681.4151853000003,2682.4925141000003,,,,,,,2686.1320444000003,2686.1320444000003,2686.1320444000003,2686.1320444000003,2686.1320444000003,2686.1320444000003,2686.1320444000003,2686.1320444000003,None,None,None,,,,,,,,,,,2681.4151853000003,2681.4151853000003,None,,2682.4925141000003,2682.4925141000003,c,2.7024020999999436,2681.4151853000003,2681.4151853000003,,,10,001,2024-06-18_09h45.18.178,robot_nback_sign,2022.2.5,60.01385119685948,
L_Base_X_Back,False,1,robot,1,False,False,robot_stimuli\L_Base_X_Back.mp4,10,,,,,,,,,0,148,148,148,,,,,,,,,,,,,2686.1320444000003,2687.2116146000003,,,,,,,2690.8275111000003,2690.8275111000003,2690.8275111000003,2690.8275111000003,2690.8275111000003,2690.8275111000003,2690.8275111000003,2690.8275111000003,None,None,None,,,,,,,,,,,2686.1320444000003,2686.1320444000003,None,,2687.2116146000003,2687.2116146000003,n,2.359368000000103,2686.1320444000003,2686.1320444000003,,,10,001,2024-06-18_09h45.18.178,robot_nback_sign,2022.2.5,60.01385119685948,
L_Base_Y_For,False,1,robot,1,False,True,robot_stimuli\L_Base_Y_For.mp4,10,,,,,,,,,0,149,149,149,,,,,,,,,,,,,2690.8275111000003,2691.9102500000004,,,,,,,2695.4716211,2707.4219111,2695.4716211,2707.4219111,2695.4716211,2707.4219111,2695.4716211,2707.4219111,27.53086419753086,10.519366000000446,space,,,,11.890373500000095,,,,,,,2690.8275111000003,2690.8275111000003,None,,2691.9102500000004,2691.9102500000004,n,2.1632079999996847,2690.8275111000003,2690.8275111000003,,,10,001,2024-06-18_09h45.18.178,robot_nback_sign,2022.2.5,60.01385119685948,
V,False,1,letter,2,True,False,robot_stimuli\\filler.mp4,10,,,,,,,,,0,150,150,150,,,,,,,,,,,,,2711.699011,2712.7607322000003,,,,,,,2714.9765127,2714.9765127,2714.9765127,2714.9765127,2714.9765127,2714.9765127,2714.9765127,2714.9765127,None,None,None,,,,,,,,,,,2707.4219111,2707.4219111,space,4.25310599999986,,2712.7607322000003,n,0.544894899999889,,,2712.7607322000003,2714.9765127,10,001,2024-06-18_09h45.18.178,robot_nback_sign,2022.2.5,60.01385119685948,
W,False,1,letter,2,False,False,robot_stimuli\\filler.mp4,10,,,,,,,,,0,151,151,151,,,,,,,,,,,,,2714.9765127,2716.0396822000002,,,,,,,2718.0712035,2718.0712035,2718.0712035,2718.0712035,2718.0712035,2718.0712035,2718.0712035,2718.0712035,None,None,None,,,,,,,,,,,2714.9765127,2714.9765127,None,,,2716.0396822000002,n,0.5553956000000824,2714.9765127,2714.9765127,2716.0396822000002,2718.0712035,10,001,2024-06-18_09h45.18.178,robot_nback_sign,2022.2.5,60.01385119685948,
P,False,1,letter,2,False,False,robot_stimuli\\filler.mp4,10,,,,,,,,,0,152,152,152,,,,,,,,,,,,,2718.0712035,2719.1387357000003,,,,,,,2721.3692299000004,2721.3692299000004,2721.3692299000004,2721.3692299000004,2721.3692299000004,2721.3692299000004,2721.3692299000004,2721.3692299000004,None,None,None,,,,,,,,,,,2718.0712035,2718.0712035,None,,,2719.1387357000003,n,0.5032192999999268,2718.0712035,2718.0712035,2719.1387357000003,2721.3692299000004,10,001,2024-06-18_09h45.18.178,robot_nback_sign,2022.2.5,60.01385119685948,
Z,False,1,letter,2,False,False,robot_stimuli\\filler.mp4,10,,,,,,,,,0,153,153,153,,,,,,,,,,,,,2721.3692299000004,2722.4384142000004,,,,,,,2724.6651776000003,2724.6651776000003,2724.6651776000003,2724.6651776000003,2724.6651776000003,2724.6651776000003,2724.6651776000003,2724.6651776000003,None,None,None,,,,,,,,,,,2721.3692299000004,2721.3692299000004,None,,,2722.4384142000004,n,0.5081889000000217,2721.3692299000004,2721.3692299000004,2722.4384142000004,2724.6651776000003,10,001,2024-06-18_09h45.18.178,robot_nback_sign,2022.2.5,60.01385119685948,
D,False,1,letter,2,False,False,robot_stimuli\\filler.mp4,10,,,,,,,,,0,154,154,154,,,,,,,,,,,,,2724.6651776000003,2725.7246485,,,,,,,2727.7502188000003,2727.7502188000003,2727.7502188000003,2727.7502188000003,2727.7502188000003,2727.7502188000003,2727.7502188000003,2727.7502188000003,None,None,None,,,,,,,,,,,2724.6651776000003,2724.6651776000003,None,,,2725.7246485,n,0.49331519999961415,2724.6651776000003,2724.6651776000003,2725.7246485,2727.7502188000003,10,001,2024-06-18_09h45.18.178,robot_nback_sign,2022.2.5,60.01385119685948,
M,False,1,letter,2,False,False,robot_stimuli\\filler.mp4,10,,,,,,,,,0,155,155,155,,,,,,,,,,,,,2727.7502188000003,,,,,,,,2730.8541117,2730.8541117,2730.8541117,2730.8541117,2730.8541117,2730.8541117,2730.8541117,2730.8541117,None,None,None,,,,,,,,,,,2727.7502188000003,2727.7502188000003,None,,,2728.8237677,n,0.7296900999997149,2727.7502188000003,2727.7502188000003,2728.8237677,2730.8541117,10,001,2024-06-18_09h45.18.178,robot_nback_sign,2022.2.5,60.01385119685948,
B,False,1,letter,2,False,False,robot_stimuli\\filler.mp4,10,,,,,,,,,0,156,156,156,,,,,,,,,,,,,2730.8541117,2731.921616,,,,,,,2733.9465689000003,2733.9465689000003,2733.9465689000003,2733.9465689000003,2733.9465689000003,2733.9465689000003,2733.9465689000003,2733.9465689000003,None,None,None,,,,,,,,,,,2730.8541117,2730.8541117,None,,,2731.921616,n,0.40062250000002564,2730.8541117,2730.8541117,2731.921616,2733.9465689000003,10,001,2024-06-18_09h45.18.178,robot_nback_sign,2022.2.5,60.01385119685948,
R,False,1,letter,2,False,False,robot_stimuli\\filler.mp4,10,,,,,,,,,0,157,157,157,,,,,,,,,,,,,2733.9465689000003,2735.006209,,,,,,,2737.226028,2737.226028,2737.226028,2737.226028,2737.226028,2737.226028,2737.226028,2737.226028,None,None,None,,,,,,,,,,,2733.9465689000003,2733.9465689000003,None,,,2735.006209,n,0.4206919999998888,2733.9465689000003,2733.9465689000003,2735.006209,2737.226028,10,001,2024-06-18_09h45.18.178,robot_nback_sign,2022.2.5,60.01385119685948,
F,False,1,letter,2,False,False,robot_stimuli\\filler.mp4,10,,,,,,,,,0,158,158,158,,,,,,,,,,,,,2737.226028,2738.2881527000004,,,,,,,2740.5187635,2740.5187635,2740.5187635,2740.5187635,2740.5187635,2740.5187635,2740.5187635,2740.5187635,None,None,None,,,,,,,,,,,2737.226028,2737.226028,None,,,2738.2881527000004,n,0.4668257999998957,2737.226028,2737.226028,2738.2881527000004,2740.5187635,10,001,2024-06-18_09h45.18.178,robot_nback_sign,2022.2.5,60.01385119685948,
F,True,1,letter,2,False,False,robot_stimuli\\filler.mp4,10,,,,,,,,,0,159,159,159,,,,,,,,,,,,,2740.5187635,,,,,,,,2743.8100470000004,2743.8100470000004,2743.8100470000004,2743.8100470000004,2743.8100470000004,2743.8100470000004,2743.8100470000004,2743.8100470000004,None,None,None,,,,,,,,,,,2740.5187635,2740.5187635,None,,,2741.5869914,c,0.4793425999998533,2740.5187635,2740.5187635,2741.5869914,2743.8100470000004,10,001,2024-06-18_09h45.18.178,robot_nback_sign,2022.2.5,60.01385119685948,
F,True,1,letter,2,False,False,robot_stimuli\\filler.mp4,10,,,,,,,,,0,160,160,160,,,,,,,,,,,,,2743.8100470000004,2744.8667071,,,,,,,2746.8944798,2746.8944798,2746.8944798,2746.8944798,2746.8944798,2746.8944798,2746.8944798,2746.8944798,None,None,None,,,,,,,,,,,2743.8100470000004,2743.8100470000004,None,,,2744.8667071,c,0.4064819999996132,2743.8100470000004,2743.8100470000004,2744.8667071,2746.8944798,10,001,2024-06-18_09h45.18.178,robot_nback_sign,2022.2.5,60.01385119685948,
G,False,1,letter,2,False,False,robot_stimuli\\filler.mp4,10,,,,,,,,,0,161,161,161,,,,,,,,,,,,,2746.8944798,2747.9536157000002,,,,,,,2749.9818565,2749.9818565,2749.9818565,2749.9818565,2749.9818565,2749.9818565,2749.9818565,2749.9818565,None,None,None,,,,,,,,,,,2746.8944798,2746.8944798,None,,,2747.9536157000002,n,0.36007229999970036,2746.8944798,2746.8944798,2747.9536157000002,2749.9818565,10,001,2024-06-18_09h45.18.178,robot_nback_sign,2022.2.5,60.01385119685948,
