sequence,odd_ones,parameter,choices,target,target_idx,condition,stimuli,block,is_block_beginning,is_block_ending,sequence_fnames,target_fname,subject,retraining.thisRepN,retraining.thisTrialN,retraining.thisN,retraining.thisIndex,training.thisRepN,training.thisTrialN,training.thisN,training.thisIndex,training_sequence_loop.thisRepN,training_sequence_loop.thisTrialN,training_sequence_loop.thisN,training_sequence_loop.thisIndex,trials.thisRepN,trials.thisTrialN,trials.thisN,trials.thisIndex,sequence_loop.thisRepN,sequence_loop.thisTrialN,sequence_loop.thisN,sequence_loop.thisIndex,langage_text.started,langage_key.started,langage_key.keys,langage_key.rt,intro_text.started,intro_key.started,intro_key.keys,intro_key.rt,training_intro_text.started,training_intro_key.started,training_intro_key.keys,training_intro_key.rt,polygon.started,polygon.stopped,cue_before_text.started,cue_before_text.stopped,training_presentation_letter.started,training_presentation_letter.stopped,recall_key.started,recall_question.started,recall_answer.started,recall_key.keys,recall_key.rt,RSME_labels.started,RSME_labels.stopped,RSME_ticks.started,RSME_ticks.stopped,RSME_text.started,RSME_text.stopped,RSME_key.started,RSME_key.stopped,RSME_ticks.response,RSME_ticks.rt,RSME_key.keys,training_intro_text.stopped,training_intro_key.stopped,RSME_key.rt,training_presentation_movie.started,experiment_beginning_text.started,experiment_beginning_keys.started,experiment_beginning_key.started,experiment_beginning_key.keys,experiment_beginning_key.rt,block_intro_text.started,block_intro_key.started,block_intro_key.keys,block_intro_key.rt,presentation_movie.started,block_intro_text.stopped,block_intro_key.stopped,presentation_letter.started,presentation_letter.stopped,participant,session,date,expName,psychopyVersion,frameRate,
,,,,,,,,,,,,,,,,,,,,,,,,,,,,,,,,,,19.737197500000008,19.737197500000008,f,23.347105200000016,,,,,,,,,,,,,,,,,,,,,,,,,,,,,,,,,,,,,,,,,,,,,,,,,1,001,2024-07-02_10h05.01.207,robot_cogshifting_sign,2022.2.5,59.963218561736426,
,,,,,,,,,,,,,,,,,,,,,,,,,,,,,,,,,,,,,,43.1468572,43.1468572,space,45.344504900000004,,,,,,,,,,,,,,,,,,,,,,,,,,,,,,,,,,,,,,,,,,,,,1,001,2024-07-02_10h05.01.207,robot_cogshifting_sign,2022.2.5,59.963218561736426,
"['red_bottom_T_45', 'blue_left_F_45', 'red_left_X_45', 'red_left_X_0']","{'color': 'blue_left_F_45', 'position': 'red_bottom_T_45', 'orientation': 'red_left_X_0'}",color,['color'],blue_left_F_45,1,1,letter,2,True,False,"['robot_stimuli\\\\filler.mp4', 'robot_stimuli\\\\filler.mp4', 'robot_stimuli\\\\filler.mp4', 'robot_stimuli\\\\filler.mp4']",robot_stimuli\\filler.mp4,1,0,0,0,0,0,0,0,0,,,,,,,,,,,,,,,,,,,,,88.52423920000001,88.52423920000001,space,2.295350100000036,90.84103859999999,91.8407785,91.8407785,94.30873730000002,100.8209483,102.85875909999999,102.85875909999999,102.85875909999999,102.85875909999999,2,7.7202408000000275,110.66662059999999,110.66662059999999,110.66662059999999,110.66662059999999,110.66662059999999,110.66662059999999,110.66662059999999,110.66662059999999,None,None,None,,,,,,,,,,,,,,,,,,,1,001,2024-07-02_10h05.01.207,robot_cogshifting_sign,2022.2.5,59.963218561736426,
"['blue_bottom_X_45', 'red_bottom_R_45', 'blue_bottom_P_0', 'blue_top_D_45']","{'color': 'red_bottom_R_45', 'position': 'blue_top_D_45', 'orientation': 'blue_bottom_P_0'}",position,['position'],blue_top_D_45,3,1,letter,2,False,False,"['robot_stimuli\\\\filler.mp4', 'robot_stimuli\\\\filler.mp4', 'robot_stimuli\\\\filler.mp4', 'robot_stimuli\\\\filler.mp4']",robot_stimuli\\filler.mp4,1,0,0,0,0,0,1,1,1,,,,,,,,,,,,,,,,,,,,,110.66662059999999,110.66662059999999,None,,110.66662059999999,,111.674871,,120.25278370000001,122.27292440000002,122.27292440000002,122.27292440000002,122.27292440000002,4,1.5631597000000568,123.85789360000001,123.85789360000001,123.85789360000001,123.85789360000001,123.85789360000001,123.85789360000001,123.85789360000001,123.85789360000001,None,None,None,110.66662059999999,110.66662059999999,,,,,,,,,,,,,,,,,1,001,2024-07-02_10h05.01.207,robot_cogshifting_sign,2022.2.5,59.963218561736426,
"['red_right_C_45', 'blue_right_R_0', 'red_top_Q_0', 'red_right_D_0']","{'color': 'blue_right_R_0', 'position': 'red_top_Q_0', 'orientation': 'red_right_C_45'}",orientation,['orientation'],red_right_C_45,0,1,letter,2,False,True,"['robot_stimuli\\\\filler.mp4', 'robot_stimuli\\\\filler.mp4', 'robot_stimuli\\\\filler.mp4', 'robot_stimuli\\\\filler.mp4']",robot_stimuli\\filler.mp4,1,0,0,0,0,0,2,2,2,,,,,,,,,,,,,,,,,,,,,123.85789360000001,123.85789360000001,None,,123.85789360000001,124.85789490000002,124.85789490000002,126.93479289999999,133.84493750000001,136.0701502,136.0701502,136.0701502,136.0701502,1,2.9182871999999804,139.06298979999997,161.8593793,139.06298979999997,161.8593793,139.06298979999997,161.8593793,139.06298979999997,161.8593793,14.722222222222223,20.375140499999986,space,123.85789360000001,123.85789360000001,22.723730200000006,,,,,,,,,,,,,,,,1,001,2024-07-02_10h05.01.207,robot_cogshifting_sign,2022.2.5,59.963218561736426,
"['blue_right_V_0', 'red_right_B_45', 'blue_right_T_45', 'blue_top_L_45']","{'color': 'red_right_B_45', 'position': 'blue_top_L_45', 'orientation': 'blue_right_V_0'}",color,"['color', 'position']",red_right_B_45,1,2,letter,2,True,False,"['robot_stimuli\\\\filler.mp4', 'robot_stimuli\\\\filler.mp4', 'robot_stimuli\\\\filler.mp4', 'robot_stimuli\\\\filler.mp4']",robot_stimuli\\filler.mp4,1,0,0,0,0,0,3,3,3,,,,,,,,,,,,,,,,,,,,,161.8593793,161.8593793,space,4.361024500000013,166.24135990000002,167.24133589999997,167.24133589999997,169.31538039999998,175.8279743,178.06484740000002,178.06484740000002,178.06484740000002,178.06484740000002,2,5.467257200000034,183.5580825,183.5580825,183.5580825,183.5580825,183.5580825,183.5580825,183.5580825,183.5580825,None,None,None,,,,,,,,,,,,,,,,,,,1,001,2024-07-02_10h05.01.207,robot_cogshifting_sign,2022.2.5,59.963218561736426,
"['red_top_F_0', 'blue_top_Z_0', 'blue_top_Z_45', 'blue_left_Q_0']","{'color': 'red_top_F_0', 'position': 'blue_left_Q_0', 'orientation': 'blue_top_Z_45'}",position,"['color', 'position']",blue_left_Q_0,3,2,letter,2,False,False,"['robot_stimuli\\\\filler.mp4', 'robot_stimuli\\\\filler.mp4', 'robot_stimuli\\\\filler.mp4', 'robot_stimuli\\\\filler.mp4']",robot_stimuli\\filler.mp4,1,0,0,0,0,0,4,4,4,,,,,,,,,,,,,,,,,,,,,183.5580825,183.5580825,None,,183.5580825,184.55816090000002,184.55816090000002,186.6307192,193.13196139999997,195.3523005,195.3523005,195.3523005,195.3523005,4,3.8518373999999937,199.22466880000002,199.22466880000002,199.22466880000002,199.22466880000002,199.22466880000002,199.22466880000002,199.22466880000002,199.22466880000002,None,None,None,183.5580825,183.5580825,,,,,,,,,,,,,,,,,1,001,2024-07-02_10h05.01.207,robot_cogshifting_sign,2022.2.5,59.963218561736426,
"['blue_top_L_45', 'red_left_T_45', 'blue_left_Z_45', 'blue_left_N_0']","{'color': 'red_left_T_45', 'position': 'blue_top_L_45', 'orientation': 'blue_left_N_0'}",orientation,"['color', 'orientation']",blue_left_N_0,3,2,letter,2,False,True,"['robot_stimuli\\\\filler.mp4', 'robot_stimuli\\\\filler.mp4', 'robot_stimuli\\\\filler.mp4', 'robot_stimuli\\\\filler.mp4']",robot_stimuli\\filler.mp4,1,0,0,0,0,0,5,5,5,,,,,,,,,,,,,,,,,,,,,199.22466880000002,199.22466880000002,None,,199.22466880000002,200.22456119999998,200.22456119999998,202.2956304,209.0081722,211.02927139999997,211.02927139999997,211.02927139999997,211.02927139999997,4,4.183166100000022,215.2667257,222.74130889999998,215.2667257,222.74130889999998,215.2667257,222.74130889999998,215.2667257,222.74130889999998,24.598765432098762,5.890298099999995,space,199.22466880000002,199.22466880000002,7.401799900000043,,,,,,,,,,,,,,,,1,001,2024-07-02_10h05.01.207,robot_cogshifting_sign,2022.2.5,59.963218561736426,
"['red_bottom_X_0', 'blue_bottom_G_45', 'red_left_L_45', 'red_bottom_X_45']","{'color': 'blue_bottom_G_45', 'position': 'red_left_L_45', 'orientation': 'red_bottom_X_0'}",color,"['color', 'orientation', 'position']",blue_bottom_G_45,1,3,letter,2,True,False,"['robot_stimuli\\\\filler.mp4', 'robot_stimuli\\\\filler.mp4', 'robot_stimuli\\\\filler.mp4', 'robot_stimuli\\\\filler.mp4']",robot_stimuli\\filler.mp4,1,0,0,0,0,0,6,6,6,,,,,,,,,,,,,,,,,,,,,222.74130889999998,222.74130889999998,space,2.8136061999999527,225.5746663,226.5749406,226.5749406,228.64454919999997,235.35196259999998,237.56458650000002,237.56458650000002,237.56458650000002,237.56458650000002,2,2.82400080000005,240.40818760000002,240.40818760000002,240.40818760000002,240.40818760000002,240.40818760000002,240.40818760000002,240.40818760000002,240.40818760000002,None,None,None,,,,,,,,,,,,,,,,,,,1,001,2024-07-02_10h05.01.207,robot_cogshifting_sign,2022.2.5,59.963218561736426,
"['red_left_Q_45', 'blue_left_W_0', 'red_top_X_0', 'red_left_R_0']","{'color': 'blue_left_W_0', 'position': 'red_top_X_0', 'orientation': 'red_left_Q_45'}",position,"['color', 'orientation', 'position']",red_top_X_0,2,3,letter,2,False,False,"['robot_stimuli\\\\filler.mp4', 'robot_stimuli\\\\filler.mp4', 'robot_stimuli\\\\filler.mp4', 'robot_stimuli\\\\filler.mp4']",robot_stimuli\\filler.mp4,1,0,0,0,0,0,7,7,7,,,,,,,,,,,,,,,,,,,,,240.40818760000002,240.40818760000002,None,,240.40818760000002,241.40818430000002,241.40818430000002,243.4739535,249.96975779999997,251.9914126,251.9914126,251.9914126,251.9914126,3,3.636695900000035,255.6579167,255.6579167,255.6579167,255.6579167,255.6579167,255.6579167,255.6579167,255.6579167,None,None,None,240.40818760000002,240.40818760000002,,,,,,,,,,,,,,,,,1,001,2024-07-02_10h05.01.207,robot_cogshifting_sign,2022.2.5,59.963218561736426,
"['red_bottom_W_45', 'blue_top_T_45', 'blue_bottom_Z_0', 'blue_bottom_C_45']","{'color': 'red_bottom_W_45', 'position': 'blue_top_T_45', 'orientation': 'blue_bottom_Z_0'}",orientation,"['color', 'orientation', 'position']",blue_bottom_Z_0,2,3,letter,2,False,True,"['robot_stimuli\\\\filler.mp4', 'robot_stimuli\\\\filler.mp4', 'robot_stimuli\\\\filler.mp4', 'robot_stimuli\\\\filler.mp4']",robot_stimuli\\filler.mp4,1,0,0,0,0,0,8,8,8,,,,,,,,,,,,,,,,,,,,,255.6579167,255.6579167,None,,255.6579167,256.65852789999997,256.65852789999997,258.7316457,265.2179947,267.4277844,267.4277844,267.4277844,267.4277844,3,8.423120799999992,275.9000415,279.602639,275.9000415,279.602639,275.9000415,279.602639,275.9000415,279.602639,29.22839506172839,2.109273700000017,space,255.6579167,255.6579167,3.655365500000073,,,,,,,,,,,,,,,,1,001,2024-07-02_10h05.01.207,robot_cogshifting_sign,2022.2.5,59.963218561736426,
"['R_Head_X_For', 'L_Head_X_For', 'L_Base_X_For', 'L_Head_Y_Back']","{'laterality': 'R_Head_X_For', 'localisation': 'L_Base_X_For', 'movement': 'L_Head_Y_Back'}",localisation,['localisation'],L_Base_X_For,2,1,robot,1,True,False,"['robot_stimuli\\R_Head_X_For.mp4', 'robot_stimuli\\L_Head_X_For.mp4', 'robot_stimuli\\L_Base_X_For.mp4', 'robot_stimuli\\L_Head_Y_Back.mp4']",robot_stimuli\L_Base_X_For.mp4,1,0,0,0,0,0,9,9,9,,,,,,,,,,,,,,,,,,,,,279.602639,279.602639,space,2.329064399999993,281.9580248,282.958377,282.958377,285.0537126,,,299.7695558,299.7695558,299.7695558,3,12.618029599999943,312.4081608,312.4081608,312.4081608,312.4081608,312.4081608,312.4081608,312.4081608,312.4081608,None,None,None,,,,296.1194952,,,,,,,,,,,,,,,1,001,2024-07-02_10h05.01.207,robot_cogshifting_sign,2022.2.5,59.963218561736426,
"['R_Arm_Z_Back', 'R_Base_Z_For', 'R_Base_Y_Back', 'L_Base_Z_For']","{'laterality': 'L_Base_Z_For', 'localisation': 'R_Arm_Z_Back', 'movement': 'R_Base_Y_Back'}",movement,['movement'],R_Base_Y_Back,2,1,robot,1,False,False,"['robot_stimuli\\R_Arm_Z_Back.mp4', 'robot_stimuli\\R_Base_Z_For.mp4', 'robot_stimuli\\R_Base_Y_Back.mp4', 'robot_stimuli\\L_Base_Z_For.mp4']",robot_stimuli\R_Base_Y_Back.mp4,1,0,0,0,0,0,10,10,10,,,,,,,,,,,,,,,,,,,,,312.4081608,312.4081608,None,,312.4081608,313.4081699,313.4081699,315.49934559999997,,,330.3503639,330.3503639,330.3503639,3,3.5819093000000066,333.9583549,333.9583549,333.9583549,333.9583549,333.9583549,333.9583549,333.9583549,333.9583549,None,None,None,312.4081608,312.4081608,,326.7042985,,,,,,,,,,,,,,,1,001,2024-07-02_10h05.01.207,robot_cogshifting_sign,2022.2.5,59.963218561736426,
"['L_Torso_Y_Back', 'L_Head_Y_For', 'R_Head_Y_For', 'L_Head_X_Back']","{'laterality': 'R_Head_Y_For', 'localisation': 'L_Torso_Y_Back', 'movement': 'L_Head_X_Back'}",laterality,['laterality'],R_Head_Y_For,2,1,robot,1,False,True,"['robot_stimuli\\L_Torso_Y_Back.mp4', 'robot_stimuli\\L_Head_Y_For.mp4', 'robot_stimuli\\R_Head_Y_For.mp4', 'robot_stimuli\\L_Head_X_Back.mp4']",robot_stimuli\R_Head_Y_For.mp4,1,0,0,0,0,0,11,11,11,,,,,,,,,,,,,,,,,,,,,333.9583549,333.9583549,None,,333.9583549,334.9582331,334.9582331,337.04076630000003,,,351.7510693,351.7510693,351.7510693,3,1.797803100000067,353.59984049999997,360.6426022,353.59984049999997,360.6426022,353.59984049999997,360.6426022,353.59984049999997,360.6426022,19.351851851851848,4.776800500000036,space,333.9583549,333.9583549,6.97137390000006,348.1027608,,,,,,,,,,,,,,,1,001,2024-07-02_10h05.01.207,robot_cogshifting_sign,2022.2.5,59.963218561736426,
"['R_Head_Z_For', 'L_Head_X_For', 'R_Head_X_For', 'R_Arm_X_Back']","{'laterality': 'L_Head_X_For', 'localisation': 'R_Arm_X_Back', 'movement': 'R_Head_Z_For'}",laterality,"['laterality', 'movement']",L_Head_X_For,1,2,robot,1,True,False,"['robot_stimuli\\R_Head_Z_For.mp4', 'robot_stimuli\\L_Head_X_For.mp4', 'robot_stimuli\\R_Head_X_For.mp4', 'robot_stimuli\\R_Arm_X_Back.mp4']",robot_stimuli\L_Head_X_For.mp4,1,0,0,0,0,0,12,12,12,,,,,,,,,,,,,,,,,,,,,360.6426022,360.6426022,space,2.994172399999968,363.65823040000004,364.6583401,364.6583401,366.7361364,,,381.5005859,381.5005859,381.5005859,2,11.838997499999948,393.35820440000003,393.35820440000003,393.35820440000003,393.35820440000003,393.35820440000003,393.35820440000003,393.35820440000003,393.35820440000003,None,None,None,,,,377.8682849,,,,,,,,,,,,,,,1,001,2024-07-02_10h05.01.207,robot_cogshifting_sign,2022.2.5,59.963218561736426,
"['L_Head_X_Back', 'R_Head_Z_Back', 'L_Head_Z_Back', 'L_Base_Z_For']","{'laterality': 'R_Head_Z_Back', 'localisation': 'L_Base_Z_For', 'movement': 'L_Head_X_Back'}",movement,"['localisation', 'movement']",L_Head_X_Back,0,2,robot,1,False,False,"['robot_stimuli\\L_Head_X_Back.mp4', 'robot_stimuli\\R_Head_Z_Back.mp4', 'robot_stimuli\\L_Head_Z_Back.mp4', 'robot_stimuli\\L_Base_Z_For.mp4']",robot_stimuli\L_Head_X_Back.mp4,1,0,0,0,0,0,13,13,13,,,,,,,,,,,,,,,,,,,,,393.35820440000003,393.35820440000003,None,,393.35820440000003,394.35839749999997,394.35839749999997,396.4375369,,,411.30164840000003,411.30164840000003,411.30164840000003,1,11.382936799999982,422.7085566,422.7085566,422.7085566,422.7085566,422.7085566,422.7085566,422.7085566,422.7085566,None,None,None,393.35820440000003,393.35820440000003,,407.655461,,,,,,,,,,,,,,,1,001,2024-07-02_10h05.01.207,robot_cogshifting_sign,2022.2.5,59.963218561736426,
"['R_Torso_Z_For', 'R_Torso_X_Back', 'R_Base_Z_Back', 'L_Torso_Z_Back']","{'laterality': 'L_Torso_Z_Back', 'localisation': 'R_Base_Z_Back', 'movement': 'R_Torso_X_Back'}",localisation,"['laterality', 'localisation']",R_Base_Z_Back,2,2,robot,1,False,True,"['robot_stimuli\\R_Torso_Z_For.mp4', 'robot_stimuli\\R_Torso_X_Back.mp4', 'robot_stimuli\\R_Base_Z_Back.mp4', 'robot_stimuli\\L_Torso_Z_Back.mp4']",robot_stimuli\R_Base_Z_Back.mp4,1,0,0,0,0,0,14,14,14,,,,,,,,,,,,,,,,,,,,,422.7085566,422.7085566,None,,422.7085566,423.7085172,423.7085172,425.78977890000004,,,440.41946609999997,440.41946609999997,440.41946609999997,2,9.480607000000134,449.950091,457.15471269999995,449.950091,457.15471269999995,449.950091,457.15471269999995,449.950091,457.15471269999995,27.685185185185183,6.1365646000000424,space,422.7085566,422.7085566,7.1492705,436.9176117,,,,,,,,,,,,,,,1,001,2024-07-02_10h05.01.207,robot_cogshifting_sign,2022.2.5,59.963218561736426,
"['L_Arm_X_For', 'L_Base_Z_Back', 'L_Base_X_For', 'R_Base_X_For']","{'laterality': 'R_Base_X_For', 'localisation': 'L_Arm_X_For', 'movement': 'L_Base_Z_Back'}",laterality,"['laterality', 'localisation', 'movement']",R_Base_X_For,3,3,robot,1,True,False,"['robot_stimuli\\L_Arm_X_For.mp4', 'robot_stimuli\\L_Base_Z_Back.mp4', 'robot_stimuli\\L_Base_X_For.mp4', 'robot_stimuli\\R_Base_X_For.mp4']",robot_stimuli\R_Base_X_For.mp4,1,0,0,0,0,0,15,15,15,,,,,,,,,,,,,,,,,,,,,457.15471269999995,457.15471269999995,space,2.200215200000059,459.37513029999997,460.3751683,460.3751683,462.45154929999995,,,477.0949608,477.0949608,477.0949608,3,5.851836900000023,482.97496399999994,482.97496399999994,482.97496399999994,482.97496399999994,482.97496399999994,482.97496399999994,482.97496399999994,482.97496399999994,None,None,None,,,,473.5692237,,,,,,,,,,,,,,,1,001,2024-07-02_10h05.01.207,robot_cogshifting_sign,2022.2.5,59.963218561736426,
"['R_Head_X_Back', 'L_Head_Z_Back', 'L_Arm_X_Back', 'L_Head_X_Back']","{'laterality': 'R_Head_X_Back', 'localisation': 'L_Arm_X_Back', 'movement': 'L_Head_Z_Back'}",localisation,"['laterality', 'localisation', 'movement']",L_Arm_X_Back,2,3,robot,1,False,False,"['robot_stimuli\\R_Head_X_Back.mp4', 'robot_stimuli\\L_Head_Z_Back.mp4', 'robot_stimuli\\L_Arm_X_Back.mp4', 'robot_stimuli\\L_Head_X_Back.mp4']",robot_stimuli\L_Arm_X_Back.mp4,1,0,0,0,0,0,16,16,16,,,,,,,,,,,,,,,,,,,,,482.97496399999994,482.97496399999994,None,,482.97496399999994,483.9751766,483.9751766,486.0460165,,,500.8610676,500.8610676,500.8610676,3,5.00590040000003,505.89174210000004,505.89174210000004,505.89174210000004,505.89174210000004,505.89174210000004,505.89174210000004,505.89174210000004,505.89174210000004,None,None,None,482.97496399999994,482.97496399999994,,497.23552779999994,,,,,,,,,,,,,,,1,001,2024-07-02_10h05.01.207,robot_cogshifting_sign,2022.2.5,59.963218561736426,
"['L_Head_Y_For', 'R_Head_Z_Back', 'R_Base_Y_For', 'R_Head_Y_Back']","{'laterality': 'L_Head_Y_For', 'localisation': 'R_Base_Y_For', 'movement': 'R_Head_Z_Back'}",movement,"['laterality', 'localisation', 'movement']",R_Head_Z_Back,1,3,robot,1,False,True,"['robot_stimuli\\L_Head_Y_For.mp4', 'robot_stimuli\\R_Head_Z_Back.mp4', 'robot_stimuli\\R_Base_Y_For.mp4', 'robot_stimuli\\R_Head_Y_Back.mp4']",robot_stimuli\R_Head_Z_Back.mp4,1,0,0,0,0,0,17,17,17,,,,,,,,,,,,,,,,,,,,,505.89174210000004,505.89174210000004,None,,505.89174210000004,506.8918455,506.8918455,508.9668442,,,523.7987056,523.7987056,523.7987056,2,1.3731542999999533,525.2166898,532.0348247,525.2166898,532.0348247,525.2166898,532.0348247,525.2166898,532.0348247,29.38271604938271,3.7150618000000577,space,505.89174210000004,505.89174210000004,6.771176500000081,520.1509266999999,,,,,,,,,,,,,,,1,001,2024-07-02_10h05.01.207,robot_cogshifting_sign,2022.2.5,59.963218561736426,
,,,,,,,,,,,,,,0,0,0,0,,,,,,,,,,,,,,,,,,,,,,,,,,,,,,,,,,,,,,,,,,,,,,,,,,,,,,,532.0348247,532.0348247,532.0348247,c,2.6492902000000527,,,,,,,,,,1,001,2024-07-02_10h05.01.207,robot_cogshifting_sign,2022.2.5,59.963218561736426,
"['L_Arm_X_For', 'L_Torso_X_For', 'R_Torso_X_Back', 'L_Torso_Z_Back']","{'laterality': 'R_Torso_X_Back', 'localisation': 'L_Arm_X_For', 'movement': 'L_Torso_Z_Back'}",movement,"['laterality', 'movement']",L_Torso_Z_Back,3,2,robot,1,True,False,"['robot_stimuli\\L_Arm_X_For.mp4', 'robot_stimuli\\L_Torso_X_For.mp4', 'robot_stimuli\\R_Torso_X_Back.mp4', 'robot_stimuli\\L_Torso_Z_Back.mp4']",robot_stimuli\L_Torso_Z_Back.mp4,1,,,,,,,,,,,,,0,0,0,0,,,,,,,,,,,,,,,,,,,539.9086852,541.9818146,,,556.6663435,556.6663435,556.6663435,4,3.5138128000000393,560.2086016999999,560.2086016999999,560.2086016999999,560.2086016999999,560.2086016999999,560.2086016999999,560.2086016999999,560.2086016999999,None,None,None,,,,,,,,,,534.7249575000001,534.7249575000001,space,5.151301000000046,553.1683002,,,,,1,001,2024-07-02_10h05.01.207,robot_cogshifting_sign,2022.2.5,59.963218561736426,
"['R_Head_X_Back', 'R_Head_Y_For', 'R_Torso_X_For', 'L_Head_X_Back']","{'laterality': 'L_Head_X_Back', 'localisation': 'R_Torso_X_For', 'movement': 'R_Head_Y_For'}",localisation,"['laterality', 'localisation']",R_Torso_X_For,2,2,robot,1,False,False,"['robot_stimuli\\R_Head_X_Back.mp4', 'robot_stimuli\\R_Head_Y_For.mp4', 'robot_stimuli\\R_Torso_X_For.mp4', 'robot_stimuli\\L_Head_X_Back.mp4']",robot_stimuli\R_Torso_X_For.mp4,1,,,,,,,,,,,,,0,1,1,1,,,,,,,,,,,,,,,,,,,560.2086016999999,562.2825553,,,577.1029742000001,577.1029742000001,577.1029742000001,3,6.773645800000111,583.9088119999999,583.9088119999999,583.9088119999999,583.9088119999999,583.9088119999999,583.9088119999999,583.9088119999999,583.9088119999999,None,None,None,,,,,,,,,,560.2086016999999,560.2086016999999,None,,573.4531155,560.2086016999999,560.2086016999999,,,1,001,2024-07-02_10h05.01.207,robot_cogshifting_sign,2022.2.5,59.963218561736426,
"['L_Arm_Z_For', 'L_Arm_Y_For', 'L_Base_Y_For', 'R_Arm_Y_Back']","{'laterality': 'R_Arm_Y_Back', 'localisation': 'L_Base_Y_For', 'movement': 'L_Arm_Z_For'}",laterality,"['laterality', 'localisation']",R_Arm_Y_Back,3,2,robot,1,False,False,"['robot_stimuli\\L_Arm_Z_For.mp4', 'robot_stimuli\\L_Arm_Y_For.mp4', 'robot_stimuli\\L_Base_Y_For.mp4', 'robot_stimuli\\R_Arm_Y_Back.mp4']",robot_stimuli\R_Arm_Y_Back.mp4,1,,,,,,,,,,,,,0,2,2,2,,,,,,,,,,,,,,,,,,,583.9088119999999,585.995351,,,600.752514,600.752514,600.752514,4,4.987592600000028,605.7589627,605.7589627,605.7589627,605.7589627,605.7589627,605.7589627,605.7589627,605.7589627,None,None,None,,,,,,,,,,583.9088119999999,583.9088119999999,None,,597.1005863999999,583.9088119999999,583.9088119999999,,,1,001,2024-07-02_10h05.01.207,robot_cogshifting_sign,2022.2.5,59.963218561736426,
"['R_Head_X_Back', 'R_Arm_Y_Back', 'L_Head_Y_For', 'R_Head_Y_For']","{'laterality': 'L_Head_Y_For', 'localisation': 'R_Arm_Y_Back', 'movement': 'R_Head_X_Back'}",movement,"['laterality', 'movement']",R_Head_X_Back,0,2,robot,1,False,False,"['robot_stimuli\\R_Head_X_Back.mp4', 'robot_stimuli\\R_Arm_Y_Back.mp4', 'robot_stimuli\\L_Head_Y_For.mp4', 'robot_stimuli\\R_Head_Y_For.mp4']",robot_stimuli\R_Head_X_Back.mp4,1,,,,,,,,,,,,,0,3,3,3,,,,,,,,,,,,,,,,,,,605.7589627,607.8469995999999,,,622.6296087999999,622.6296087999999,622.6296087999999,2,3.942814100000021,626.5919650999999,626.5919650999999,626.5919650999999,626.5919650999999,626.5919650999999,626.5919650999999,626.5919650999999,626.5919650999999,None,None,None,,,,,,,,,,605.7589627,605.7589627,None,,619.0022951000001,605.7589627,605.7589627,,,1,001,2024-07-02_10h05.01.207,robot_cogshifting_sign,2022.2.5,59.963218561736426,
"['L_Arm_Z_Back', 'R_Base_Z_For', 'L_Base_Y_For', 'L_Base_Z_Back']","{'laterality': 'R_Base_Z_For', 'localisation': 'L_Arm_Z_Back', 'movement': 'L_Base_Y_For'}",movement,"['localisation', 'movement']",L_Base_Y_For,2,2,robot,1,False,False,"['robot_stimuli\\L_Arm_Z_Back.mp4', 'robot_stimuli\\R_Base_Z_For.mp4', 'robot_stimuli\\L_Base_Y_For.mp4', 'robot_stimuli\\L_Base_Z_Back.mp4']",robot_stimuli\L_Base_Y_For.mp4,1,,,,,,,,,,,,,0,4,4,4,,,,,,,,,,,,,,,,,,,626.5919650999999,628.6659884999999,,,643.3500299,643.3500299,643.3500299,3,2.646107200000017,646.0255380000001,646.0255380000001,646.0255380000001,646.0255380000001,646.0255380000001,646.0255380000001,646.0255380000001,646.0255380000001,None,None,None,,,,,,,,,,626.5919650999999,626.5919650999999,None,,639.7130969,626.5919650999999,626.5919650999999,,,1,001,2024-07-02_10h05.01.207,robot_cogshifting_sign,2022.2.5,59.963218561736426,
"['L_Arm_Y_Back', 'L_Torso_Z_Back', 'L_Arm_Z_Back', 'R_Arm_Z_For']","{'laterality': 'R_Arm_Z_For', 'localisation': 'L_Torso_Z_Back', 'movement': 'L_Arm_Y_Back'}",laterality,"['laterality', 'localisation']",R_Arm_Z_For,3,2,robot,1,False,False,"['robot_stimuli\\L_Arm_Y_Back.mp4', 'robot_stimuli\\L_Torso_Z_Back.mp4', 'robot_stimuli\\L_Arm_Z_Back.mp4', 'robot_stimuli\\R_Arm_Z_For.mp4']",robot_stimuli\R_Arm_Z_For.mp4,1,,,,,,,,,,,,,0,5,5,5,,,,,,,,,,,,,,,,,,,646.0255380000001,648.0988161,,,662.8003747,662.8003747,662.8003747,4,8.403953300000069,671.2256001000001,671.2256001000001,671.2256001000001,671.2256001000001,671.2256001000001,671.2256001000001,671.2256001000001,671.2256001000001,None,None,None,,,,,,,,,,646.0255380000001,646.0255380000001,None,,659.1663028999999,646.0255380000001,646.0255380000001,,,1,001,2024-07-02_10h05.01.207,robot_cogshifting_sign,2022.2.5,59.963218561736426,
"['L_Base_Y_Back', 'L_Head_Y_Back', 'L_Base_X_Back', 'R_Base_Y_Back']","{'laterality': 'R_Base_Y_Back', 'localisation': 'L_Head_Y_Back', 'movement': 'L_Base_X_Back'}",localisation,"['localisation', 'movement']",L_Head_Y_Back,1,2,robot,1,False,False,"['robot_stimuli\\L_Base_Y_Back.mp4', 'robot_stimuli\\L_Head_Y_Back.mp4', 'robot_stimuli\\L_Base_X_Back.mp4', 'robot_stimuli\\R_Base_Y_Back.mp4']",robot_stimuli\L_Head_Y_Back.mp4,1,,,,,,,,,,,,,0,6,6,6,,,,,,,,,,,,,,,,,,,671.2256001000001,673.3029498000001,,,688.0120966,688.0120966,688.0120966,2,8.823706300000083,696.8588156999999,696.8588156999999,696.8588156999999,696.8588156999999,696.8588156999999,696.8588156999999,696.8588156999999,696.8588156999999,None,None,None,,,,,,,,,,671.2256001000001,671.2256001000001,None,,684.3761341,671.2256001000001,671.2256001000001,,,1,001,2024-07-02_10h05.01.207,robot_cogshifting_sign,2022.2.5,59.963218561736426,
"['L_Base_Z_For', 'L_Base_Y_Back', 'L_Torso_Z_For', 'R_Base_Z_Back']","{'laterality': 'R_Base_Z_Back', 'localisation': 'L_Torso_Z_For', 'movement': 'L_Base_Y_Back'}",localisation,"['localisation', 'movement']",L_Torso_Z_For,2,2,robot,1,False,False,"['robot_stimuli\\L_Base_Z_For.mp4', 'robot_stimuli\\L_Base_Y_Back.mp4', 'robot_stimuli\\L_Torso_Z_For.mp4', 'robot_stimuli\\R_Base_Z_Back.mp4']",robot_stimuli\L_Torso_Z_For.mp4,1,,,,,,,,,,,,,0,7,7,7,,,,,,,,,,,,,,,,,,,696.8588156999999,698.9389882,,,713.5777134,713.5777134,713.5777134,3,11.090784000000042,724.6921442999999,724.6921442999999,724.6921442999999,724.6921442999999,724.6921442999999,724.6921442999999,724.6921442999999,724.6921442999999,None,None,None,,,,,,,,,,696.8588156999999,696.8588156999999,None,,710.0464044999999,696.8588156999999,696.8588156999999,,,1,001,2024-07-02_10h05.01.207,robot_cogshifting_sign,2022.2.5,59.963218561736426,
"['R_Torso_Z_Back', 'R_Head_Z_For', 'L_Torso_Z_Back', 'R_Torso_X_Back']","{'laterality': 'L_Torso_Z_Back', 'localisation': 'R_Head_Z_For', 'movement': 'R_Torso_X_Back'}",laterality,"['laterality', 'localisation']",L_Torso_Z_Back,2,2,robot,1,False,True,"['robot_stimuli\\R_Torso_Z_Back.mp4', 'robot_stimuli\\R_Head_Z_For.mp4', 'robot_stimuli\\L_Torso_Z_Back.mp4', 'robot_stimuli\\R_Torso_X_Back.mp4']",robot_stimuli\L_Torso_Z_Back.mp4,1,,,,,,,,,,,,,0,8,8,8,,,,,,,,,,,,,,,,,,,724.6921442999999,726.7728336,,,741.4682613,741.4682613,741.4682613,3,3.1519596999999635,744.6673223,750.9456359000001,744.6673223,750.9456359000001,744.6673223,750.9456359000001,744.6673223,750.9456359000001,32.77777777777778,2.6730503999999655,space,,,6.224344900000062,,,,,,,724.6921442999999,724.6921442999999,None,,737.8243345999999,724.6921442999999,724.6921442999999,,,1,001,2024-07-02_10h05.01.207,robot_cogshifting_sign,2022.2.5,59.963218561736426,
"['R_Head_Y_For', 'L_Torso_Y_Back', 'R_Torso_X_For', 'R_Torso_Y_For']","{'laterality': 'L_Torso_Y_Back', 'localisation': 'R_Head_Y_For', 'movement': 'R_Torso_X_For'}",laterality,"['laterality', 'localisation', 'movement']",L_Torso_Y_Back,1,3,robot,1,True,False,"['robot_stimuli\\R_Head_Y_For.mp4', 'robot_stimuli\\L_Torso_Y_Back.mp4', 'robot_stimuli\\R_Torso_X_For.mp4', 'robot_stimuli\\R_Torso_Y_For.mp4']",robot_stimuli\L_Torso_Y_Back.mp4,1,,,,,,,,,,,,,0,9,9,9,,,,,,,,,,,,,,,,,,,755.4256972000001,757.5017043999999,,,772.1827742999999,772.1827742999999,772.1827742999999,2,4.837599199999943,777.0422905,777.0422905,777.0422905,777.0422905,777.0422905,777.0422905,777.0422905,777.0422905,None,None,None,,,,,,,,,,750.9456359000001,750.9456359000001,space,4.450103200000115,768.5398573,,,,,1,001,2024-07-02_10h05.01.207,robot_cogshifting_sign,2022.2.5,59.963218561736426,
"['R_Torso_Y_For', 'R_Base_X_For', 'R_Torso_X_For', 'L_Torso_X_For']","{'laterality': 'L_Torso_X_For', 'localisation': 'R_Base_X_For', 'movement': 'R_Torso_Y_For'}",localisation,"['laterality', 'localisation', 'movement']",R_Base_X_For,1,3,robot,1,False,False,"['robot_stimuli\\R_Torso_Y_For.mp4', 'robot_stimuli\\R_Base_X_For.mp4', 'robot_stimuli\\R_Torso_X_For.mp4', 'robot_stimuli\\L_Torso_X_For.mp4']",robot_stimuli\R_Base_X_For.mp4,1,,,,,,,,,,,,,0,10,10,10,,,,,,,,,,,,,,,,,,,777.0422905,779.1139668000001,,,793.8367054,793.8367054,793.8367054,2,8.567444299999977,802.4256703000001,802.4256703000001,802.4256703000001,802.4256703000001,802.4256703000001,802.4256703000001,802.4256703000001,802.4256703000001,None,None,None,,,,,,,,,,777.0422905,777.0422905,None,,790.2014945000001,777.0422905,777.0422905,,,1,001,2024-07-02_10h05.01.207,robot_cogshifting_sign,2022.2.5,59.963218561736426,
"['L_Base_Z_For', 'L_Base_Y_Back', 'L_Torso_Y_For', 'R_Base_Y_For']","{'laterality': 'R_Base_Y_For', 'localisation': 'L_Torso_Y_For', 'movement': 'L_Base_Z_For'}",laterality,"['laterality', 'localisation', 'movement']",R_Base_Y_For,3,3,robot,1,False,False,"['robot_stimuli\\L_Base_Z_For.mp4', 'robot_stimuli\\L_Base_Y_Back.mp4', 'robot_stimuli\\L_Torso_Y_For.mp4', 'robot_stimuli\\R_Base_Y_For.mp4']",robot_stimuli\R_Base_Y_For.mp4,1,,,,,,,,,,,,,0,11,11,11,,,,,,,,,,,,,,,,,,,802.4256703000001,804.5035559,,,819.2519456,819.2519456,819.2519456,4,5.103827800000033,824.3757754999999,824.3757754999999,824.3757754999999,824.3757754999999,824.3757754999999,824.3757754999999,824.3757754999999,824.3757754999999,None,None,None,,,,,,,,,,802.4256703000001,802.4256703000001,None,,815.6036051000001,802.4256703000001,802.4256703000001,,,1,001,2024-07-02_10h05.01.207,robot_cogshifting_sign,2022.2.5,59.963218561736426,
"['R_Head_Z_For', 'R_Head_X_For', 'R_Base_X_Back', 'L_Head_X_Back']","{'laterality': 'L_Head_X_Back', 'localisation': 'R_Base_X_Back', 'movement': 'R_Head_Z_For'}",localisation,"['laterality', 'localisation', 'movement']",R_Base_X_Back,2,3,robot,1,False,False,"['robot_stimuli\\R_Head_Z_For.mp4', 'robot_stimuli\\R_Head_X_For.mp4', 'robot_stimuli\\R_Base_X_Back.mp4', 'robot_stimuli\\L_Head_X_Back.mp4']",robot_stimuli\R_Base_X_Back.mp4,1,,,,,,,,,,,,,0,12,12,12,,,,,,,,,,,,,,,,,,,824.3757754999999,826.4513846,,,841.2503736000001,841.2503736000001,841.2503736000001,3,7.786067900000091,849.0591795999999,849.0591795999999,849.0591795999999,849.0591795999999,849.0591795999999,849.0591795999999,849.0591795999999,849.0591795999999,None,None,None,,,,,,,,,,824.3757754999999,824.3757754999999,None,,837.6154589,824.3757754999999,824.3757754999999,,,1,001,2024-07-02_10h05.01.207,robot_cogshifting_sign,2022.2.5,59.963218561736426,
"['L_Arm_Z_Back', 'R_Arm_Z_Back', 'R_Arm_Y_Back', 'R_Base_Z_Back']","{'laterality': 'L_Arm_Z_Back', 'localisation': 'R_Base_Z_Back', 'movement': 'R_Arm_Y_Back'}",movement,"['laterality', 'localisation', 'movement']",R_Arm_Y_Back,2,3,robot,1,False,False,"['robot_stimuli\\L_Arm_Z_Back.mp4', 'robot_stimuli\\R_Arm_Z_Back.mp4', 'robot_stimuli\\R_Arm_Y_Back.mp4', 'robot_stimuli\\R_Base_Z_Back.mp4']",robot_stimuli\R_Arm_Y_Back.mp4,1,,,,,,,,,,,,,0,13,13,13,,,,,,,,,,,,,,,,,,,849.0591795999999,851.1350305999999,,,865.8516978,865.8516978,865.8516978,3,9.816752699999995,875.692413,875.692413,875.692413,875.692413,875.692413,875.692413,875.692413,875.692413,None,None,None,,,,,,,,,,849.0591795999999,849.0591795999999,None,,862.3064093,849.0591795999999,849.0591795999999,,,1,001,2024-07-02_10h05.01.207,robot_cogshifting_sign,2022.2.5,59.963218561736426,
"['R_Arm_Y_For', 'L_Torso_Y_For', 'L_Arm_Y_For', 'L_Arm_Z_Back']","{'laterality': 'R_Arm_Y_For', 'localisation': 'L_Torso_Y_For', 'movement': 'L_Arm_Z_Back'}",laterality,"['laterality', 'localisation', 'movement']",R_Arm_Y_For,0,3,robot,1,False,False,"['robot_stimuli\\R_Arm_Y_For.mp4', 'robot_stimuli\\L_Torso_Y_For.mp4', 'robot_stimuli\\L_Arm_Y_For.mp4', 'robot_stimuli\\L_Arm_Z_Back.mp4']",robot_stimuli\R_Arm_Y_For.mp4,1,,,,,,,,,,,,,0,14,14,14,,,,,,,,,,,,,,,,,,,875.692413,877.7740105,,,892.4703651999998,892.4703651999998,892.4703651999998,3,4.8768975000002115,897.3759791,897.3759791,897.3759791,897.3759791,897.3759791,897.3759791,897.3759791,897.3759791,None,None,None,,,,,,,,,,875.692413,875.692413,None,,888.8314653999998,875.692413,875.692413,,,1,001,2024-07-02_10h05.01.207,robot_cogshifting_sign,2022.2.5,59.963218561736426,
"['L_Head_X_Back', 'L_Arm_Z_For', 'L_Arm_X_For', 'R_Arm_X_Back']","{'laterality': 'R_Arm_X_Back', 'localisation': 'L_Head_X_Back', 'movement': 'L_Arm_Z_For'}",movement,"['laterality', 'localisation', 'movement']",L_Arm_Z_For,1,3,robot,1,False,False,"['robot_stimuli\\L_Head_X_Back.mp4', 'robot_stimuli\\L_Arm_Z_For.mp4', 'robot_stimuli\\L_Arm_X_For.mp4', 'robot_stimuli\\R_Arm_X_Back.mp4']",robot_stimuli\L_Arm_Z_For.mp4,1,,,,,,,,,,,,,0,15,15,15,,,,,,,,,,,,,,,,,,,897.3759791,899.4495153,,,914.2533974,914.2533974,914.2533974,2,3.79952400000019,918.0758507999999,918.0758507999999,918.0758507999999,918.0758507999999,918.0758507999999,918.0758507999999,918.0758507999999,918.0758507999999,None,None,None,,,,,,,,,,897.3759791,897.3759791,None,,910.6099758,897.3759791,897.3759791,,,1,001,2024-07-02_10h05.01.207,robot_cogshifting_sign,2022.2.5,59.963218561736426,
"['L_Arm_Y_Back', 'R_Arm_Y_For', 'L_Arm_X_Back', 'L_Base_Y_For']","{'laterality': 'R_Arm_Y_For', 'localisation': 'L_Base_Y_For', 'movement': 'L_Arm_X_Back'}",localisation,"['laterality', 'localisation', 'movement']",L_Base_Y_For,3,3,robot,1,False,False,"['robot_stimuli\\L_Arm_Y_Back.mp4', 'robot_stimuli\\R_Arm_Y_For.mp4', 'robot_stimuli\\L_Arm_X_Back.mp4', 'robot_stimuli\\L_Base_Y_For.mp4']",robot_stimuli\L_Base_Y_For.mp4,1,,,,,,,,,,,,,0,16,16,16,,,,,,,,,,,,,,,,,,,918.0758507999999,920.1518054999999,,,934.7176586,934.7176586,934.7176586,4,3.639237600000058,938.3758470999999,938.3758470999999,938.3758470999999,938.3758470999999,938.3758470999999,938.3758470999999,938.3758470999999,938.3758470999999,None,None,None,,,,,,,,,,918.0758507999999,918.0758507999999,None,,931.1786514999999,918.0758507999999,918.0758507999999,,,1,001,2024-07-02_10h05.01.207,robot_cogshifting_sign,2022.2.5,59.963218561736426,
"['L_Head_X_For', 'L_Head_Z_For', 'R_Head_Z_Back', 'L_Torso_Z_For']","{'laterality': 'R_Head_Z_Back', 'localisation': 'L_Torso_Z_For', 'movement': 'L_Head_X_For'}",movement,"['laterality', 'localisation', 'movement']",L_Head_X_For,0,3,robot,1,False,True,"['robot_stimuli\\L_Head_X_For.mp4', 'robot_stimuli\\L_Head_Z_For.mp4', 'robot_stimuli\\R_Head_Z_Back.mp4', 'robot_stimuli\\L_Torso_Z_For.mp4']",robot_stimuli\L_Head_X_For.mp4,1,,,,,,,,,,,,,0,17,17,17,,,,,,,,,,,,,,,,,,,938.3758470999999,940.4515586,,,955.1872825,955.1872825,955.1872825,1,2.185261700000126,957.4180792,963.6392372999999,957.4180792,963.6392372999999,957.4180792,963.6392372999999,957.4180792,963.6392372999999,44.04320987654321,3.820155399999976,space,,,6.169547399999999,,,,,,,938.3758470999999,938.3758470999999,None,,951.5517748999998,938.3758470999999,938.3758470999999,,,1,001,2024-07-02_10h05.01.207,robot_cogshifting_sign,2022.2.5,59.963218561736426,
"['R_Base_X_For', 'L_Base_X_For', 'R_Base_Z_Back', 'R_Torso_X_For']","{'laterality': 'L_Base_X_For', 'localisation': 'R_Torso_X_For', 'movement': 'R_Base_Z_Back'}",laterality,['laterality'],L_Base_X_For,1,1,robot,1,True,False,"['robot_stimuli\\R_Base_X_For.mp4', 'robot_stimuli\\L_Base_X_For.mp4', 'robot_stimuli\\R_Base_Z_Back.mp4', 'robot_stimuli\\R_Torso_X_For.mp4']",robot_stimuli\L_Base_X_For.mp4,1,,,,,,,,,,,,,0,18,18,18,,,,,,,,,,,,,,,,,,,967.3259882,969.4023706,,,983.9667648,983.9667648,983.9667648,2,0.7329813000000627,984.7315343,984.7315343,984.7315343,984.7315343,984.7315343,984.7315343,984.7315343,984.7315343,None,None,None,,,,,,,,,,963.6392372999999,963.6392372999999,space,3.661368000000209,980.3205923999999,,,,,1,001,2024-07-02_10h05.01.207,robot_cogshifting_sign,2022.2.5,59.963218561736426,
"['L_Arm_X_Back', 'R_Arm_X_Back', 'L_Arm_Y_Back', 'L_Torso_X_For']","{'laterality': 'R_Arm_X_Back', 'localisation': 'L_Torso_X_For', 'movement': 'L_Arm_Y_Back'}",laterality,['laterality'],R_Arm_X_Back,1,1,robot,1,False,False,"['robot_stimuli\\L_Arm_X_Back.mp4', 'robot_stimuli\\R_Arm_X_Back.mp4', 'robot_stimuli\\L_Arm_Y_Back.mp4', 'robot_stimuli\\L_Torso_X_For.mp4']",robot_stimuli\R_Arm_X_Back.mp4,1,,,,,,,,,,,,,0,19,19,19,,,,,,,,,,,,,,,,,,,984.7315343,986.8131103999999,,,1001.6277493999999,1001.6277493999999,1001.6277493999999,2,0.8088729000000399,1002.4591939,1002.4591939,1002.4591939,1002.4591939,1002.4591939,1002.4591939,1002.4591939,1002.4591939,None,None,None,,,,,,,,,,984.7315343,984.7315343,None,,997.9936438999998,984.7315343,984.7315343,,,1,001,2024-07-02_10h05.01.207,robot_cogshifting_sign,2022.2.5,59.963218561736426,
"['L_Base_X_Back', 'L_Arm_Z_Back', 'L_Base_Z_For', 'R_Base_Z_Back']","{'laterality': 'R_Base_Z_Back', 'localisation': 'L_Arm_Z_Back', 'movement': 'L_Base_X_Back'}",movement,['movement'],L_Base_X_Back,0,1,robot,1,False,False,"['robot_stimuli\\L_Base_X_Back.mp4', 'robot_stimuli\\L_Arm_Z_Back.mp4', 'robot_stimuli\\L_Base_Z_For.mp4', 'robot_stimuli\\R_Base_Z_Back.mp4']",robot_stimuli\L_Base_X_Back.mp4,1,,,,,,,,,,,,,0,20,20,20,,,,,,,,,,,,,,,,,,,1002.4591939,1004.5349561,,,1019.2184660999999,1019.2184660999999,1019.2184660999999,1,0.9541132999999604,1020.1925171999999,1020.1925171999999,1020.1925171999999,1020.1925171999999,1020.1925171999999,1020.1925171999999,1020.1925171999999,1020.1925171999999,None,None,None,,,,,,,,,,1002.4591939,1002.4591939,None,,1015.6803828,1002.4591939,1002.4591939,,,1,001,2024-07-02_10h05.01.207,robot_cogshifting_sign,2022.2.5,59.963218561736426,
"['R_Arm_Z_Back', 'L_Torso_Z_Back', 'L_Arm_Z_For', 'L_Arm_X_Back']","{'laterality': 'R_Arm_Z_Back', 'localisation': 'L_Torso_Z_Back', 'movement': 'L_Arm_X_Back'}",movement,['movement'],L_Arm_X_Back,3,1,robot,1,False,False,"['robot_stimuli\\R_Arm_Z_Back.mp4', 'robot_stimuli\\L_Torso_Z_Back.mp4', 'robot_stimuli\\L_Arm_Z_For.mp4', 'robot_stimuli\\L_Arm_X_Back.mp4']",robot_stimuli\L_Arm_X_Back.mp4,1,,,,,,,,,,,,,0,21,21,21,,,,,,,,,,,,,,,,,,,1020.1925171999999,1022.2632815,,,1036.9484246,1036.9484246,1036.9484246,4,0.49599039999992556,1037.4760609999998,1037.4760609999998,1037.4760609999998,1037.4760609999998,1037.4760609999998,1037.4760609999998,1037.4760609999998,1037.4760609999998,None,None,None,,,,,,,,,,1020.1925171999999,1020.1925171999999,None,,1033.3119138,1020.1925171999999,1020.1925171999999,,,1,001,2024-07-02_10h05.01.207,robot_cogshifting_sign,2022.2.5,59.963218561736426,
"['R_Head_Z_For', 'R_Torso_X_For', 'L_Head_X_Back', 'R_Head_X_Back']","{'laterality': 'L_Head_X_Back', 'localisation': 'R_Torso_X_For', 'movement': 'R_Head_Z_For'}",localisation,['localisation'],R_Torso_X_For,1,1,robot,1,False,False,"['robot_stimuli\\R_Head_Z_For.mp4', 'robot_stimuli\\R_Torso_X_For.mp4', 'robot_stimuli\\L_Head_X_Back.mp4', 'robot_stimuli\\R_Head_X_Back.mp4']",robot_stimuli\R_Torso_X_For.mp4,1,,,,,,,,,,,,,0,22,22,22,,,,,,,,,,,,,,,,,,,1037.4760609999998,1039.5489264999999,,,1054.3619638,1054.3619638,1054.3619638,2,1.226147600000047,1055.6091909,1055.6091909,1055.6091909,1055.6091909,1055.6091909,1055.6091909,1055.6091909,1055.6091909,None,None,None,,,,,,,,,,1037.4760609999998,1037.4760609999998,None,,1050.7372129,1037.4760609999998,1037.4760609999998,,,1,001,2024-07-02_10h05.01.207,robot_cogshifting_sign,2022.2.5,59.963218561736426,
"['R_Arm_X_Back', 'R_Arm_Y_For', 'L_Arm_Y_For', 'R_Head_Y_For']","{'laterality': 'L_Arm_Y_For', 'localisation': 'R_Head_Y_For', 'movement': 'R_Arm_X_Back'}",laterality,['laterality'],L_Arm_Y_For,2,1,robot,1,False,False,"['robot_stimuli\\R_Arm_X_Back.mp4', 'robot_stimuli\\R_Arm_Y_For.mp4', 'robot_stimuli\\L_Arm_Y_For.mp4', 'robot_stimuli\\R_Head_Y_For.mp4']",robot_stimuli\L_Arm_Y_For.mp4,1,,,,,,,,,,,,,0,23,23,23,,,,,,,,,,,,,,,,,,,1055.6091909,1057.6814521,,,1072.3707858999999,1072.3707858999999,1072.3707858999999,3,1.2502799999999183,1073.6428162,1073.6428162,1073.6428162,1073.6428162,1073.6428162,1073.6428162,1073.6428162,1073.6428162,None,None,None,,,,,,,,,,1055.6091909,1055.6091909,None,,1068.7327636,1055.6091909,1055.6091909,,,1,001,2024-07-02_10h05.01.207,robot_cogshifting_sign,2022.2.5,59.963218561736426,
"['R_Head_Z_For', 'R_Base_X_For', 'L_Base_Z_For', 'R_Base_Z_Back']","{'laterality': 'L_Base_Z_For', 'localisation': 'R_Head_Z_For', 'movement': 'R_Base_X_For'}",movement,['movement'],R_Base_X_For,1,1,robot,1,False,False,"['robot_stimuli\\R_Head_Z_For.mp4', 'robot_stimuli\\R_Base_X_For.mp4', 'robot_stimuli\\L_Base_Z_For.mp4', 'robot_stimuli\\R_Base_Z_Back.mp4']",robot_stimuli\R_Base_X_For.mp4,1,,,,,,,,,,,,,0,24,24,24,,,,,,,,,,,,,,,,,,,1073.6428162,1075.7167272,,,1090.3079777,1090.3079777,1090.3079777,2,0.7609831999999983,1091.0926227999998,1091.0926227999998,1091.0926227999998,1091.0926227999998,1091.0926227999998,1091.0926227999998,1091.0926227999998,1091.0926227999998,None,None,None,,,,,,,,,,1073.6428162,1073.6428162,None,,1086.7691232,1073.6428162,1073.6428162,,,1,001,2024-07-02_10h05.01.207,robot_cogshifting_sign,2022.2.5,59.963218561736426,
"['L_Arm_Y_For', 'R_Head_Y_For', 'R_Arm_X_For', 'R_Arm_Y_For']","{'laterality': 'L_Arm_Y_For', 'localisation': 'R_Head_Y_For', 'movement': 'R_Arm_X_For'}",localisation,['localisation'],R_Head_Y_For,1,1,robot,1,False,False,"['robot_stimuli\\L_Arm_Y_For.mp4', 'robot_stimuli\\R_Head_Y_For.mp4', 'robot_stimuli\\R_Arm_X_For.mp4', 'robot_stimuli\\R_Arm_Y_For.mp4']",robot_stimuli\R_Head_Y_For.mp4,1,,,,,,,,,,,,,0,25,25,25,,,,,,,,,,,,,,,,,,,1091.0926227999998,1093.1669832999999,,,1107.8501084,1107.8501084,1107.8501084,2,1.4829275999999822,1109.3593583,1109.3593583,1109.3593583,1109.3593583,1109.3593583,1109.3593583,1109.3593583,1109.3593583,None,None,None,,,,,,,,,,1091.0926227999998,1091.0926227999998,None,,1104.334813,1091.0926227999998,1091.0926227999998,,,1,001,2024-07-02_10h05.01.207,robot_cogshifting_sign,2022.2.5,59.963218561736426,
"['R_Head_Y_For', 'L_Head_Z_Back', 'R_Torso_Z_For', 'R_Head_Z_For']","{'laterality': 'L_Head_Z_Back', 'localisation': 'R_Torso_Z_For', 'movement': 'R_Head_Y_For'}",localisation,['localisation'],R_Torso_Z_For,2,1,robot,1,False,True,"['robot_stimuli\\R_Head_Y_For.mp4', 'robot_stimuli\\L_Head_Z_Back.mp4', 'robot_stimuli\\R_Torso_Z_For.mp4', 'robot_stimuli\\R_Head_Z_For.mp4']",robot_stimuli\R_Torso_Z_For.mp4,1,,,,,,,,,,,,,0,26,26,26,,,,,,,,,,,,,,,,,,,1109.3593583,1111.4314427,,,1126.2323932,1126.2323932,1126.2323932,3,1.1322578000001045,1127.4180787,1132.9481994999999,1127.4180787,1132.9481994999999,1127.4180787,1132.9481994999999,1127.4180787,1132.9481994999999,25.67901234567901,3.6584944999999607,space,,,5.4812473999999725,,,,,,,1109.3593583,1109.3593583,None,,1122.5858818,1109.3593583,1109.3593583,,,1,001,2024-07-02_10h05.01.207,robot_cogshifting_sign,2022.2.5,59.963218561736426,
"['blue_bottom_F_0', 'blue_top_Q_45', 'red_bottom_L_45', 'blue_bottom_W_45']","{'color': 'red_bottom_L_45', 'position': 'blue_top_Q_45', 'orientation': 'blue_bottom_F_0'}",orientation,"['color', 'orientation', 'position']",blue_bottom_F_0,0,3,letter,2,True,False,"['robot_stimuli\\\\filler.mp4', 'robot_stimuli\\\\filler.mp4', 'robot_stimuli\\\\filler.mp4', 'robot_stimuli\\\\filler.mp4']",robot_stimuli\\filler.mp4,1,,,,,,,,,,,,,0,27,27,27,,,,,,,,,,,,,,,,,,,1149.6594568,1151.7184759,,,1160.409269,1160.409269,1160.409269,2,2.6995931999999243,1163.1263279999998,1163.1263279999998,1163.1263279999998,1163.1263279999998,1163.1263279999998,1163.1263279999998,1163.1263279999998,1163.1263279999998,None,None,None,,,,,,,,,,1132.9481994999999,1132.9481994999999,space,16.688409600000057,,,,1158.3876456,1160.409269,1,001,2024-07-02_10h05.01.207,robot_cogshifting_sign,2022.2.5,59.963218561736426,
"['blue_bottom_G_45', 'red_bottom_H_0', 'red_bottom_L_45', 'red_left_H_45']","{'color': 'blue_bottom_G_45', 'position': 'red_left_H_45', 'orientation': 'red_bottom_H_0'}",position,"['color', 'orientation', 'position']",red_left_H_45,3,3,letter,2,False,False,"['robot_stimuli\\\\filler.mp4', 'robot_stimuli\\\\filler.mp4', 'robot_stimuli\\\\filler.mp4', 'robot_stimuli\\\\filler.mp4']",robot_stimuli\\filler.mp4,1,,,,,,,,,,,,,0,28,28,28,,,,,,,,,,,,,,,,,,,1163.1263279999998,1165.1862761,,,1174.2647647,1174.2647647,1174.2647647,4,6.723719900000049,1181.0094722,1181.0094722,1181.0094722,1181.0094722,1181.0094722,1181.0094722,1181.0094722,1181.0094722,None,None,None,,,,,,,,,,1163.1263279999998,1163.1263279999998,None,,,1163.1263279999998,1163.1263279999998,1172.0492735999999,1174.2647647,1,001,2024-07-02_10h05.01.207,robot_cogshifting_sign,2022.2.5,59.963218561736426,
"['blue_right_B_0', 'blue_bottom_M_0', 'blue_right_R_45', 'red_right_X_0']","{'color': 'red_right_X_0', 'position': 'blue_bottom_M_0', 'orientation': 'blue_right_R_45'}",color,"['color', 'orientation', 'position']",red_right_X_0,3,3,letter,2,False,False,"['robot_stimuli\\\\filler.mp4', 'robot_stimuli\\\\filler.mp4', 'robot_stimuli\\\\filler.mp4', 'robot_stimuli\\\\filler.mp4']",robot_stimuli\\filler.mp4,1,,,,,,,,,,,,,0,29,29,29,,,,,,,,,,,,,,,,,,,1181.0094722,1183.0629236,,,1192.1492554,1192.1492554,1192.1492554,4,2.999193000000048,1195.176172,1195.176172,1195.176172,1195.176172,1195.176172,1195.176172,1195.176172,1195.176172,None,None,None,,,,,,,,,,1181.0094722,1181.0094722,None,,,1181.0094722,1181.0094722,1189.9379897,1192.1492554,1,001,2024-07-02_10h05.01.207,robot_cogshifting_sign,2022.2.5,59.963218561736426,
"['red_left_K_0', 'blue_bottom_Z_0', 'red_bottom_D_0', 'red_bottom_R_45']","{'color': 'blue_bottom_Z_0', 'position': 'red_left_K_0', 'orientation': 'red_bottom_R_45'}",orientation,"['color', 'orientation', 'position']",red_bottom_R_45,3,3,letter,2,False,False,"['robot_stimuli\\\\filler.mp4', 'robot_stimuli\\\\filler.mp4', 'robot_stimuli\\\\filler.mp4', 'robot_stimuli\\\\filler.mp4']",robot_stimuli\\filler.mp4,1,,,,,,,,,,,,,0,30,30,30,,,,,,,,,,,,,,,,,,,1195.176172,1197.2508914,,,1206.1369911,1206.1369911,1206.1369911,4,13.779987300000073,1219.9429204,1219.9429204,1219.9429204,1219.9429204,1219.9429204,1219.9429204,1219.9429204,1219.9429204,None,None,None,,,,,,,,,,1195.176172,1195.176172,None,,,1195.176172,1195.176172,1204.1244703,1206.1369911,1,001,2024-07-02_10h05.01.207,robot_cogshifting_sign,2022.2.5,59.963218561736426,
"['red_top_Z_45', 'red_right_M_45', 'blue_top_J_45', 'red_top_J_0']","{'color': 'blue_top_J_45', 'position': 'red_right_M_45', 'orientation': 'red_top_J_0'}",position,"['color', 'orientation', 'position']",red_right_M_45,1,3,letter,2,False,False,"['robot_stimuli\\\\filler.mp4', 'robot_stimuli\\\\filler.mp4', 'robot_stimuli\\\\filler.mp4', 'robot_stimuli\\\\filler.mp4']",robot_stimuli\\filler.mp4,1,,,,,,,,,,,,,0,31,31,31,,,,,,,,,,,,,,,,,,,1219.9429204,1222.0054952,,,1230.6880050999998,1230.6880050999998,1230.6880050999998,3,10.22788589999999,1240.9429555,1240.9429555,1240.9429555,1240.9429555,1240.9429555,1240.9429555,1240.9429555,1240.9429555,None,None,None,,,,,,,,,,1219.9429204,1219.9429204,None,,,1219.9429204,1219.9429204,1228.6676126999998,1230.6880050999998,1,001,2024-07-02_10h05.01.207,robot_cogshifting_sign,2022.2.5,59.963218561736426,
"['blue_left_V_45', 'blue_bottom_W_0', 'red_left_K_0', 'blue_left_J_0']","{'color': 'red_left_K_0', 'position': 'blue_bottom_W_0', 'orientation': 'blue_left_V_45'}",color,"['color', 'orientation', 'position']",red_left_K_0,2,3,letter,2,False,False,"['robot_stimuli\\\\filler.mp4', 'robot_stimuli\\\\filler.mp4', 'robot_stimuli\\\\filler.mp4', 'robot_stimuli\\\\filler.mp4']",robot_stimuli\\filler.mp4,1,,,,,,,,,,,,,0,32,32,32,,,,,,,,,,,,,,,,,,,1240.9429555,1243.0052962,,,1251.8895137,1251.8895137,1251.8895137,3,2.0903717999999003,1254.0096578,1254.0096578,1254.0096578,1254.0096578,1254.0096578,1254.0096578,1254.0096578,1254.0096578,None,None,None,,,,,,,,,,1240.9429555,1240.9429555,None,,,1240.9429555,1240.9429555,1249.6690382,1251.8895137,1,001,2024-07-02_10h05.01.207,robot_cogshifting_sign,2022.2.5,59.963218561736426,
"['red_right_F_45', 'blue_right_W_45', 'red_bottom_X_45', 'red_right_S_0']","{'color': 'blue_right_W_45', 'position': 'red_bottom_X_45', 'orientation': 'red_right_S_0'}",position,"['color', 'orientation', 'position']",red_bottom_X_45,2,3,letter,2,False,False,"['robot_stimuli\\\\filler.mp4', 'robot_stimuli\\\\filler.mp4', 'robot_stimuli\\\\filler.mp4', 'robot_stimuli\\\\filler.mp4']",robot_stimuli\\filler.mp4,1,,,,,,,,,,,,,0,33,33,33,,,,,,,,,,,,,,,,,,,1254.0096578,1256.0714676999999,,,1265.1494254,1265.1494254,1265.1494254,3,2.5913770999999883,1267.7595423999999,1267.7595423999999,1267.7595423999999,1267.7595423999999,1267.7595423999999,1267.7595423999999,1267.7595423999999,1267.7595423999999,None,None,None,,,,,,,,,,1254.0096578,1254.0096578,None,,,1254.0096578,1254.0096578,1262.9379293,1265.1494254,1,001,2024-07-02_10h05.01.207,robot_cogshifting_sign,2022.2.5,59.963218561736426,
"['red_right_H_45', 'blue_right_H_0', 'red_top_Z_0', 'red_right_C_0']","{'color': 'blue_right_H_0', 'position': 'red_top_Z_0', 'orientation': 'red_right_H_45'}",color,"['color', 'orientation', 'position']",blue_right_H_0,1,3,letter,2,False,False,"['robot_stimuli\\\\filler.mp4', 'robot_stimuli\\\\filler.mp4', 'robot_stimuli\\\\filler.mp4', 'robot_stimuli\\\\filler.mp4']",robot_stimuli\\filler.mp4,1,,,,,,,,,,,,,0,34,34,34,,,,,,,,,,,,,,,,,,,1267.7595423999999,1269.8154565,,,1278.3138294999999,1278.3138294999999,1278.3138294999999,2,3.8740979999999468,1282.2097396,1282.2097396,1282.2097396,1282.2097396,1282.2097396,1282.2097396,1282.2097396,1282.2097396,None,None,None,,,,,,,,,,1267.7595423999999,1267.7595423999999,None,,,1267.7595423999999,1267.7595423999999,1276.292462,1278.3138294999999,1,001,2024-07-02_10h05.01.207,robot_cogshifting_sign,2022.2.5,59.963218561736426,
"['red_top_M_45', 'red_right_C_0', 'blue_right_N_45', 'red_right_L_45']","{'color': 'blue_right_N_45', 'position': 'red_top_M_45', 'orientation': 'red_right_C_0'}",orientation,"['color', 'orientation', 'position']",red_right_C_0,1,3,letter,2,False,True,"['robot_stimuli\\\\filler.mp4', 'robot_stimuli\\\\filler.mp4', 'robot_stimuli\\\\filler.mp4', 'robot_stimuli\\\\filler.mp4']",robot_stimuli\\filler.mp4,1,,,,,,,,,,,,,0,35,35,35,,,,,,,,,,,,,,,,,,,1282.2097396,1284.2662332,,,1292.9470359,1292.9470359,1292.9470359,1,4.929806100000121,1297.9187971,1303.8038127,1297.9187971,1303.8038127,1297.9187971,1303.8038127,1297.9187971,1303.8038127,34.629629629629626,2.213124999999991,space,,,5.844266400000095,,,,,,,1282.2097396,1282.2097396,None,,,1282.2097396,1282.2097396,1290.9270666,1292.9470359,1,001,2024-07-02_10h05.01.207,robot_cogshifting_sign,2022.2.5,59.963218561736426,
"['blue_right_G_0', 'blue_bottom_L_45', 'red_right_K_45', 'blue_right_R_45']","{'color': 'red_right_K_45', 'position': 'blue_bottom_L_45', 'orientation': 'blue_right_G_0'}",orientation,['orientation'],blue_right_G_0,0,1,letter,2,True,False,"['robot_stimuli\\\\filler.mp4', 'robot_stimuli\\\\filler.mp4', 'robot_stimuli\\\\filler.mp4', 'robot_stimuli\\\\filler.mp4']",robot_stimuli\\filler.mp4,1,,,,,,,,,,,,,0,36,36,36,,,,,,,,,,,,,,,,,,,1305.3265245,1307.3815855999999,,,1316.0629027999998,1316.0629027999998,1316.0629027999998,1,0.7242926000000693,1316.8096091,1316.8096091,1316.8096091,1316.8096091,1316.8096091,1316.8096091,1316.8096091,1316.8096091,None,None,None,,,,,,,,,,1303.8038127,1303.8038127,space,1.4970396000000505,,,,1313.8445848,1316.0629027999998,1,001,2024-07-02_10h05.01.207,robot_cogshifting_sign,2022.2.5,59.963218561736426,
"['red_left_B_0', 'blue_left_W_0', 'blue_left_C_45', 'blue_top_M_0']","{'color': 'red_left_B_0', 'position': 'blue_top_M_0', 'orientation': 'blue_left_C_45'}",color,['color'],red_left_B_0,0,1,letter,2,False,False,"['robot_stimuli\\\\filler.mp4', 'robot_stimuli\\\\filler.mp4', 'robot_stimuli\\\\filler.mp4', 'robot_stimuli\\\\filler.mp4']",robot_stimuli\\filler.mp4,1,,,,,,,,,,,,,0,37,37,37,,,,,,,,,,,,,,,,,,,1316.8096091,1318.8687078,,,1327.5339102,1327.5339102,1327.5339102,1,0.6873277999999914,1328.2429134,1328.2429134,1328.2429134,1328.2429134,1328.2429134,1328.2429134,1328.2429134,1328.2429134,None,None,None,,,,,,,,,,1316.8096091,1316.8096091,None,,,1316.8096091,1316.8096091,1325.5206014,1327.5339102,1,001,2024-07-02_10h05.01.207,robot_cogshifting_sign,2022.2.5,59.963218561736426,
"['blue_top_Q_0', 'blue_left_S_0', 'red_top_Z_0', 'blue_top_G_45']","{'color': 'red_top_Z_0', 'position': 'blue_left_S_0', 'orientation': 'blue_top_G_45'}",position,['position'],blue_left_S_0,1,1,letter,2,False,False,"['robot_stimuli\\\\filler.mp4', 'robot_stimuli\\\\filler.mp4', 'robot_stimuli\\\\filler.mp4', 'robot_stimuli\\\\filler.mp4']",robot_stimuli\\filler.mp4,1,,,,,,,,,,,,,0,38,38,38,,,,,,,,,,,,,,,,,,,1328.2429134,1330.298034,,,1339.1925631,1339.1925631,1339.1925631,2,0.6436965000002033,1339.8597152,1339.8597152,1339.8597152,1339.8597152,1339.8597152,1339.8597152,1339.8597152,1339.8597152,None,None,None,,,,,,,,,,1328.2429134,1328.2429134,None,,,1328.2429134,1328.2429134,1337.1755286999999,1339.1925631,1,001,2024-07-02_10h05.01.207,robot_cogshifting_sign,2022.2.5,59.963218561736426,
"['red_left_Z_45', 'red_bottom_J_0', 'red_left_C_0', 'blue_left_S_0']","{'color': 'blue_left_S_0', 'position': 'red_bottom_J_0', 'orientation': 'red_left_Z_45'}",orientation,['orientation'],red_left_Z_45,0,1,letter,2,False,False,"['robot_stimuli\\\\filler.mp4', 'robot_stimuli\\\\filler.mp4', 'robot_stimuli\\\\filler.mp4', 'robot_stimuli\\\\filler.mp4']",robot_stimuli\\filler.mp4,1,,,,,,,,,,,,,0,39,39,39,,,,,,,,,,,,,,,,,,,1339.8597152,1341.9143634,,,1350.8118809,1350.8118809,1350.8118809,1,1.0237602999999922,1351.8596661,1351.8596661,1351.8596661,1351.8596661,1351.8596661,1351.8596661,1351.8596661,1351.8596661,None,None,None,,,,,,,,,,1339.8597152,1339.8597152,None,,,1339.8597152,1339.8597152,1348.5974744999999,1350.8118809,1,001,2024-07-02_10h05.01.207,robot_cogshifting_sign,2022.2.5,59.963218561736426,
"['red_top_L_0', 'red_right_N_0', 'blue_top_X_0', 'red_top_K_45']","{'color': 'blue_top_X_0', 'position': 'red_right_N_0', 'orientation': 'red_top_K_45'}",orientation,['orientation'],red_top_K_45,3,1,letter,2,False,False,"['robot_stimuli\\\\filler.mp4', 'robot_stimuli\\\\filler.mp4', 'robot_stimuli\\\\filler.mp4', 'robot_stimuli\\\\filler.mp4']",robot_stimuli\\filler.mp4,1,,,,,,,,,,,,,0,40,40,40,,,,,,,,,,,,,,,,,,,1351.8596661,1353.9139502,,,1362.6008855,1362.6008855,1362.6008855,4,1.2916907000000606,1363.9096882,1363.9096882,1363.9096882,1363.9096882,1363.9096882,1363.9096882,1363.9096882,1363.9096882,None,None,None,,,,,,,,,,1351.8596661,1351.8596661,None,,,1351.8596661,1351.8596661,1360.5872376999998,1362.6008855,1,001,2024-07-02_10h05.01.207,robot_cogshifting_sign,2022.2.5,59.963218561736426,
"['blue_left_H_0', 'blue_right_C_0', 'blue_right_W_45', 'red_right_H_0']","{'color': 'red_right_H_0', 'position': 'blue_left_H_0', 'orientation': 'blue_right_W_45'}",position,['position'],blue_left_H_0,0,1,letter,2,False,False,"['robot_stimuli\\\\filler.mp4', 'robot_stimuli\\\\filler.mp4', 'robot_stimuli\\\\filler.mp4', 'robot_stimuli\\\\filler.mp4']",robot_stimuli\\filler.mp4,1,,,,,,,,,,,,,0,41,41,41,,,,,,,,,,,,,,,,,,,1363.9096882,1365.9667170999999,,,1374.4488113,1374.4488113,1374.4488113,1,0.9632865000000379,1375.4431648,1375.4431648,1375.4431648,1375.4431648,1375.4431648,1375.4431648,1375.4431648,1375.4431648,None,None,None,,,,,,,,,,1363.9096882,1363.9096882,None,,,1363.9096882,1363.9096882,1372.4267607,1374.4488113,1,001,2024-07-02_10h05.01.207,robot_cogshifting_sign,2022.2.5,59.963218561736426,
"['blue_top_N_0', 'red_top_B_0', 'blue_bottom_V_0', 'blue_top_K_45']","{'color': 'red_top_B_0', 'position': 'blue_bottom_V_0', 'orientation': 'blue_top_K_45'}",color,['color'],red_top_B_0,1,1,letter,2,False,False,"['robot_stimuli\\\\filler.mp4', 'robot_stimuli\\\\filler.mp4', 'robot_stimuli\\\\filler.mp4', 'robot_stimuli\\\\filler.mp4']",robot_stimuli\\filler.mp4,1,,,,,,,,,,,,,0,42,42,42,,,,,,,,,,,,,,,,,,,1375.4431648,1377.4967182999999,,,1386.1921762,1386.1921762,1386.1921762,2,1.0440735000001382,1387.2597104,1387.2597104,1387.2597104,1387.2597104,1387.2597104,1387.2597104,1387.2597104,1387.2597104,None,None,None,,,,,,,,,,1375.4431648,1375.4431648,None,,,1375.4431648,1375.4431648,1384.1732852,1386.1921762,1,001,2024-07-02_10h05.01.207,robot_cogshifting_sign,2022.2.5,59.963218561736426,
"['red_top_J_45', 'blue_top_G_45', 'red_top_G_0', 'red_bottom_W_45']","{'color': 'blue_top_G_45', 'position': 'red_bottom_W_45', 'orientation': 'red_top_G_0'}",color,['color'],blue_top_G_45,1,1,letter,2,False,False,"['robot_stimuli\\\\filler.mp4', 'robot_stimuli\\\\filler.mp4', 'robot_stimuli\\\\filler.mp4', 'robot_stimuli\\\\filler.mp4']",robot_stimuli\\filler.mp4,1,,,,,,,,,,,,,0,43,43,43,,,,,,,,,,,,,,,,,,,1387.2597104,1389.3152673,,,1397.7940185,1397.7940185,1397.7940185,2,0.8012553999998886,1398.6274942999999,1398.6274942999999,1398.6274942999999,1398.6274942999999,1398.6274942999999,1398.6274942999999,1398.6274942999999,1398.6274942999999,None,None,None,,,,,,,,,,1387.2597104,1387.2597104,None,,,1387.2597104,1387.2597104,1395.577404,1397.7940185,1,001,2024-07-02_10h05.01.207,robot_cogshifting_sign,2022.2.5,59.963218561736426,
"['red_bottom_K_0', 'red_right_K_45', 'blue_right_Z_0', 'red_right_F_0']","{'color': 'blue_right_Z_0', 'position': 'red_bottom_K_0', 'orientation': 'red_right_K_45'}",position,['position'],red_bottom_K_0,0,1,letter,2,False,True,"['robot_stimuli\\\\filler.mp4', 'robot_stimuli\\\\filler.mp4', 'robot_stimuli\\\\filler.mp4', 'robot_stimuli\\\\filler.mp4']",robot_stimuli\\filler.mp4,1,,,,,,,,,,,,,0,44,44,44,,,,,,,,,,,,,,,,,,,1398.6274942999999,1400.6809395,,,1409.5685713999999,1409.5685713999999,1409.5685713999999,1,1.5951228999999216,1411.2189767999998,1414.8424023,1411.2189767999998,1414.8424023,1411.2189767999998,1414.8424023,1411.2189767999998,1414.8424023,25.833333333333332,2.363637300000164,space,,,3.561036700000102,,,,,,,1398.6274942999999,1398.6274942999999,None,,,1398.6274942999999,1398.6274942999999,1407.3512406,1409.5685713999999,1,001,2024-07-02_10h05.01.207,robot_cogshifting_sign,2022.2.5,59.963218561736426,
"['blue_left_K_0', 'red_left_T_0', 'blue_top_D_0', 'blue_left_X_45']","{'color': 'red_left_T_0', 'position': 'blue_top_D_0', 'orientation': 'blue_left_X_45'}",color,"['color', 'orientation']",red_left_T_0,1,2,letter,2,True,False,"['robot_stimuli\\\\filler.mp4', 'robot_stimuli\\\\filler.mp4', 'robot_stimuli\\\\filler.mp4', 'robot_stimuli\\\\filler.mp4']",robot_stimuli\\filler.mp4,1,,,,,,,,,,,,,0,45,45,45,,,,,,,,,,,,,,,,,,,1446.9432014,1448.9990447,,,1457.4809563,1457.4809563,1457.4809563,2,1.875349900000117,1459.3765853,1459.3765853,1459.3765853,1459.3765853,1459.3765853,1459.3765853,1459.3765853,1459.3765853,None,None,None,,,,,,,,,,1414.8424023,1414.8424023,space,32.07437870000007,,,,1455.457901,1457.4809563,1,001,2024-07-02_10h05.01.207,robot_cogshifting_sign,2022.2.5,59.963218561736426,
"['blue_right_N_45', 'red_right_K_0', 'blue_bottom_P_0', 'blue_right_X_0']","{'color': 'red_right_K_0', 'position': 'blue_bottom_P_0', 'orientation': 'blue_right_N_45'}",orientation,"['color', 'orientation']",blue_right_N_45,0,2,letter,2,False,False,"['robot_stimuli\\\\filler.mp4', 'robot_stimuli\\\\filler.mp4', 'robot_stimuli\\\\filler.mp4', 'robot_stimuli\\\\filler.mp4']",robot_stimuli\\filler.mp4,1,,,,,,,,,,,,,0,46,46,46,,,,,,,,,,,,,,,,,,,1459.3765853,1461.4324615,,,1469.9277667,1469.9277667,1469.9277667,1,1.764265899999998,1471.7098248999998,1471.7098248999998,1471.7098248999998,1471.7098248999998,1471.7098248999998,1471.7098248999998,1471.7098248999998,1471.7098248999998,None,None,None,,,,,,,,,,1459.3765853,1459.3765853,None,,,1459.3765853,1459.3765853,1467.9054884,1469.9277667,1,001,2024-07-02_10h05.01.207,robot_cogshifting_sign,2022.2.5,59.963218561736426,
"['blue_top_L_45', 'red_left_C_45', 'red_top_C_45', 'red_top_V_0']","{'color': 'blue_top_L_45', 'position': 'red_left_C_45', 'orientation': 'red_top_V_0'}",position,"['orientation', 'position']",red_left_C_45,1,2,letter,2,False,False,"['robot_stimuli\\\\filler.mp4', 'robot_stimuli\\\\filler.mp4', 'robot_stimuli\\\\filler.mp4', 'robot_stimuli\\\\filler.mp4']",robot_stimuli\\filler.mp4,1,,,,,,,,,,,,,0,47,47,47,,,,,,,,,,,,,,,,,,,1471.7098248999998,1473.7652974999999,,,1482.2485482,1482.2485482,1482.2485482,2,1.5630977999998663,1483.843325,1483.843325,1483.843325,1483.843325,1483.843325,1483.843325,1483.843325,1483.843325,None,None,None,,,,,,,,,,1471.7098248999998,1471.7098248999998,None,,,1471.7098248999998,1471.7098248999998,1480.2220128,1482.2485482,1,001,2024-07-02_10h05.01.207,robot_cogshifting_sign,2022.2.5,59.963218561736426,
"['red_left_G_45', 'red_top_M_45', 'red_top_H_0', 'blue_top_J_45']","{'color': 'blue_top_J_45', 'position': 'red_left_G_45', 'orientation': 'red_top_H_0'}",color,"['color', 'position']",blue_top_J_45,3,2,letter,2,False,False,"['robot_stimuli\\\\filler.mp4', 'robot_stimuli\\\\filler.mp4', 'robot_stimuli\\\\filler.mp4', 'robot_stimuli\\\\filler.mp4']",robot_stimuli\\filler.mp4,1,,,,,,,,,,,,,0,48,48,48,,,,,,,,,,,,,,,,,,,1483.843325,1485.8978369,,,1494.5779765,1494.5779765,1494.5779765,4,1.5871814999999856,1496.1934021,1496.1934021,1496.1934021,1496.1934021,1496.1934021,1496.1934021,1496.1934021,1496.1934021,None,None,None,,,,,,,,,,1483.843325,1483.843325,None,,,1483.843325,1483.843325,1492.5568494,1494.5779765,1,001,2024-07-02_10h05.01.207,robot_cogshifting_sign,2022.2.5,59.963218561736426,
"['red_right_K_0', 'blue_right_Q_0', 'blue_top_V_0', 'blue_right_Q_45']","{'color': 'red_right_K_0', 'position': 'blue_top_V_0', 'orientation': 'blue_right_Q_45'}",position,"['color', 'position']",blue_top_V_0,2,2,letter,2,False,False,"['robot_stimuli\\\\filler.mp4', 'robot_stimuli\\\\filler.mp4', 'robot_stimuli\\\\filler.mp4', 'robot_stimuli\\\\filler.mp4']",robot_stimuli\\filler.mp4,1,,,,,,,,,,,,,0,49,49,49,,,,,,,,,,,,,,,,,,,1496.1934021,1498.2488630999999,,,1507.1358658,1507.1358658,1507.1358658,3,1.74008879999991,1508.8934313,1508.8934313,1508.8934313,1508.8934313,1508.8934313,1508.8934313,1508.8934313,1508.8934313,None,None,None,,,,,,,,,,1496.1934021,1496.1934021,None,,,1496.1934021,1496.1934021,1505.1099228,1507.1358658,1,001,2024-07-02_10h05.01.207,robot_cogshifting_sign,2022.2.5,59.963218561736426,
"['red_right_J_45', 'blue_right_M_0', 'red_top_G_0', 'red_right_S_0']","{'color': 'blue_right_M_0', 'position': 'red_top_G_0', 'orientation': 'red_right_J_45'}",position,"['color', 'position']",red_top_G_0,2,2,letter,2,False,False,"['robot_stimuli\\\\filler.mp4', 'robot_stimuli\\\\filler.mp4', 'robot_stimuli\\\\filler.mp4', 'robot_stimuli\\\\filler.mp4']",robot_stimuli\\filler.mp4,1,,,,,,,,,,,,,0,50,50,50,,,,,,,,,,,,,,,,,,,1508.8934313,1510.9474954,,,1519.6255982999999,1519.6255982999999,1519.6255982999999,3,1.6096661000000836,1521.2599169999999,1521.2599169999999,1521.2599169999999,1521.2599169999999,1521.2599169999999,1521.2599169999999,1521.2599169999999,1521.2599169999999,None,None,None,,,,,,,,,,1508.8934313,1508.8934313,None,,,1508.8934313,1508.8934313,1517.413255,1519.6255982999999,1,001,2024-07-02_10h05.01.207,robot_cogshifting_sign,2022.2.5,59.963218561736426,
"['blue_bottom_H_45', 'blue_top_C_0', 'red_bottom_X_0', 'blue_bottom_L_0']","{'color': 'red_bottom_X_0', 'position': 'blue_top_C_0', 'orientation': 'blue_bottom_H_45'}",orientation,"['color', 'orientation']",blue_bottom_H_45,0,2,letter,2,False,False,"['robot_stimuli\\\\filler.mp4', 'robot_stimuli\\\\filler.mp4', 'robot_stimuli\\\\filler.mp4', 'robot_stimuli\\\\filler.mp4']",robot_stimuli\\filler.mp4,1,,,,,,,,,,,,,0,51,51,51,,,,,,,,,,,,,,,,,,,1521.2599169999999,1523.3205593999999,,,1532.2125443999998,1532.2125443999998,1532.2125443999998,1,2.5840895000000614,1534.8267389,1534.8267389,1534.8267389,1534.8267389,1534.8267389,1534.8267389,1534.8267389,1534.8267389,None,None,None,,,,,,,,,,1521.2599169999999,1521.2599169999999,None,,,1521.2599169999999,1521.2599169999999,1529.9945745999999,1532.2125443999998,1,001,2024-07-02_10h05.01.207,robot_cogshifting_sign,2022.2.5,59.963218561736426,
"['blue_right_L_0', 'red_bottom_D_0', 'red_right_Z_0', 'red_right_R_45']","{'color': 'blue_right_L_0', 'position': 'red_bottom_D_0', 'orientation': 'red_right_R_45'}",orientation,"['orientation', 'position']",red_right_R_45,3,2,letter,2,False,False,"['robot_stimuli\\\\filler.mp4', 'robot_stimuli\\\\filler.mp4', 'robot_stimuli\\\\filler.mp4', 'robot_stimuli\\\\filler.mp4']",robot_stimuli\\filler.mp4,1,,,,,,,,,,,,,0,52,52,52,,,,,,,,,,,,,,,,,,,1534.8267389,1536.8839375999999,,,1545.7572897,1545.7572897,1545.7572897,4,1.3187415000001579,1547.0933831999998,1547.0933831999998,1547.0933831999998,1547.0933831999998,1547.0933831999998,1547.0933831999998,1547.0933831999998,1547.0933831999998,None,None,None,,,,,,,,,,1534.8267389,1534.8267389,None,,,1534.8267389,1534.8267389,1543.739227,1545.7572897,1,001,2024-07-02_10h05.01.207,robot_cogshifting_sign,2022.2.5,59.963218561736426,
"['red_left_H_0', 'blue_left_L_45', 'blue_left_J_0', 'blue_bottom_P_0']","{'color': 'red_left_H_0', 'position': 'blue_bottom_P_0', 'orientation': 'blue_left_L_45'}",color,"['color', 'position']",red_left_H_0,0,2,letter,2,False,True,"['robot_stimuli\\\\filler.mp4', 'robot_stimuli\\\\filler.mp4', 'robot_stimuli\\\\filler.mp4', 'robot_stimuli\\\\filler.mp4']",robot_stimuli\\filler.mp4,1,,,,,,,,,,,,,0,53,53,53,,,,,,,,,,,,,,,,,,,1547.0933831999998,1549.1475874999999,,,1557.8381069,1557.8381069,1557.8381069,1,1.3984380000001124,1559.2862808,1562.9709383,1559.2862808,1562.9709383,1559.2862808,1562.9709383,1559.2862808,1562.9709383,27.8395061728395,2.5493860000001405,space,,,3.620981400000062,,,,,,,1547.0933831999998,1547.0933831999998,None,,,1547.0933831999998,1547.0933831999998,1555.6151516999998,1557.8381069,1,001,2024-07-02_10h05.01.207,robot_cogshifting_sign,2022.2.5,59.963218561736426,
"['L_Head_X_For', 'L_Arm_Y_Back', 'L_Head_Y_Back', 'R_Head_Y_Back']","{'laterality': 'R_Head_Y_Back', 'localisation': 'L_Arm_Y_Back', 'movement': 'L_Head_X_For'}",movement,"['laterality', 'movement']",L_Head_X_For,0,2,robot,3,True,False,"['robot_stimuli\\L_Head_X_For.mp4', 'robot_stimuli\\L_Arm_Y_Back.mp4', 'robot_stimuli\\L_Head_Y_Back.mp4', 'robot_stimuli\\R_Head_Y_Back.mp4']",robot_stimuli\L_Head_X_For.mp4,1,,,,,,,,,,,,,0,54,54,54,,,,,,,,,,,,,,,,,,,1581.8599855,1583.940474,,,1598.7354149999999,1598.7354149999999,1598.7354149999999,1,2.301787499999989,1601.0600935999998,1601.0600935999998,1601.0600935999998,1601.0600935999998,1601.0600935999998,1601.0600935999998,1601.0600935999998,1601.0600935999998,None,None,None,,,,,,,,,,1562.9709383,1562.9709383,space,18.86506060000005,1595.09971,,,,,1,001,2024-07-02_10h05.01.207,robot_cogshifting_sign,2022.2.5,59.963218561736426,
"['R_Arm_Y_For', 'R_Head_Y_Back', 'L_Arm_Y_For', 'R_Arm_X_Back']","{'laterality': 'L_Arm_Y_For', 'localisation': 'R_Head_Y_Back', 'movement': 'R_Arm_X_Back'}",laterality,"['laterality', 'localisation']",L_Arm_Y_For,2,2,robot,3,False,False,"['robot_stimuli\\R_Arm_Y_For.mp4', 'robot_stimuli\\R_Head_Y_Back.mp4', 'robot_stimuli\\L_Arm_Y_For.mp4', 'robot_stimuli\\R_Arm_X_Back.mp4']",robot_stimuli\L_Arm_Y_For.mp4,1,,,,,,,,,,,,,0,55,55,55,,,,,,,,,,,,,,,,,,,1601.0600935999998,1603.1308351,,,1617.802872,1617.802872,1617.802872,3,4.31308400000006,1622.1436423,1622.1436423,1622.1436423,1622.1436423,1622.1436423,1622.1436423,1622.1436423,1622.1436423,None,None,None,,,,,,,,,,1601.0600935999998,1601.0600935999998,None,,1614.1671536,1601.0600935999998,1601.0600935999998,,,1,001,2024-07-02_10h05.01.207,robot_cogshifting_sign,2022.2.5,59.963218561736426,
"['L_Head_Z_For', 'R_Head_Y_Back', 'L_Base_Y_Back', 'L_Head_Y_For']","{'laterality': 'R_Head_Y_Back', 'localisation': 'L_Base_Y_Back', 'movement': 'L_Head_Z_For'}",movement,"['localisation', 'movement']",L_Head_Z_For,0,2,robot,3,False,False,"['robot_stimuli\\L_Head_Z_For.mp4', 'robot_stimuli\\R_Head_Y_Back.mp4', 'robot_stimuli\\L_Base_Y_Back.mp4', 'robot_stimuli\\L_Head_Y_For.mp4']",robot_stimuli\L_Head_Z_For.mp4,1,,,,,,,,,,,,,0,56,56,56,,,,,,,,,,,,,,,,,,,1622.1436423,1624.2183165,,,1638.9676494999999,1638.9676494999999,1638.9676494999999,2,2.917025899999942,1641.9103888,1641.9103888,1641.9103888,1641.9103888,1641.9103888,1641.9103888,1641.9103888,1641.9103888,None,None,None,,,,,,,,,,1622.1436423,1622.1436423,None,,1635.3346261,1622.1436423,1622.1436423,,,1,001,2024-07-02_10h05.01.207,robot_cogshifting_sign,2022.2.5,59.963218561736426,
"['L_Base_Z_Back', 'L_Head_X_For', 'R_Base_X_Back', 'L_Base_X_Back']","{'laterality': 'R_Base_X_Back', 'localisation': 'L_Head_X_For', 'movement': 'L_Base_Z_Back'}",laterality,"['laterality', 'localisation']",R_Base_X_Back,2,2,robot,3,False,False,"['robot_stimuli\\L_Base_Z_Back.mp4', 'robot_stimuli\\L_Head_X_For.mp4', 'robot_stimuli\\R_Base_X_Back.mp4', 'robot_stimuli\\L_Base_X_Back.mp4']",robot_stimuli\R_Base_X_Back.mp4,1,,,,,,,,,,,,,0,57,57,57,,,,,,,,,,,,,,,,,,,1641.9103888,1643.9839754,,,1658.6673916,1658.6673916,1658.6673916,3,2.7359512000002155,1661.4271124,1661.4271124,1661.4271124,1661.4271124,1661.4271124,1661.4271124,1661.4271124,1661.4271124,None,None,None,,,,,,,,,,1641.9103888,1641.9103888,None,,1655.0662034,1641.9103888,1641.9103888,,,1,001,2024-07-02_10h05.01.207,robot_cogshifting_sign,2022.2.5,59.963218561736426,
"['R_Arm_Z_For', 'R_Base_X_Back', 'R_Base_Z_Back', 'L_Base_Z_Back']","{'laterality': 'L_Base_Z_Back', 'localisation': 'R_Arm_Z_For', 'movement': 'R_Base_X_Back'}",movement,"['localisation', 'movement']",R_Base_X_Back,1,2,robot,3,False,False,"['robot_stimuli\\R_Arm_Z_For.mp4', 'robot_stimuli\\R_Base_X_Back.mp4', 'robot_stimuli\\R_Base_Z_Back.mp4', 'robot_stimuli\\L_Base_Z_Back.mp4']",robot_stimuli\R_Base_X_Back.mp4,1,,,,,,,,,,,,,0,58,58,58,,,,,,,,,,,,,,,,,,,1661.4271124,1663.5010763,,,1678.1896768,1678.1896768,1678.1896768,2,4.0455727999998885,1682.2602587,1682.2602587,1682.2602587,1682.2602587,1682.2602587,1682.2602587,1682.2602587,1682.2602587,None,None,None,,,,,,,,,,1661.4271124,1661.4271124,None,,1674.5536389,1661.4271124,1661.4271124,,,1,001,2024-07-02_10h05.01.207,robot_cogshifting_sign,2022.2.5,59.963218561736426,
"['R_Arm_Z_Back', 'L_Base_Z_For', 'L_Arm_Y_Back', 'L_Arm_Z_For']","{'laterality': 'R_Arm_Z_Back', 'localisation': 'L_Base_Z_For', 'movement': 'L_Arm_Y_Back'}",laterality,"['laterality', 'localisation']",R_Arm_Z_Back,0,2,robot,3,False,False,"['robot_stimuli\\R_Arm_Z_Back.mp4', 'robot_stimuli\\L_Base_Z_For.mp4', 'robot_stimuli\\L_Arm_Y_Back.mp4', 'robot_stimuli\\L_Arm_Z_For.mp4']",robot_stimuli\R_Arm_Z_Back.mp4,1,,,,,,,,,,,,,0,59,59,59,,,,,,,,,,,,,,,,,,,1682.2602587,1684.3364184,,,1699.1352874,1699.1352874,1699.1352874,1,2.268046300000094,1701.4271274,1701.4271274,1701.4271274,1701.4271274,1701.4271274,1701.4271274,1701.4271274,1701.4271274,None,None,None,,,,,,,,,,1682.2602587,1682.2602587,None,,1695.4875338,1682.2602587,1682.2602587,,,1,001,2024-07-02_10h05.01.207,robot_cogshifting_sign,2022.2.5,59.963218561736426,
"['L_Base_X_For', 'L_Base_Z_Back', 'L_Head_Z_Back', 'R_Base_Z_For']","{'laterality': 'R_Base_Z_For', 'localisation': 'L_Head_Z_Back', 'movement': 'L_Base_X_For'}",localisation,"['laterality', 'localisation']",L_Head_Z_Back,2,2,robot,3,False,False,"['robot_stimuli\\L_Base_X_For.mp4', 'robot_stimuli\\L_Base_Z_Back.mp4', 'robot_stimuli\\L_Head_Z_Back.mp4', 'robot_stimuli\\R_Base_Z_For.mp4']",robot_stimuli\L_Head_Z_Back.mp4,1,,,,,,,,,,,,,0,60,60,60,,,,,,,,,,,,,,,,,,,1701.4271274,1703.4977105,,,1718.2528923999998,1718.2528923999998,1718.2528923999998,3,1.7118674999998689,1719.9937714,1719.9937714,1719.9937714,1719.9937714,1719.9937714,1719.9937714,1719.9937714,1719.9937714,None,None,None,,,,,,,,,,1701.4271274,1701.4271274,None,,1714.6176976,1701.4271274,1701.4271274,,,1,001,2024-07-02_10h05.01.207,robot_cogshifting_sign,2022.2.5,59.963218561736426,
"['R_Base_Z_For', 'L_Arm_Z_For', 'R_Arm_Y_Back', 'R_Arm_Z_For']","{'laterality': 'L_Arm_Z_For', 'localisation': 'R_Base_Z_For', 'movement': 'R_Arm_Y_Back'}",localisation,"['laterality', 'localisation']",R_Base_Z_For,0,2,robot,3,False,False,"['robot_stimuli\\R_Base_Z_For.mp4', 'robot_stimuli\\L_Arm_Z_For.mp4', 'robot_stimuli\\R_Arm_Y_Back.mp4', 'robot_stimuli\\R_Arm_Z_For.mp4']",robot_stimuli\R_Base_Z_For.mp4,1,,,,,,,,,,,,,0,61,61,61,,,,,,,,,,,,,,,,,,,1719.9937714,1722.0662959,,,1736.8805771,1736.8805771,1736.8805771,1,5.4994102,1742.4102105,1742.4102105,1742.4102105,1742.4102105,1742.4102105,1742.4102105,1742.4102105,1742.4102105,None,None,None,,,,,,,,,,1719.9937714,1719.9937714,None,,1733.237419,1719.9937714,1719.9937714,,,1,001,2024-07-02_10h05.01.207,robot_cogshifting_sign,2022.2.5,59.963218561736426,
"['R_Torso_Z_For', 'R_Base_X_For', 'R_Base_Z_Back', 'L_Base_Z_For']","{'laterality': 'L_Base_Z_For', 'localisation': 'R_Torso_Z_For', 'movement': 'R_Base_X_For'}",localisation,"['laterality', 'localisation']",R_Torso_Z_For,0,2,robot,3,False,True,"['robot_stimuli\\R_Torso_Z_For.mp4', 'robot_stimuli\\R_Base_X_For.mp4', 'robot_stimuli\\R_Base_Z_Back.mp4', 'robot_stimuli\\L_Base_Z_For.mp4']",robot_stimuli\R_Torso_Z_For.mp4,1,,,,,,,,,,,,,0,62,62,62,,,,,,,,,,,,,,,,,,,1742.4102105,1744.4864533999998,,,1759.0690435,1759.0690435,1759.0690435,4,13.743195100000037,1772.8688418,1777.3677590999998,1772.8688418,1777.3677590999998,1772.8688418,1777.3677590999998,1772.8688418,1777.3677590999998,34.32098765432099,3.0512518000000455,space,,,4.448217900000088,,,,,,,1742.4102105,1742.4102105,None,,1755.4371637,1742.4102105,1742.4102105,,,1,001,2024-07-02_10h05.01.207,robot_cogshifting_sign,2022.2.5,59.963218561736426,
"['L_Head_X_For', 'L_Head_Z_Back', 'R_Head_Z_For', 'L_Torso_Z_Back']","{'laterality': 'R_Head_Z_For', 'localisation': 'L_Torso_Z_Back', 'movement': 'L_Head_X_For'}",movement,['movement'],L_Head_X_For,0,1,robot,3,True,False,"['robot_stimuli\\L_Head_X_For.mp4', 'robot_stimuli\\L_Head_Z_Back.mp4', 'robot_stimuli\\R_Head_Z_For.mp4', 'robot_stimuli\\L_Torso_Z_Back.mp4']",robot_stimuli\L_Head_X_For.mp4,1,,,,,,,,,,,,,0,63,63,63,,,,,,,,,,,,,,,,,,,1779.9769305999998,1782.0561417,,,1796.6689526,1796.6689526,1796.6689526,1,1.1682092999998872,1797.8604438,1797.8604438,1797.8604438,1797.8604438,1797.8604438,1797.8604438,1797.8604438,1797.8604438,None,None,None,,,,,,,,,,1777.3677590999998,1777.3677590999998,space,2.5887403000000972,1793.1532281,,,,,1,001,2024-07-02_10h05.01.207,robot_cogshifting_sign,2022.2.5,59.963218561736426,
"['R_Head_X_Back', 'R_Arm_Z_Back', 'L_Head_Z_For', 'R_Head_Z_For']","{'laterality': 'L_Head_Z_For', 'localisation': 'R_Arm_Z_Back', 'movement': 'R_Head_X_Back'}",laterality,['laterality'],L_Head_Z_For,2,1,robot,3,False,False,"['robot_stimuli\\R_Head_X_Back.mp4', 'robot_stimuli\\R_Arm_Z_Back.mp4', 'robot_stimuli\\L_Head_Z_For.mp4', 'robot_stimuli\\R_Head_Z_For.mp4']",robot_stimuli\L_Head_Z_For.mp4,1,,,,,,,,,,,,,0,64,64,64,,,,,,,,,,,,,,,,,,,1797.8604438,1799.9363117999999,,,1814.7552209,1814.7552209,1814.7552209,3,1.4655899000001114,1816.243847,1816.243847,1816.243847,1816.243847,1816.243847,1816.243847,1816.243847,1816.243847,None,None,None,,,,,,,,,,1797.8604438,1797.8604438,None,,1811.1206487,1797.8604438,1797.8604438,,,1,001,2024-07-02_10h05.01.207,robot_cogshifting_sign,2022.2.5,59.963218561736426,
"['R_Base_Y_Back', 'R_Base_Z_For', 'R_Arm_Y_Back', 'L_Base_Y_For']","{'laterality': 'L_Base_Y_For', 'localisation': 'R_Arm_Y_Back', 'movement': 'R_Base_Z_For'}",movement,['movement'],R_Base_Z_For,1,1,robot,3,False,False,"['robot_stimuli\\R_Base_Y_Back.mp4', 'robot_stimuli\\R_Base_Z_For.mp4', 'robot_stimuli\\R_Arm_Y_Back.mp4', 'robot_stimuli\\L_Base_Y_For.mp4']",robot_stimuli\R_Base_Z_For.mp4,1,,,,,,,,,,,,,0,65,65,65,,,,,,,,,,,,,,,,,,,1816.243847,1818.3183599,,,1833.0689955999999,1833.0689955999999,1833.0689955999999,2,1.2233923999999092,1834.3104527,1834.3104527,1834.3104527,1834.3104527,1834.3104527,1834.3104527,1834.3104527,1834.3104527,None,None,None,,,,,,,,,,1816.243847,1816.243847,None,,1829.5346984999999,1816.243847,1816.243847,,,1,001,2024-07-02_10h05.01.207,robot_cogshifting_sign,2022.2.5,59.963218561736426,
"['L_Arm_X_Back', 'R_Arm_Y_Back', 'L_Arm_Y_Back', 'L_Base_Y_For']","{'laterality': 'R_Arm_Y_Back', 'localisation': 'L_Base_Y_For', 'movement': 'L_Arm_X_Back'}",laterality,['laterality'],R_Arm_Y_Back,1,1,robot,3,False,False,"['robot_stimuli\\L_Arm_X_Back.mp4', 'robot_stimuli\\R_Arm_Y_Back.mp4', 'robot_stimuli\\L_Arm_Y_Back.mp4', 'robot_stimuli\\L_Base_Y_For.mp4']",robot_stimuli\R_Arm_Y_Back.mp4,1,,,,,,,,,,,,,0,66,66,66,,,,,,,,,,,,,,,,,,,1834.3104527,1836.3828373,,,1851.0874949,1851.0874949,1851.0874949,2,1.4845230000000242,1852.5940547999999,1852.5940547999999,1852.5940547999999,1852.5940547999999,1852.5940547999999,1852.5940547999999,1852.5940547999999,1852.5940547999999,None,None,None,,,,,,,,,,1834.3104527,1834.3104527,None,,1847.5514194999998,1834.3104527,1834.3104527,,,1,001,2024-07-02_10h05.01.207,robot_cogshifting_sign,2022.2.5,59.963218561736426,
"['R_Base_Z_Back', 'R_Head_Y_For', 'R_Head_Z_For', 'L_Head_Z_Back']","{'laterality': 'L_Head_Z_Back', 'localisation': 'R_Base_Z_Back', 'movement': 'R_Head_Y_For'}",localisation,['localisation'],R_Base_Z_Back,0,1,robot,3,False,False,"['robot_stimuli\\R_Base_Z_Back.mp4', 'robot_stimuli\\R_Head_Y_For.mp4', 'robot_stimuli\\R_Head_Z_For.mp4', 'robot_stimuli\\L_Head_Z_Back.mp4']",robot_stimuli\R_Base_Z_Back.mp4,1,,,,,,,,,,,,,0,67,67,67,,,,,,,,,,,,,,,,,,,1852.5940547999999,1854.6645337,,,1869.3506754,1869.3506754,1869.3506754,1,1.4222483000000352,1870.7938431,1870.7938431,1870.7938431,1870.7938431,1870.7938431,1870.7938431,1870.7938431,1870.7938431,None,None,None,,,,,,,,,,1852.5940547999999,1852.5940547999999,None,,1865.711005,1852.5940547999999,1852.5940547999999,,,1,001,2024-07-02_10h05.01.207,robot_cogshifting_sign,2022.2.5,59.963218561736426,
"['R_Head_X_For', 'L_Head_X_Back', 'L_Head_Z_For', 'L_Torso_X_For']","{'laterality': 'R_Head_X_For', 'localisation': 'L_Torso_X_For', 'movement': 'L_Head_Z_For'}",movement,['movement'],L_Head_Z_For,2,1,robot,3,False,False,"['robot_stimuli\\R_Head_X_For.mp4', 'robot_stimuli\\L_Head_X_Back.mp4', 'robot_stimuli\\L_Head_Z_For.mp4', 'robot_stimuli\\L_Torso_X_For.mp4']",robot_stimuli\L_Head_Z_For.mp4,1,,,,,,,,,,,,,0,68,68,68,,,,,,,,,,,,,,,,,,,1870.7938431,1872.8644398999998,,,1887.6845228,1887.6845228,1887.6845228,3,0.5200358999997547,1888.2272510999999,1888.2272510999999,1888.2272510999999,1888.2272510999999,1888.2272510999999,1888.2272510999999,1888.2272510999999,1888.2272510999999,None,None,None,,,,,,,,,,1870.7938431,1870.7938431,None,,1884.0395319000002,1870.7938431,1870.7938431,,,1,001,2024-07-02_10h05.01.207,robot_cogshifting_sign,2022.2.5,59.963218561736426,
"['R_Head_X_For', 'L_Head_X_Back', 'L_Head_Y_For', 'L_Base_X_Back']","{'laterality': 'R_Head_X_For', 'localisation': 'L_Base_X_Back', 'movement': 'L_Head_Y_For'}",localisation,['localisation'],L_Base_X_Back,3,1,robot,3,False,False,"['robot_stimuli\\R_Head_X_For.mp4', 'robot_stimuli\\L_Head_X_Back.mp4', 'robot_stimuli\\L_Head_Y_For.mp4', 'robot_stimuli\\L_Base_X_Back.mp4']",robot_stimuli\L_Base_X_Back.mp4,1,,,,,,,,,,,,,0,69,69,69,,,,,,,,,,,,,,,,,,,1888.2272510999999,1890.3075185,,,1905.0870042,1905.0870042,1905.0870042,4,1.2221446000000356,1906.3271591,1906.3271591,1906.3271591,1906.3271591,1906.3271591,1906.3271591,1906.3271591,1906.3271591,None,None,None,,,,,,,,,,1888.2272510999999,1888.2272510999999,None,,1901.4804557999998,1888.2272510999999,1888.2272510999999,,,1,001,2024-07-02_10h05.01.207,robot_cogshifting_sign,2022.2.5,59.963218561736426,
"['L_Arm_Y_For', 'R_Arm_Z_Back', 'R_Base_Y_For', 'R_Arm_Y_Back']","{'laterality': 'L_Arm_Y_For', 'localisation': 'R_Base_Y_For', 'movement': 'R_Arm_Z_Back'}",localisation,['localisation'],R_Base_Y_For,2,1,robot,3,False,False,"['robot_stimuli\\L_Arm_Y_For.mp4', 'robot_stimuli\\R_Arm_Z_Back.mp4', 'robot_stimuli\\R_Base_Y_For.mp4', 'robot_stimuli\\R_Arm_Y_Back.mp4']",robot_stimuli\R_Base_Y_For.mp4,1,,,,,,,,,,,,,0,70,70,70,,,,,,,,,,,,,,,,,,,1906.3271591,1908.4036238,,,1923.1994947,1923.1994947,1923.1994947,3,2.221215700000073,1925.4439931999998,1925.4439931999998,1925.4439931999998,1925.4439931999998,1925.4439931999998,1925.4439931999998,1925.4439931999998,1925.4439931999998,None,None,None,,,,,,,,,,1906.3271591,1906.3271591,None,,1919.5645281999998,1906.3271591,1906.3271591,,,1,001,2024-07-02_10h05.01.207,robot_cogshifting_sign,2022.2.5,59.963218561736426,
"['L_Head_X_For', 'R_Torso_X_For', 'L_Torso_Z_Back', 'L_Torso_X_For']","{'laterality': 'R_Torso_X_For', 'localisation': 'L_Head_X_For', 'movement': 'L_Torso_Z_Back'}",laterality,['laterality'],R_Torso_X_For,1,1,robot,3,False,True,"['robot_stimuli\\L_Head_X_For.mp4', 'robot_stimuli\\R_Torso_X_For.mp4', 'robot_stimuli\\L_Torso_Z_Back.mp4', 'robot_stimuli\\L_Torso_X_For.mp4']",robot_stimuli\R_Torso_X_For.mp4,1,,,,,,,,,,,,,0,71,71,71,,,,,,,,,,,,,,,,,,,1925.4439931999998,1927.5192396999998,,,1942.1344871,1942.1344871,1942.1344871,2,1.2775822999998923,1943.4690779999999,1947.1173661999999,1943.4690779999999,1947.1173661999999,1943.4690779999999,1947.1173661999999,1943.4690779999999,1947.1173661999999,27.22222222222222,2.4449076999999306,space,,,3.5984359999999356,,,,,,,1925.4439931999998,1925.4439931999998,None,,1938.4890549999998,1925.4439931999998,1925.4439931999998,,,1,001,2024-07-02_10h05.01.207,robot_cogshifting_sign,2022.2.5,59.963218561736426,
"['L_Head_Z_Back', 'L_Torso_Y_For', 'L_Torso_Z_For', 'R_Torso_Z_Back']","{'laterality': 'R_Torso_Z_Back', 'localisation': 'L_Head_Z_Back', 'movement': 'L_Torso_Y_For'}",localisation,"['laterality', 'localisation', 'movement']",L_Head_Z_Back,0,3,robot,3,True,False,"['robot_stimuli\\L_Head_Z_Back.mp4', 'robot_stimuli\\L_Torso_Y_For.mp4', 'robot_stimuli\\L_Torso_Z_For.mp4', 'robot_stimuli\\R_Torso_Z_Back.mp4']",robot_stimuli\L_Head_Z_Back.mp4,1,,,,,,,,,,,,,0,72,72,72,,,,,,,,,,,,,,,,,,,1957.0606552000002,1959.1392328,,,1973.9524181,1973.9524181,1973.9524181,1,2.347033000000181,1976.3272476,1976.3272476,1976.3272476,1976.3272476,1976.3272476,1976.3272476,1976.3272476,1976.3272476,None,None,None,,,,,,,,,,1947.1173661999999,1947.1173661999999,space,9.925895000000025,1970.3060512,,,,,1,001,2024-07-02_10h05.01.207,robot_cogshifting_sign,2022.2.5,59.963218561736426,
"['R_Arm_X_For', 'R_Arm_Z_Back', 'R_Head_X_For', 'L_Arm_X_Back']","{'laterality': 'L_Arm_X_Back', 'localisation': 'R_Head_X_For', 'movement': 'R_Arm_Z_Back'}",movement,"['laterality', 'localisation', 'movement']",R_Arm_Z_Back,1,3,robot,3,False,False,"['robot_stimuli\\R_Arm_X_For.mp4', 'robot_stimuli\\R_Arm_Z_Back.mp4', 'robot_stimuli\\R_Head_X_For.mp4', 'robot_stimuli\\L_Arm_X_Back.mp4']",robot_stimuli\R_Arm_Z_Back.mp4,1,,,,,,,,,,,,,0,73,73,73,,,,,,,,,,,,,,,,,,,1976.3272476,1978.3991241,,,1993.2028684,1993.2028684,1993.2028684,2,6.730210599999907,1999.9605383,1999.9605383,1999.9605383,1999.9605383,1999.9605383,1999.9605383,1999.9605383,1999.9605383,None,None,None,,,,,,,,,,1976.3272476,1976.3272476,None,,1989.5647751999998,1976.3272476,1976.3272476,,,1,001,2024-07-02_10h05.01.207,robot_cogshifting_sign,2022.2.5,59.963218561736426,
"['R_Torso_Y_For', 'R_Base_X_For', 'R_Torso_X_Back', 'L_Torso_X_For']","{'laterality': 'L_Torso_X_For', 'localisation': 'R_Base_X_For', 'movement': 'R_Torso_Y_For'}",laterality,"['laterality', 'localisation', 'movement']",L_Torso_X_For,3,3,robot,3,False,False,"['robot_stimuli\\R_Torso_Y_For.mp4', 'robot_stimuli\\R_Base_X_For.mp4', 'robot_stimuli\\R_Torso_X_Back.mp4', 'robot_stimuli\\L_Torso_X_For.mp4']",robot_stimuli\L_Torso_X_For.mp4,1,,,,,,,,,,,,,0,74,74,74,,,,,,,,,,,,,,,,,,,1999.9605383,2002.0315002999998,,,2016.7157667999998,2016.7157667999998,2016.7157667999998,4,2.360477900000376,2019.0941522,2019.0941522,2019.0941522,2019.0941522,2019.0941522,2019.0941522,2019.0941522,2019.0941522,None,None,None,,,,,,,,,,1999.9605383,1999.9605383,None,,2013.0789367999998,1999.9605383,1999.9605383,,,1,001,2024-07-02_10h05.01.207,robot_cogshifting_sign,2022.2.5,59.963218561736426,
"['L_Torso_Y_For', 'L_Head_X_For', 'R_Head_Y_For', 'L_Head_Y_For']","{'laterality': 'R_Head_Y_For', 'localisation': 'L_Torso_Y_For', 'movement': 'L_Head_X_For'}",movement,"['laterality', 'localisation', 'movement']",L_Head_X_For,1,3,robot,3,False,False,"['robot_stimuli\\L_Torso_Y_For.mp4', 'robot_stimuli\\L_Head_X_For.mp4', 'robot_stimuli\\R_Head_Y_For.mp4', 'robot_stimuli\\L_Head_Y_For.mp4']",robot_stimuli\L_Head_X_For.mp4,1,,,,,,,,,,,,,0,75,75,75,,,,,,,,,,,,,,,,,,,2019.0941522,2021.1678438000001,,,2035.8992808,2035.8992808,2035.8992808,2,6.3135282000000075,2042.2442094,2042.2442094,2042.2442094,2042.2442094,2042.2442094,2042.2442094,2042.2442094,2042.2442094,None,None,None,,,,,,,,,,2019.0941522,2019.0941522,None,,2032.260998,2019.0941522,2019.0941522,,,1,001,2024-07-02_10h05.01.207,robot_cogshifting_sign,2022.2.5,59.963218561736426,
"['L_Torso_X_Back', 'R_Torso_X_For', 'L_Head_X_Back', 'L_Torso_Z_Back']","{'laterality': 'R_Torso_X_For', 'localisation': 'L_Head_X_Back', 'movement': 'L_Torso_Z_Back'}",movement,"['laterality', 'localisation', 'movement']",L_Torso_Z_Back,3,3,robot,3,False,False,"['robot_stimuli\\L_Torso_X_Back.mp4', 'robot_stimuli\\R_Torso_X_For.mp4', 'robot_stimuli\\L_Head_X_Back.mp4', 'robot_stimuli\\L_Torso_Z_Back.mp4']",robot_stimuli\L_Torso_Z_Back.mp4,1,,,,,,,,,,,,,0,76,76,76,,,,,,,,,,,,,,,,,,,2042.2442094,2044.3227116,,,2059.0006864,2059.0006864,2059.0006864,4,1.892432499999984,2060.9107572000003,2060.9107572000003,2060.9107572000003,2060.9107572000003,2060.9107572000003,2060.9107572000003,2060.9107572000003,2060.9107572000003,None,None,None,,,,,,,,,,2042.2442094,2042.2442094,None,,2055.4901106,2042.2442094,2042.2442094,,,1,001,2024-07-02_10h05.01.207,robot_cogshifting_sign,2022.2.5,59.963218561736426,
"['R_Base_X_For', 'R_Head_X_Back', 'L_Head_X_For', 'R_Head_Y_For']","{'laterality': 'L_Head_X_For', 'localisation': 'R_Base_X_For', 'movement': 'R_Head_Y_For'}",laterality,"['laterality', 'localisation', 'movement']",L_Head_X_For,2,3,robot,3,False,False,"['robot_stimuli\\R_Base_X_For.mp4', 'robot_stimuli\\R_Head_X_Back.mp4', 'robot_stimuli\\L_Head_X_For.mp4', 'robot_stimuli\\R_Head_Y_For.mp4']",robot_stimuli\L_Head_X_For.mp4,1,,,,,,,,,,,,,0,77,77,77,,,,,,,,,,,,,,,,,,,2060.9107572000003,2062.9813182000003,,,2077.6362549,2077.6362549,2077.6362549,3,2.1759429999999043,2079.8441242000004,2079.8441242000004,2079.8441242000004,2079.8441242000004,2079.8441242000004,2079.8441242000004,2079.8441242000004,2079.8441242000004,None,None,None,,,,,,,,,,2060.9107572000003,2060.9107572000003,None,,2073.9893487000004,2060.9107572000003,2060.9107572000003,,,1,001,2024-07-02_10h05.01.207,robot_cogshifting_sign,2022.2.5,59.963218561736426,
"['L_Torso_Y_Back', 'R_Torso_Z_Back', 'L_Torso_Z_For', 'L_Base_Z_For']","{'laterality': 'R_Torso_Z_Back', 'localisation': 'L_Base_Z_For', 'movement': 'L_Torso_Y_Back'}",laterality,"['laterality', 'localisation', 'movement']",R_Torso_Z_Back,1,3,robot,3,False,False,"['robot_stimuli\\L_Torso_Y_Back.mp4', 'robot_stimuli\\R_Torso_Z_Back.mp4', 'robot_stimuli\\L_Torso_Z_For.mp4', 'robot_stimuli\\L_Base_Z_For.mp4']",robot_stimuli\R_Torso_Z_Back.mp4,1,,,,,,,,,,,,,0,78,78,78,,,,,,,,,,,,,,,,,,,2079.8441242000004,2081.9184385000003,,,2096.6176734,2096.6176734,2096.6176734,2,1.9150086999999871,2098.5608770000003,2098.5608770000003,2098.5608770000003,2098.5608770000003,2098.5608770000003,2098.5608770000003,2098.5608770000003,2098.5608770000003,None,None,None,,,,,,,,,,2079.8441242000004,2079.8441242000004,None,,2092.982112,2079.8441242000004,2079.8441242000004,,,1,001,2024-07-02_10h05.01.207,robot_cogshifting_sign,2022.2.5,59.963218561736426,
"['L_Head_Z_Back', 'R_Head_Y_For', 'R_Head_Z_For', 'R_Torso_Z_Back']","{'laterality': 'L_Head_Z_Back', 'localisation': 'R_Torso_Z_Back', 'movement': 'R_Head_Y_For'}",localisation,"['laterality', 'localisation', 'movement']",R_Torso_Z_Back,3,3,robot,3,False,False,"['robot_stimuli\\L_Head_Z_Back.mp4', 'robot_stimuli\\R_Head_Y_For.mp4', 'robot_stimuli\\R_Head_Z_For.mp4', 'robot_stimuli\\R_Torso_Z_Back.mp4']",robot_stimuli\R_Torso_Z_Back.mp4,1,,,,,,,,,,,,,0,79,79,79,,,,,,,,,,,,,,,,,,,2098.5608770000003,2100.6495936,,,2115.4537906,2115.4537906,2115.4537906,4,2.7031926000001363,2118.1775383000004,2118.1775383000004,2118.1775383000004,2118.1775383000004,2118.1775383000004,2118.1775383000004,2118.1775383000004,2118.1775383000004,None,None,None,,,,,,,,,,2098.5608770000003,2098.5608770000003,None,,2111.8075729,2098.5608770000003,2098.5608770000003,,,1,001,2024-07-02_10h05.01.207,robot_cogshifting_sign,2022.2.5,59.963218561736426,
"['R_Base_Y_For', 'L_Base_Y_Back', 'L_Torso_Y_Back', 'L_Base_X_Back']","{'laterality': 'R_Base_Y_For', 'localisation': 'L_Torso_Y_Back', 'movement': 'L_Base_X_Back'}",localisation,"['laterality', 'localisation', 'movement']",L_Torso_Y_Back,2,3,robot,3,False,True,"['robot_stimuli\\R_Base_Y_For.mp4', 'robot_stimuli\\L_Base_Y_Back.mp4', 'robot_stimuli\\L_Torso_Y_Back.mp4', 'robot_stimuli\\L_Base_X_Back.mp4']",robot_stimuli\L_Torso_Y_Back.mp4,1,,,,,,,,,,,,,0,80,80,80,,,,,,,,,,,,,,,,,,,2118.1775383000004,2120.2541591000004,,,2134.8193108,2134.8193108,2134.8193108,3,5.049278700000002,2139.9199414,2143.8872061,2139.9199414,2143.8872061,2139.9199414,2143.8872061,2139.9199414,2143.8872061,36.79012345679013,2.6505113999996865,space,,,3.9074443999999744,,,,,,,2118.1775383000004,2118.1775383000004,None,,2131.2214055,2118.1775383000004,2118.1775383000004,,,1,001,2024-07-02_10h05.01.207,robot_cogshifting_sign,2022.2.5,59.963218561736426,
"['blue_right_T_45', 'blue_bottom_T_45', 'red_bottom_W_45', 'blue_bottom_M_0']","{'color': 'red_bottom_W_45', 'position': 'blue_right_T_45', 'orientation': 'blue_bottom_M_0'}",orientation,"['color', 'orientation', 'position']",blue_bottom_M_0,3,3,letter,4,True,False,"['robot_stimuli\\\\filler.mp4', 'robot_stimuli\\\\filler.mp4', 'robot_stimuli\\\\filler.mp4', 'robot_stimuli\\\\filler.mp4']",robot_stimuli\\filler.mp4,1,,,,,,,,,,,,,0,81,81,81,,,,,,,,,,,,,,,,,,,2149.9608877,2152.0165562,,,2160.8892869,2160.8892869,2160.8892869,4,2.1157457999999565,2163.0275446,2163.0275446,2163.0275446,2163.0275446,2163.0275446,2163.0275446,2163.0275446,2163.0275446,None,None,None,,,,,,,,,,2143.8872061,2143.8872061,space,6.0458885999998415,,,,2158.8604902,2160.8892869,1,001,2024-07-02_10h05.01.207,robot_cogshifting_sign,2022.2.5,59.963218561736426,
"['red_top_Z_0', 'red_top_S_45', 'blue_top_L_0', 'red_left_M_0']","{'color': 'blue_top_L_0', 'position': 'red_left_M_0', 'orientation': 'red_top_S_45'}",color,"['color', 'orientation', 'position']",blue_top_L_0,2,3,letter,4,False,False,"['robot_stimuli\\\\filler.mp4', 'robot_stimuli\\\\filler.mp4', 'robot_stimuli\\\\filler.mp4', 'robot_stimuli\\\\filler.mp4']",robot_stimuli\\filler.mp4,1,,,,,,,,,,,,,0,82,82,82,,,,,,,,,,,,,,,,,,,2163.0275446,2165.088118,,,2173.7577875,2173.7577875,2173.7577875,3,1.7746484000001033,2175.5611453,2175.5611453,2175.5611453,2175.5611453,2175.5611453,2175.5611453,2175.5611453,2175.5611453,None,None,None,,,,,,,,,,2163.0275446,2163.0275446,None,,,2163.0275446,2163.0275446,2171.7422690000003,2173.7577875,1,001,2024-07-02_10h05.01.207,robot_cogshifting_sign,2022.2.5,59.963218561736426,
"['blue_top_X_45', 'red_right_Z_45', 'blue_right_H_45', 'blue_right_Q_0']","{'color': 'red_right_Z_45', 'position': 'blue_top_X_45', 'orientation': 'blue_right_Q_0'}",position,"['color', 'orientation', 'position']",blue_top_X_45,0,3,letter,4,False,False,"['robot_stimuli\\\\filler.mp4', 'robot_stimuli\\\\filler.mp4', 'robot_stimuli\\\\filler.mp4', 'robot_stimuli\\\\filler.mp4']",robot_stimuli\\filler.mp4,1,,,,,,,,,,,,,0,83,83,83,,,,,,,,,,,,,,,,,,,2175.5611453,2177.6143822000004,,,2186.0902925,2186.0902925,2186.0902925,1,1.9453344999998876,2188.0610025,2188.0610025,2188.0610025,2188.0610025,2188.0610025,2188.0610025,2188.0610025,2188.0610025,None,None,None,,,,,,,,,,2175.5611453,2175.5611453,None,,,2175.5611453,2175.5611453,2184.07609,2186.0902925,1,001,2024-07-02_10h05.01.207,robot_cogshifting_sign,2022.2.5,59.963218561736426,
"['blue_top_Z_0', 'blue_top_M_45', 'blue_left_Z_45', 'red_top_P_45']","{'color': 'red_top_P_45', 'position': 'blue_left_Z_45', 'orientation': 'blue_top_Z_0'}",color,"['color', 'orientation', 'position']",red_top_P_45,3,3,letter,4,False,False,"['robot_stimuli\\\\filler.mp4', 'robot_stimuli\\\\filler.mp4', 'robot_stimuli\\\\filler.mp4', 'robot_stimuli\\\\filler.mp4']",robot_stimuli\\filler.mp4,1,,,,,,,,,,,,,0,84,84,84,,,,,,,,,,,,,,,,,,,2188.0610025,2190.1187488,,,2198.7923947000004,2198.7923947000004,2198.7923947000004,4,1.7568001000001345,2200.5776403,2200.5776403,2200.5776403,2200.5776403,2200.5776403,2200.5776403,2200.5776403,2200.5776403,None,None,None,,,,,,,,,,2188.0610025,2188.0610025,None,,,2188.0610025,2188.0610025,2196.7754437000003,2198.7923947000004,1,001,2024-07-02_10h05.01.207,robot_cogshifting_sign,2022.2.5,59.963218561736426,
"['blue_right_S_0', 'blue_right_N_45', 'red_right_T_45', 'blue_top_J_45']","{'color': 'red_right_T_45', 'position': 'blue_top_J_45', 'orientation': 'blue_right_S_0'}",orientation,"['color', 'orientation', 'position']",blue_right_S_0,0,3,letter,4,False,False,"['robot_stimuli\\\\filler.mp4', 'robot_stimuli\\\\filler.mp4', 'robot_stimuli\\\\filler.mp4', 'robot_stimuli\\\\filler.mp4']",robot_stimuli\\filler.mp4,1,,,,,,,,,,,,,0,85,85,85,,,,,,,,,,,,,,,,,,,2200.5776403,2202.6340609000003,,,2211.310957,2211.310957,2211.310957,1,2.5662331000000336,2213.8945151000003,2213.8945151000003,2213.8945151000003,2213.8945151000003,2213.8945151000003,2213.8945151000003,2213.8945151000003,2213.8945151000003,None,None,None,,,,,,,,,,2200.5776403,2200.5776403,None,,,2200.5776403,2200.5776403,2209.2908568000003,2211.310957,1,001,2024-07-02_10h05.01.207,robot_cogshifting_sign,2022.2.5,59.963218561736426,
"['blue_bottom_L_0', 'red_bottom_T_45', 'red_left_J_0', 'red_bottom_R_0']","{'color': 'blue_bottom_L_0', 'position': 'red_left_J_0', 'orientation': 'red_bottom_T_45'}",color,"['color', 'orientation', 'position']",blue_bottom_L_0,0,3,letter,4,False,False,"['robot_stimuli\\\\filler.mp4', 'robot_stimuli\\\\filler.mp4', 'robot_stimuli\\\\filler.mp4', 'robot_stimuli\\\\filler.mp4']",robot_stimuli\\filler.mp4,1,,,,,,,,,,,,,0,86,86,86,,,,,,,,,,,,,,,,,,,2213.8945151000003,2215.9553012,,,2224.8332611,2224.8332611,2224.8332611,1,1.5460016999997492,2226.4109939,2226.4109939,2226.4109939,2226.4109939,2226.4109939,2226.4109939,2226.4109939,2226.4109939,None,None,None,,,,,,,,,,2213.8945151000003,2213.8945151000003,None,,,2213.8945151000003,2213.8945151000003,2222.6122954,2224.8332611,1,001,2024-07-02_10h05.01.207,robot_cogshifting_sign,2022.2.5,59.963218561736426,
"['red_left_R_0', 'blue_left_D_45', 'red_top_N_45', 'red_left_X_45']","{'color': 'blue_left_D_45', 'position': 'red_top_N_45', 'orientation': 'red_left_R_0'}",orientation,"['color', 'orientation', 'position']",red_left_R_0,0,3,letter,4,False,False,"['robot_stimuli\\\\filler.mp4', 'robot_stimuli\\\\filler.mp4', 'robot_stimuli\\\\filler.mp4', 'robot_stimuli\\\\filler.mp4']",robot_stimuli\\filler.mp4,1,,,,,,,,,,,,,0,87,87,87,,,,,,,,,,,,,,,,,,,2226.4109939,2228.4632668000004,,,2237.3500586,2237.3500586,2237.3500586,1,2.7985701999998014,2240.1778200000003,2240.1778200000003,2240.1778200000003,2240.1778200000003,2240.1778200000003,2240.1778200000003,2240.1778200000003,2240.1778200000003,None,None,None,,,,,,,,,,2226.4109939,2226.4109939,None,,,2226.4109939,2226.4109939,2235.1300061,2237.3500586,1,001,2024-07-02_10h05.01.207,robot_cogshifting_sign,2022.2.5,59.963218561736426,
"['red_bottom_G_0', 'red_right_P_45', 'blue_bottom_S_45', 'red_bottom_X_45']","{'color': 'blue_bottom_S_45', 'position': 'red_right_P_45', 'orientation': 'red_bottom_G_0'}",position,"['color', 'orientation', 'position']",red_right_P_45,1,3,letter,4,False,False,"['robot_stimuli\\\\filler.mp4', 'robot_stimuli\\\\filler.mp4', 'robot_stimuli\\\\filler.mp4', 'robot_stimuli\\\\filler.mp4']",robot_stimuli\\filler.mp4,1,,,,,,,,,,,,,0,88,88,88,,,,,,,,,,,,,,,,,,,2240.1778200000003,2242.2385046,,,2250.9059304,2250.9059304,2250.9059304,2,2.0898946000003775,2253.0279399,2253.0279399,2253.0279399,2253.0279399,2253.0279399,2253.0279399,2253.0279399,2253.0279399,None,None,None,,,,,,,,,,2240.1778200000003,2240.1778200000003,None,,,2240.1778200000003,2240.1778200000003,2248.8912183,2250.9059304,1,001,2024-07-02_10h05.01.207,robot_cogshifting_sign,2022.2.5,59.963218561736426,
"['blue_bottom_N_45', 'blue_right_P_45', 'blue_right_Z_0', 'red_right_B_45']","{'color': 'red_right_B_45', 'position': 'blue_bottom_N_45', 'orientation': 'blue_right_Z_0'}",position,"['color', 'orientation', 'position']",blue_bottom_N_45,0,3,letter,4,False,True,"['robot_stimuli\\\\filler.mp4', 'robot_stimuli\\\\filler.mp4', 'robot_stimuli\\\\filler.mp4', 'robot_stimuli\\\\filler.mp4']",robot_stimuli\\filler.mp4,1,,,,,,,,,,,,,0,89,89,89,,,,,,,,,,,,,,,,,,,2253.0279399,2255.0847546,,,2263.7727915,2263.7727915,2263.7727915,1,2.152163399999779,2265.969709,2269.6949827000003,2265.969709,2269.6949827000003,2265.969709,2269.6949827000003,2265.969709,2269.6949827000003,31.234567901234563,2.62605080000003,space,,,3.6660693000000606,,,,,,,2253.0279399,2253.0279399,None,,,2253.0279399,2253.0279399,2261.7610756000004,2263.7727915,1,001,2024-07-02_10h05.01.207,robot_cogshifting_sign,2022.2.5,59.963218561736426,
"['red_left_T_0', 'red_top_Q_0', 'red_left_W_45', 'blue_left_Q_0']","{'color': 'blue_left_Q_0', 'position': 'red_top_Q_0', 'orientation': 'red_left_W_45'}",orientation,['orientation'],red_left_W_45,2,1,letter,4,True,False,"['robot_stimuli\\\\filler.mp4', 'robot_stimuli\\\\filler.mp4', 'robot_stimuli\\\\filler.mp4', 'robot_stimuli\\\\filler.mp4']",robot_stimuli\\filler.mp4,1,,,,,,,,,,,,,0,90,90,90,,,,,,,,,,,,,,,,,,,2271.5610012,2273.6167990000004,,,2282.0973397000002,2282.0973397000002,2282.0973397000002,3,0.3460650999997483,2282.4609704,2282.4609704,2282.4609704,2282.4609704,2282.4609704,2282.4609704,2282.4609704,2282.4609704,None,None,None,,,,,,,,,,2269.6949827000003,2269.6949827000003,space,1.8459959000003323,,,,2280.0707555000004,2282.0973397000002,1,001,2024-07-02_10h05.01.207,robot_cogshifting_sign,2022.2.5,59.963218561736426,
"['red_right_V_0', 'red_right_X_45', 'red_bottom_Q_45', 'blue_right_Z_45']","{'color': 'blue_right_Z_45', 'position': 'red_bottom_Q_45', 'orientation': 'red_right_V_0'}",position,['position'],red_bottom_Q_45,2,1,letter,4,False,False,"['robot_stimuli\\\\filler.mp4', 'robot_stimuli\\\\filler.mp4', 'robot_stimuli\\\\filler.mp4', 'robot_stimuli\\\\filler.mp4']",robot_stimuli\\filler.mp4,1,,,,,,,,,,,,,0,91,91,91,,,,,,,,,,,,,,,,,,,2282.4609704,2284.5250877000003,,,2293.4004526000003,2293.4004526000003,2293.4004526000003,3,1.2601335000001086,2294.6776805,2294.6776805,2294.6776805,2294.6776805,2294.6776805,2294.6776805,2294.6776805,2294.6776805,None,None,None,,,,,,,,,,2282.4609704,2282.4609704,None,,,2282.4609704,2282.4609704,2291.1796707000003,2293.4004526000003,1,001,2024-07-02_10h05.01.207,robot_cogshifting_sign,2022.2.5,59.963218561736426,
"['blue_top_B_0', 'blue_right_T_0', 'red_right_J_0', 'blue_right_G_45']","{'color': 'red_right_J_0', 'position': 'blue_top_B_0', 'orientation': 'blue_right_G_45'}",orientation,['orientation'],blue_right_G_45,3,1,letter,4,False,False,"['robot_stimuli\\\\filler.mp4', 'robot_stimuli\\\\filler.mp4', 'robot_stimuli\\\\filler.mp4', 'robot_stimuli\\\\filler.mp4']",robot_stimuli\\filler.mp4,1,,,,,,,,,,,,,0,92,92,92,,,,,,,,,,,,,,,,,,,2294.6776805,2296.7379731,,,2305.6210486,2305.6210486,2305.6210486,4,0.9273926000002461,2306.5779906000002,2306.5779906000002,2306.5779906000002,2306.5779906000002,2306.5779906000002,2306.5779906000002,2306.5779906000002,2306.5779906000002,None,None,None,,,,,,,,,,2294.6776805,2294.6776805,None,,,2294.6776805,2294.6776805,2303.4020228,2305.6210486,1,001,2024-07-02_10h05.01.207,robot_cogshifting_sign,2022.2.5,59.963218561736426,
