sequence,is_target,condition,stimuli,block,is_block_beginning,is_block_ending,fname,subject,retraining.thisRepN,retraining.thisTrialN,retraining.thisN,retraining.thisIndex,training.thisRepN,training.thisTrialN,training.thisN,training.thisIndex,trials.thisRepN,trials.thisTrialN,trials.thisN,trials.thisIndex,langage_text.started,langage_key.started,langage_key.keys,langage_key.rt,intro_text.started,intro_key.started,intro_key.keys,intro_key.rt,training_robot_intro_text.started,training_robot_intro_key.started,training_robot_intro_key.keys,training_robot_intro_key.rt,cross.started,cross.stopped,training_letter.started,training_robot_key.started,training_robot_question.started,training_robot_keys.started,training_letter.stopped,training_robot_key.keys,RSME_labels.started,RSME_labels.stopped,RSME_ticks.started,RSME_ticks.stopped,RSME_text.started,RSME_text.stopped,RSME_key.started,RSME_key.stopped,RSME_ticks.response,RSME_ticks.rt,RSME_key.keys,training_robot_intro_text.stopped,training_robot_intro_key.stopped,training_robot_key.rt,RSME_key.rt,training_robot_movie.started,experiment_beginning_text.started,experiment_beginning_keys.started,experiment_beginning_key.started,experiment_beginning_key.keys,experiment_beginning_key.rt,block_intro_text.started,block_intro_key.started,block_intro_key.keys,block_intro_key.rt,movie.started,key.started,key.keys,block_intro_text.stopped,block_intro_key.stopped,key.rt,letter.started,letter.stopped,participant,session,date,expName,psychopyVersion,frameRate,
,,,,,,,,,,,,,,,,,,,,,12.445935499999905,12.445935499999905,f,1.012620900000229,,,,,,,,,,,,,,,,,,,,,,,,,,,,,,,,,,,,,,,,,,,,,,,,,,23,001,2024-08-01_10h04.23.152,robot_nback_sign,2022.2.5,59.99642421309046,
,,,,,,,,,,,,,,,,,,,,,,,,,13.52162989999988,13.52162989999988,space,54.480776400000195,,,,,,,,,,,,,,,,,,,,,,,,,,,,,,,,,,,,,,,,,,,,,,23,001,2024-08-01_10h04.23.152,robot_nback_sign,2022.2.5,59.99642421309046,
C,False,1,letter,2,True,False,robot_stimuli\\filler.mp4,23,0,0,0,0,0,0,0,0,,,,,,,,,,,,,68.05927309999993,68.05927309999993,space,1.8635042000000794,69.94816019999985,71.26722309999991,71.26722309999991,71.26722309999991,71.26722309999991,71.26722309999991,73.59175839999989,None,73.59175839999989,73.59175839999989,73.59175839999989,73.59175839999989,73.59175839999989,73.59175839999989,73.59175839999989,73.59175839999989,None,None,None,,,,,,,,,,,,,,,,,,,,,,,23,001,2024-08-01_10h04.23.152,robot_nback_sign,2022.2.5,59.99642421309046,
C,True,1,letter,2,False,False,robot_stimuli\\filler.mp4,23,0,0,0,0,0,1,1,1,,,,,,,,,,,,,73.59175839999989,73.59175839999989,None,,73.59175839999989,,74.66049369999996,74.66049369999996,74.66049369999996,74.66049369999996,76.69513499999994,c,76.69513499999994,76.69513499999994,76.69513499999994,76.69513499999994,76.69513499999994,76.69513499999994,76.69513499999994,76.69513499999994,None,None,None,73.59175839999989,73.59175839999989,1.2365927999999258,,,,,,,,,,,,,,,,,,,,23,001,2024-08-01_10h04.23.152,robot_nback_sign,2022.2.5,59.99642421309046,
K,False,1,letter,2,False,False,robot_stimuli\\filler.mp4,23,0,0,0,0,0,2,2,2,,,,,,,,,,,,,76.69513499999994,76.69513499999994,None,,76.69513499999994,77.76515619999986,77.76515619999986,77.76515619999986,77.76515619999986,77.76515619999986,79.8010342,n,79.8010342,79.8010342,79.8010342,79.8010342,79.8010342,79.8010342,79.8010342,79.8010342,None,None,None,76.69513499999994,76.69513499999994,1.084414200000083,,,,,,,,,,,,,,,,,,,,23,001,2024-08-01_10h04.23.152,robot_nback_sign,2022.2.5,59.99642421309046,
K,True,1,letter,2,False,False,robot_stimuli\\filler.mp4,23,0,0,0,0,0,3,3,3,,,,,,,,,,,,,79.8010342,79.8010342,None,,79.8010342,,80.87827369999991,80.87827369999991,80.87827369999991,80.87827369999991,82.90651759999992,c,82.90651759999992,82.90651759999992,82.90651759999992,82.90651759999992,82.90651759999992,82.90651759999992,82.90651759999992,82.90651759999992,None,None,None,79.8010342,79.8010342,1.8267692000001716,,,,,,,,,,,,,,,,,,,,23,001,2024-08-01_10h04.23.152,robot_nback_sign,2022.2.5,59.99642421309046,
H,False,1,letter,2,False,False,robot_stimuli\\filler.mp4,23,0,0,0,0,0,4,4,4,,,,,,,,,,,,,82.90651759999992,82.90651759999992,None,,82.90651759999992,83.98728219999998,83.98728219999998,83.98728219999998,83.98728219999998,83.98728219999998,86.22000129999992,n,86.22000129999992,86.22000129999992,86.22000129999992,86.22000129999992,86.22000129999992,86.22000129999992,86.22000129999992,86.22000129999992,None,None,None,82.90651759999992,82.90651759999992,1.565828300000021,,,,,,,,,,,,,,,,,,,,23,001,2024-08-01_10h04.23.152,robot_nback_sign,2022.2.5,59.99642421309046,
C,False,1,letter,2,False,True,robot_stimuli\\filler.mp4,23,0,0,0,0,0,5,5,5,,,,,,,,,,,,,86.22000129999992,86.22000129999992,None,,86.22000129999992,87.30194519999986,87.30194519999986,87.30194519999986,87.30194519999986,87.30194519999986,89.58709499999986,n,89.58709499999986,94.61971329999983,89.58709499999986,94.61971329999983,89.58709499999986,94.61971329999983,89.58709499999986,94.61971329999983,7.469135802469132,4.2073058999999375,space,86.22000129999992,86.22000129999992,1.66900180000016,4.974242499999946,,,,,,,,,,,,,,,,,,,23,001,2024-08-01_10h04.23.152,robot_nback_sign,2022.2.5,59.99642421309046,
S,False,2,letter,2,True,False,robot_stimuli\\filler.mp4,23,0,0,0,0,0,6,6,6,,,,,,,,,,,,,94.61971329999983,94.61971329999983,space,5.09434750000014,99.73157359999982,100.8013011999999,100.8013011999999,100.8013011999999,100.8013011999999,100.8013011999999,103.03140619999999,n,103.03140619999999,103.03140619999999,103.03140619999999,103.03140619999999,103.03140619999999,103.03140619999999,103.03140619999999,103.03140619999999,None,None,None,,,1.5197465000001102,,,,,,,,,,,,,,,,,,,,23,001,2024-08-01_10h04.23.152,robot_nback_sign,2022.2.5,59.99642421309046,
Q,False,2,letter,2,False,False,robot_stimuli\\filler.mp4,23,0,0,0,0,0,7,7,7,,,,,,,,,,,,,103.03140619999999,103.03140619999999,None,,103.03140619999999,104.0988620999999,104.0988620999999,104.0988620999999,104.0988620999999,104.0988620999999,106.12905049999995,n,106.12905049999995,106.12905049999995,106.12905049999995,106.12905049999995,106.12905049999995,106.12905049999995,106.12905049999995,106.12905049999995,None,None,None,103.03140619999999,103.03140619999999,1.311643600000025,,,,,,,,,,,,,,,,,,,,23,001,2024-08-01_10h04.23.152,robot_nback_sign,2022.2.5,59.99642421309046,
S,True,2,letter,2,False,False,robot_stimuli\\filler.mp4,23,0,0,0,0,0,8,8,8,,,,,,,,,,,,,106.12905049999995,106.12905049999995,None,,106.12905049999995,107.19496659999982,107.19496659999982,107.19496659999982,107.19496659999982,107.19496659999982,109.22765519999984,c,109.22765519999984,109.22765519999984,109.22765519999984,109.22765519999984,109.22765519999984,109.22765519999984,109.22765519999984,109.22765519999984,None,None,None,106.12905049999995,106.12905049999995,1.9360326000000896,,,,,,,,,,,,,,,,,,,,23,001,2024-08-01_10h04.23.152,robot_nback_sign,2022.2.5,59.99642421309046,
F,False,2,letter,2,False,False,robot_stimuli\\filler.mp4,23,0,0,0,0,0,9,9,9,,,,,,,,,,,,,109.22765519999984,109.22765519999984,None,,109.22765519999984,110.2967299999998,110.2967299999998,110.2967299999998,110.2967299999998,110.2967299999998,112.33390220000001,n,112.33390220000001,112.33390220000001,112.33390220000001,112.33390220000001,112.33390220000001,112.33390220000001,112.33390220000001,112.33390220000001,None,None,None,109.22765519999984,109.22765519999984,1.1781650000000354,,,,,,,,,,,,,,,,,,,,23,001,2024-08-01_10h04.23.152,robot_nback_sign,2022.2.5,59.99642421309046,
N,False,2,letter,2,False,False,robot_stimuli\\filler.mp4,23,0,0,0,0,0,10,10,10,,,,,,,,,,,,,112.33390220000001,112.33390220000001,None,,112.33390220000001,,113.41474259999995,113.41474259999995,113.41474259999995,113.41474259999995,115.4477301999998,n,115.4477301999998,115.4477301999998,115.4477301999998,115.4477301999998,115.4477301999998,115.4477301999998,115.4477301999998,115.4477301999998,None,None,None,112.33390220000001,112.33390220000001,0.9635064000001421,,,,,,,,,,,,,,,,,,,,23,001,2024-08-01_10h04.23.152,robot_nback_sign,2022.2.5,59.99642421309046,
F,True,2,letter,2,False,True,robot_stimuli\\filler.mp4,23,0,0,0,0,0,11,11,11,,,,,,,,,,,,,115.4477301999998,115.4477301999998,None,,115.4477301999998,116.51219229999992,116.51219229999992,116.51219229999992,116.51219229999992,116.51219229999992,118.57697259999986,None,118.57697259999986,124.82537949999983,118.57697259999986,124.82537949999983,118.57697259999986,124.82537949999983,118.57697259999986,124.82537949999983,16.882716049382715,4.733485900000005,space,115.4477301999998,115.4477301999998,,6.200086300000066,,,,,,,,,,,,,,,,,,,23,001,2024-08-01_10h04.23.152,robot_nback_sign,2022.2.5,59.99642421309046,
P,False,3,letter,2,True,False,robot_stimuli\\filler.mp4,23,0,0,0,0,0,12,12,12,,,,,,,,,,,,,124.82537949999983,124.82537949999983,space,1.8884673000002294,126.73172239999985,127.80198339999993,127.80198339999993,127.80198339999993,127.80198339999993,127.80198339999993,130.02377409999986,None,130.02377409999986,130.02377409999986,130.02377409999986,130.02377409999986,130.02377409999986,130.02377409999986,130.02377409999986,130.02377409999986,None,None,None,,,,,,,,,,,,,,,,,,,,,,,23,001,2024-08-01_10h04.23.152,robot_nback_sign,2022.2.5,59.99642421309046,
B,False,3,letter,2,False,False,robot_stimuli\\filler.mp4,23,0,0,0,0,0,13,13,13,,,,,,,,,,,,,130.02377409999986,130.02377409999986,None,,130.02377409999986,131.0968381,131.0968381,131.0968381,131.0968381,131.0968381,133.1241505999999,None,133.1241505999999,133.1241505999999,133.1241505999999,133.1241505999999,133.1241505999999,133.1241505999999,133.1241505999999,133.1241505999999,None,None,None,130.02377409999986,130.02377409999986,,,,,,,,,,,,,,,,,,,,,23,001,2024-08-01_10h04.23.152,robot_nback_sign,2022.2.5,59.99642421309046,
L,False,3,letter,2,False,False,robot_stimuli\\filler.mp4,23,0,0,0,0,0,14,14,14,,,,,,,,,,,,,133.1241505999999,133.1241505999999,None,,133.1241505999999,134.1975157999998,134.1975157999998,134.1975157999998,134.1975157999998,134.1975157999998,136.22422269999993,n,136.22422269999993,136.22422269999993,136.22422269999993,136.22422269999993,136.22422269999993,136.22422269999993,136.22422269999993,136.22422269999993,None,None,None,133.1241505999999,133.1241505999999,0.6997279000001981,,,,,,,,,,,,,,,,,,,,23,001,2024-08-01_10h04.23.152,robot_nback_sign,2022.2.5,59.99642421309046,
P,True,3,letter,2,False,False,robot_stimuli\\filler.mp4,23,0,0,0,0,0,15,15,15,,,,,,,,,,,,,136.22422269999993,136.22422269999993,None,,136.22422269999993,137.29560129999982,137.29560129999982,137.29560129999982,137.29560129999982,137.29560129999982,139.3308791999998,c,139.3308791999998,139.3308791999998,139.3308791999998,139.3308791999998,139.3308791999998,139.3308791999998,139.3308791999998,139.3308791999998,None,None,None,136.22422269999993,136.22422269999993,1.1221921999999722,,,,,,,,,,,,,,,,,,,,23,001,2024-08-01_10h04.23.152,robot_nback_sign,2022.2.5,59.99642421309046,
B,True,3,letter,2,False,False,robot_stimuli\\filler.mp4,23,0,0,0,0,0,16,16,16,,,,,,,,,,,,,139.3308791999998,139.3308791999998,None,,139.3308791999998,140.3946630999999,140.3946630999999,140.3946630999999,140.3946630999999,140.3946630999999,142.42138739999996,None,142.42138739999996,142.42138739999996,142.42138739999996,142.42138739999996,142.42138739999996,142.42138739999996,142.42138739999996,142.42138739999996,None,None,None,139.3308791999998,139.3308791999998,,,,,,,,,,,,,,,,,,,,,23,001,2024-08-01_10h04.23.152,robot_nback_sign,2022.2.5,59.99642421309046,
B,False,3,letter,2,False,True,robot_stimuli\\filler.mp4,23,0,0,0,0,0,17,17,17,,,,,,,,,,,,,142.42138739999996,142.42138739999996,None,,142.42138739999996,143.49447509999982,143.49447509999982,143.49447509999982,143.49447509999982,143.49447509999982,145.55386809999982,n,145.55386809999982,148.7501739999998,145.55386809999982,148.7501739999998,145.55386809999982,148.7501739999998,145.55386809999982,148.7501739999998,22.901234567901227,2.224700799999937,space,142.42138739999996,142.42138739999996,1.4844668000000638,3.1513972000000194,,,,,,,,,,,,,,,,,,,23,001,2024-08-01_10h04.23.152,robot_nback_sign,2022.2.5,59.99642421309046,
L_Torso_Z_Back,False,1,robot,1,True,False,robot_stimuli\L_Torso_Z_Back.mp4,23,0,0,0,0,0,18,18,18,,,,,,,,,,,,,148.7501739999998,148.7501739999998,space,3.804548000000068,152.58161359999986,153.6991191999998,,153.6991191999998,153.6991191999998,153.6991191999998,,None,157.19717109999988,157.19717109999988,157.19717109999988,157.19717109999988,157.19717109999988,157.19717109999988,157.19717109999988,157.19717109999988,None,None,None,,,,,153.6991191999998,,,,,,,,,,,,,,,,,,23,001,2024-08-01_10h04.23.152,robot_nback_sign,2022.2.5,59.99642421309046,
L_Torso_Z_Back,True,1,robot,1,False,False,robot_stimuli\L_Torso_Z_Back.mp4,23,0,0,0,0,0,19,19,19,,,,,,,,,,,,,157.19717109999988,157.19717109999988,None,,157.19717109999988,158.28939259999993,,158.28939259999993,158.28939259999993,158.28939259999993,,c,161.7984760999998,161.7984760999998,161.7984760999998,161.7984760999998,161.7984760999998,161.7984760999998,161.7984760999998,161.7984760999998,None,None,None,157.19717109999988,157.19717109999988,1.8405973000001268,,158.28939259999993,,,,,,,,,,,,,,,,,,23,001,2024-08-01_10h04.23.152,robot_nback_sign,2022.2.5,59.99642421309046,
L_Base_Y_Back,False,1,robot,1,False,False,robot_stimuli\L_Base_Y_Back.mp4,23,0,0,0,0,0,20,20,20,,,,,,,,,,,,,161.7984760999998,161.7984760999998,None,,161.7984760999998,162.89307439999993,,162.89307439999993,162.89307439999993,162.89307439999993,,n,166.48336419999987,166.48336419999987,166.48336419999987,166.48336419999987,166.48336419999987,166.48336419999987,166.48336419999987,166.48336419999987,None,None,None,161.7984760999998,161.7984760999998,2.2134651000001213,,162.89307439999993,,,,,,,,,,,,,,,,,,23,001,2024-08-01_10h04.23.152,robot_nback_sign,2022.2.5,59.99642421309046,
L_Arm_X_Back,False,1,robot,1,False,False,robot_stimuli\L_Arm_X_Back.mp4,23,0,0,0,0,0,21,21,21,,,,,,,,,,,,,166.48336419999987,166.48336419999987,None,,166.48336419999987,,,167.59298379999996,167.59298379999996,167.59298379999996,,n,171.24875409999981,171.24875409999981,171.24875409999981,171.24875409999981,171.24875409999981,171.24875409999981,171.24875409999981,171.24875409999981,None,None,None,166.48336419999987,166.48336419999987,1.7285395000001245,,167.59298379999996,,,,,,,,,,,,,,,,,,23,001,2024-08-01_10h04.23.152,robot_nback_sign,2022.2.5,59.99642421309046,
L_Arm_X_Back,True,1,robot,1,False,False,robot_stimuli\L_Arm_X_Back.mp4,23,0,0,0,0,0,22,22,22,,,,,,,,,,,,,171.24875409999981,171.24875409999981,None,,171.24875409999981,172.3394953999998,,172.3394953999998,172.3394953999998,172.3394953999998,,c,175.9823331,175.9823331,175.9823331,175.9823331,175.9823331,175.9823331,175.9823331,175.9823331,None,None,None,171.24875409999981,171.24875409999981,2.1343891000003623,,172.3394953999998,,,,,,,,,,,,,,,,,,23,001,2024-08-01_10h04.23.152,robot_nback_sign,2022.2.5,59.99642421309046,
L_Arm_Z_Back,False,1,robot,1,False,True,robot_stimuli\L_Arm_Z_Back.mp4,23,0,0,0,0,0,23,23,23,,,,,,,,,,,,,175.9823331,175.9823331,None,,175.9823331,177.0742886999999,,177.0742886999999,177.0742886999999,177.0742886999999,,n,180.74552960000005,184.48384569999985,180.74552960000005,184.48384569999985,180.74552960000005,184.48384569999985,180.74552960000005,184.48384569999985,11.944444444444441,2.7325880999997025,space,175.9823331,175.9823331,2.7919847000000573,3.6873841999997694,177.0742886999999,,,,,,,,,,,,,,,,,,23,001,2024-08-01_10h04.23.152,robot_nback_sign,2022.2.5,59.99642421309046,
L_Head_Z_Back,False,2,robot,1,True,False,robot_stimuli\L_Head_Z_Back.mp4,23,0,0,0,0,0,24,24,24,,,,,,,,,,,,,184.48384569999985,184.48384569999985,space,1.6626450000001114,186.1650044999999,187.24838429999977,,187.24838429999977,187.24838429999977,187.24838429999977,,None,190.8988164,190.8988164,190.8988164,190.8988164,190.8988164,190.8988164,190.8988164,190.8988164,None,None,None,,,,,187.24838429999977,,,,,,,,,,,,,,,,,,23,001,2024-08-01_10h04.23.152,robot_nback_sign,2022.2.5,59.99642421309046,
R_Torso_X_For,False,2,robot,1,False,False,robot_stimuli\R_Torso_X_For.mp4,23,0,0,0,0,0,25,25,25,,,,,,,,,,,,,190.8988164,190.8988164,None,,190.8988164,191.9889842,,191.9889842,191.9889842,191.9889842,,n,195.6341004999997,195.6341004999997,195.6341004999997,195.6341004999997,195.6341004999997,195.6341004999997,195.6341004999997,195.6341004999997,None,None,None,190.8988164,190.8988164,3.460597000000007,,191.9889842,,,,,,,,,,,,,,,,,,23,001,2024-08-01_10h04.23.152,robot_nback_sign,2022.2.5,59.99642421309046,
L_Head_Z_Back,True,2,robot,1,False,False,robot_stimuli\L_Head_Z_Back.mp4,23,0,0,0,0,0,26,26,26,,,,,,,,,,,,,195.6341004999997,195.6341004999997,None,,195.6341004999997,,,196.7383183999998,196.7383183999998,196.7383183999998,,None,200.3832058999999,200.3832058999999,200.3832058999999,200.3832058999999,200.3832058999999,200.3832058999999,200.3832058999999,200.3832058999999,None,None,None,195.6341004999997,195.6341004999997,,,196.7383183999998,,,,,,,,,,,,,,,,,,23,001,2024-08-01_10h04.23.152,robot_nback_sign,2022.2.5,59.99642421309046,
R_Torso_X_For,True,2,robot,1,False,False,robot_stimuli\R_Torso_X_For.mp4,23,0,0,0,0,0,27,27,27,,,,,,,,,,,,,200.3832058999999,200.3832058999999,None,,200.3832058999999,,,201.49206499999968,201.49206499999968,201.49206499999968,,n,205.13421689999973,205.13421689999973,205.13421689999973,205.13421689999973,205.13421689999973,205.13421689999973,205.13421689999973,205.13421689999973,None,None,None,200.3832058999999,200.3832058999999,3.5025874000004933,,201.49206499999968,,,,,,,,,,,,,,,,,,23,001,2024-08-01_10h04.23.152,robot_nback_sign,2022.2.5,59.99642421309046,
R_Torso_Y_Back,False,2,robot,1,False,False,robot_stimuli\R_Torso_Y_Back.mp4,23,0,0,0,0,0,28,28,28,,,,,,,,,,,,,205.13421689999973,205.13421689999973,None,,205.13421689999973,,,206.24345100000005,206.24345100000005,206.24345100000005,,n,209.88498379999987,209.88498379999987,209.88498379999987,209.88498379999987,209.88498379999987,209.88498379999987,209.88498379999987,209.88498379999987,None,None,None,205.13421689999973,205.13421689999973,3.1418036000002303,,206.24345100000005,,,,,,,,,,,,,,,,,,23,001,2024-08-01_10h04.23.152,robot_nback_sign,2022.2.5,59.99642421309046,
R_Head_X_For,False,2,robot,1,False,True,robot_stimuli\R_Head_X_For.mp4,23,0,0,0,0,0,29,29,29,,,,,,,,,,,,,209.88498379999987,209.88498379999987,None,,209.88498379999987,210.98869119999995,,210.98869119999995,210.98869119999995,210.98869119999995,,n,214.66583289999994,218.11534909999978,214.66583289999994,218.11534909999978,214.66583289999994,218.11534909999978,214.66583289999994,218.11534909999978,30.925925925925924,2.5396577999999863,space,209.88498379999987,209.88498379999987,2.5741599000000406,3.383278100000325,210.98869119999995,,,,,,,,,,,,,,,,,,23,001,2024-08-01_10h04.23.152,robot_nback_sign,2022.2.5,59.99642421309046,
R_Head_Z_Back,False,3,robot,1,True,False,robot_stimuli\R_Head_Z_Back.mp4,23,0,0,0,0,0,30,30,30,,,,,,,,,,,,,218.11534909999978,218.11534909999978,space,9.0472199000003,227.18208720000007,228.28291620000005,,228.28291620000005,228.28291620000005,228.28291620000005,,n,231.93175169999972,231.93175169999972,231.93175169999972,231.93175169999972,231.93175169999972,231.93175169999972,231.93175169999972,231.93175169999972,None,None,None,,,3.047085400000242,,228.28291620000005,,,,,,,,,,,,,,,,,,23,001,2024-08-01_10h04.23.152,robot_nback_sign,2022.2.5,59.99642421309046,
R_Head_X_For,False,3,robot,1,False,False,robot_stimuli\R_Head_X_For.mp4,23,0,0,0,0,0,31,31,31,,,,,,,,,,,,,231.93175169999972,231.93175169999972,None,,231.93175169999972,233.02507760000003,,233.02507760000003,233.02507760000003,233.02507760000003,,n,236.66761220000012,236.66761220000012,236.66761220000012,236.66761220000012,236.66761220000012,236.66761220000012,236.66761220000012,236.66761220000012,None,None,None,231.93175169999972,231.93175169999972,2.8407463999999436,,233.02507760000003,,,,,,,,,,,,,,,,,,23,001,2024-08-01_10h04.23.152,robot_nback_sign,2022.2.5,59.99642421309046,
R_Arm_Z_Back,False,3,robot,1,False,False,robot_stimuli\R_Arm_Z_Back.mp4,23,0,0,0,0,0,32,32,32,,,,,,,,,,,,,236.66761220000012,236.66761220000012,None,,236.66761220000012,,,237.7744669000001,237.7744669000001,237.7744669000001,,n,241.41628960000003,241.41628960000003,241.41628960000003,241.41628960000003,241.41628960000003,241.41628960000003,241.41628960000003,241.41628960000003,None,None,None,236.66761220000012,236.66761220000012,1.7871557999999368,,237.7744669000001,,,,,,,,,,,,,,,,,,23,001,2024-08-01_10h04.23.152,robot_nback_sign,2022.2.5,59.99642421309046,
R_Head_Z_Back,True,3,robot,1,False,False,robot_stimuli\R_Head_Z_Back.mp4,23,0,0,0,0,0,33,33,33,,,,,,,,,,,,,241.41628960000003,241.41628960000003,None,,241.41628960000003,242.50475949999986,,242.50475949999986,242.50475949999986,242.50475949999986,,c,246.1510108,246.1510108,246.1510108,246.1510108,246.1510108,246.1510108,246.1510108,246.1510108,None,None,None,241.41628960000003,241.41628960000003,2.4738620000000537,,242.50475949999986,,,,,,,,,,,,,,,,,,23,001,2024-08-01_10h04.23.152,robot_nback_sign,2022.2.5,59.99642421309046,
R_Head_X_For,True,3,robot,1,False,False,robot_stimuli\R_Head_X_For.mp4,23,0,0,0,0,0,34,34,34,,,,,,,,,,,,,246.1510108,246.1510108,None,,246.1510108,,,247.25638619999995,247.25638619999995,247.25638619999995,,c,250.8961595999997,250.8961595999997,250.8961595999997,250.8961595999997,250.8961595999997,250.8961595999997,250.8961595999997,250.8961595999997,None,None,None,246.1510108,246.1510108,2.4814245000004576,,247.25638619999995,,,,,,,,,,,,,,,,,,23,001,2024-08-01_10h04.23.152,robot_nback_sign,2022.2.5,59.99642421309046,
R_Base_Z_For,False,3,robot,1,False,True,robot_stimuli\R_Base_Z_For.mp4,23,0,0,0,0,0,35,35,35,,,,,,,,,,,,,250.8961595999997,250.8961595999997,None,,250.8961595999997,251.98166669999978,,251.98166669999978,251.98166669999978,251.98166669999978,,n,255.6546797999997,260.9381995000001,255.6546797999997,260.9381995000001,255.6546797999997,260.9381995000001,255.6546797999997,260.9381995000001,40.03086419753087,4.914657899999838,space,250.8961595999997,250.8961595999997,2.684944100000166,5.218902300000309,251.98166669999978,,,,,,,,,,,,,,,,,,23,001,2024-08-01_10h04.23.152,robot_nback_sign,2022.2.5,59.99642421309046,
,,,,,,,,,0,0,0,0,,,,,,,,,,,,,,,,,,,,,,,,,,,,,,,,,,,,,,,,,,,,,260.9381995000001,260.9381995000001,260.9381995000001,c,2.68842090000021,,,,,,,,,,,,,23,001,2024-08-01_10h04.23.152,robot_nback_sign,2022.2.5,59.99642421309046,
L_Arm_Y_Back,False,1,robot,1,True,False,robot_stimuli\L_Arm_Y_Back.mp4,23,,,,,,,,,0,0,0,0,,,,,,,,,,,,,264.86515989999975,265.9657215,,,,,,,269.61513809999974,269.61513809999974,269.61513809999974,269.61513809999974,269.61513809999974,269.61513809999974,269.61513809999974,269.61513809999974,None,None,None,,,,,,,,,,,263.6865952999999,263.6865952999999,space,1.1468791999998302,265.9657215,265.9657215,None,,,,,,23,001,2024-08-01_10h04.23.152,robot_nback_sign,2022.2.5,59.99642421309046,
R_Head_Z_For,False,1,robot,1,False,False,robot_stimuli\R_Head_Z_For.mp4,23,,,,,,,,,0,1,1,1,,,,,,,,,,,,,269.61513809999974,270.69619480000006,,,,,,,274.34799369999996,274.34799369999996,274.34799369999996,274.34799369999996,274.34799369999996,274.34799369999996,274.34799369999996,274.34799369999996,None,None,None,,,,,,,,,,,269.61513809999974,269.61513809999974,None,,270.69619480000006,270.69619480000006,None,269.61513809999974,269.61513809999974,,,,23,001,2024-08-01_10h04.23.152,robot_nback_sign,2022.2.5,59.99642421309046,
L_Base_Y_For,False,1,robot,1,False,False,robot_stimuli\L_Base_Y_For.mp4,23,,,,,,,,,0,2,2,2,,,,,,,,,,,,,274.34799369999996,275.44301819999987,,,,,,,278.9710757999999,278.9710757999999,278.9710757999999,278.9710757999999,278.9710757999999,278.9710757999999,278.9710757999999,278.9710757999999,None,None,None,,,,,,,,,,,274.34799369999996,274.34799369999996,None,,275.44301819999987,275.44301819999987,None,274.34799369999996,274.34799369999996,,,,23,001,2024-08-01_10h04.23.152,robot_nback_sign,2022.2.5,59.99642421309046,
R_Head_Y_For,False,1,robot,1,False,False,robot_stimuli\R_Head_Y_For.mp4,23,,,,,,,,,0,3,3,3,,,,,,,,,,,,,278.9710757999999,280.0657404000001,,,,,,,283.70598859999996,283.70598859999996,283.70598859999996,283.70598859999996,283.70598859999996,283.70598859999996,283.70598859999996,283.70598859999996,None,None,None,,,,,,,,,,,278.9710757999999,278.9710757999999,None,,280.0657404000001,280.0657404000001,None,278.9710757999999,278.9710757999999,,,,23,001,2024-08-01_10h04.23.152,robot_nback_sign,2022.2.5,59.99642421309046,
R_Head_Y_For,True,1,robot,1,False,False,robot_stimuli\R_Head_Y_For.mp4,23,,,,,,,,,0,4,4,4,,,,,,,,,,,,,283.70598859999996,284.7884176,,,,,,,288.42805299999986,288.42805299999986,288.42805299999986,288.42805299999986,288.42805299999986,288.42805299999986,288.42805299999986,288.42805299999986,None,None,None,,,,,,,,,,,283.70598859999996,283.70598859999996,None,,284.7884176,284.7884176,None,283.70598859999996,283.70598859999996,,,,23,001,2024-08-01_10h04.23.152,robot_nback_sign,2022.2.5,59.99642421309046,
R_Head_Z_For,False,1,robot,1,False,False,robot_stimuli\R_Head_Z_For.mp4,23,,,,,,,,,0,5,5,5,,,,,,,,,,,,,288.42805299999986,289.5099520000001,,,,,,,293.1611083,293.1611083,293.1611083,293.1611083,293.1611083,293.1611083,293.1611083,293.1611083,None,None,None,,,,,,,,,,,288.42805299999986,288.42805299999986,None,,289.5099520000001,289.5099520000001,None,288.42805299999986,288.42805299999986,,,,23,001,2024-08-01_10h04.23.152,robot_nback_sign,2022.2.5,59.99642421309046,
R_Arm_X_For,False,1,robot,1,False,False,robot_stimuli\R_Arm_X_For.mp4,23,,,,,,,,,0,6,6,6,,,,,,,,,,,,,293.1611083,294.2476343000001,,,,,,,297.8973040999997,297.8973040999997,297.8973040999997,297.8973040999997,297.8973040999997,297.8973040999997,297.8973040999997,297.8973040999997,None,None,None,,,,,,,,,,,293.1611083,293.1611083,None,,294.2476343000001,294.2476343000001,None,293.1611083,293.1611083,,,,23,001,2024-08-01_10h04.23.152,robot_nback_sign,2022.2.5,59.99642421309046,
R_Arm_X_For,True,1,robot,1,False,False,robot_stimuli\R_Arm_X_For.mp4,23,,,,,,,,,0,7,7,7,,,,,,,,,,,,,297.8973040999997,298.9694122999997,,,,,,,302.61250989999985,302.61250989999985,302.61250989999985,302.61250989999985,302.61250989999985,302.61250989999985,302.61250989999985,302.61250989999985,None,None,None,,,,,,,,,,,297.8973040999997,297.8973040999997,None,,298.9694122999997,298.9694122999997,None,297.8973040999997,297.8973040999997,,,,23,001,2024-08-01_10h04.23.152,robot_nback_sign,2022.2.5,59.99642421309046,
R_Arm_X_For,True,1,robot,1,False,False,robot_stimuli\R_Arm_X_For.mp4,23,,,,,,,,,0,8,8,8,,,,,,,,,,,,,302.61250989999985,303.68889239999976,,,,,,,307.3270058999999,307.3270058999999,307.3270058999999,307.3270058999999,307.3270058999999,307.3270058999999,307.3270058999999,307.3270058999999,None,None,None,,,,,,,,,,,302.61250989999985,302.61250989999985,None,,303.68889239999976,303.68889239999976,c,302.61250989999985,302.61250989999985,2.7849869999997736,,,23,001,2024-08-01_10h04.23.152,robot_nback_sign,2022.2.5,59.99642421309046,
L_Arm_X_Back,False,1,robot,1,False,False,robot_stimuli\L_Arm_X_Back.mp4,23,,,,,,,,,0,9,9,9,,,,,,,,,,,,,307.3270058999999,308.4048805,,,,,,,312.0506952999997,312.0506952999997,312.0506952999997,312.0506952999997,312.0506952999997,312.0506952999997,312.0506952999997,312.0506952999997,None,None,None,,,,,,,,,,,307.3270058999999,307.3270058999999,None,,308.4048805,308.4048805,n,307.3270058999999,307.3270058999999,3.0535560999999234,,,23,001,2024-08-01_10h04.23.152,robot_nback_sign,2022.2.5,59.99642421309046,
L_Arm_X_Back,True,1,robot,1,False,False,robot_stimuli\L_Arm_X_Back.mp4,23,,,,,,,,,0,10,10,10,,,,,,,,,,,,,312.0506952999997,,,,,,,,316.7930865999999,316.7930865999999,316.7930865999999,316.7930865999999,316.7930865999999,316.7930865999999,316.7930865999999,316.7930865999999,None,None,None,,,,,,,,,,,312.0506952999997,312.0506952999997,None,,313.15355840000007,313.15355840000007,c,312.0506952999997,312.0506952999997,2.6170528000000104,,,23,001,2024-08-01_10h04.23.152,robot_nback_sign,2022.2.5,59.99642421309046,
L_Base_Y_For,False,1,robot,1,False,False,robot_stimuli\L_Base_Y_For.mp4,23,,,,,,,,,0,11,11,11,,,,,,,,,,,,,316.7930865999999,317.87574089999976,,,,,,,321.4151876999997,321.4151876999997,321.4151876999997,321.4151876999997,321.4151876999997,321.4151876999997,321.4151876999997,321.4151876999997,None,None,None,,,,,,,,,,,316.7930865999999,316.7930865999999,None,,317.87574089999976,317.87574089999976,None,316.7930865999999,316.7930865999999,,,,23,001,2024-08-01_10h04.23.152,robot_nback_sign,2022.2.5,59.99642421309046,
L_Torso_X_For,False,1,robot,1,False,False,robot_stimuli\L_Torso_X_For.mp4,23,,,,,,,,,0,12,12,12,,,,,,,,,,,,,321.4151876999997,322.4945915999999,,,,,,,326.1458731,326.1458731,326.1458731,326.1458731,326.1458731,326.1458731,326.1458731,326.1458731,None,None,None,,,,,,,,,,,321.4151876999997,321.4151876999997,None,,322.4945915999999,322.4945915999999,n,321.4151876999997,321.4151876999997,2.2125628999999662,,,23,001,2024-08-01_10h04.23.152,robot_nback_sign,2022.2.5,59.99642421309046,
R_Torso_Y_For,False,1,robot,1,False,False,robot_stimuli\R_Torso_Y_For.mp4,23,,,,,,,,,0,13,13,13,,,,,,,,,,,,,326.1458731,327.22671990000003,,,,,,,330.85782459999996,330.85782459999996,330.85782459999996,330.85782459999996,330.85782459999996,330.85782459999996,330.85782459999996,330.85782459999996,None,None,None,,,,,,,,,,,326.1458731,326.1458731,None,,327.22671990000003,327.22671990000003,n,326.1458731,326.1458731,2.439677300000085,,,23,001,2024-08-01_10h04.23.152,robot_nback_sign,2022.2.5,59.99642421309046,
L_Arm_Z_Back,False,1,robot,1,False,False,robot_stimuli\L_Arm_Z_Back.mp4,23,,,,,,,,,0,14,14,14,,,,,,,,,,,,,330.85782459999996,331.9422649999999,,,,,,,335.5719188999999,335.5719188999999,335.5719188999999,335.5719188999999,335.5719188999999,335.5719188999999,335.5719188999999,335.5719188999999,None,None,None,,,,,,,,,,,330.85782459999996,330.85782459999996,None,,331.9422649999999,331.9422649999999,n,330.85782459999996,330.85782459999996,2.1321715000001404,,,23,001,2024-08-01_10h04.23.152,robot_nback_sign,2022.2.5,59.99642421309046,
L_Base_Z_Back,False,1,robot,1,False,False,robot_stimuli\L_Base_Z_Back.mp4,23,,,,,,,,,0,15,15,15,,,,,,,,,,,,,335.5719188999999,336.6600888999999,,,,,,,340.28901999999994,340.28901999999994,340.28901999999994,340.28901999999994,340.28901999999994,340.28901999999994,340.28901999999994,340.28901999999994,None,None,None,,,,,,,,,,,335.5719188999999,335.5719188999999,None,,336.6600888999999,336.6600888999999,n,335.5719188999999,335.5719188999999,1.8851834999998118,,,23,001,2024-08-01_10h04.23.152,robot_nback_sign,2022.2.5,59.99642421309046,
L_Base_Z_For,False,1,robot,1,False,False,robot_stimuli\L_Base_Z_For.mp4,23,,,,,,,,,0,16,16,16,,,,,,,,,,,,,340.28901999999994,341.38224909999985,,,,,,,345.0224829000001,345.0224829000001,345.0224829000001,345.0224829000001,345.0224829000001,345.0224829000001,345.0224829000001,345.0224829000001,None,None,None,,,,,,,,,,,340.28901999999994,340.28901999999994,None,,341.38224909999985,341.38224909999985,n,340.28901999999994,340.28901999999994,2.0594679000003,,,23,001,2024-08-01_10h04.23.152,robot_nback_sign,2022.2.5,59.99642421309046,
R_Arm_Z_Back,False,1,robot,1,False,False,robot_stimuli\R_Arm_Z_Back.mp4,23,,,,,,,,,0,17,17,17,,,,,,,,,,,,,345.0224829000001,346.1079474999999,,,,,,,349.7493291999997,349.7493291999997,349.7493291999997,349.7493291999997,349.7493291999997,349.7493291999997,349.7493291999997,349.7493291999997,None,None,None,,,,,,,,,,,345.0224829000001,345.0224829000001,None,,346.1079474999999,346.1079474999999,n,345.0224829000001,345.0224829000001,1.2061740000001464,,,23,001,2024-08-01_10h04.23.152,robot_nback_sign,2022.2.5,59.99642421309046,
R_Torso_Z_For,False,1,robot,1,False,False,robot_stimuli\R_Torso_Z_For.mp4,23,,,,,,,,,0,18,18,18,,,,,,,,,,,,,349.7493291999997,350.8208563999999,,,,,,,354.45501420000005,354.45501420000005,354.45501420000005,354.45501420000005,354.45501420000005,354.45501420000005,354.45501420000005,354.45501420000005,None,None,None,,,,,,,,,,,349.7493291999997,349.7493291999997,None,,350.8208563999999,350.8208563999999,n,349.7493291999997,349.7493291999997,1.9016635000000406,,,23,001,2024-08-01_10h04.23.152,robot_nback_sign,2022.2.5,59.99642421309046,
L_Torso_Y_Back,False,1,robot,1,False,False,robot_stimuli\L_Torso_Y_Back.mp4,23,,,,,,,,,0,19,19,19,,,,,,,,,,,,,354.45501420000005,355.54278150000005,,,,,,,359.03951089999987,359.03951089999987,359.03951089999987,359.03951089999987,359.03951089999987,359.03951089999987,359.03951089999987,359.03951089999987,None,None,None,,,,,,,,,,,354.45501420000005,354.45501420000005,None,,355.54278150000005,355.54278150000005,n,354.45501420000005,354.45501420000005,2.0037753999997676,,,23,001,2024-08-01_10h04.23.152,robot_nback_sign,2022.2.5,59.99642421309046,
R_Torso_X_For,False,1,robot,1,False,False,robot_stimuli\R_Torso_X_For.mp4,23,,,,,,,,,0,20,20,20,,,,,,,,,,,,,359.03951089999987,360.1259835999997,,,,,,,363.7650894000001,363.7650894000001,363.7650894000001,363.7650894000001,363.7650894000001,363.7650894000001,363.7650894000001,363.7650894000001,None,None,None,,,,,,,,,,,359.03951089999987,359.03951089999987,None,,360.1259835999997,360.1259835999997,n,359.03951089999987,359.03951089999987,2.971291400000382,,,23,001,2024-08-01_10h04.23.152,robot_nback_sign,2022.2.5,59.99642421309046,
L_Arm_Y_For,False,1,robot,1,False,False,robot_stimuli\L_Arm_Y_For.mp4,23,,,,,,,,,0,21,21,21,,,,,,,,,,,,,363.7650894000001,364.85192219999976,,,,,,,368.4898932999997,368.4898932999997,368.4898932999997,368.4898932999997,368.4898932999997,368.4898932999997,368.4898932999997,368.4898932999997,None,None,None,,,,,,,,,,,363.7650894000001,363.7650894000001,None,,364.85192219999976,364.85192219999976,n,363.7650894000001,363.7650894000001,2.165905800000246,,,23,001,2024-08-01_10h04.23.152,robot_nback_sign,2022.2.5,59.99642421309046,
R_Arm_Z_Back,False,1,robot,1,False,False,robot_stimuli\R_Arm_Z_Back.mp4,23,,,,,,,,,0,22,22,22,,,,,,,,,,,,,368.4898932999997,369.57507899999996,,,,,,,373.21543640000004,373.21543640000004,373.21543640000004,373.21543640000004,373.21543640000004,373.21543640000004,373.21543640000004,373.21543640000004,None,None,None,,,,,,,,,,,368.4898932999997,368.4898932999997,None,,369.57507899999996,369.57507899999996,n,368.4898932999997,368.4898932999997,2.274690999999848,,,23,001,2024-08-01_10h04.23.152,robot_nback_sign,2022.2.5,59.99642421309046,
L_Torso_Y_Back,False,1,robot,1,False,False,robot_stimuli\L_Torso_Y_Back.mp4,23,,,,,,,,,0,23,23,23,,,,,,,,,,,,,373.21543640000004,374.29428129999974,,,,,,,377.8124734999999,377.8124734999999,377.8124734999999,377.8124734999999,377.8124734999999,377.8124734999999,377.8124734999999,377.8124734999999,None,None,None,,,,,,,,,,,373.21543640000004,373.21543640000004,None,,374.29428129999974,374.29428129999974,n,373.21543640000004,373.21543640000004,2.124274800000194,,,23,001,2024-08-01_10h04.23.152,robot_nback_sign,2022.2.5,59.99642421309046,
R_Head_Z_Back,False,1,robot,1,False,False,robot_stimuli\R_Head_Z_Back.mp4,23,,,,,,,,,0,24,24,24,,,,,,,,,,,,,377.8124734999999,378.8940353999999,,,,,,,382.54514670000003,382.54514670000003,382.54514670000003,382.54514670000003,382.54514670000003,382.54514670000003,382.54514670000003,382.54514670000003,None,None,None,,,,,,,,,,,377.8124734999999,377.8124734999999,None,,378.8940353999999,378.8940353999999,n,377.8124734999999,377.8124734999999,2.4360902000000806,,,23,001,2024-08-01_10h04.23.152,robot_nback_sign,2022.2.5,59.99642421309046,
R_Base_X_For,False,1,robot,1,False,False,robot_stimuli\R_Base_X_For.mp4,23,,,,,,,,,0,25,25,25,,,,,,,,,,,,,382.54514670000003,383.63010599999984,,,,,,,387.1807523,387.1807523,387.1807523,387.1807523,387.1807523,387.1807523,387.1807523,387.1807523,None,None,None,,,,,,,,,,,382.54514670000003,382.54514670000003,None,,383.63010599999984,383.63010599999984,n,382.54514670000003,382.54514670000003,1.8845950000002176,,,23,001,2024-08-01_10h04.23.152,robot_nback_sign,2022.2.5,59.99642421309046,
R_Torso_Z_Back,False,1,robot,1,False,False,robot_stimuli\R_Torso_Z_Back.mp4,23,,,,,,,,,0,26,26,26,,,,,,,,,,,,,387.1807523,388.2649730999999,,,,,,,391.91498879999995,391.91498879999995,391.91498879999995,391.91498879999995,391.91498879999995,391.91498879999995,391.91498879999995,391.91498879999995,None,None,None,,,,,,,,,,,387.1807523,387.1807523,None,,388.2649730999999,388.2649730999999,n,387.1807523,387.1807523,2.729227099999889,,,23,001,2024-08-01_10h04.23.152,robot_nback_sign,2022.2.5,59.99642421309046,
L_Base_Z_For,False,1,robot,1,False,False,robot_stimuli\L_Base_Z_For.mp4,23,,,,,,,,,0,27,27,27,,,,,,,,,,,,,391.91498879999995,392.99253870000007,,,,,,,396.6229083999999,396.6229083999999,396.6229083999999,396.6229083999999,396.6229083999999,396.6229083999999,396.6229083999999,396.6229083999999,None,None,None,,,,,,,,,,,391.91498879999995,391.91498879999995,None,,392.99253870000007,392.99253870000007,n,391.91498879999995,391.91498879999995,2.177534700000024,,,23,001,2024-08-01_10h04.23.152,robot_nback_sign,2022.2.5,59.99642421309046,
R_Torso_Y_For,False,1,robot,1,False,False,robot_stimuli\R_Torso_Y_For.mp4,23,,,,,,,,,0,28,28,28,,,,,,,,,,,,,396.6229083999999,397.71266390000005,,,,,,,401.3605305999997,401.3605305999997,401.3605305999997,401.3605305999997,401.3605305999997,401.3605305999997,401.3605305999997,401.3605305999997,None,None,None,,,,,,,,,,,396.6229083999999,396.6229083999999,None,,397.71266390000005,397.71266390000005,n,396.6229083999999,396.6229083999999,2.5049344999999903,,,23,001,2024-08-01_10h04.23.152,robot_nback_sign,2022.2.5,59.99642421309046,
R_Base_Y_Back,False,1,robot,1,False,False,robot_stimuli\R_Base_Y_Back.mp4,23,,,,,,,,,0,29,29,29,,,,,,,,,,,,,401.3605305999997,402.4465561999998,,,,,,,406.0984040999999,406.0984040999999,406.0984040999999,406.0984040999999,406.0984040999999,406.0984040999999,406.0984040999999,406.0984040999999,None,None,None,,,,,,,,,,,401.3605305999997,401.3605305999997,None,,402.4465561999998,402.4465561999998,n,401.3605305999997,401.3605305999997,2.3882254000002376,,,23,001,2024-08-01_10h04.23.152,robot_nback_sign,2022.2.5,59.99642421309046,
R_Arm_Z_Back,False,1,robot,1,False,False,robot_stimuli\R_Arm_Z_Back.mp4,23,,,,,,,,,0,30,30,30,,,,,,,,,,,,,406.0984040999999,407.1910740999999,,,,,,,410.8340192999997,410.8340192999997,410.8340192999997,410.8340192999997,410.8340192999997,410.8340192999997,410.8340192999997,410.8340192999997,None,None,None,,,,,,,,,,,406.0984040999999,406.0984040999999,None,,407.1910740999999,407.1910740999999,n,406.0984040999999,406.0984040999999,2.2596751000003223,,,23,001,2024-08-01_10h04.23.152,robot_nback_sign,2022.2.5,59.99642421309046,
L_Arm_X_Back,False,1,robot,1,False,False,robot_stimuli\L_Arm_X_Back.mp4,23,,,,,,,,,0,31,31,31,,,,,,,,,,,,,410.8340192999997,,,,,,,,415.58263139999985,415.58263139999985,415.58263139999985,415.58263139999985,415.58263139999985,415.58263139999985,415.58263139999985,415.58263139999985,None,None,None,,,,,,,,,,,410.8340192999997,410.8340192999997,None,,411.9399913,411.9399913,n,410.8340192999997,410.8340192999997,1.7904756000004909,,,23,001,2024-08-01_10h04.23.152,robot_nback_sign,2022.2.5,59.99642421309046,
L_Torso_X_Back,False,1,robot,1,False,False,robot_stimuli\L_Torso_X_Back.mp4,23,,,,,,,,,0,32,32,32,,,,,,,,,,,,,415.58263139999985,416.6714181,,,,,,,420.31739760000005,420.31739760000005,420.31739760000005,420.31739760000005,420.31739760000005,420.31739760000005,420.31739760000005,420.31739760000005,None,None,None,,,,,,,,,,,415.58263139999985,415.58263139999985,None,,416.6714181,416.6714181,n,415.58263139999985,415.58263139999985,2.194997299999841,,,23,001,2024-08-01_10h04.23.152,robot_nback_sign,2022.2.5,59.99642421309046,
L_Torso_X_Back,True,1,robot,1,False,False,robot_stimuli\L_Torso_X_Back.mp4,23,,,,,,,,,0,33,33,33,,,,,,,,,,,,,420.31739760000005,,,,,,,,425.06279169999993,425.06279169999993,425.06279169999993,425.06279169999993,425.06279169999993,425.06279169999993,425.06279169999993,425.06279169999993,None,None,None,,,,,,,,,,,420.31739760000005,420.31739760000005,None,,421.4168551999999,421.4168551999999,c,420.31739760000005,420.31739760000005,2.2341484000000946,,,23,001,2024-08-01_10h04.23.152,robot_nback_sign,2022.2.5,59.99642421309046,
L_Torso_X_Back,True,1,robot,1,False,False,robot_stimuli\L_Torso_X_Back.mp4,23,,,,,,,,,0,34,34,34,,,,,,,,,,,,,425.06279169999993,426.1393049999999,,,,,,,429.7795255999997,429.7795255999997,429.7795255999997,429.7795255999997,429.7795255999997,429.7795255999997,429.7795255999997,429.7795255999997,None,None,None,,,,,,,,,,,425.06279169999993,425.06279169999993,None,,426.1393049999999,426.1393049999999,c,425.06279169999993,425.06279169999993,2.0791388999998617,,,23,001,2024-08-01_10h04.23.152,robot_nback_sign,2022.2.5,59.99642421309046,
L_Torso_Y_For,False,1,robot,1,False,False,robot_stimuli\L_Torso_Y_For.mp4,23,,,,,,,,,0,35,35,35,,,,,,,,,,,,,429.7795255999997,430.85893250000004,,,,,,,434.48892009999986,434.48892009999986,434.48892009999986,434.48892009999986,434.48892009999986,434.48892009999986,434.48892009999986,434.48892009999986,None,None,None,,,,,,,,,,,429.7795255999997,429.7795255999997,None,,430.85893250000004,430.85893250000004,n,429.7795255999997,429.7795255999997,1.8322642000000542,,,23,001,2024-08-01_10h04.23.152,robot_nback_sign,2022.2.5,59.99642421309046,
R_Torso_Z_For,False,1,robot,1,False,False,robot_stimuli\R_Torso_Z_For.mp4,23,,,,,,,,,0,36,36,36,,,,,,,,,,,,,434.48892009999986,435.5745285999999,,,,,,,439.21756230000005,439.21756230000005,439.21756230000005,439.21756230000005,439.21756230000005,439.21756230000005,439.21756230000005,439.21756230000005,None,None,None,,,,,,,,,,,434.48892009999986,434.48892009999986,None,,435.5745285999999,435.5745285999999,n,434.48892009999986,434.48892009999986,3.37163009999972,,,23,001,2024-08-01_10h04.23.152,robot_nback_sign,2022.2.5,59.99642421309046,
R_Torso_Z_For,True,1,robot,1,False,False,robot_stimuli\R_Torso_Z_For.mp4,23,,,,,,,,,0,37,37,37,,,,,,,,,,,,,439.21756230000005,,,,,,,,443.96109520000005,443.96109520000005,443.96109520000005,443.96109520000005,443.96109520000005,443.96109520000005,443.96109520000005,443.96109520000005,None,None,None,,,,,,,,,,,439.21756230000005,439.21756230000005,None,,440.3221219999998,440.3221219999998,c,439.21756230000005,439.21756230000005,1.9205148999997164,,,23,001,2024-08-01_10h04.23.152,robot_nback_sign,2022.2.5,59.99642421309046,
R_Head_Z_For,False,1,robot,1,False,False,robot_stimuli\R_Head_Z_For.mp4,23,,,,,,,,,0,38,38,38,,,,,,,,,,,,,443.96109520000005,445.0428764999999,,,,,,,448.67184299999985,448.67184299999985,448.67184299999985,448.67184299999985,448.67184299999985,448.67184299999985,448.67184299999985,448.67184299999985,None,None,None,,,,,,,,,,,443.96109520000005,443.96109520000005,None,,445.0428764999999,445.0428764999999,n,443.96109520000005,443.96109520000005,2.342532500000061,,,23,001,2024-08-01_10h04.23.152,robot_nback_sign,2022.2.5,59.99642421309046,
R_Head_Z_For,True,1,robot,1,False,False,robot_stimuli\R_Head_Z_For.mp4,23,,,,,,,,,0,39,39,39,,,,,,,,,,,,,448.67184299999985,449.75630309999974,,,,,,,453.3958366999998,453.3958366999998,453.3958366999998,453.3958366999998,453.3958366999998,453.3958366999998,453.3958366999998,453.3958366999998,None,None,None,,,,,,,,,,,448.67184299999985,448.67184299999985,None,,449.75630309999974,449.75630309999974,n,448.67184299999985,448.67184299999985,1.997120700000096,,,23,001,2024-08-01_10h04.23.152,robot_nback_sign,2022.2.5,59.99642421309046,
L_Base_Y_For,False,1,robot,1,False,False,robot_stimuli\L_Base_Y_For.mp4,23,,,,,,,,,0,40,40,40,,,,,,,,,,,,,453.3958366999998,454.4763372,,,,,,,458.02692139999976,458.02692139999976,458.02692139999976,458.02692139999976,458.02692139999976,458.02692139999976,458.02692139999976,458.02692139999976,None,None,None,,,,,,,,,,,453.3958366999998,453.3958366999998,None,,454.4763372,454.4763372,n,453.3958366999998,453.3958366999998,2.1743055000004006,,,23,001,2024-08-01_10h04.23.152,robot_nback_sign,2022.2.5,59.99642421309046,
L_Arm_Y_For,False,1,robot,1,False,False,robot_stimuli\L_Arm_Y_For.mp4,23,,,,,,,,,0,41,41,41,,,,,,,,,,,,,458.02692139999976,459.11181969999984,,,,,,,462.7643759,462.7643759,462.7643759,462.7643759,462.7643759,462.7643759,462.7643759,462.7643759,None,None,None,,,,,,,,,,,458.02692139999976,458.02692139999976,None,,459.11181969999984,459.11181969999984,n,458.02692139999976,458.02692139999976,2.0825044000000617,,,23,001,2024-08-01_10h04.23.152,robot_nback_sign,2022.2.5,59.99642421309046,
R_Head_Y_For,False,1,robot,1,False,False,robot_stimuli\R_Head_Y_For.mp4,23,,,,,,,,,0,42,42,42,,,,,,,,,,,,,462.7643759,463.8429678,,,,,,,467.4941366999999,467.4941366999999,467.4941366999999,467.4941366999999,467.4941366999999,467.4941366999999,467.4941366999999,467.4941366999999,None,None,None,,,,,,,,,,,462.7643759,462.7643759,None,,463.8429678,463.8429678,n,462.7643759,462.7643759,1.7509459000000334,,,23,001,2024-08-01_10h04.23.152,robot_nback_sign,2022.2.5,59.99642421309046,
R_Head_Y_For,True,1,robot,1,False,False,robot_stimuli\R_Head_Y_For.mp4,23,,,,,,,,,0,43,43,43,,,,,,,,,,,,,467.4941366999999,468.5701889999998,,,,,,,472.2128111999998,472.2128111999998,472.2128111999998,472.2128111999998,472.2128111999998,472.2128111999998,472.2128111999998,472.2128111999998,None,None,None,,,,,,,,,,,467.4941366999999,467.4941366999999,None,,468.5701889999998,468.5701889999998,c,467.4941366999999,467.4941366999999,1.3993874999998752,,,23,001,2024-08-01_10h04.23.152,robot_nback_sign,2022.2.5,59.99642421309046,
R_Head_X_For,False,1,robot,1,False,False,robot_stimuli\R_Head_X_For.mp4,23,,,,,,,,,0,44,44,44,,,,,,,,,,,,,472.2128111999998,473.29291050000006,,,,,,,476.9322209999998,476.9322209999998,476.9322209999998,476.9322209999998,476.9322209999998,476.9322209999998,476.9322209999998,476.9322209999998,None,None,None,,,,,,,,,,,472.2128111999998,472.2128111999998,None,,473.29291050000006,473.29291050000006,n,472.2128111999998,472.2128111999998,1.7245488999999452,,,23,001,2024-08-01_10h04.23.152,robot_nback_sign,2022.2.5,59.99642421309046,
L_Torso_Z_Back,False,1,robot,1,False,False,robot_stimuli\L_Torso_Z_Back.mp4,23,,,,,,,,,0,45,45,45,,,,,,,,,,,,,476.9322209999998,478.0099727999998,,,,,,,481.50561989999983,481.50561989999983,481.50561989999983,481.50561989999983,481.50561989999983,481.50561989999983,481.50561989999983,481.50561989999983,None,None,None,,,,,,,,,,,476.9322209999998,476.9322209999998,None,,478.0099727999998,478.0099727999998,n,476.9322209999998,476.9322209999998,2.175239399999782,,,23,001,2024-08-01_10h04.23.152,robot_nback_sign,2022.2.5,59.99642421309046,
L_Base_Z_For,False,1,robot,1,False,False,robot_stimuli\L_Base_Z_For.mp4,23,,,,,,,,,0,46,46,46,,,,,,,,,,,,,481.50561989999983,482.5921788999997,,,,,,,486.23216149999985,486.23216149999985,486.23216149999985,486.23216149999985,486.23216149999985,486.23216149999985,486.23216149999985,486.23216149999985,None,None,None,,,,,,,,,,,481.50561989999983,481.50561989999983,None,,482.5921788999997,482.5921788999997,n,481.50561989999983,481.50561989999983,1.9780015999997431,,,23,001,2024-08-01_10h04.23.152,robot_nback_sign,2022.2.5,59.99642421309046,
L_Base_Z_For,True,1,robot,1,False,False,robot_stimuli\L_Base_Z_For.mp4,23,,,,,,,,,0,47,47,47,,,,,,,,,,,,,486.23216149999985,487.3057344000001,,,,,,,490.9457795999999,490.9457795999999,490.9457795999999,490.9457795999999,490.9457795999999,490.9457795999999,490.9457795999999,490.9457795999999,None,None,None,,,,,,,,,,,486.23216149999985,486.23216149999985,None,,487.3057344000001,487.3057344000001,n,486.23216149999985,486.23216149999985,2.225454000000127,,,23,001,2024-08-01_10h04.23.152,robot_nback_sign,2022.2.5,59.99642421309046,
L_Arm_Z_For,False,1,robot,1,False,False,robot_stimuli\L_Arm_Z_For.mp4,23,,,,,,,,,0,48,48,48,,,,,,,,,,,,,490.9457795999999,492.02528929999994,,,,,,,495.6652087,495.6652087,495.6652087,495.6652087,495.6652087,495.6652087,495.6652087,495.6652087,None,None,None,,,,,,,,,,,490.9457795999999,490.9457795999999,None,,492.02528929999994,492.02528929999994,n,490.9457795999999,490.9457795999999,1.5446106000001691,,,23,001,2024-08-01_10h04.23.152,robot_nback_sign,2022.2.5,59.99642421309046,
R_Arm_Z_Back,False,1,robot,1,False,True,robot_stimuli\R_Arm_Z_Back.mp4,23,,,,,,,,,0,49,49,49,,,,,,,,,,,,,495.6652087,496.74299210000004,,,,,,,500.42342159999976,504.49060069999973,500.42342159999976,504.49060069999973,500.42342159999976,504.49060069999973,500.42342159999976,504.49060069999973,15.030864197530864,3.3692756000000372,space,,,,4.002814400000034,,,,,,,495.6652087,495.6652087,None,,496.74299210000004,496.74299210000004,n,495.6652087,495.6652087,1.2676246000003175,,,23,001,2024-08-01_10h04.23.152,robot_nback_sign,2022.2.5,59.99642421309046,
R_Head_X_For,False,2,robot,1,True,False,robot_stimuli\R_Head_X_For.mp4,23,,,,,,,,,0,50,50,50,,,,,,,,,,,,,507.44906749999996,508.5255095,,,,,,,512.1654682000001,512.1654682000001,512.1654682000001,512.1654682000001,512.1654682000001,512.1654682000001,512.1654682000001,512.1654682000001,None,None,None,,,,,,,,,,,504.49060069999973,504.49060069999973,space,2.9266665000002376,508.5255095,508.5255095,None,,,,,,23,001,2024-08-01_10h04.23.152,robot_nback_sign,2022.2.5,59.99642421309046,
R_Torso_Z_For,False,2,robot,1,False,False,robot_stimuli\R_Torso_Z_For.mp4,23,,,,,,,,,0,51,51,51,,,,,,,,,,,,,512.1654682000001,513.2374910000001,,,,,,,516.8808382999998,516.8808382999998,516.8808382999998,516.8808382999998,516.8808382999998,516.8808382999998,516.8808382999998,516.8808382999998,None,None,None,,,,,,,,,,,512.1654682000001,512.1654682000001,None,,513.2374910000001,513.2374910000001,None,512.1654682000001,512.1654682000001,,,,23,001,2024-08-01_10h04.23.152,robot_nback_sign,2022.2.5,59.99642421309046,
L_Arm_Z_For,False,2,robot,1,False,False,robot_stimuli\L_Arm_Z_For.mp4,23,,,,,,,,,0,52,52,52,,,,,,,,,,,,,516.8808382999998,517.9622379,,,,,,,521.6107681999999,521.6107681999999,521.6107681999999,521.6107681999999,521.6107681999999,521.6107681999999,521.6107681999999,521.6107681999999,None,None,None,,,,,,,,,,,516.8808382999998,516.8808382999998,None,,517.9622379,517.9622379,None,516.8808382999998,516.8808382999998,,,,23,001,2024-08-01_10h04.23.152,robot_nback_sign,2022.2.5,59.99642421309046,
R_Torso_Z_For,True,2,robot,1,False,False,robot_stimuli\R_Torso_Z_For.mp4,23,,,,,,,,,0,53,53,53,,,,,,,,,,,,,521.6107681999999,522.6942102999999,,,,,,,526.343791,526.343791,526.343791,526.343791,526.343791,526.343791,526.343791,526.343791,None,None,None,,,,,,,,,,,521.6107681999999,521.6107681999999,None,,522.6942102999999,522.6942102999999,c,521.6107681999999,521.6107681999999,2.644301900000073,,,23,001,2024-08-01_10h04.23.152,robot_nback_sign,2022.2.5,59.99642421309046,
L_Base_Z_For,False,2,robot,1,False,False,robot_stimuli\L_Base_Z_For.mp4,23,,,,,,,,,0,54,54,54,,,,,,,,,,,,,526.343791,527.4258969,,,,,,,531.0641230999997,531.0641230999997,531.0641230999997,531.0641230999997,531.0641230999997,531.0641230999997,531.0641230999997,531.0641230999997,None,None,None,,,,,,,,,,,526.343791,526.343791,None,,527.4258969,527.4258969,None,526.343791,526.343791,,,,23,001,2024-08-01_10h04.23.152,robot_nback_sign,2022.2.5,59.99642421309046,
L_Torso_X_For,False,2,robot,1,False,False,robot_stimuli\L_Torso_X_For.mp4,23,,,,,,,,,0,55,55,55,,,,,,,,,,,,,531.0641230999997,532.1392937999997,,,,,,,535.7728133999997,535.7728133999997,535.7728133999997,535.7728133999997,535.7728133999997,535.7728133999997,535.7728133999997,535.7728133999997,None,None,None,,,,,,,,,,,531.0641230999997,531.0641230999997,None,,532.1392937999997,532.1392937999997,None,531.0641230999997,531.0641230999997,,,,23,001,2024-08-01_10h04.23.152,robot_nback_sign,2022.2.5,59.99642421309046,
R_Head_Y_Back,False,2,robot,1,False,False,robot_stimuli\R_Head_Y_Back.mp4,23,,,,,,,,,0,56,56,56,,,,,,,,,,,,,535.7728133999997,536.8635395999997,,,,,,,540.5136700999999,540.5136700999999,540.5136700999999,540.5136700999999,540.5136700999999,540.5136700999999,540.5136700999999,540.5136700999999,None,None,None,,,,,,,,,,,535.7728133999997,535.7728133999997,None,,536.8635395999997,536.8635395999997,None,535.7728133999997,535.7728133999997,,,,23,001,2024-08-01_10h04.23.152,robot_nback_sign,2022.2.5,59.99642421309046,
L_Arm_Z_Back,False,2,robot,1,False,False,robot_stimuli\L_Arm_Z_Back.mp4,23,,,,,,,,,0,57,57,57,,,,,,,,,,,,,540.5136700999999,541.5923725,,,,,,,545.2313038,545.2313038,545.2313038,545.2313038,545.2313038,545.2313038,545.2313038,545.2313038,None,None,None,,,,,,,,,,,540.5136700999999,540.5136700999999,None,,541.5923725,541.5923725,n,540.5136700999999,540.5136700999999,2.6742099000000508,,,23,001,2024-08-01_10h04.23.152,robot_nback_sign,2022.2.5,59.99642421309046,
R_Head_X_Back,False,2,robot,1,False,False,robot_stimuli\R_Head_X_Back.mp4,23,,,,,,,,,0,58,58,58,,,,,,,,,,,,,545.2313038,546.3140431999998,,,,,,,549.9626843999997,549.9626843999997,549.9626843999997,549.9626843999997,549.9626843999997,549.9626843999997,549.9626843999997,549.9626843999997,None,None,None,,,,,,,,,,,545.2313038,545.2313038,None,,546.3140431999998,546.3140431999998,n,545.2313038,545.2313038,2.359416200000169,,,23,001,2024-08-01_10h04.23.152,robot_nback_sign,2022.2.5,59.99642421309046,
L_Arm_Z_Back,True,2,robot,1,False,False,robot_stimuli\L_Arm_Z_Back.mp4,23,,,,,,,,,0,59,59,59,,,,,,,,,,,,,549.9626843999997,551.0426402999999,,,,,,,554.672456,554.672456,554.672456,554.672456,554.672456,554.672456,554.672456,554.672456,None,None,None,,,,,,,,,,,549.9626843999997,549.9626843999997,None,,551.0426402999999,551.0426402999999,n,549.9626843999997,549.9626843999997,2.6486978999998883,,,23,001,2024-08-01_10h04.23.152,robot_nback_sign,2022.2.5,59.99642421309046,
L_Torso_Y_For,False,2,robot,1,False,False,robot_stimuli\L_Torso_Y_For.mp4,23,,,,,,,,,0,60,60,60,,,,,,,,,,,,,554.672456,555.7590930999997,,,,,,,559.3987541999998,559.3987541999998,559.3987541999998,559.3987541999998,559.3987541999998,559.3987541999998,559.3987541999998,559.3987541999998,None,None,None,,,,,,,,,,,554.672456,554.672456,None,,555.7590930999997,555.7590930999997,n,554.672456,554.672456,2.5468508999999813,,,23,001,2024-08-01_10h04.23.152,robot_nback_sign,2022.2.5,59.99642421309046,
R_Head_Y_For,False,2,robot,1,False,False,robot_stimuli\R_Head_Y_For.mp4,23,,,,,,,,,0,61,61,61,,,,,,,,,,,,,559.3987541999998,560.4787211999999,,,,,,,564.1233958999999,564.1233958999999,564.1233958999999,564.1233958999999,564.1233958999999,564.1233958999999,564.1233958999999,564.1233958999999,None,None,None,,,,,,,,,,,559.3987541999998,559.3987541999998,None,,560.4787211999999,560.4787211999999,n,559.3987541999998,559.3987541999998,1.8348399999997582,,,23,001,2024-08-01_10h04.23.152,robot_nback_sign,2022.2.5,59.99642421309046,
L_Torso_Y_For,True,2,robot,1,False,False,robot_stimuli\L_Torso_Y_For.mp4,23,,,,,,,,,0,62,62,62,,,,,,,,,,,,,564.1233958999999,565.2127988999998,,,,,,,568.8586951,568.8586951,568.8586951,568.8586951,568.8586951,568.8586951,568.8586951,568.8586951,None,None,None,,,,,,,,,,,564.1233958999999,564.1233958999999,None,,565.2127988999998,565.2127988999998,n,564.1233958999999,564.1233958999999,2.5253939000001537,,,23,001,2024-08-01_10h04.23.152,robot_nback_sign,2022.2.5,59.99642421309046,
L_Torso_X_For,False,2,robot,1,False,False,robot_stimuli\L_Torso_X_For.mp4,23,,,,,,,,,0,63,63,63,,,,,,,,,,,,,568.8586951,569.9494856999997,,,,,,,573.5918696000001,573.5918696000001,573.5918696000001,573.5918696000001,573.5918696000001,573.5918696000001,573.5918696000001,573.5918696000001,None,None,None,,,,,,,,,,,568.8586951,568.8586951,None,,569.9494856999997,569.9494856999997,n,568.8586951,568.8586951,2.5480746999999155,,,23,001,2024-08-01_10h04.23.152,robot_nback_sign,2022.2.5,59.99642421309046,
R_Torso_X_Back,False,2,robot,1,False,False,robot_stimuli\R_Torso_X_Back.mp4,23,,,,,,,,,0,64,64,64,,,,,,,,,,,,,573.5918696000001,574.6770325,,,,,,,578.3313920999997,578.3313920999997,578.3313920999997,578.3313920999997,578.3313920999997,578.3313920999997,578.3313920999997,578.3313920999997,None,None,None,,,,,,,,,,,573.5918696000001,573.5918696000001,None,,574.6770325,574.6770325,n,573.5918696000001,573.5918696000001,3.4763322999999673,,,23,001,2024-08-01_10h04.23.152,robot_nback_sign,2022.2.5,59.99642421309046,
L_Torso_X_For,True,2,robot,1,False,False,robot_stimuli\L_Torso_X_For.mp4,23,,,,,,,,,0,65,65,65,,,,,,,,,,,,,578.3313920999997,579.4095491,,,,,,,583.0644909,583.0644909,583.0644909,583.0644909,583.0644909,583.0644909,583.0644909,583.0644909,None,None,None,,,,,,,,,,,578.3313920999997,578.3313920999997,None,,579.4095491,579.4095491,None,578.3313920999997,578.3313920999997,,,,23,001,2024-08-01_10h04.23.152,robot_nback_sign,2022.2.5,59.99642421309046,
L_Head_Y_Back,False,2,robot,1,False,False,robot_stimuli\L_Head_Y_Back.mp4,23,,,,,,,,,0,66,66,66,,,,,,,,,,,,,583.0644909,584.1436295999999,,,,,,,587.7720105000001,587.7720105000001,587.7720105000001,587.7720105000001,587.7720105000001,587.7720105000001,587.7720105000001,587.7720105000001,None,None,None,,,,,,,,,,,583.0644909,583.0644909,None,,584.1436295999999,584.1436295999999,n,583.0644909,583.0644909,2.226797900000065,,,23,001,2024-08-01_10h04.23.152,robot_nback_sign,2022.2.5,59.99642421309046,
L_Torso_X_For,True,2,robot,1,False,False,robot_stimuli\L_Torso_X_For.mp4,23,,,,,,,,,0,67,67,67,,,,,,,,,,,,,587.7720105000001,588.8599776999997,,,,,,,592.5107916,592.5107916,592.5107916,592.5107916,592.5107916,592.5107916,592.5107916,592.5107916,None,None,None,,,,,,,,,,,587.7720105000001,587.7720105000001,None,,588.8599776999997,588.8599776999997,c,587.7720105000001,587.7720105000001,2.4384732000000895,,,23,001,2024-08-01_10h04.23.152,robot_nback_sign,2022.2.5,59.99642421309046,
L_Torso_X_For,False,2,robot,1,False,False,robot_stimuli\L_Torso_X_For.mp4,23,,,,,,,,,0,68,68,68,,,,,,,,,,,,,592.5107916,593.5920266,,,,,,,597.2302265999999,597.2302265999999,597.2302265999999,597.2302265999999,597.2302265999999,597.2302265999999,597.2302265999999,597.2302265999999,None,None,None,,,,,,,,,,,592.5107916,592.5107916,None,,593.5920266,593.5920266,n,592.5107916,592.5107916,2.3383698000000095,,,23,001,2024-08-01_10h04.23.152,robot_nback_sign,2022.2.5,59.99642421309046,
L_Torso_Z_For,False,2,robot,1,False,False,robot_stimuli\L_Torso_Z_For.mp4,23,,,,,,,,,0,69,69,69,,,,,,,,,,,,,597.2302265999999,598.309109,,,,,,,601.9468853000001,601.9468853000001,601.9468853000001,601.9468853000001,601.9468853000001,601.9468853000001,601.9468853000001,601.9468853000001,None,None,None,,,,,,,,,,,597.2302265999999,597.2302265999999,None,,598.309109,598.309109,n,597.2302265999999,597.2302265999999,2.317482400000017,,,23,001,2024-08-01_10h04.23.152,robot_nback_sign,2022.2.5,59.99642421309046,
L_Head_Z_Back,False,2,robot,1,False,False,robot_stimuli\L_Head_Z_Back.mp4,23,,,,,,,,,0,70,70,70,,,,,,,,,,,,,601.9468853000001,603.0259208,,,,,,,606.6556549,606.6556549,606.6556549,606.6556549,606.6556549,606.6556549,606.6556549,606.6556549,None,None,None,,,,,,,,,,,601.9468853000001,601.9468853000001,None,,603.0259208,603.0259208,n,601.9468853000001,601.9468853000001,2.799702699999898,,,23,001,2024-08-01_10h04.23.152,robot_nback_sign,2022.2.5,59.99642421309046,
L_Base_Y_Back,False,2,robot,1,False,False,robot_stimuli\L_Base_Y_Back.mp4,23,,,,,,,,,0,71,71,71,,,,,,,,,,,,,606.6556549,607.7443459999997,,,,,,,611.3268762999999,611.3268762999999,611.3268762999999,611.3268762999999,611.3268762999999,611.3268762999999,611.3268762999999,611.3268762999999,None,None,None,,,,,,,,,,,606.6556549,606.6556549,None,,607.7443459999997,607.7443459999997,n,606.6556549,606.6556549,1.9306913000002623,,,23,001,2024-08-01_10h04.23.152,robot_nback_sign,2022.2.5,59.99642421309046,
L_Head_X_For,False,2,robot,1,False,False,robot_stimuli\L_Head_X_For.mp4,23,,,,,,,,,0,72,72,72,,,,,,,,,,,,,611.3268762999999,612.4088719999997,,,,,,,615.9960691999997,615.9960691999997,615.9960691999997,615.9960691999997,615.9960691999997,615.9960691999997,615.9960691999997,615.9960691999997,None,None,None,,,,,,,,,,,611.3268762999999,611.3268762999999,None,,612.4088719999997,612.4088719999997,n,611.3268762999999,611.3268762999999,2.929558799999768,,,23,001,2024-08-01_10h04.23.152,robot_nback_sign,2022.2.5,59.99642421309046,
L_Base_Y_Back,True,2,robot,1,False,False,robot_stimuli\L_Base_Y_Back.mp4,23,,,,,,,,,0,73,73,73,,,,,,,,,,,,,615.9960691999997,617.0770675000001,,,,,,,620.6599942999999,620.6599942999999,620.6599942999999,620.6599942999999,620.6599942999999,620.6599942999999,620.6599942999999,620.6599942999999,None,None,None,,,,,,,,,,,615.9960691999997,615.9960691999997,None,,617.0770675000001,617.0770675000001,n,615.9960691999997,615.9960691999997,2.948406499999919,,,23,001,2024-08-01_10h04.23.152,robot_nback_sign,2022.2.5,59.99642421309046,
L_Arm_X_Back,False,2,robot,1,False,False,robot_stimuli\L_Arm_X_Back.mp4,23,,,,,,,,,0,74,74,74,,,,,,,,,,,,,620.6599942999999,621.7461864999998,,,,,,,625.3969604000001,625.3969604000001,625.3969604000001,625.3969604000001,625.3969604000001,625.3969604000001,625.3969604000001,625.3969604000001,None,None,None,,,,,,,,,,,620.6599942999999,620.6599942999999,None,,621.7461864999998,621.7461864999998,n,620.6599942999999,620.6599942999999,2.992393100000072,,,23,001,2024-08-01_10h04.23.152,robot_nback_sign,2022.2.5,59.99642421309046,
L_Head_Z_For,False,2,robot,1,False,False,robot_stimuli\L_Head_Z_For.mp4,23,,,,,,,,,0,75,75,75,,,,,,,,,,,,,625.3969604000001,626.4748241,,,,,,,630.1148634999997,630.1148634999997,630.1148634999997,630.1148634999997,630.1148634999997,630.1148634999997,630.1148634999997,630.1148634999997,None,None,None,,,,,,,,,,,625.3969604000001,625.3969604000001,None,,626.4748241,626.4748241,n,625.3969604000001,625.3969604000001,2.5110338000001775,,,23,001,2024-08-01_10h04.23.152,robot_nback_sign,2022.2.5,59.99642421309046,
L_Arm_X_For,False,2,robot,1,False,False,robot_stimuli\L_Arm_X_For.mp4,23,,,,,,,,,0,76,76,76,,,,,,,,,,,,,630.1148634999997,631.1985291999997,,,,,,,634.8382423,634.8382423,634.8382423,634.8382423,634.8382423,634.8382423,634.8382423,634.8382423,None,None,None,,,,,,,,,,,630.1148634999997,630.1148634999997,None,,631.1985291999997,631.1985291999997,n,630.1148634999997,630.1148634999997,2.826768800000309,,,23,001,2024-08-01_10h04.23.152,robot_nback_sign,2022.2.5,59.99642421309046,
L_Head_Z_For,True,2,robot,1,False,False,robot_stimuli\L_Head_Z_For.mp4,23,,,,,,,,,0,77,77,77,,,,,,,,,,,,,634.8382423,635.9250485999999,,,,,,,639.5614100999999,639.5614100999999,639.5614100999999,639.5614100999999,639.5614100999999,639.5614100999999,639.5614100999999,639.5614100999999,None,None,None,,,,,,,,,,,634.8382423,634.8382423,None,,635.9250485999999,635.9250485999999,c,634.8382423,634.8382423,2.2606858000001466,,,23,001,2024-08-01_10h04.23.152,robot_nback_sign,2022.2.5,59.99642421309046,
L_Base_X_For,False,2,robot,1,False,False,robot_stimuli\L_Base_X_For.mp4,23,,,,,,,,,0,78,78,78,,,,,,,,,,,,,639.5614100999999,640.6579825000001,,,,,,,644.2340007,644.2340007,644.2340007,644.2340007,644.2340007,644.2340007,644.2340007,644.2340007,None,None,None,,,,,,,,,,,639.5614100999999,639.5614100999999,None,,640.6579825000001,640.6579825000001,n,639.5614100999999,639.5614100999999,2.6079403000001093,,,23,001,2024-08-01_10h04.23.152,robot_nback_sign,2022.2.5,59.99642421309046,
L_Head_Z_For,True,2,robot,1,False,False,robot_stimuli\L_Head_Z_For.mp4,23,,,,,,,,,0,79,79,79,,,,,,,,,,,,,644.2340007,,,,,,,,648.9822038,648.9822038,648.9822038,648.9822038,648.9822038,648.9822038,648.9822038,648.9822038,None,None,None,,,,,,,,,,,644.2340007,644.2340007,None,,645.3412642000001,645.3412642000001,n,644.2340007,644.2340007,3.5654423999997107,,,23,001,2024-08-01_10h04.23.152,robot_nback_sign,2022.2.5,59.99642421309046,
L_Arm_Y_For,False,2,robot,1,False,False,robot_stimuli\L_Arm_Y_For.mp4,23,,,,,,,,,0,80,80,80,,,,,,,,,,,,,648.9822038,650.0590839999998,,,,,,,653.6898645999997,653.6898645999997,653.6898645999997,653.6898645999997,653.6898645999997,653.6898645999997,653.6898645999997,653.6898645999997,None,None,None,,,,,,,,,,,648.9822038,648.9822038,None,,650.0590839999998,650.0590839999998,n,648.9822038,648.9822038,2.518827299999657,,,23,001,2024-08-01_10h04.23.152,robot_nback_sign,2022.2.5,59.99642421309046,
L_Head_Z_Back,False,2,robot,1,False,False,robot_stimuli\L_Head_Z_Back.mp4,23,,,,,,,,,0,81,81,81,,,,,,,,,,,,,653.6898645999997,654.7715990999998,,,,,,,658.4156393000001,658.4156393000001,658.4156393000001,658.4156393000001,658.4156393000001,658.4156393000001,658.4156393000001,658.4156393000001,None,None,None,,,,,,,,,,,653.6898645999997,653.6898645999997,None,,654.7715990999998,654.7715990999998,n,653.6898645999997,653.6898645999997,2.654266900000266,,,23,001,2024-08-01_10h04.23.152,robot_nback_sign,2022.2.5,59.99642421309046,
R_Arm_Y_Back,False,2,robot,1,False,False,robot_stimuli\R_Arm_Y_Back.mp4,23,,,,,,,,,0,82,82,82,,,,,,,,,,,,,658.4156393000001,659.4940500999999,,,,,,,663.1425575000001,663.1425575000001,663.1425575000001,663.1425575000001,663.1425575000001,663.1425575000001,663.1425575000001,663.1425575000001,None,None,None,,,,,,,,,,,658.4156393000001,658.4156393000001,None,,659.4940500999999,659.4940500999999,n,658.4156393000001,658.4156393000001,2.89141369999993,,,23,001,2024-08-01_10h04.23.152,robot_nback_sign,2022.2.5,59.99642421309046,
L_Head_Z_Back,True,2,robot,1,False,False,robot_stimuli\L_Head_Z_Back.mp4,23,,,,,,,,,0,83,83,83,,,,,,,,,,,,,663.1425575000001,664.2252387999999,,,,,,,667.8630780999999,667.8630780999999,667.8630780999999,667.8630780999999,667.8630780999999,667.8630780999999,667.8630780999999,667.8630780999999,None,None,None,,,,,,,,,,,663.1425575000001,663.1425575000001,None,,664.2252387999999,664.2252387999999,n,663.1425575000001,663.1425575000001,3.2728231000003234,,,23,001,2024-08-01_10h04.23.152,robot_nback_sign,2022.2.5,59.99642421309046,
L_Arm_Z_For,False,2,robot,1,False,False,robot_stimuli\L_Arm_Z_For.mp4,23,,,,,,,,,0,84,84,84,,,,,,,,,,,,,667.8630780999999,668.9436883000001,,,,,,,672.5934989,672.5934989,672.5934989,672.5934989,672.5934989,672.5934989,672.5934989,672.5934989,None,None,None,,,,,,,,,,,667.8630780999999,667.8630780999999,None,,668.9436883000001,668.9436883000001,n,667.8630780999999,667.8630780999999,1.6905325999998695,,,23,001,2024-08-01_10h04.23.152,robot_nback_sign,2022.2.5,59.99642421309046,
L_Torso_Y_Back,False,2,robot,1,False,False,robot_stimuli\L_Torso_Y_Back.mp4,23,,,,,,,,,0,85,85,85,,,,,,,,,,,,,672.5934989,673.6753179999998,,,,,,,677.1807427000001,677.1807427000001,677.1807427000001,677.1807427000001,677.1807427000001,677.1807427000001,677.1807427000001,677.1807427000001,None,None,None,,,,,,,,,,,672.5934989,672.5934989,None,,673.6753179999998,673.6753179999998,n,672.5934989,672.5934989,3.0627662999997938,,,23,001,2024-08-01_10h04.23.152,robot_nback_sign,2022.2.5,59.99642421309046,
L_Torso_Z_For,False,2,robot,1,False,False,robot_stimuli\L_Torso_Z_For.mp4,23,,,,,,,,,0,86,86,86,,,,,,,,,,,,,677.1807427000001,678.2597402999997,,,,,,,681.8901764999998,681.8901764999998,681.8901764999998,681.8901764999998,681.8901764999998,681.8901764999998,681.8901764999998,681.8901764999998,None,None,None,,,,,,,,,,,677.1807427000001,677.1807427000001,None,,678.2597402999997,678.2597402999997,n,677.1807427000001,677.1807427000001,2.734900400000015,,,23,001,2024-08-01_10h04.23.152,robot_nback_sign,2022.2.5,59.99642421309046,
L_Torso_X_For,False,2,robot,1,False,False,robot_stimuli\L_Torso_X_For.mp4,23,,,,,,,,,0,87,87,87,,,,,,,,,,,,,681.8901764999998,682.9765307,,,,,,,686.6051178999999,686.6051178999999,686.6051178999999,686.6051178999999,686.6051178999999,686.6051178999999,686.6051178999999,686.6051178999999,None,None,None,,,,,,,,,,,681.8901764999998,681.8901764999998,None,,682.9765307,682.9765307,None,681.8901764999998,681.8901764999998,,,,23,001,2024-08-01_10h04.23.152,robot_nback_sign,2022.2.5,59.99642421309046,
L_Base_Y_For,False,2,robot,1,False,False,robot_stimuli\L_Base_Y_For.mp4,23,,,,,,,,,0,88,88,88,,,,,,,,,,,,,686.6051178999999,687.6940235999998,,,,,,,691.2491560000001,691.2491560000001,691.2491560000001,691.2491560000001,691.2491560000001,691.2491560000001,691.2491560000001,691.2491560000001,None,None,None,,,,,,,,,,,686.6051178999999,686.6051178999999,None,,687.6940235999998,687.6940235999998,n,686.6051178999999,686.6051178999999,2.411620200000243,,,23,001,2024-08-01_10h04.23.152,robot_nback_sign,2022.2.5,59.99642421309046,
R_Arm_Y_For,False,2,robot,1,False,False,robot_stimuli\R_Arm_Y_For.mp4,23,,,,,,,,,0,89,89,89,,,,,,,,,,,,,691.2491560000001,692.3409792999998,,,,,,,695.8463131000001,695.8463131000001,695.8463131000001,695.8463131000001,695.8463131000001,695.8463131000001,695.8463131000001,695.8463131000001,None,None,None,,,,,,,,,,,691.2491560000001,691.2491560000001,None,,692.3409792999998,692.3409792999998,n,691.2491560000001,691.2491560000001,2.477253100000098,,,23,001,2024-08-01_10h04.23.152,robot_nback_sign,2022.2.5,59.99642421309046,
L_Base_Y_For,True,2,robot,1,False,False,robot_stimuli\L_Base_Y_For.mp4,23,,,,,,,,,0,90,90,90,,,,,,,,,,,,,695.8463131000001,696.9265969,,,,,,,700.4559948999997,700.4559948999997,700.4559948999997,700.4559948999997,700.4559948999997,700.4559948999997,700.4559948999997,700.4559948999997,None,None,None,,,,,,,,,,,695.8463131000001,695.8463131000001,None,,696.9265969,696.9265969,None,695.8463131000001,695.8463131000001,,,,23,001,2024-08-01_10h04.23.152,robot_nback_sign,2022.2.5,59.99642421309046,
R_Torso_X_For,False,2,robot,1,False,False,robot_stimuli\R_Torso_X_For.mp4,23,,,,,,,,,0,91,91,91,,,,,,,,,,,,,700.4559948999997,701.5425416,,,,,,,705.1844159,705.1844159,705.1844159,705.1844159,705.1844159,705.1844159,705.1844159,705.1844159,None,None,None,,,,,,,,,,,700.4559948999997,700.4559948999997,None,,701.5425416,701.5425416,n,700.4559948999997,700.4559948999997,2.508183499999859,,,23,001,2024-08-01_10h04.23.152,robot_nback_sign,2022.2.5,59.99642421309046,
L_Head_Y_For,False,2,robot,1,False,False,robot_stimuli\L_Head_Y_For.mp4,23,,,,,,,,,0,92,92,92,,,,,,,,,,,,,705.1844159,,,,,,,,709.9431296999999,709.9431296999999,709.9431296999999,709.9431296999999,709.9431296999999,709.9431296999999,709.9431296999999,709.9431296999999,None,None,None,,,,,,,,,,,705.1844159,705.1844159,None,,706.2898812999999,706.2898812999999,n,705.1844159,705.1844159,2.680416599999944,,,23,001,2024-08-01_10h04.23.152,robot_nback_sign,2022.2.5,59.99642421309046,
R_Arm_Y_For,False,2,robot,1,False,False,robot_stimuli\R_Arm_Y_For.mp4,23,,,,,,,,,0,93,93,93,,,,,,,,,,,,,709.9431296999999,711.0273836999997,,,,,,,714.5440496999997,714.5440496999997,714.5440496999997,714.5440496999997,714.5440496999997,714.5440496999997,714.5440496999997,714.5440496999997,None,None,None,,,,,,,,,,,709.9431296999999,709.9431296999999,None,,711.0273836999997,711.0273836999997,n,709.9431296999999,709.9431296999999,2.5515716000002158,,,23,001,2024-08-01_10h04.23.152,robot_nback_sign,2022.2.5,59.99642421309046,
R_Head_Y_For,False,2,robot,1,False,False,robot_stimuli\R_Head_Y_For.mp4,23,,,,,,,,,0,94,94,94,,,,,,,,,,,,,714.5440496999997,715.6257641999998,,,,,,,719.2638727000001,719.2638727000001,719.2638727000001,719.2638727000001,719.2638727000001,719.2638727000001,719.2638727000001,719.2638727000001,None,None,None,,,,,,,,,,,714.5440496999997,714.5440496999997,None,,715.6257641999998,715.6257641999998,n,714.5440496999997,714.5440496999997,1.4815650000002734,,,23,001,2024-08-01_10h04.23.152,robot_nback_sign,2022.2.5,59.99642421309046,
L_Head_Y_For,False,2,robot,1,False,False,robot_stimuli\L_Head_Y_For.mp4,23,,,,,,,,,0,95,95,95,,,,,,,,,,,,,719.2638727000001,720.3443676999998,,,,,,,723.9933666999998,723.9933666999998,723.9933666999998,723.9933666999998,723.9933666999998,723.9933666999998,723.9933666999998,723.9933666999998,None,None,None,,,,,,,,,,,719.2638727000001,719.2638727000001,None,,720.3443676999998,720.3443676999998,n,719.2638727000001,719.2638727000001,2.1061346999997568,,,23,001,2024-08-01_10h04.23.152,robot_nback_sign,2022.2.5,59.99642421309046,
L_Torso_X_For,False,2,robot,1,False,False,robot_stimuli\L_Torso_X_For.mp4,23,,,,,,,,,0,96,96,96,,,,,,,,,,,,,723.9933666999998,725.0762358999998,,,,,,,728.7145407999999,728.7145407999999,728.7145407999999,728.7145407999999,728.7145407999999,728.7145407999999,728.7145407999999,728.7145407999999,None,None,None,,,,,,,,,,,723.9933666999998,723.9933666999998,None,,725.0762358999998,725.0762358999998,n,723.9933666999998,723.9933666999998,1.541366700000026,,,23,001,2024-08-01_10h04.23.152,robot_nback_sign,2022.2.5,59.99642421309046,
L_Head_Z_Back,False,2,robot,1,False,False,robot_stimuli\L_Head_Z_Back.mp4,23,,,,,,,,,0,97,97,97,,,,,,,,,,,,,728.7145407999999,729.7923212999997,,,,,,,733.4318194,733.4318194,733.4318194,733.4318194,733.4318194,733.4318194,733.4318194,733.4318194,None,None,None,,,,,,,,,,,728.7145407999999,728.7145407999999,None,,729.7923212999997,729.7923212999997,n,728.7145407999999,728.7145407999999,2.4412260000001424,,,23,001,2024-08-01_10h04.23.152,robot_nback_sign,2022.2.5,59.99642421309046,
R_Torso_Y_For,False,2,robot,1,False,False,robot_stimuli\R_Torso_Y_For.mp4,23,,,,,,,,,0,98,98,98,,,,,,,,,,,,,733.4318194,734.5090702,,,,,,,738.1491656999999,738.1491656999999,738.1491656999999,738.1491656999999,738.1491656999999,738.1491656999999,738.1491656999999,738.1491656999999,None,None,None,,,,,,,,,,,733.4318194,733.4318194,None,,734.5090702,734.5090702,n,733.4318194,733.4318194,2.2927038999998786,,,23,001,2024-08-01_10h04.23.152,robot_nback_sign,2022.2.5,59.99642421309046,
R_Head_Z_Back,False,2,robot,1,False,True,robot_stimuli\R_Head_Z_Back.mp4,23,,,,,,,,,0,99,99,99,,,,,,,,,,,,,738.1491656999999,739.2259858999998,,,,,,,742.8971424999997,746.5836287999998,742.8971424999997,746.5836287999998,742.8971424999997,746.5836287999998,742.8971424999997,746.5836287999998,44.50617283950618,3.38936109999986,space,,,,3.6254538999999113,,,,,,,738.1491656999999,738.1491656999999,None,,739.2259858999998,739.2259858999998,n,738.1491656999999,738.1491656999999,2.391703500000176,,,23,001,2024-08-01_10h04.23.152,robot_nback_sign,2022.2.5,59.99642421309046,
R_Torso_X_Back,False,3,robot,1,True,False,robot_stimuli\R_Torso_X_Back.mp4,23,,,,,,,,,0,100,100,100,,,,,,,,,,,,,748.7828988999997,749.8572551999998,,,,,,,753.5120741999997,753.5120741999997,753.5120741999997,753.5120741999997,753.5120741999997,753.5120741999997,753.5120741999997,753.5120741999997,None,None,None,,,,,,,,,,,746.5836287999998,746.5836287999998,space,2.179715100000294,749.8572551999998,749.8572551999998,None,,,,,,23,001,2024-08-01_10h04.23.152,robot_nback_sign,2022.2.5,59.99642421309046,
L_Head_X_Back,False,3,robot,1,False,False,robot_stimuli\L_Head_X_Back.mp4,23,,,,,,,,,0,101,101,101,,,,,,,,,,,,,753.5120741999997,754.6012115000001,,,,,,,758.2413555,758.2413555,758.2413555,758.2413555,758.2413555,758.2413555,758.2413555,758.2413555,None,None,None,,,,,,,,,,,753.5120741999997,753.5120741999997,None,,754.6012115000001,754.6012115000001,n,753.5120741999997,753.5120741999997,1.9363557999997738,,,23,001,2024-08-01_10h04.23.152,robot_nback_sign,2022.2.5,59.99642421309046,
R_Arm_Y_For,False,3,robot,1,False,False,robot_stimuli\R_Arm_Y_For.mp4,23,,,,,,,,,0,102,102,102,,,,,,,,,,,,,758.2413555,759.3325681999997,,,,,,,762.8488383000001,762.8488383000001,762.8488383000001,762.8488383000001,762.8488383000001,762.8488383000001,762.8488383000001,762.8488383000001,None,None,None,,,,,,,,,,,758.2413555,758.2413555,None,,759.3325681999997,759.3325681999997,None,758.2413555,758.2413555,,,,23,001,2024-08-01_10h04.23.152,robot_nback_sign,2022.2.5,59.99642421309046,
R_Arm_Z_For,False,3,robot,1,False,False,robot_stimuli\R_Arm_Z_For.mp4,23,,,,,,,,,0,103,103,103,,,,,,,,,,,,,762.8488383000001,763.9240235999998,,,,,,,767.5641605999997,767.5641605999997,767.5641605999997,767.5641605999997,767.5641605999997,767.5641605999997,767.5641605999997,767.5641605999997,None,None,None,,,,,,,,,,,762.8488383000001,762.8488383000001,None,,763.9240235999998,763.9240235999998,n,762.8488383000001,762.8488383000001,1.9182628000000932,,,23,001,2024-08-01_10h04.23.152,robot_nback_sign,2022.2.5,59.99642421309046,
R_Head_Y_For,False,3,robot,1,False,False,robot_stimuli\R_Head_Y_For.mp4,23,,,,,,,,,0,104,104,104,,,,,,,,,,,,,767.5641605999997,768.6439171,,,,,,,772.293371,772.293371,772.293371,772.293371,772.293371,772.293371,772.293371,772.293371,None,None,None,,,,,,,,,,,767.5641605999997,767.5641605999997,None,,768.6439171,768.6439171,n,767.5641605999997,767.5641605999997,2.57489210000017,,,23,001,2024-08-01_10h04.23.152,robot_nback_sign,2022.2.5,59.99642421309046,
R_Arm_Y_For,True,3,robot,1,False,False,robot_stimuli\R_Arm_Y_For.mp4,23,,,,,,,,,0,105,105,105,,,,,,,,,,,,,772.293371,773.3801421999999,,,,,,,776.8944283999997,776.8944283999997,776.8944283999997,776.8944283999997,776.8944283999997,776.8944283999997,776.8944283999997,776.8944283999997,None,None,None,,,,,,,,,,,772.293371,772.293371,None,,773.3801421999999,773.3801421999999,c,772.293371,772.293371,2.326521400000047,,,23,001,2024-08-01_10h04.23.152,robot_nback_sign,2022.2.5,59.99642421309046,
L_Head_Z_For,False,3,robot,1,False,False,robot_stimuli\L_Head_Z_For.mp4,23,,,,,,,,,0,106,106,106,,,,,,,,,,,,,776.8944283999997,777.9757769999999,,,,,,,781.6147761999998,781.6147761999998,781.6147761999998,781.6147761999998,781.6147761999998,781.6147761999998,781.6147761999998,781.6147761999998,None,None,None,,,,,,,,,,,776.8944283999997,776.8944283999997,None,,777.9757769999999,777.9757769999999,n,776.8944283999997,776.8944283999997,2.0344801999997344,,,23,001,2024-08-01_10h04.23.152,robot_nback_sign,2022.2.5,59.99642421309046,
L_Arm_Z_For,False,3,robot,1,False,False,robot_stimuli\L_Arm_Z_For.mp4,23,,,,,,,,,0,107,107,107,,,,,,,,,,,,,781.6147761999998,782.698783,,,,,,,786.3395140999999,786.3395140999999,786.3395140999999,786.3395140999999,786.3395140999999,786.3395140999999,786.3395140999999,786.3395140999999,None,None,None,,,,,,,,,,,781.6147761999998,781.6147761999998,None,,782.698783,782.698783,c,781.6147761999998,781.6147761999998,2.5828023000001394,,,23,001,2024-08-01_10h04.23.152,robot_nback_sign,2022.2.5,59.99642421309046,
R_Head_X_Back,False,3,robot,1,False,False,robot_stimuli\R_Head_X_Back.mp4,23,,,,,,,,,0,108,108,108,,,,,,,,,,,,,786.3395140999999,787.4256505000001,,,,,,,791.0656895,791.0656895,791.0656895,791.0656895,791.0656895,791.0656895,791.0656895,791.0656895,None,None,None,,,,,,,,,,,786.3395140999999,786.3395140999999,None,,787.4256505000001,787.4256505000001,n,786.3395140999999,786.3395140999999,2.424525300000141,,,23,001,2024-08-01_10h04.23.152,robot_nback_sign,2022.2.5,59.99642421309046,
R_Torso_Z_Back,False,3,robot,1,False,False,robot_stimuli\R_Torso_Z_Back.mp4,23,,,,,,,,,0,109,109,109,,,,,,,,,,,,,791.0656895,792.1438634999997,,,,,,,795.7933301999999,795.7933301999999,795.7933301999999,795.7933301999999,795.7933301999999,795.7933301999999,795.7933301999999,795.7933301999999,None,None,None,,,,,,,,,,,791.0656895,791.0656895,None,,792.1438634999997,792.1438634999997,n,791.0656895,791.0656895,2.6352386000000934,,,23,001,2024-08-01_10h04.23.152,robot_nback_sign,2022.2.5,59.99642421309046,
R_Head_X_For,False,3,robot,1,False,False,robot_stimuli\R_Head_X_For.mp4,23,,,,,,,,,0,110,110,110,,,,,,,,,,,,,795.7933301999999,796.8783163999999,,,,,,,800.5277779,800.5277779,800.5277779,800.5277779,800.5277779,800.5277779,800.5277779,800.5277779,None,None,None,,,,,,,,,,,795.7933301999999,795.7933301999999,None,,796.8783163999999,796.8783163999999,n,795.7933301999999,795.7933301999999,2.1166257000002133,,,23,001,2024-08-01_10h04.23.152,robot_nback_sign,2022.2.5,59.99642421309046,
R_Head_X_Back,True,3,robot,1,False,False,robot_stimuli\R_Head_X_Back.mp4,23,,,,,,,,,0,111,111,111,,,,,,,,,,,,,800.5277779,801.6071329999997,,,,,,,805.2491431000001,805.2491431000001,805.2491431000001,805.2491431000001,805.2491431000001,805.2491431000001,805.2491431000001,805.2491431000001,None,None,None,,,,,,,,,,,800.5277779,800.5277779,None,,801.6071329999997,801.6071329999997,n,800.5277779,800.5277779,2.2351607000002787,,,23,001,2024-08-01_10h04.23.152,robot_nback_sign,2022.2.5,59.99642421309046,
L_Torso_X_For,False,3,robot,1,False,False,robot_stimuli\L_Torso_X_For.mp4,23,,,,,,,,,0,112,112,112,,,,,,,,,,,,,805.2491431000001,806.3267410999999,,,,,,,809.9552996,809.9552996,809.9552996,809.9552996,809.9552996,809.9552996,809.9552996,809.9552996,None,None,None,,,,,,,,,,,805.2491431000001,805.2491431000001,None,,806.3267410999999,806.3267410999999,n,805.2491431000001,805.2491431000001,2.252124899999899,,,23,001,2024-08-01_10h04.23.152,robot_nback_sign,2022.2.5,59.99642421309046,
R_Head_X_For,True,3,robot,1,False,False,robot_stimuli\R_Head_X_For.mp4,23,,,,,,,,,0,113,113,113,,,,,,,,,,,,,809.9552996,811.0420938,,,,,,,814.6813710999998,814.6813710999998,814.6813710999998,814.6813710999998,814.6813710999998,814.6813710999998,814.6813710999998,814.6813710999998,None,None,None,,,,,,,,,,,809.9552996,809.9552996,None,,811.0420938,811.0420938,c,809.9552996,809.9552996,2.77712409999981,,,23,001,2024-08-01_10h04.23.152,robot_nback_sign,2022.2.5,59.99642421309046,
L_Torso_Y_For,False,3,robot,1,False,False,robot_stimuli\L_Torso_Y_For.mp4,23,,,,,,,,,0,114,114,114,,,,,,,,,,,,,814.6813710999998,815.7590118999999,,,,,,,819.3990892999998,819.3990892999998,819.3990892999998,819.3990892999998,819.3990892999998,819.3990892999998,819.3990892999998,819.3990892999998,None,None,None,,,,,,,,,,,814.6813710999998,814.6813710999998,None,,815.7590118999999,815.7590118999999,n,814.6813710999998,814.6813710999998,2.051407100000006,,,23,001,2024-08-01_10h04.23.152,robot_nback_sign,2022.2.5,59.99642421309046,
R_Arm_Z_Back,False,3,robot,1,False,False,robot_stimuli\R_Arm_Z_Back.mp4,23,,,,,,,,,0,115,115,115,,,,,,,,,,,,,819.3990892999998,820.4767743999998,,,,,,,824.1157442000001,824.1157442000001,824.1157442000001,824.1157442000001,824.1157442000001,824.1157442000001,824.1157442000001,824.1157442000001,None,None,None,,,,,,,,,,,819.3990892999998,819.3990892999998,None,,820.4767743999998,820.4767743999998,n,819.3990892999998,819.3990892999998,3.26154720000045,,,23,001,2024-08-01_10h04.23.152,robot_nback_sign,2022.2.5,59.99642421309046,
R_Head_X_For,True,3,robot,1,False,False,robot_stimuli\R_Head_X_For.mp4,23,,,,,,,,,0,116,116,116,,,,,,,,,,,,,824.1157442000001,825.1950251000001,,,,,,,828.8470061999999,828.8470061999999,828.8470061999999,828.8470061999999,828.8470061999999,828.8470061999999,828.8470061999999,828.8470061999999,None,None,None,,,,,,,,,,,824.1157442000001,824.1157442000001,None,,825.1950251000001,825.1950251000001,None,824.1157442000001,824.1157442000001,,,,23,001,2024-08-01_10h04.23.152,robot_nback_sign,2022.2.5,59.99642421309046,
R_Base_Z_Back,False,3,robot,1,False,False,robot_stimuli\R_Base_Z_Back.mp4,23,,,,,,,,,0,117,117,117,,,,,,,,,,,,,828.8470061999999,829.9289604999997,,,,,,,833.4770483,833.4770483,833.4770483,833.4770483,833.4770483,833.4770483,833.4770483,833.4770483,None,None,None,,,,,,,,,,,828.8470061999999,828.8470061999999,None,,829.9289604999997,829.9289604999997,n,828.8470061999999,828.8470061999999,2.7527090000000953,,,23,001,2024-08-01_10h04.23.152,robot_nback_sign,2022.2.5,59.99642421309046,
R_Arm_Y_Back,False,3,robot,1,False,False,robot_stimuli\R_Arm_Y_Back.mp4,23,,,,,,,,,0,118,118,118,,,,,,,,,,,,,833.4770483,834.5620002999997,,,,,,,838.2116940999997,838.2116940999997,838.2116940999997,838.2116940999997,838.2116940999997,838.2116940999997,838.2116940999997,838.2116940999997,None,None,None,,,,,,,,,,,833.4770483,833.4770483,None,,834.5620002999997,834.5620002999997,n,833.4770483,833.4770483,3.207728399999951,,,23,001,2024-08-01_10h04.23.152,robot_nback_sign,2022.2.5,59.99642421309046,
L_Torso_X_Back,False,3,robot,1,False,False,robot_stimuli\L_Torso_X_Back.mp4,23,,,,,,,,,0,119,119,119,,,,,,,,,,,,,838.2116940999997,839.2929195999998,,,,,,,842.9329411000001,842.9329411000001,842.9329411000001,842.9329411000001,842.9329411000001,842.9329411000001,842.9329411000001,842.9329411000001,None,None,None,,,,,,,,,,,838.2116940999997,838.2116940999997,None,,839.2929195999998,839.2929195999998,n,838.2116940999997,838.2116940999997,2.6222685000000183,,,23,001,2024-08-01_10h04.23.152,robot_nback_sign,2022.2.5,59.99642421309046,
L_Base_Z_For,False,3,robot,1,False,False,robot_stimuli\L_Base_Z_For.mp4,23,,,,,,,,,0,120,120,120,,,,,,,,,,,,,842.9329411000001,844.0113295999997,,,,,,,847.6610174999998,847.6610174999998,847.6610174999998,847.6610174999998,847.6610174999998,847.6610174999998,847.6610174999998,847.6610174999998,None,None,None,,,,,,,,,,,842.9329411000001,842.9329411000001,None,,844.0113295999997,844.0113295999997,n,842.9329411000001,842.9329411000001,2.2224039000000175,,,23,001,2024-08-01_10h04.23.152,robot_nback_sign,2022.2.5,59.99642421309046,
R_Arm_Y_Back,True,3,robot,1,False,False,robot_stimuli\R_Arm_Y_Back.mp4,23,,,,,,,,,0,121,121,121,,,,,,,,,,,,,847.6610174999998,848.7460908,,,,,,,852.3948226,852.3948226,852.3948226,852.3948226,852.3948226,852.3948226,852.3948226,852.3948226,None,None,None,,,,,,,,,,,847.6610174999998,847.6610174999998,None,,848.7460908,848.7460908,n,847.6610174999998,847.6610174999998,2.8806746000002477,,,23,001,2024-08-01_10h04.23.152,robot_nback_sign,2022.2.5,59.99642421309046,
R_Arm_Z_Back,False,3,robot,1,False,False,robot_stimuli\R_Arm_Z_Back.mp4,23,,,,,,,,,0,122,122,122,,,,,,,,,,,,,852.3948226,853.4758409999997,,,,,,,857.1151447999998,857.1151447999998,857.1151447999998,857.1151447999998,857.1151447999998,857.1151447999998,857.1151447999998,857.1151447999998,None,None,None,,,,,,,,,,,852.3948226,852.3948226,None,,853.4758409999997,853.4758409999997,n,852.3948226,852.3948226,2.543517700000166,,,23,001,2024-08-01_10h04.23.152,robot_nback_sign,2022.2.5,59.99642421309046,
R_Base_Z_For,False,3,robot,1,False,False,robot_stimuli\R_Base_Z_For.mp4,23,,,,,,,,,0,123,123,123,,,,,,,,,,,,,857.1151447999998,858.1935412,,,,,,,861.8327959000001,861.8327959000001,861.8327959000001,861.8327959000001,861.8327959000001,861.8327959000001,861.8327959000001,861.8327959000001,None,None,None,,,,,,,,,,,857.1151447999998,857.1151447999998,None,,858.1935412,858.1935412,n,857.1151447999998,857.1151447999998,2.417226299999811,,,23,001,2024-08-01_10h04.23.152,robot_nback_sign,2022.2.5,59.99642421309046,
R_Arm_X_Back,False,3,robot,1,False,False,robot_stimuli\R_Arm_X_Back.mp4,23,,,,,,,,,0,124,124,124,,,,,,,,,,,,,861.8327959000001,862.9082188999998,,,,,,,866.5609068000001,866.5609068000001,866.5609068000001,866.5609068000001,866.5609068000001,866.5609068000001,866.5609068000001,866.5609068000001,None,None,None,,,,,,,,,,,861.8327959000001,861.8327959000001,None,,862.9082188999998,862.9082188999998,n,861.8327959000001,861.8327959000001,3.5830505999999787,,,23,001,2024-08-01_10h04.23.152,robot_nback_sign,2022.2.5,59.99642421309046,
R_Head_X_For,False,3,robot,1,False,False,robot_stimuli\R_Head_X_For.mp4,23,,,,,,,,,0,125,125,125,,,,,,,,,,,,,866.5609068000001,867.6440974,,,,,,,871.2939165,871.2939165,871.2939165,871.2939165,871.2939165,871.2939165,871.2939165,871.2939165,None,None,None,,,,,,,,,,,866.5609068000001,866.5609068000001,None,,867.6440974,867.6440974,n,866.5609068000001,866.5609068000001,3.103484299999991,,,23,001,2024-08-01_10h04.23.152,robot_nback_sign,2022.2.5,59.99642421309046,
L_Torso_X_For,False,3,robot,1,False,False,robot_stimuli\L_Torso_X_For.mp4,23,,,,,,,,,0,126,126,126,,,,,,,,,,,,,871.2939165,872.3762025999997,,,,,,,876.0158402,876.0158402,876.0158402,876.0158402,876.0158402,876.0158402,876.0158402,876.0158402,None,None,None,,,,,,,,,,,871.2939165,871.2939165,None,,872.3762025999997,872.3762025999997,n,871.2939165,871.2939165,2.986501800000269,,,23,001,2024-08-01_10h04.23.152,robot_nback_sign,2022.2.5,59.99642421309046,
R_Base_Z_For,False,3,robot,1,False,False,robot_stimuli\R_Base_Z_For.mp4,23,,,,,,,,,0,127,127,127,,,,,,,,,,,,,876.0158402,877.0961420000001,,,,,,,880.7450069999998,880.7450069999998,880.7450069999998,880.7450069999998,880.7450069999998,880.7450069999998,880.7450069999998,880.7450069999998,None,None,None,,,,,,,,,,,876.0158402,876.0158402,None,,877.0961420000001,877.0961420000001,None,876.0158402,876.0158402,,,,23,001,2024-08-01_10h04.23.152,robot_nback_sign,2022.2.5,59.99642421309046,
R_Torso_Z_Back,False,3,robot,1,False,False,robot_stimuli\R_Torso_Z_Back.mp4,23,,,,,,,,,0,128,128,128,,,,,,,,,,,,,880.7450069999998,881.8285356999997,,,,,,,885.4788550000001,885.4788550000001,885.4788550000001,885.4788550000001,885.4788550000001,885.4788550000001,885.4788550000001,885.4788550000001,None,None,None,,,,,,,,,,,880.7450069999998,880.7450069999998,None,,881.8285356999997,881.8285356999997,n,880.7450069999998,880.7450069999998,2.8224649999999656,,,23,001,2024-08-01_10h04.23.152,robot_nback_sign,2022.2.5,59.99642421309046,
L_Arm_Z_For,False,3,robot,1,False,False,robot_stimuli\L_Arm_Z_For.mp4,23,,,,,,,,,0,129,129,129,,,,,,,,,,,,,885.4788550000001,886.5595370999997,,,,,,,890.1946083,890.1946083,890.1946083,890.1946083,890.1946083,890.1946083,890.1946083,890.1946083,None,None,None,,,,,,,,,,,885.4788550000001,885.4788550000001,None,,886.5595370999997,886.5595370999997,n,885.4788550000001,885.4788550000001,2.7944191999997656,,,23,001,2024-08-01_10h04.23.152,robot_nback_sign,2022.2.5,59.99642421309046,
L_Head_X_Back,False,3,robot,1,False,False,robot_stimuli\L_Head_X_Back.mp4,23,,,,,,,,,0,130,130,130,,,,,,,,,,,,,890.1946083,891.2911738,,,,,,,894.9313547999998,894.9313547999998,894.9313547999998,894.9313547999998,894.9313547999998,894.9313547999998,894.9313547999998,894.9313547999998,None,None,None,,,,,,,,,,,890.1946083,890.1946083,None,,891.2911738,891.2911738,n,890.1946083,890.1946083,2.871713100000079,,,23,001,2024-08-01_10h04.23.152,robot_nback_sign,2022.2.5,59.99642421309046,
R_Head_Y_Back,False,3,robot,1,False,False,robot_stimuli\R_Head_Y_Back.mp4,23,,,,,,,,,0,131,131,131,,,,,,,,,,,,,894.9313547999998,896.0099248999998,,,,,,,899.6492983999999,899.6492983999999,899.6492983999999,899.6492983999999,899.6492983999999,899.6492983999999,899.6492983999999,899.6492983999999,None,None,None,,,,,,,,,,,894.9313547999998,894.9313547999998,None,,896.0099248999998,896.0099248999998,n,894.9313547999998,894.9313547999998,2.5759568000000854,,,23,001,2024-08-01_10h04.23.152,robot_nback_sign,2022.2.5,59.99642421309046,
R_Head_Y_Back,False,3,robot,1,False,False,robot_stimuli\R_Head_Y_Back.mp4,23,,,,,,,,,0,132,132,132,,,,,,,,,,,,,899.6492983999999,900.7238595000001,,,,,,,904.3635936999997,904.3635936999997,904.3635936999997,904.3635936999997,904.3635936999997,904.3635936999997,904.3635936999997,904.3635936999997,None,None,None,,,,,,,,,,,899.6492983999999,899.6492983999999,None,,900.7238595000001,900.7238595000001,n,899.6492983999999,899.6492983999999,2.262427300000354,,,23,001,2024-08-01_10h04.23.152,robot_nback_sign,2022.2.5,59.99642421309046,
L_Torso_Y_For,False,3,robot,1,False,False,robot_stimuli\L_Torso_Y_For.mp4,23,,,,,,,,,0,133,133,133,,,,,,,,,,,,,904.3635936999997,905.4444017999997,,,,,,,909.0952823999999,909.0952823999999,909.0952823999999,909.0952823999999,909.0952823999999,909.0952823999999,909.0952823999999,909.0952823999999,None,None,None,,,,,,,,,,,904.3635936999997,904.3635936999997,None,,905.4444017999997,905.4444017999997,n,904.3635936999997,904.3635936999997,2.575075500000139,,,23,001,2024-08-01_10h04.23.152,robot_nback_sign,2022.2.5,59.99642421309046,
R_Head_Y_Back,True,3,robot,1,False,False,robot_stimuli\R_Head_Y_Back.mp4,23,,,,,,,,,0,134,134,134,,,,,,,,,,,,,909.0952823999999,910.1783551999999,,,,,,,913.8282723999998,913.8282723999998,913.8282723999998,913.8282723999998,913.8282723999998,913.8282723999998,913.8282723999998,913.8282723999998,None,None,None,,,,,,,,,,,909.0952823999999,909.0952823999999,None,,910.1783551999999,910.1783551999999,c,909.0952823999999,909.0952823999999,1.9527402999999595,,,23,001,2024-08-01_10h04.23.152,robot_nback_sign,2022.2.5,59.99642421309046,
L_Torso_Z_Back,False,3,robot,1,False,False,robot_stimuli\L_Torso_Z_Back.mp4,23,,,,,,,,,0,135,135,135,,,,,,,,,,,,,913.8282723999998,914.9121146999998,,,,,,,918.4329314999998,918.4329314999998,918.4329314999998,918.4329314999998,918.4329314999998,918.4329314999998,918.4329314999998,918.4329314999998,None,None,None,,,,,,,,,,,913.8282723999998,913.8282723999998,None,,914.9121146999998,914.9121146999998,n,913.8282723999998,913.8282723999998,3.3305919000001722,,,23,001,2024-08-01_10h04.23.152,robot_nback_sign,2022.2.5,59.99642421309046,
L_Torso_Y_For,True,3,robot,1,False,False,robot_stimuli\L_Torso_Y_For.mp4,23,,,,,,,,,0,136,136,136,,,,,,,,,,,,,918.4329314999998,919.5247769999999,,,,,,,923.1635602999997,923.1635602999997,923.1635602999997,923.1635602999997,923.1635602999997,923.1635602999997,923.1635602999997,923.1635602999997,None,None,None,,,,,,,,,,,918.4329314999998,918.4329314999998,None,,919.5247769999999,919.5247769999999,n,918.4329314999998,918.4329314999998,2.2546875999998974,,,23,001,2024-08-01_10h04.23.152,robot_nback_sign,2022.2.5,59.99642421309046,
R_Torso_Z_For,False,3,robot,1,False,False,robot_stimuli\R_Torso_Z_For.mp4,23,,,,,,,,,0,137,137,137,,,,,,,,,,,,,923.1635602999997,924.2443464999999,,,,,,,927.8982887999998,927.8982887999998,927.8982887999998,927.8982887999998,927.8982887999998,927.8982887999998,927.8982887999998,927.8982887999998,None,None,None,,,,,,,,,,,923.1635602999997,923.1635602999997,None,,924.2443464999999,924.2443464999999,n,923.1635602999997,923.1635602999997,2.541337600000361,,,23,001,2024-08-01_10h04.23.152,robot_nback_sign,2022.2.5,59.99642421309046,
L_Torso_X_Back,False,3,robot,1,False,False,robot_stimuli\L_Torso_X_Back.mp4,23,,,,,,,,,0,138,138,138,,,,,,,,,,,,,927.8982887999998,928.9932222999998,,,,,,,932.6231483999998,932.6231483999998,932.6231483999998,932.6231483999998,932.6231483999998,932.6231483999998,932.6231483999998,932.6231483999998,None,None,None,,,,,,,,,,,927.8982887999998,927.8982887999998,None,,928.9932222999998,928.9932222999998,n,927.8982887999998,927.8982887999998,2.5061072999999396,,,23,001,2024-08-01_10h04.23.152,robot_nback_sign,2022.2.5,59.99642421309046,
L_Base_Y_For,False,3,robot,1,False,False,robot_stimuli\L_Base_Y_For.mp4,23,,,,,,,,,0,139,139,139,,,,,,,,,,,,,932.6231483999998,933.7100153999997,,,,,,,937.2407763999997,937.2407763999997,937.2407763999997,937.2407763999997,937.2407763999997,937.2407763999997,937.2407763999997,937.2407763999997,None,None,None,,,,,,,,,,,932.6231483999998,932.6231483999998,None,,933.7100153999997,933.7100153999997,n,932.6231483999998,932.6231483999998,2.5722959000001993,,,23,001,2024-08-01_10h04.23.152,robot_nback_sign,2022.2.5,59.99642421309046,
L_Arm_X_Back,False,3,robot,1,False,False,robot_stimuli\L_Arm_X_Back.mp4,23,,,,,,,,,0,140,140,140,,,,,,,,,,,,,937.2407763999997,938.3256223000001,,,,,,,941.9653578,941.9653578,941.9653578,941.9653578,941.9653578,941.9653578,941.9653578,941.9653578,None,None,None,,,,,,,,,,,937.2407763999997,937.2407763999997,None,,938.3256223000001,938.3256223000001,n,937.2407763999997,937.2407763999997,3.021473200000173,,,23,001,2024-08-01_10h04.23.152,robot_nback_sign,2022.2.5,59.99642421309046,
L_Torso_X_Back,True,3,robot,1,False,False,robot_stimuli\L_Torso_X_Back.mp4,23,,,,,,,,,0,141,141,141,,,,,,,,,,,,,941.9653578,943.0413268999998,,,,,,,946.6822896000001,946.6822896000001,946.6822896000001,946.6822896000001,946.6822896000001,946.6822896000001,946.6822896000001,946.6822896000001,None,None,None,,,,,,,,,,,941.9653578,941.9653578,None,,943.0413268999998,943.0413268999998,n,941.9653578,941.9653578,2.7543099000001803,,,23,001,2024-08-01_10h04.23.152,robot_nback_sign,2022.2.5,59.99642421309046,
L_Base_Y_For,True,3,robot,1,False,False,robot_stimuli\L_Base_Y_For.mp4,23,,,,,,,,,0,142,142,142,,,,,,,,,,,,,946.6822896000001,947.7591919999998,,,,,,,951.2901138999998,951.2901138999998,951.2901138999998,951.2901138999998,951.2901138999998,951.2901138999998,951.2901138999998,951.2901138999998,None,None,None,,,,,,,,,,,946.6822896000001,946.6822896000001,None,,947.7591919999998,947.7591919999998,n,946.6822896000001,946.6822896000001,2.755933799999866,,,23,001,2024-08-01_10h04.23.152,robot_nback_sign,2022.2.5,59.99642421309046,
L_Torso_Z_Back,False,3,robot,1,False,False,robot_stimuli\L_Torso_Z_Back.mp4,23,,,,,,,,,0,143,143,143,,,,,,,,,,,,,951.2901138999998,952.3754536999998,,,,,,,955.8856773999998,955.8856773999998,955.8856773999998,955.8856773999998,955.8856773999998,955.8856773999998,955.8856773999998,955.8856773999998,None,None,None,,,,,,,,,,,951.2901138999998,951.2901138999998,None,,952.3754536999998,952.3754536999998,n,951.2901138999998,951.2901138999998,2.323023400000011,,,23,001,2024-08-01_10h04.23.152,robot_nback_sign,2022.2.5,59.99642421309046,
R_Head_Z_For,False,3,robot,1,False,False,robot_stimuli\R_Head_Z_For.mp4,23,,,,,,,,,0,144,144,144,,,,,,,,,,,,,955.8856773999998,,,,,,,,960.6159706999999,960.6159706999999,960.6159706999999,960.6159706999999,960.6159706999999,960.6159706999999,960.6159706999999,960.6159706999999,None,None,None,,,,,,,,,,,955.8856773999998,955.8856773999998,None,,956.975776,956.975776,n,955.8856773999998,955.8856773999998,2.489947400000119,,,23,001,2024-08-01_10h04.23.152,robot_nback_sign,2022.2.5,59.99642421309046,
R_Head_Y_For,False,3,robot,1,False,False,robot_stimuli\R_Head_Y_For.mp4,23,,,,,,,,,0,145,145,145,,,,,,,,,,,,,960.6159706999999,961.6936241999999,,,,,,,965.3324311999997,965.3324311999997,965.3324311999997,965.3324311999997,965.3324311999997,965.3324311999997,965.3324311999997,965.3324311999997,None,None,None,,,,,,,,,,,960.6159706999999,960.6159706999999,None,,961.6936241999999,961.6936241999999,None,960.6159706999999,960.6159706999999,,,,23,001,2024-08-01_10h04.23.152,robot_nback_sign,2022.2.5,59.99642421309046,
L_Torso_Z_Back,True,3,robot,1,False,False,robot_stimuli\L_Torso_Z_Back.mp4,23,,,,,,,,,0,146,146,146,,,,,,,,,,,,,965.3324311999997,966.4113077999998,,,,,,,969.9257967000001,969.9257967000001,969.9257967000001,969.9257967000001,969.9257967000001,969.9257967000001,969.9257967000001,969.9257967000001,None,None,None,,,,,,,,,,,965.3324311999997,965.3324311999997,None,,966.4113077999998,966.4113077999998,n,965.3324311999997,965.3324311999997,2.9917533000000276,,,23,001,2024-08-01_10h04.23.152,robot_nback_sign,2022.2.5,59.99642421309046,
L_Torso_Z_Back,False,3,robot,1,False,False,robot_stimuli\L_Torso_Z_Back.mp4,23,,,,,,,,,0,147,147,147,,,,,,,,,,,,,969.9257967000001,971.0038945999997,,,,,,,974.5143505999997,974.5143505999997,974.5143505999997,974.5143505999997,974.5143505999997,974.5143505999997,974.5143505999997,974.5143505999997,None,None,None,,,,,,,,,,,969.9257967000001,969.9257967000001,None,,971.0038945999997,971.0038945999997,n,969.9257967000001,969.9257967000001,3.4155287999999473,,,23,001,2024-08-01_10h04.23.152,robot_nback_sign,2022.2.5,59.99642421309046,
R_Arm_Z_For,False,3,robot,1,False,False,robot_stimuli\R_Arm_Z_For.mp4,23,,,,,,,,,0,148,148,148,,,,,,,,,,,,,974.5143505999997,975.5922086999997,,,,,,,979.2301236999999,979.2301236999999,979.2301236999999,979.2301236999999,979.2301236999999,979.2301236999999,979.2301236999999,979.2301236999999,None,None,None,,,,,,,,,,,974.5143505999997,974.5143505999997,None,,975.5922086999997,975.5922086999997,None,974.5143505999997,974.5143505999997,,,,23,001,2024-08-01_10h04.23.152,robot_nback_sign,2022.2.5,59.99642421309046,
R_Base_X_Back,False,3,robot,1,False,True,robot_stimuli\R_Base_X_Back.mp4,23,,,,,,,,,0,149,149,149,,,,,,,,,,,,,979.2301236999999,980.3109087999999,,,,,,,983.9919345000001,987.5900838,983.9919345000001,987.5900838,983.9919345000001,987.5900838,983.9919345000001,987.5900838,58.24074074074074,2.696803799999998,space,,,,3.538223499999958,,,,,,,979.2301236999999,979.2301236999999,None,,980.3109087999999,980.3109087999999,n,979.2301236999999,979.2301236999999,1.7309124000000793,,,23,001,2024-08-01_10h04.23.152,robot_nback_sign,2022.2.5,59.99642421309046,
Z,False,1,letter,2,True,False,robot_stimuli\\filler.mp4,23,,,,,,,,,0,150,150,150,,,,,,,,,,,,,992.0667280999999,993.1245664999999,,,,,,,995.1474535,995.1474535,995.1474535,995.1474535,995.1474535,995.1474535,995.1474535,995.1474535,None,None,None,,,,,,,,,,,987.5900838,987.5900838,space,4.4525114999999005,,993.1245664999999,n,,,1.054507600000079,993.1245664999999,995.1474535,23,001,2024-08-01_10h04.23.152,robot_nback_sign,2022.2.5,59.99642421309046,
