sequence,odd_ones,parameter,choices,target,target_idx,condition,stimuli,block,is_block_beginning,is_block_ending,sequence_fnames,target_fname,subject,retraining.thisRepN,retraining.thisTrialN,retraining.thisN,retraining.thisIndex,training.thisRepN,training.thisTrialN,training.thisN,training.thisIndex,training_sequence_loop.thisRepN,training_sequence_loop.thisTrialN,training_sequence_loop.thisN,training_sequence_loop.thisIndex,trials.thisRepN,trials.thisTrialN,trials.thisN,trials.thisIndex,sequence_loop.thisRepN,sequence_loop.thisTrialN,sequence_loop.thisN,sequence_loop.thisIndex,langage_text.started,langage_key.started,langage_key.keys,langage_key.rt,intro_text.started,intro_key.started,intro_key.keys,intro_key.rt,training_intro_text.started,training_intro_key.started,training_intro_key.keys,training_intro_key.rt,polygon.started,polygon.stopped,cue_before_text.started,cue_before_text.stopped,training_presentation_letter.started,training_presentation_letter.stopped,recall_key.started,recall_question.started,recall_answer.started,recall_key.keys,recall_key.rt,RSME_labels.started,RSME_labels.stopped,RSME_ticks.started,RSME_ticks.stopped,RSME_text.started,RSME_text.stopped,RSME_key.started,RSME_key.stopped,RSME_ticks.response,RSME_ticks.rt,RSME_key.keys,training_intro_text.stopped,training_intro_key.stopped,RSME_key.rt,training_presentation_movie.started,experiment_beginning_text.started,experiment_beginning_keys.started,experiment_beginning_key.started,experiment_beginning_key.keys,experiment_beginning_key.rt,block_intro_text.started,block_intro_key.started,block_intro_key.keys,block_intro_key.rt,presentation_letter.started,presentation_letter.stopped,block_intro_text.stopped,block_intro_key.stopped,presentation_movie.started,participant,session,date,expName,psychopyVersion,frameRate,
,,,,,,,,,,,,,,,,,,,,,,,,,,,,,,,,,,13.511210399999996,13.511210399999996,f,2.2975315999999992,,,,,,,,,,,,,,,,,,,,,,,,,,,,,,,,,,,,,,,,,,,,,,,,,2,001,2024-07-05_10h21.00.613,robot_cogshifting_sign,2022.2.5,59.99214102952281,
,,,,,,,,,,,,,,,,,,,,,,,,,,,,,,,,,,,,,,15.8787813,15.8787813,space,133.41023009999998,,,,,,,,,,,,,,,,,,,,,,,,,,,,,,,,,,,,,,,,,,,,,2,001,2024-07-05_10h21.00.613,robot_cogshifting_sign,2022.2.5,59.99214102952281,
"['blue_left_H_45', 'blue_top_B_0', 'blue_top_Z_45', 'red_top_P_45']","{'color': 'red_top_P_45', 'position': 'blue_left_H_45', 'orientation': 'blue_top_B_0'}",position,['position'],blue_left_H_45,0,1,letter,1,True,False,"['robot_stimuli\\\\filler.mp4', 'robot_stimuli\\\\filler.mp4', 'robot_stimuli\\\\filler.mp4', 'robot_stimuli\\\\filler.mp4']",robot_stimuli\\filler.mp4,2,0,0,0,0,0,0,0,0,,,,,,,,,,,,,,,,,,,,,149.3251186,149.3251186,space,2.202966999999987,151.5579484,152.5578961,152.5578961,155.04785680000003,161.7543898,163.7870937,163.7870937,163.7870937,163.7870937,1,3.493732800000018,167.39320050000003,167.39320050000003,167.39320050000003,167.39320050000003,167.39320050000003,167.39320050000003,167.39320050000003,167.39320050000003,None,None,None,,,,,,,,,,,,,,,,,,,2,001,2024-07-05_10h21.00.613,robot_cogshifting_sign,2022.2.5,59.99214102952281,
"['blue_bottom_K_45', 'red_bottom_J_0', 'red_bottom_J_45', 'red_right_Q_45']","{'color': 'blue_bottom_K_45', 'position': 'red_right_Q_45', 'orientation': 'red_bottom_J_0'}",color,['color'],blue_bottom_K_45,0,1,letter,1,False,False,"['robot_stimuli\\\\filler.mp4', 'robot_stimuli\\\\filler.mp4', 'robot_stimuli\\\\filler.mp4', 'robot_stimuli\\\\filler.mp4']",robot_stimuli\\filler.mp4,2,0,0,0,0,0,1,1,1,,,,,,,,,,,,,,,,,,,,,167.39320050000003,167.39320050000003,None,,167.39320050000003,,168.4081423,,177.20034900000002,179.41437310000003,179.41437310000003,179.41437310000003,179.41437310000003,1,35.281847499999955,214.7250249,214.7250249,214.7250249,214.7250249,214.7250249,214.7250249,214.7250249,214.7250249,None,None,None,167.39320050000003,167.39320050000003,,,,,,,,,,,,,,,,,2,001,2024-07-05_10h21.00.613,robot_cogshifting_sign,2022.2.5,59.99214102952281,
"['blue_left_L_45', 'red_left_R_0', 'red_top_G_45', 'red_left_T_45']","{'color': 'blue_left_L_45', 'position': 'red_top_G_45', 'orientation': 'red_left_R_0'}",orientation,['orientation'],red_left_R_0,1,1,letter,1,False,True,"['robot_stimuli\\\\filler.mp4', 'robot_stimuli\\\\filler.mp4', 'robot_stimuli\\\\filler.mp4', 'robot_stimuli\\\\filler.mp4']",robot_stimuli\\filler.mp4,2,0,0,0,0,0,2,2,2,,,,,,,,,,,,,,,,,,,,,214.7250249,214.7250249,None,,214.7250249,215.72475940000004,215.72475940000004,217.7940785,224.6937676,226.91089870000002,226.91089870000002,226.91089870000002,226.91089870000002,2,0.5451290999999827,227.53171050000003,230.80274350000002,227.53171050000003,230.80274350000002,227.53171050000003,230.80274350000002,227.53171050000003,230.80274350000002,19.814814814814813,2.0132712999999853,space,214.7250249,214.7250249,3.1970324999999633,,,,,,,,,,,,,,,,2,001,2024-07-05_10h21.00.613,robot_cogshifting_sign,2022.2.5,59.99214102952281,
"['red_right_N_45', 'blue_right_F_45', 'blue_left_N_45', 'blue_right_L_0']","{'color': 'red_right_N_45', 'position': 'blue_left_N_45', 'orientation': 'blue_right_L_0'}",color,"['color', 'position']",red_right_N_45,0,2,letter,1,True,False,"['robot_stimuli\\\\filler.mp4', 'robot_stimuli\\\\filler.mp4', 'robot_stimuli\\\\filler.mp4', 'robot_stimuli\\\\filler.mp4']",robot_stimuli\\filler.mp4,2,0,0,0,0,0,3,3,3,,,,,,,,,,,,,,,,,,,,,230.80274350000002,230.80274350000002,space,3.350024399999981,234.17465750000002,235.17484810000002,235.17484810000002,237.24521200000004,243.95423970000002,245.98156340000003,245.98156340000003,245.98156340000003,245.98156340000003,1,4.874399099999991,250.8747634,250.8747634,250.8747634,250.8747634,250.8747634,250.8747634,250.8747634,250.8747634,None,None,None,,,,,,,,,,,,,,,,,,,2,001,2024-07-05_10h21.00.613,robot_cogshifting_sign,2022.2.5,59.99214102952281,
"['blue_right_Q_45', 'blue_top_J_45', 'blue_top_K_0', 'red_top_F_45']","{'color': 'red_top_F_45', 'position': 'blue_right_Q_45', 'orientation': 'blue_top_K_0'}",orientation,"['color', 'orientation']",blue_top_K_0,2,2,letter,1,False,False,"['robot_stimuli\\\\filler.mp4', 'robot_stimuli\\\\filler.mp4', 'robot_stimuli\\\\filler.mp4', 'robot_stimuli\\\\filler.mp4']",robot_stimuli\\filler.mp4,2,0,0,0,0,0,4,4,4,,,,,,,,,,,,,,,,,,,,,250.8747634,250.8747634,None,,250.8747634,251.87492130000004,251.87492130000004,253.94445970000004,260.8470577,263.07353820000003,263.07353820000003,263.07353820000003,263.07353820000003,3,2.239284699999999,265.3414472,265.3414472,265.3414472,265.3414472,265.3414472,265.3414472,265.3414472,265.3414472,None,None,None,250.8747634,250.8747634,,,,,,,,,,,,,,,,,2,001,2024-07-05_10h21.00.613,robot_cogshifting_sign,2022.2.5,59.99214102952281,
"['red_left_S_45', 'red_top_H_45', 'red_top_K_0', 'blue_top_C_45']","{'color': 'blue_top_C_45', 'position': 'red_left_S_45', 'orientation': 'red_top_K_0'}",position,"['color', 'position']",red_left_S_45,0,2,letter,1,False,True,"['robot_stimuli\\\\filler.mp4', 'robot_stimuli\\\\filler.mp4', 'robot_stimuli\\\\filler.mp4', 'robot_stimuli\\\\filler.mp4']",robot_stimuli\\filler.mp4,2,0,0,0,0,0,5,5,5,,,,,,,,,,,,,,,,,,,,,265.3414472,265.3414472,None,,265.3414472,266.341632,266.341632,268.4172244,275.132859,277.34702150000004,277.34702150000004,277.34702150000004,277.34702150000004,1,2.8456284999999326,280.2515227,283.54406220000004,280.2515227,283.54406220000004,280.2515227,283.54406220000004,280.2515227,283.54406220000004,36.94444444444444,2.496213599999976,space,265.3414472,265.3414472,3.2444620999999785,,,,,,,,,,,,,,,,2,001,2024-07-05_10h21.00.613,robot_cogshifting_sign,2022.2.5,59.99214102952281,
"['red_left_Q_0', 'blue_left_K_45', 'blue_bottom_W_0', 'blue_left_P_0']","{'color': 'red_left_Q_0', 'position': 'blue_bottom_W_0', 'orientation': 'blue_left_K_45'}",orientation,"['color', 'orientation', 'position']",blue_left_K_45,1,3,letter,1,True,False,"['robot_stimuli\\\\filler.mp4', 'robot_stimuli\\\\filler.mp4', 'robot_stimuli\\\\filler.mp4', 'robot_stimuli\\\\filler.mp4']",robot_stimuli\\filler.mp4,2,0,0,0,0,0,6,6,6,,,,,,,,,,,,,,,,,,,,,283.54406220000004,283.54406220000004,space,0.007808400000001825,283.57466500000004,284.57515720000004,284.57515720000004,286.6395365,293.1474471,295.3684596,295.3684596,295.3684596,295.3684596,2,3.1360077000000075,298.5248772,298.5248772,298.5248772,298.5248772,298.5248772,298.5248772,298.5248772,298.5248772,None,None,None,,,,,,,,,,,,,,,,,,,2,001,2024-07-05_10h21.00.613,robot_cogshifting_sign,2022.2.5,59.99214102952281,
"['red_right_N_45', 'blue_right_Z_45', 'red_right_C_0', 'red_top_Q_45']","{'color': 'blue_right_Z_45', 'position': 'red_top_Q_45', 'orientation': 'red_right_C_0'}",color,"['color', 'orientation', 'position']",blue_right_Z_45,1,3,letter,1,False,False,"['robot_stimuli\\\\filler.mp4', 'robot_stimuli\\\\filler.mp4', 'robot_stimuli\\\\filler.mp4', 'robot_stimuli\\\\filler.mp4']",robot_stimuli\\filler.mp4,2,0,0,0,0,0,7,7,7,,,,,,,,,,,,,,,,,,,,,298.5248772,298.5248772,None,,298.5248772,299.5250567,299.5250567,301.59639050000004,308.4783698,310.7050726,310.7050726,310.7050726,310.7050726,1,2.512248000000014,313.24152760000004,313.24152760000004,313.24152760000004,313.24152760000004,313.24152760000004,313.24152760000004,313.24152760000004,313.24152760000004,None,None,None,298.5248772,298.5248772,,,,,,,,,,,,,,,,,2,001,2024-07-05_10h21.00.613,robot_cogshifting_sign,2022.2.5,59.99214102952281,
"['red_bottom_X_45', 'blue_bottom_M_0', 'blue_top_C_45', 'blue_bottom_F_45']","{'color': 'red_bottom_X_45', 'position': 'blue_top_C_45', 'orientation': 'blue_bottom_M_0'}",position,"['color', 'orientation', 'position']",blue_top_C_45,2,3,letter,1,False,True,"['robot_stimuli\\\\filler.mp4', 'robot_stimuli\\\\filler.mp4', 'robot_stimuli\\\\filler.mp4', 'robot_stimuli\\\\filler.mp4']",robot_stimuli\\filler.mp4,2,0,0,0,0,0,8,8,8,,,,,,,,,,,,,,,,,,,,,313.24152760000004,313.24152760000004,None,,313.24152760000004,314.241877,314.241877,316.31305280000004,322.9988402,325.2196356,325.2196356,325.2196356,325.2196356,3,2.621213199999957,327.8833173,331.1114271,327.8833173,331.1114271,327.8833173,331.1114271,327.8833173,331.1114271,69.96913580246914,2.744344100000035,space,313.24152760000004,313.24152760000004,3.172470800000056,,,,,,,,,,,,,,,,2,001,2024-07-05_10h21.00.613,robot_cogshifting_sign,2022.2.5,59.99214102952281,
"['R_Torso_Z_For', 'L_Torso_Z_Back', 'L_Torso_Y_Back', 'L_Arm_Z_Back']","{'laterality': 'R_Torso_Z_For', 'localisation': 'L_Arm_Z_Back', 'movement': 'L_Torso_Y_Back'}",movement,['movement'],L_Torso_Y_Back,2,1,robot,2,True,False,"['robot_stimuli\\R_Torso_Z_For.mp4', 'robot_stimuli\\L_Torso_Z_Back.mp4', 'robot_stimuli\\L_Torso_Y_Back.mp4', 'robot_stimuli\\L_Arm_Z_Back.mp4']",robot_stimuli\L_Torso_Y_Back.mp4,2,0,0,0,0,0,9,9,9,,,,,,,,,,,,,,,,,,,,,331.1114271,331.1114271,space,1.5616812000000238,332.6914579,333.69157640000003,333.69157640000003,335.7859772,,,350.3205699,350.3205699,350.3205699,3,1.1120321999999447,351.45824150000004,351.45824150000004,351.45824150000004,351.45824150000004,351.45824150000004,351.45824150000004,351.45824150000004,351.45824150000004,None,None,None,,,,346.6809933,,,,,,,,,,,,,,,2,001,2024-07-05_10h21.00.613,robot_cogshifting_sign,2022.2.5,59.99214102952281,
"['R_Arm_X_Back', 'R_Torso_X_For', 'L_Arm_X_Back', 'R_Arm_Y_Back']","{'laterality': 'L_Arm_X_Back', 'localisation': 'R_Torso_X_For', 'movement': 'R_Arm_Y_Back'}",laterality,['laterality'],L_Arm_X_Back,2,1,robot,2,False,False,"['robot_stimuli\\R_Arm_X_Back.mp4', 'robot_stimuli\\R_Torso_X_For.mp4', 'robot_stimuli\\L_Arm_X_Back.mp4', 'robot_stimuli\\R_Arm_Y_Back.mp4']",robot_stimuli\L_Arm_X_Back.mp4,2,0,0,0,0,0,10,10,10,,,,,,,,,,,,,,,,,,,,,351.45824150000004,351.45824150000004,None,,351.45824150000004,352.45835700000003,352.45835700000003,354.54556610000003,,,369.4161733,369.4161733,369.4161733,3,1.1531349999999776,370.591668,370.591668,370.591668,370.591668,370.591668,370.591668,370.591668,370.591668,None,None,None,351.45824150000004,351.45824150000004,,365.7706276,,,,,,,,,,,,,,,2,001,2024-07-05_10h21.00.613,robot_cogshifting_sign,2022.2.5,59.99214102952281,
"['R_Torso_Y_For', 'R_Base_Y_For', 'R_Torso_X_For', 'L_Torso_Y_Back']","{'laterality': 'L_Torso_Y_Back', 'localisation': 'R_Base_Y_For', 'movement': 'R_Torso_X_For'}",localisation,['localisation'],R_Base_Y_For,1,1,robot,2,False,True,"['robot_stimuli\\R_Torso_Y_For.mp4', 'robot_stimuli\\R_Base_Y_For.mp4', 'robot_stimuli\\R_Torso_X_For.mp4', 'robot_stimuli\\L_Torso_Y_Back.mp4']",robot_stimuli\R_Base_Y_For.mp4,2,0,0,0,0,0,11,11,11,,,,,,,,,,,,,,,,,,,,,370.591668,370.591668,None,,370.591668,371.5918103,371.5918103,373.666804,,,388.35230870000004,388.35230870000004,388.35230870000004,2,0.9758747999999997,389.38300830000003,396.34127390000003,389.38300830000003,396.34127390000003,389.38300830000003,396.34127390000003,389.38300830000003,396.34127390000003,38.64197530864198,6.385883399999955,space,370.591668,370.591668,6.88891009999999,384.8362924,,,,,,,,,,,,,,,2,001,2024-07-05_10h21.00.613,robot_cogshifting_sign,2022.2.5,59.99214102952281,
"['R_Arm_Z_For', 'R_Base_Y_For', 'L_Arm_Y_For', 'R_Arm_Y_For']","{'laterality': 'L_Arm_Y_For', 'localisation': 'R_Base_Y_For', 'movement': 'R_Arm_Z_For'}",localisation,"['laterality', 'localisation']",R_Base_Y_For,1,2,robot,2,True,False,"['robot_stimuli\\R_Arm_Z_For.mp4', 'robot_stimuli\\R_Base_Y_For.mp4', 'robot_stimuli\\L_Arm_Y_For.mp4', 'robot_stimuli\\R_Arm_Y_For.mp4']",robot_stimuli\R_Base_Y_For.mp4,2,0,0,0,0,0,12,12,12,,,,,,,,,,,,,,,,,,,,,396.34127390000003,396.34127390000003,space,1.1559341999999475,397.5250794,398.52516349999996,398.52516349999996,400.62032020000004,,,415.31385620000003,415.31385620000003,415.31385620000003,3,2.014120300000073,417.35834940000007,417.35834940000007,417.35834940000007,417.35834940000007,417.35834940000007,417.35834940000007,417.35834940000007,417.35834940000007,None,None,None,,,,411.8048219,,,,,,,,,,,,,,,2,001,2024-07-05_10h21.00.613,robot_cogshifting_sign,2022.2.5,59.99214102952281,
"['L_Arm_Z_For', 'L_Head_Z_For', 'R_Head_Z_For', 'L_Head_Y_For']","{'laterality': 'R_Head_Z_For', 'localisation': 'L_Arm_Z_For', 'movement': 'L_Head_Y_For'}",laterality,"['laterality', 'movement']",R_Head_Z_For,2,2,robot,2,False,False,"['robot_stimuli\\L_Arm_Z_For.mp4', 'robot_stimuli\\L_Head_Z_For.mp4', 'robot_stimuli\\R_Head_Z_For.mp4', 'robot_stimuli\\L_Head_Y_For.mp4']",robot_stimuli\R_Head_Z_For.mp4,2,0,0,0,0,0,13,13,13,,,,,,,,,,,,,,,,,,,,,417.35834940000007,417.35834940000007,None,,417.35834940000007,418.35855349999997,418.35855349999997,420.43365830000005,,,435.25162320000004,435.25162320000004,435.25162320000004,3,1.8996727000000107,437.17473110000003,437.17473110000003,437.17473110000003,437.17473110000003,437.17473110000003,437.17473110000003,437.17473110000003,437.17473110000003,None,None,None,417.35834940000007,417.35834940000007,,431.6173447,,,,,,,,,,,,,,,2,001,2024-07-05_10h21.00.613,robot_cogshifting_sign,2022.2.5,59.99214102952281,
"['R_Torso_X_Back', 'L_Torso_Y_Back', 'L_Torso_X_Back', 'L_Arm_X_For']","{'laterality': 'R_Torso_X_Back', 'localisation': 'L_Arm_X_For', 'movement': 'L_Torso_Y_Back'}",movement,"['localisation', 'movement']",L_Torso_Y_Back,1,2,robot,2,False,True,"['robot_stimuli\\R_Torso_X_Back.mp4', 'robot_stimuli\\L_Torso_Y_Back.mp4', 'robot_stimuli\\L_Torso_X_Back.mp4', 'robot_stimuli\\L_Arm_X_For.mp4']",robot_stimuli\L_Torso_Y_Back.mp4,2,0,0,0,0,0,14,14,14,,,,,,,,,,,,,,,,,,,,,437.17473110000003,437.17473110000003,None,,437.17473110000003,438.1752222,438.1752222,440.2549474,,,455.0025942,455.0025942,455.0025942,3,4.957297899999972,460.01659010000003,462.9601387,460.01659010000003,462.9601387,460.01659010000003,462.9601387,460.01659010000003,462.9601387,66.88271604938271,2.216589299999896,space,437.17473110000003,437.17473110000003,2.895048999999986,451.3558206,,,,,,,,,,,,,,,2,001,2024-07-05_10h21.00.613,robot_cogshifting_sign,2022.2.5,59.99214102952281,
"['L_Base_Y_Back', 'L_Torso_X_For', 'R_Base_X_For', 'L_Base_X_Back']","{'laterality': 'R_Base_X_For', 'localisation': 'L_Torso_X_For', 'movement': 'L_Base_Y_Back'}",laterality,"['laterality', 'localisation', 'movement']",R_Base_X_For,2,3,robot,2,True,False,"['robot_stimuli\\L_Base_Y_Back.mp4', 'robot_stimuli\\L_Torso_X_For.mp4', 'robot_stimuli\\R_Base_X_For.mp4', 'robot_stimuli\\L_Base_X_Back.mp4']",robot_stimuli\R_Base_X_For.mp4,2,0,0,0,0,0,15,15,15,,,,,,,,,,,,,,,,,,,,,462.9601387,462.9601387,space,1.1674325000000323,464.1585209,465.15860440000006,465.15860440000006,467.2421571,,,481.86432479999996,481.86432479999996,481.86432479999996,3,2.576491499999989,484.4584503,484.4584503,484.4584503,484.4584503,484.4584503,484.4584503,484.4584503,484.4584503,None,None,None,,,,478.2623929,,,,,,,,,,,,,,,2,001,2024-07-05_10h21.00.613,robot_cogshifting_sign,2022.2.5,59.99214102952281,
"['L_Base_X_For', 'R_Base_Y_For', 'R_Base_X_Back', 'R_Torso_X_For']","{'laterality': 'L_Base_X_For', 'localisation': 'R_Torso_X_For', 'movement': 'R_Base_Y_For'}",movement,"['laterality', 'localisation', 'movement']",R_Base_Y_For,1,3,robot,2,False,False,"['robot_stimuli\\L_Base_X_For.mp4', 'robot_stimuli\\R_Base_Y_For.mp4', 'robot_stimuli\\R_Base_X_Back.mp4', 'robot_stimuli\\R_Torso_X_For.mp4']",robot_stimuli\R_Base_Y_For.mp4,2,0,0,0,0,0,16,16,16,,,,,,,,,,,,,,,,,,,,,484.4584503,484.4584503,None,,484.4584503,485.4585266,485.4585266,487.53432369999996,,,502.24982439999997,502.24982439999997,502.24982439999997,4,2.2142419000000615,504.49181540000006,504.49181540000006,504.49181540000006,504.49181540000006,504.49181540000006,504.49181540000006,504.49181540000006,504.49181540000006,None,None,None,484.4584503,484.4584503,,498.61132810000004,,,,,,,,,,,,,,,2,001,2024-07-05_10h21.00.613,robot_cogshifting_sign,2022.2.5,59.99214102952281,
"['L_Head_Y_For', 'L_Torso_Y_For', 'R_Torso_Y_Back', 'L_Torso_X_Back']","{'laterality': 'R_Torso_Y_Back', 'localisation': 'L_Head_Y_For', 'movement': 'L_Torso_X_Back'}",localisation,"['laterality', 'localisation', 'movement']",L_Head_Y_For,0,3,robot,2,False,True,"['robot_stimuli\\L_Head_Y_For.mp4', 'robot_stimuli\\L_Torso_Y_For.mp4', 'robot_stimuli\\R_Torso_Y_Back.mp4', 'robot_stimuli\\L_Torso_X_Back.mp4']",robot_stimuli\L_Head_Y_For.mp4,2,0,0,0,0,0,17,17,17,,,,,,,,,,,,,,,,,,,,,504.49181540000006,504.49181540000006,None,,504.49181540000006,505.49209440000004,505.49209440000004,507.56724270000007,,,522.37069,522.37069,522.37069,3,7.109524800000045,529.5327665,532.5813112,529.5327665,532.5813112,529.5327665,532.5813112,529.5327665,532.5813112,59.783950617283956,2.4164971999999807,space,504.49181540000006,504.49181540000006,3.0111228999999327,518.7316189000001,,,,,,,,,,,,,,,2,001,2024-07-05_10h21.00.613,robot_cogshifting_sign,2022.2.5,59.99214102952281,
,,,,,,,,,,,,,,0,0,0,0,,,,,,,,,,,,,,,,,,,,,,,,,,,,,,,,,,,,,,,,,,,,,,,,,,,,,,,532.5813112,532.5813112,532.5813112,c,2.1630118000000635,,,,,,,,,,2,001,2024-07-05_10h21.00.613,robot_cogshifting_sign,2022.2.5,59.99214102952281,
"['red_top_X_45', 'red_right_Q_45', 'red_top_W_0', 'blue_top_F_45']","{'color': 'blue_top_F_45', 'position': 'red_right_Q_45', 'orientation': 'red_top_W_0'}",orientation,"['orientation', 'position']",red_top_W_0,2,2,letter,1,True,False,"['robot_stimuli\\\\filler.mp4', 'robot_stimuli\\\\filler.mp4', 'robot_stimuli\\\\filler.mp4', 'robot_stimuli\\\\filler.mp4']",robot_stimuli\\filler.mp4,2,,,,,,,,,,,,,0,0,0,0,,,,,,,,,,,,,,,,,,,536.6087764,538.6626032,,,547.5373345,547.5373345,547.5373345,3,2.0401402000000104,549.6088844,549.6088844,549.6088844,549.6088844,549.6088844,549.6088844,549.6088844,549.6088844,None,None,None,,,,,,,,,,534.7926325,534.7926325,space,1.7845800999999852,545.5222172,547.5373345,,,,2,001,2024-07-05_10h21.00.613,robot_cogshifting_sign,2022.2.5,59.99214102952281,
"['red_bottom_K_45', 'blue_bottom_S_0', 'red_left_L_0', 'red_bottom_R_0']","{'color': 'blue_bottom_S_0', 'position': 'red_left_L_0', 'orientation': 'red_bottom_K_45'}",position,"['orientation', 'position']",red_left_L_0,2,2,letter,1,False,False,"['robot_stimuli\\\\filler.mp4', 'robot_stimuli\\\\filler.mp4', 'robot_stimuli\\\\filler.mp4', 'robot_stimuli\\\\filler.mp4']",robot_stimuli\\filler.mp4,2,,,,,,,,,,,,,0,1,1,1,,,,,,,,,,,,,,,,,,,549.6088844,551.6654374,,,560.5819605,560.5819605,560.5819605,3,2.0255743999999964,562.6256575,562.6256575,562.6256575,562.6256575,562.6256575,562.6256575,562.6256575,562.6256575,None,None,None,,,,,,,,,,549.6088844,549.6088844,None,,558.3684483000001,560.5819605,549.6088844,549.6088844,,2,001,2024-07-05_10h21.00.613,robot_cogshifting_sign,2022.2.5,59.99214102952281,
"['red_bottom_R_45', 'red_left_X_0', 'red_left_F_45', 'blue_left_M_45']","{'color': 'blue_left_M_45', 'position': 'red_bottom_R_45', 'orientation': 'red_left_X_0'}",color,"['color', 'orientation']",blue_left_M_45,3,2,letter,1,False,False,"['robot_stimuli\\\\filler.mp4', 'robot_stimuli\\\\filler.mp4', 'robot_stimuli\\\\filler.mp4', 'robot_stimuli\\\\filler.mp4']",robot_stimuli\\filler.mp4,2,,,,,,,,,,,,,0,2,2,2,,,,,,,,,,,,,,,,,,,562.6256575,564.676961,,,573.5657491000001,573.5657491000001,573.5657491000001,4,2.0911365999999276,575.6754859,575.6754859,575.6754859,575.6754859,575.6754859,575.6754859,575.6754859,575.6754859,None,None,None,,,,,,,,,,562.6256575,562.6256575,None,,571.3450272,573.5657491000001,562.6256575,562.6256575,,2,001,2024-07-05_10h21.00.613,robot_cogshifting_sign,2022.2.5,59.99214102952281,
"['red_bottom_K_0', 'red_top_D_0', 'red_bottom_C_45', 'blue_bottom_H_0']","{'color': 'blue_bottom_H_0', 'position': 'red_top_D_0', 'orientation': 'red_bottom_C_45'}",position,"['orientation', 'position']",red_top_D_0,1,2,letter,1,False,False,"['robot_stimuli\\\\filler.mp4', 'robot_stimuli\\\\filler.mp4', 'robot_stimuli\\\\filler.mp4', 'robot_stimuli\\\\filler.mp4']",robot_stimuli\\filler.mp4,2,,,,,,,,,,,,,0,3,3,3,,,,,,,,,,,,,,,,,,,575.6754859,577.7333159,,,586.6136692,586.6136692,586.6136692,2,2.482971600000056,589.1256005,589.1256005,589.1256005,589.1256005,589.1256005,589.1256005,589.1256005,589.1256005,None,None,None,,,,,,,,,,575.6754859,575.6754859,None,,584.3985398,586.6136692,575.6754859,575.6754859,,2,001,2024-07-05_10h21.00.613,robot_cogshifting_sign,2022.2.5,59.99214102952281,
"['red_top_B_45', 'blue_bottom_K_45', 'red_bottom_H_0', 'red_bottom_N_45']","{'color': 'blue_bottom_K_45', 'position': 'red_top_B_45', 'orientation': 'red_bottom_H_0'}",color,"['color', 'orientation']",blue_bottom_K_45,1,2,letter,1,False,False,"['robot_stimuli\\\\filler.mp4', 'robot_stimuli\\\\filler.mp4', 'robot_stimuli\\\\filler.mp4', 'robot_stimuli\\\\filler.mp4']",robot_stimuli\\filler.mp4,2,,,,,,,,,,,,,0,4,4,4,,,,,,,,,,,,,,,,,,,589.1256005,591.1861702,,,600.0547954,600.0547954,600.0547954,2,1.001801100000094,601.0755401,601.0755401,601.0755401,601.0755401,601.0755401,601.0755401,601.0755401,601.0755401,None,None,None,,,,,,,,,,589.1256005,589.1256005,None,,597.8333690000001,600.0547954,589.1256005,589.1256005,,2,001,2024-07-05_10h21.00.613,robot_cogshifting_sign,2022.2.5,59.99214102952281,
"['blue_right_D_0', 'blue_bottom_T_45', 'red_right_X_45', 'blue_right_S_45']","{'color': 'red_right_X_45', 'position': 'blue_bottom_T_45', 'orientation': 'blue_right_D_0'}",orientation,"['orientation', 'position']",blue_right_D_0,0,2,letter,1,False,False,"['robot_stimuli\\\\filler.mp4', 'robot_stimuli\\\\filler.mp4', 'robot_stimuli\\\\filler.mp4', 'robot_stimuli\\\\filler.mp4']",robot_stimuli\\filler.mp4,2,,,,,,,,,,,,,0,5,5,5,,,,,,,,,,,,,,,,,,,601.0755401,603.1294785,,,611.8096141,611.8096141,611.8096141,1,1.6631181999999995,613.4922178,613.4922178,613.4922178,613.4922178,613.4922178,613.4922178,613.4922178,613.4922178,None,None,None,,,,,,,,,,601.0755401,601.0755401,None,,609.7882787,611.8096141,601.0755401,601.0755401,,2,001,2024-07-05_10h21.00.613,robot_cogshifting_sign,2022.2.5,59.99214102952281,
"['red_left_T_0', 'red_right_R_45', 'blue_left_G_45', 'red_left_M_45']","{'color': 'blue_left_G_45', 'position': 'red_right_R_45', 'orientation': 'red_left_T_0'}",position,"['color', 'position']",red_right_R_45,1,2,letter,1,False,False,"['robot_stimuli\\\\filler.mp4', 'robot_stimuli\\\\filler.mp4', 'robot_stimuli\\\\filler.mp4', 'robot_stimuli\\\\filler.mp4']",robot_stimuli\\filler.mp4,2,,,,,,,,,,,,,0,6,6,6,,,,,,,,,,,,,,,,,,,613.4922178,615.5451632,,,624.6416169,624.6416169,624.6416169,3,2.7586529999999954,627.4254769,627.4254769,627.4254769,627.4254769,627.4254769,627.4254769,627.4254769,627.4254769,None,None,None,,,,,,,,,,613.4922178,613.4922178,None,,622.4295853,624.6416169,613.4922178,613.4922178,,2,001,2024-07-05_10h21.00.613,robot_cogshifting_sign,2022.2.5,59.99214102952281,
"['blue_top_X_45', 'red_top_H_45', 'blue_top_G_0', 'blue_left_D_45']","{'color': 'red_top_H_45', 'position': 'blue_left_D_45', 'orientation': 'blue_top_G_0'}",color,"['color', 'position']",red_top_H_45,1,2,letter,1,False,False,"['robot_stimuli\\\\filler.mp4', 'robot_stimuli\\\\filler.mp4', 'robot_stimuli\\\\filler.mp4', 'robot_stimuli\\\\filler.mp4']",robot_stimuli\\filler.mp4,2,,,,,,,,,,,,,0,7,7,7,,,,,,,,,,,,,,,,,,,627.4254769,629.4820939,,,638.3760318,638.3760318,638.3760318,2,2.5606405999999566,640.9597522,640.9597522,640.9597522,640.9597522,640.9597522,640.9597522,640.9597522,640.9597522,None,None,None,,,,,,,,,,627.4254769,627.4254769,None,,636.1598608,638.3760318,627.4254769,627.4254769,,2,001,2024-07-05_10h21.00.613,robot_cogshifting_sign,2022.2.5,59.99214102952281,
"['blue_right_F_0', 'blue_left_P_45', 'red_right_Z_45', 'blue_right_F_45']","{'color': 'red_right_Z_45', 'position': 'blue_left_P_45', 'orientation': 'blue_right_F_0'}",orientation,"['orientation', 'position']",blue_right_F_0,0,2,letter,1,False,True,"['robot_stimuli\\\\filler.mp4', 'robot_stimuli\\\\filler.mp4', 'robot_stimuli\\\\filler.mp4', 'robot_stimuli\\\\filler.mp4']",robot_stimuli\\filler.mp4,2,,,,,,,,,,,,,0,8,8,8,,,,,,,,,,,,,,,,,,,640.9597522,643.0147848,,,651.9090697,651.9090697,651.9090697,2,3.259734100000074,655.2178911,658.6920492,655.2178911,658.6920492,655.2178911,658.6920492,655.2178911,658.6920492,50.21604938271606,2.8460006999999905,space,,,3.4226938000000615,,,,,,,640.9597522,640.9597522,None,,649.889713,651.9090697,640.9597522,640.9597522,,2,001,2024-07-05_10h21.00.613,robot_cogshifting_sign,2022.2.5,59.99214102952281,
"['red_right_S_45', 'blue_bottom_V_45', 'blue_right_D_0', 'blue_right_R_45']","{'color': 'red_right_S_45', 'position': 'blue_bottom_V_45', 'orientation': 'blue_right_D_0'}",position,['position'],blue_bottom_V_45,1,1,letter,1,True,False,"['robot_stimuli\\\\filler.mp4', 'robot_stimuli\\\\filler.mp4', 'robot_stimuli\\\\filler.mp4', 'robot_stimuli\\\\filler.mp4']",robot_stimuli\\filler.mp4,2,,,,,,,,,,,,,0,9,9,9,,,,,,,,,,,,,,,,,,,660.0255537,662.0809252,,,671.1623037,671.1623037,671.1623037,2,0.20614330000002212,671.3923081,671.3923081,671.3923081,671.3923081,671.3923081,671.3923081,671.3923081,671.3923081,None,None,None,,,,,,,,,,658.6920492,658.6920492,space,1.3089186000000979,668.9504482,671.1623037,,,,2,001,2024-07-05_10h21.00.613,robot_cogshifting_sign,2022.2.5,59.99214102952281,
"['blue_bottom_F_45', 'red_bottom_D_45', 'blue_bottom_F_0', 'blue_left_Q_45']","{'color': 'red_bottom_D_45', 'position': 'blue_left_Q_45', 'orientation': 'blue_bottom_F_0'}",orientation,['orientation'],blue_bottom_F_0,2,1,letter,1,False,False,"['robot_stimuli\\\\filler.mp4', 'robot_stimuli\\\\filler.mp4', 'robot_stimuli\\\\filler.mp4', 'robot_stimuli\\\\filler.mp4']",robot_stimuli\\filler.mp4,2,,,,,,,,,,,,,0,10,10,10,,,,,,,,,,,,,,,,,,,671.3923081,673.4478875,,,682.333898,682.333898,682.333898,3,0.8668055000000692,683.2256649,683.2256649,683.2256649,683.2256649,683.2256649,683.2256649,683.2256649,683.2256649,None,None,None,,,,,,,,,,671.3923081,671.3923081,None,,680.1172812,682.333898,671.3923081,671.3923081,,2,001,2024-07-05_10h21.00.613,robot_cogshifting_sign,2022.2.5,59.99214102952281,
"['blue_right_T_0', 'red_right_V_0', 'blue_bottom_P_0', 'blue_right_Q_45']","{'color': 'red_right_V_0', 'position': 'blue_bottom_P_0', 'orientation': 'blue_right_Q_45'}",position,['position'],blue_bottom_P_0,2,1,letter,1,False,False,"['robot_stimuli\\\\filler.mp4', 'robot_stimuli\\\\filler.mp4', 'robot_stimuli\\\\filler.mp4', 'robot_stimuli\\\\filler.mp4']",robot_stimuli\\filler.mp4,2,,,,,,,,,,,,,0,11,11,11,,,,,,,,,,,,,,,,,,,683.2256649,685.2797409,,,694.1474138,694.1474138,694.1474138,3,0.3095030000000776,694.4756058,694.4756058,694.4756058,694.4756058,694.4756058,694.4756058,694.4756058,694.4756058,None,None,None,,,,,,,,,,683.2256649,683.2256649,None,,691.9334537,694.1474138,683.2256649,683.2256649,,2,001,2024-07-05_10h21.00.613,robot_cogshifting_sign,2022.2.5,59.99214102952281,
"['blue_right_R_0', 'red_left_D_0', 'red_right_Z_0', 'red_right_Z_45']","{'color': 'blue_right_R_0', 'position': 'red_left_D_0', 'orientation': 'red_right_Z_45'}",color,['color'],blue_right_R_0,0,1,letter,1,False,False,"['robot_stimuli\\\\filler.mp4', 'robot_stimuli\\\\filler.mp4', 'robot_stimuli\\\\filler.mp4', 'robot_stimuli\\\\filler.mp4']",robot_stimuli\\filler.mp4,2,,,,,,,,,,,,,0,12,12,12,,,,,,,,,,,,,,,,,,,694.4756058,696.5311329,,,705.2019848,705.2019848,705.2019848,1,0.3187109000000561,705.5422409,705.5422409,705.5422409,705.5422409,705.5422409,705.5422409,705.5422409,705.5422409,None,None,None,,,,,,,,,,694.4756058,694.4756058,None,,703.1877766,705.2019848,694.4756058,694.4756058,,2,001,2024-07-05_10h21.00.613,robot_cogshifting_sign,2022.2.5,59.99214102952281,
"['blue_left_L_0', 'blue_bottom_R_45', 'red_left_L_45', 'blue_left_K_45']","{'color': 'red_left_L_45', 'position': 'blue_bottom_R_45', 'orientation': 'blue_left_L_0'}",color,['color'],red_left_L_45,2,1,letter,1,False,False,"['robot_stimuli\\\\filler.mp4', 'robot_stimuli\\\\filler.mp4', 'robot_stimuli\\\\filler.mp4', 'robot_stimuli\\\\filler.mp4']",robot_stimuli\\filler.mp4,2,,,,,,,,,,,,,0,13,13,13,,,,,,,,,,,,,,,,,,,705.5422409,707.5971453,,,716.503193,716.503193,716.503193,3,2.0734327000000263,718.6090539,718.6090539,718.6090539,718.6090539,718.6090539,718.6090539,718.6090539,718.6090539,None,None,None,,,,,,,,,,705.5422409,705.5422409,None,,714.4892277,716.503193,705.5422409,705.5422409,,2,001,2024-07-05_10h21.00.613,robot_cogshifting_sign,2022.2.5,59.99214102952281,
"['red_bottom_L_0', 'blue_bottom_L_45', 'red_top_G_45', 'red_bottom_S_45']","{'color': 'blue_bottom_L_45', 'position': 'red_top_G_45', 'orientation': 'red_bottom_L_0'}",color,['color'],blue_bottom_L_45,1,1,letter,1,False,False,"['robot_stimuli\\\\filler.mp4', 'robot_stimuli\\\\filler.mp4', 'robot_stimuli\\\\filler.mp4', 'robot_stimuli\\\\filler.mp4']",robot_stimuli\\filler.mp4,2,,,,,,,,,,,,,0,14,14,14,,,,,,,,,,,,,,,,,,,718.6090539,720.6744287,,,729.1577977000001,729.1577977000001,729.1577977000001,2,0.2907012999999239,729.4766373,729.4766373,729.4766373,729.4766373,729.4766373,729.4766373,729.4766373,729.4766373,None,None,None,,,,,,,,,,718.6090539,718.6090539,None,,726.9472606,729.1577977000001,718.6090539,718.6090539,,2,001,2024-07-05_10h21.00.613,robot_cogshifting_sign,2022.2.5,59.99214102952281,
"['blue_top_M_45', 'blue_top_Z_0', 'blue_right_D_45', 'red_top_K_45']","{'color': 'red_top_K_45', 'position': 'blue_right_D_45', 'orientation': 'blue_top_Z_0'}",orientation,['orientation'],blue_top_Z_0,1,1,letter,1,False,False,"['robot_stimuli\\\\filler.mp4', 'robot_stimuli\\\\filler.mp4', 'robot_stimuli\\\\filler.mp4', 'robot_stimuli\\\\filler.mp4']",robot_stimuli\\filler.mp4,2,,,,,,,,,,,,,0,15,15,15,,,,,,,,,,,,,,,,,,,729.4766373,731.5298280000001,,,740.2208915,740.2208915,740.2208915,2,0.4114760000000075,740.6589531,740.6589531,740.6589531,740.6589531,740.6589531,740.6589531,740.6589531,740.6589531,None,None,None,,,,,,,,,,729.4766373,729.4766373,None,,738.1998483,740.2208915,729.4766373,729.4766373,,2,001,2024-07-05_10h21.00.613,robot_cogshifting_sign,2022.2.5,59.99214102952281,
"['blue_bottom_D_45', 'blue_left_Q_45', 'red_left_R_45', 'blue_left_D_0']","{'color': 'red_left_R_45', 'position': 'blue_bottom_D_45', 'orientation': 'blue_left_D_0'}",position,['position'],blue_bottom_D_45,0,1,letter,1,False,False,"['robot_stimuli\\\\filler.mp4', 'robot_stimuli\\\\filler.mp4', 'robot_stimuli\\\\filler.mp4', 'robot_stimuli\\\\filler.mp4']",robot_stimuli\\filler.mp4,2,,,,,,,,,,,,,0,16,16,16,,,,,,,,,,,,,,,,,,,740.6589531,742.7217105,,,751.4055297,751.4055297,751.4055297,3,5.171832099999975,756.6091186,756.6091186,756.6091186,756.6091186,756.6091186,756.6091186,756.6091186,756.6091186,None,None,None,,,,,,,,,,740.6589531,740.6589531,None,,749.1829802,751.4055297,740.6589531,740.6589531,,2,001,2024-07-05_10h21.00.613,robot_cogshifting_sign,2022.2.5,59.99214102952281,
"['blue_bottom_W_45', 'blue_right_R_45', 'red_right_T_45', 'blue_right_K_0']","{'color': 'red_right_T_45', 'position': 'blue_bottom_W_45', 'orientation': 'blue_right_K_0'}",orientation,['orientation'],blue_right_K_0,3,1,letter,1,False,True,"['robot_stimuli\\\\filler.mp4', 'robot_stimuli\\\\filler.mp4', 'robot_stimuli\\\\filler.mp4', 'robot_stimuli\\\\filler.mp4']",robot_stimuli\\filler.mp4,2,,,,,,,,,,,,,0,17,17,17,,,,,,,,,,,,,,,,,,,756.6091186,758.6686996,,,767.3440645000001,767.3440645000001,767.3440645000001,4,0.24935140000003742,767.6507156,770.7496331,767.6507156,770.7496331,767.6507156,770.7496331,767.6507156,770.7496331,31.38888888888889,2.220240399999966,space,,,3.029197400000058,,,,,,,756.6091186,756.6091186,None,,765.1338413,767.3440645000001,756.6091186,756.6091186,,2,001,2024-07-05_10h21.00.613,robot_cogshifting_sign,2022.2.5,59.99214102952281,
"['blue_top_P_45', 'red_top_C_45', 'blue_top_W_0', 'blue_right_X_45']","{'color': 'red_top_C_45', 'position': 'blue_right_X_45', 'orientation': 'blue_top_W_0'}",position,"['color', 'orientation', 'position']",blue_right_X_45,3,3,letter,1,True,False,"['robot_stimuli\\\\filler.mp4', 'robot_stimuli\\\\filler.mp4', 'robot_stimuli\\\\filler.mp4', 'robot_stimuli\\\\filler.mp4']",robot_stimuli\\filler.mp4,2,,,,,,,,,,,,,0,18,18,18,,,,,,,,,,,,,,,,,,,772.0755145,774.1366494,,,783.1972057,783.1972057,783.1972057,4,1.4754487000000296,784.6925098,784.6925098,784.6925098,784.6925098,784.6925098,784.6925098,784.6925098,784.6925098,None,None,None,,,,,,,,,,770.7496331,770.7496331,space,1.3064648000000858,780.9814858,783.1972057,,,,2,001,2024-07-05_10h21.00.613,robot_cogshifting_sign,2022.2.5,59.99214102952281,
"['blue_top_X_45', 'red_top_M_0', 'blue_left_R_0', 'blue_top_C_0']","{'color': 'red_top_M_0', 'position': 'blue_left_R_0', 'orientation': 'blue_top_X_45'}",orientation,"['color', 'orientation', 'position']",blue_top_X_45,0,3,letter,1,False,False,"['robot_stimuli\\\\filler.mp4', 'robot_stimuli\\\\filler.mp4', 'robot_stimuli\\\\filler.mp4', 'robot_stimuli\\\\filler.mp4']",robot_stimuli\\filler.mp4,2,,,,,,,,,,,,,0,19,19,19,,,,,,,,,,,,,,,,,,,784.6925098,786.7450804,,,795.4303116,795.4303116,795.4303116,1,0.8831288000000228,796.342397,796.342397,796.342397,796.342397,796.342397,796.342397,796.342397,796.342397,None,None,None,,,,,,,,,,784.6925098,784.6925098,None,,793.2133674,795.4303116,784.6925098,784.6925098,,2,001,2024-07-05_10h21.00.613,robot_cogshifting_sign,2022.2.5,59.99214102952281,
"['red_top_R_45', 'blue_right_M_45', 'red_right_G_0', 'red_right_B_45']","{'color': 'blue_right_M_45', 'position': 'red_top_R_45', 'orientation': 'red_right_G_0'}",color,"['color', 'orientation', 'position']",blue_right_M_45,1,3,letter,1,False,False,"['robot_stimuli\\\\filler.mp4', 'robot_stimuli\\\\filler.mp4', 'robot_stimuli\\\\filler.mp4', 'robot_stimuli\\\\filler.mp4']",robot_stimuli\\filler.mp4,2,,,,,,,,,,,,,0,20,20,20,,,,,,,,,,,,,,,,,,,796.342397,798.3972623,,,807.2765668000001,807.2765668000001,807.2765668000001,2,2.189016700000039,809.4925689,809.4925689,809.4925689,809.4925689,809.4925689,809.4925689,809.4925689,809.4925689,None,None,None,,,,,,,,,,796.342397,796.342397,None,,805.0654837,807.2765668000001,796.342397,796.342397,,2,001,2024-07-05_10h21.00.613,robot_cogshifting_sign,2022.2.5,59.99214102952281,
"['red_left_R_45', 'red_right_C_0', 'red_left_L_0', 'blue_left_D_0']","{'color': 'blue_left_D_0', 'position': 'red_right_C_0', 'orientation': 'red_left_R_45'}",position,"['color', 'orientation', 'position']",red_right_C_0,1,3,letter,1,False,False,"['robot_stimuli\\\\filler.mp4', 'robot_stimuli\\\\filler.mp4', 'robot_stimuli\\\\filler.mp4', 'robot_stimuli\\\\filler.mp4']",robot_stimuli\\filler.mp4,2,,,,,,,,,,,,,0,21,21,21,,,,,,,,,,,,,,,,,,,809.4925689,811.5519568,,,820.2171278000001,820.2171278000001,820.2171278000001,2,1.6951365000000038,821.9426417,821.9426417,821.9426417,821.9426417,821.9426417,821.9426417,821.9426417,821.9426417,None,None,None,,,,,,,,,,809.4925689,809.4925689,None,,818.2030914000001,820.2171278000001,809.4925689,809.4925689,,2,001,2024-07-05_10h21.00.613,robot_cogshifting_sign,2022.2.5,59.99214102952281,
"['blue_right_G_0', 'blue_left_L_0', 'red_right_C_0', 'blue_right_C_45']","{'color': 'red_right_C_0', 'position': 'blue_left_L_0', 'orientation': 'blue_right_C_45'}",color,"['color', 'orientation', 'position']",red_right_C_0,2,3,letter,1,False,False,"['robot_stimuli\\\\filler.mp4', 'robot_stimuli\\\\filler.mp4', 'robot_stimuli\\\\filler.mp4', 'robot_stimuli\\\\filler.mp4']",robot_stimuli\\filler.mp4,2,,,,,,,,,,,,,0,22,22,22,,,,,,,,,,,,,,,,,,,821.9426417,824.003915,,,832.6851379,832.6851379,832.6851379,3,1.6116356000000138,834.3259589,834.3259589,834.3259589,834.3259589,834.3259589,834.3259589,834.3259589,834.3259589,None,None,None,,,,,,,,,,821.9426417,821.9426417,None,,830.4636851,832.6851379,821.9426417,821.9426417,,2,001,2024-07-05_10h21.00.613,robot_cogshifting_sign,2022.2.5,59.99214102952281,
"['blue_top_K_45', 'blue_top_L_0', 'red_top_B_0', 'blue_bottom_W_0']","{'color': 'red_top_B_0', 'position': 'blue_bottom_W_0', 'orientation': 'blue_top_K_45'}",position,"['color', 'orientation', 'position']",blue_bottom_W_0,3,3,letter,1,False,False,"['robot_stimuli\\\\filler.mp4', 'robot_stimuli\\\\filler.mp4', 'robot_stimuli\\\\filler.mp4', 'robot_stimuli\\\\filler.mp4']",robot_stimuli\\filler.mp4,2,,,,,,,,,,,,,0,23,23,23,,,,,,,,,,,,,,,,,,,834.3259589,836.3828808000001,,,845.2612312,845.2612312,845.2612312,4,1.2762497999999738,846.5591559000001,846.5591559000001,846.5591559000001,846.5591559000001,846.5591559000001,846.5591559000001,846.5591559000001,846.5591559000001,None,None,None,,,,,,,,,,834.3259589,834.3259589,None,,843.0515793000001,845.2612312,834.3259589,834.3259589,,2,001,2024-07-05_10h21.00.613,robot_cogshifting_sign,2022.2.5,59.99214102952281,
"['red_bottom_J_45', 'red_bottom_G_0', 'red_right_M_45', 'blue_bottom_F_45']","{'color': 'blue_bottom_F_45', 'position': 'red_right_M_45', 'orientation': 'red_bottom_G_0'}",orientation,"['color', 'orientation', 'position']",red_bottom_G_0,1,3,letter,1,False,False,"['robot_stimuli\\\\filler.mp4', 'robot_stimuli\\\\filler.mp4', 'robot_stimuli\\\\filler.mp4', 'robot_stimuli\\\\filler.mp4']",robot_stimuli\\filler.mp4,2,,,,,,,,,,,,,0,24,24,24,,,,,,,,,,,,,,,,,,,846.5591559000001,848.6164266000001,,,857.2994626,857.2994626,857.2994626,1,2.6697713999999593,859.992957,859.992957,859.992957,859.992957,859.992957,859.992957,859.992957,859.992957,None,None,None,,,,,,,,,,846.5591559000001,846.5591559000001,None,,855.0825059,857.2994626,846.5591559000001,846.5591559000001,,2,001,2024-07-05_10h21.00.613,robot_cogshifting_sign,2022.2.5,59.99214102952281,
"['red_bottom_C_0', 'red_top_R_45', 'red_bottom_Z_45', 'blue_bottom_L_45']","{'color': 'blue_bottom_L_45', 'position': 'red_top_R_45', 'orientation': 'red_bottom_C_0'}",orientation,"['color', 'orientation', 'position']",red_bottom_C_0,0,3,letter,1,False,False,"['robot_stimuli\\\\filler.mp4', 'robot_stimuli\\\\filler.mp4', 'robot_stimuli\\\\filler.mp4', 'robot_stimuli\\\\filler.mp4']",robot_stimuli\\filler.mp4,2,,,,,,,,,,,,,0,25,25,25,,,,,,,,,,,,,,,,,,,859.992957,862.0568522,,,870.5567691,870.5567691,870.5567691,1,1.7485671000000735,872.3262798000001,872.3262798000001,872.3262798000001,872.3262798000001,872.3262798000001,872.3262798000001,872.3262798000001,872.3262798000001,None,None,None,,,,,,,,,,859.992957,859.992957,None,,868.5405113,870.5567691,859.992957,859.992957,,2,001,2024-07-05_10h21.00.613,robot_cogshifting_sign,2022.2.5,59.99214102952281,
"['blue_top_R_45', 'red_top_P_0', 'blue_top_B_0', 'blue_left_R_0']","{'color': 'red_top_P_0', 'position': 'blue_left_R_0', 'orientation': 'blue_top_R_45'}",color,"['color', 'orientation', 'position']",red_top_P_0,1,3,letter,1,False,True,"['robot_stimuli\\\\filler.mp4', 'robot_stimuli\\\\filler.mp4', 'robot_stimuli\\\\filler.mp4', 'robot_stimuli\\\\filler.mp4']",robot_stimuli\\filler.mp4,2,,,,,,,,,,,,,0,26,26,26,,,,,,,,,,,,,,,,,,,872.3262798000001,874.3856345,,,883.2647605,883.2647605,883.2647605,2,2.151008500000117,885.4681247,888.8596332,885.4681247,888.8596332,885.4681247,888.8596332,885.4681247,888.8596332,70.12345679012346,2.60588939999991,space,,,3.3236242000000544,,,,,,,872.3262798000001,872.3262798000001,None,,881.046211,883.2647605,872.3262798000001,872.3262798000001,,2,001,2024-07-05_10h21.00.613,robot_cogshifting_sign,2022.2.5,59.99214102952281,
"['R_Head_Z_Back', 'R_Arm_Y_For', 'L_Head_Y_For', 'R_Head_Y_For']","{'laterality': 'L_Head_Y_For', 'localisation': 'R_Arm_Y_For', 'movement': 'R_Head_Z_Back'}",localisation,"['laterality', 'localisation', 'movement']",R_Arm_Y_For,1,3,robot,2,True,False,"['robot_stimuli\\R_Head_Z_Back.mp4', 'robot_stimuli\\R_Arm_Y_For.mp4', 'robot_stimuli\\L_Head_Y_For.mp4', 'robot_stimuli\\R_Head_Y_For.mp4']",robot_stimuli\R_Arm_Y_For.mp4,2,,,,,,,,,,,,,0,27,27,27,,,,,,,,,,,,,,,,,,,890.2927699,892.3759049,,,907.0637820000001,907.0637820000001,907.0637820000001,3,1.7691053000001062,908.859531,908.859531,908.859531,908.859531,908.859531,908.859531,908.859531,908.859531,None,None,None,,,,,,,,,,888.8596332,888.8596332,space,1.4135910999999766,,,,,903.4355779,2,001,2024-07-05_10h21.00.613,robot_cogshifting_sign,2022.2.5,59.99214102952281,
"['R_Head_Y_For', 'L_Head_Y_Back', 'L_Head_X_For', 'L_Base_Y_For']","{'laterality': 'R_Head_Y_For', 'localisation': 'L_Base_Y_For', 'movement': 'L_Head_X_For'}",movement,"['laterality', 'localisation', 'movement']",L_Head_X_For,2,3,robot,2,False,False,"['robot_stimuli\\R_Head_Y_For.mp4', 'robot_stimuli\\L_Head_Y_Back.mp4', 'robot_stimuli\\L_Head_X_For.mp4', 'robot_stimuli\\L_Base_Y_For.mp4']",robot_stimuli\L_Head_X_For.mp4,2,,,,,,,,,,,,,0,28,28,28,,,,,,,,,,,,,,,,,,,908.859531,910.9302126000001,,,925.5869592,925.5869592,925.5869592,4,1.582182200000048,927.1926463000001,927.1926463000001,927.1926463000001,927.1926463000001,927.1926463000001,927.1926463000001,927.1926463000001,927.1926463000001,None,None,None,,,,,,,,,,908.859531,908.859531,None,,,,908.859531,908.859531,922.0518486,2,001,2024-07-05_10h21.00.613,robot_cogshifting_sign,2022.2.5,59.99214102952281,
"['L_Torso_Y_Back', 'R_Head_Y_Back', 'R_Torso_X_For', 'R_Torso_Y_Back']","{'laterality': 'L_Torso_Y_Back', 'localisation': 'R_Head_Y_Back', 'movement': 'R_Torso_X_For'}",movement,"['laterality', 'localisation', 'movement']",R_Torso_X_For,2,3,robot,2,False,False,"['robot_stimuli\\L_Torso_Y_Back.mp4', 'robot_stimuli\\R_Head_Y_Back.mp4', 'robot_stimuli\\R_Torso_X_For.mp4', 'robot_stimuli\\R_Torso_Y_Back.mp4']",robot_stimuli\R_Torso_X_For.mp4,2,,,,,,,,,,,,,0,29,29,29,,,,,,,,,,,,,,,,,,,927.1926463000001,929.2665507,,,943.9114742,943.9114742,943.9114742,3,1.384831299999874,945.3261355999999,945.3261355999999,945.3261355999999,945.3261355999999,945.3261355999999,945.3261355999999,945.3261355999999,945.3261355999999,None,None,None,,,,,,,,,,927.1926463000001,927.1926463000001,None,,,,927.1926463000001,927.1926463000001,940.2787924,2,001,2024-07-05_10h21.00.613,robot_cogshifting_sign,2022.2.5,59.99214102952281,
"['L_Arm_Y_Back', 'L_Torso_Y_Back', 'L_Arm_X_Back', 'R_Arm_Y_Back']","{'laterality': 'R_Arm_Y_Back', 'localisation': 'L_Torso_Y_Back', 'movement': 'L_Arm_X_Back'}",localisation,"['laterality', 'localisation', 'movement']",L_Torso_Y_Back,1,3,robot,2,False,False,"['robot_stimuli\\L_Arm_Y_Back.mp4', 'robot_stimuli\\L_Torso_Y_Back.mp4', 'robot_stimuli\\L_Arm_X_Back.mp4', 'robot_stimuli\\R_Arm_Y_Back.mp4']",robot_stimuli\L_Torso_Y_Back.mp4,2,,,,,,,,,,,,,0,30,30,30,,,,,,,,,,,,,,,,,,,945.3261355999999,947.4006476999999,,,962.0712986,962.0712986,962.0712986,1,0.4005288999999408,962.4929178000001,962.4929178000001,962.4929178000001,962.4929178000001,962.4929178000001,962.4929178000001,962.4929178000001,962.4929178000001,None,None,None,,,,,,,,,,945.3261355999999,945.3261355999999,None,,,,945.3261355999999,945.3261355999999,958.4336208999999,2,001,2024-07-05_10h21.00.613,robot_cogshifting_sign,2022.2.5,59.99214102952281,
"['L_Base_X_Back', 'R_Arm_X_For', 'R_Base_X_Back', 'R_Base_Z_For']","{'laterality': 'L_Base_X_Back', 'localisation': 'R_Arm_X_For', 'movement': 'R_Base_Z_For'}",localisation,"['laterality', 'localisation', 'movement']",R_Arm_X_For,1,3,robot,2,False,False,"['robot_stimuli\\L_Base_X_Back.mp4', 'robot_stimuli\\R_Arm_X_For.mp4', 'robot_stimuli\\R_Base_X_Back.mp4', 'robot_stimuli\\R_Base_Z_For.mp4']",robot_stimuli\R_Arm_X_For.mp4,2,,,,,,,,,,,,,0,31,31,31,,,,,,,,,,,,,,,,,,,962.4929178000001,964.5690593,,,979.3301341,979.3301341,979.3301341,4,16.606206700000044,995.9595287999999,995.9595287999999,995.9595287999999,995.9595287999999,995.9595287999999,995.9595287999999,995.9595287999999,995.9595287999999,None,None,None,,,,,,,,,,962.4929178000001,962.4929178000001,None,,,,962.4929178000001,962.4929178000001,975.6874809,2,001,2024-07-05_10h21.00.613,robot_cogshifting_sign,2022.2.5,59.99214102952281,
"['R_Head_Y_For', 'R_Arm_Y_For', 'L_Head_Y_For', 'R_Head_X_For']","{'laterality': 'L_Head_Y_For', 'localisation': 'R_Arm_Y_For', 'movement': 'R_Head_X_For'}",laterality,"['laterality', 'localisation', 'movement']",L_Head_Y_For,2,3,robot,2,False,False,"['robot_stimuli\\R_Head_Y_For.mp4', 'robot_stimuli\\R_Arm_Y_For.mp4', 'robot_stimuli\\L_Head_Y_For.mp4', 'robot_stimuli\\R_Head_X_For.mp4']",robot_stimuli\L_Head_Y_For.mp4,2,,,,,,,,,,,,,0,32,32,32,,,,,,,,,,,,,,,,,,,995.9595287999999,998.0355840999999,,,1012.703682,1012.703682,1012.703682,3,1.7533883000001111,1014.4761970000001,1014.4761970000001,1014.4761970000001,1014.4761970000001,1014.4761970000001,1014.4761970000001,1014.4761970000001,1014.4761970000001,None,None,None,,,,,,,,,,995.9595287999999,995.9595287999999,None,,,,995.9595287999999,995.9595287999999,1009.0687838,2,001,2024-07-05_10h21.00.613,robot_cogshifting_sign,2022.2.5,59.99214102952281,
"['L_Torso_Y_Back', 'R_Torso_Y_Back', 'R_Base_Y_Back', 'R_Torso_Z_For']","{'laterality': 'L_Torso_Y_Back', 'localisation': 'R_Base_Y_Back', 'movement': 'R_Torso_Z_For'}",laterality,"['laterality', 'localisation', 'movement']",L_Torso_Y_Back,0,3,robot,2,False,False,"['robot_stimuli\\L_Torso_Y_Back.mp4', 'robot_stimuli\\R_Torso_Y_Back.mp4', 'robot_stimuli\\R_Base_Y_Back.mp4', 'robot_stimuli\\R_Torso_Z_For.mp4']",robot_stimuli\L_Torso_Y_Back.mp4,2,,,,,,,,,,,,,0,33,33,33,,,,,,,,,,,,,,,,,,,1014.4761970000001,1016.5496383999999,,,1031.2163111999998,1031.2163111999998,1031.2163111999998,1,1.9125338999998718,1033.1595522999999,1033.1595522999999,1033.1595522999999,1033.1595522999999,1033.1595522999999,1033.1595522999999,1033.1595522999999,1033.1595522999999,None,None,None,,,,,,,,,,1014.4761970000001,1014.4761970000001,None,,,,1014.4761970000001,1014.4761970000001,1027.5846806,2,001,2024-07-05_10h21.00.613,robot_cogshifting_sign,2022.2.5,59.99214102952281,
"['L_Torso_Z_For', 'L_Base_Y_Back', 'L_Base_Z_Back', 'R_Base_Z_For']","{'laterality': 'R_Base_Z_For', 'localisation': 'L_Torso_Z_For', 'movement': 'L_Base_Y_Back'}",laterality,"['laterality', 'localisation', 'movement']",R_Base_Z_For,3,3,robot,2,False,False,"['robot_stimuli\\L_Torso_Z_For.mp4', 'robot_stimuli\\L_Base_Y_Back.mp4', 'robot_stimuli\\L_Base_Z_Back.mp4', 'robot_stimuli\\R_Base_Z_For.mp4']",robot_stimuli\R_Base_Z_For.mp4,2,,,,,,,,,,,,,0,34,34,34,,,,,,,,,,,,,,,,,,,1033.1595522999999,1035.2374527999998,,,1049.9640637,1049.9640637,1049.9640637,4,3.01289769999984,1053.0097664999998,1053.0097664999998,1053.0097664999998,1053.0097664999998,1053.0097664999998,1053.0097664999998,1053.0097664999998,1053.0097664999998,None,None,None,,,,,,,,,,1033.1595522999999,1033.1595522999999,None,,,,1033.1595522999999,1033.1595522999999,1046.3325016,2,001,2024-07-05_10h21.00.613,robot_cogshifting_sign,2022.2.5,59.99214102952281,
"['L_Base_Y_For', 'R_Base_Z_Back', 'L_Head_Z_For', 'L_Base_Z_For']","{'laterality': 'R_Base_Z_Back', 'localisation': 'L_Head_Z_For', 'movement': 'L_Base_Y_For'}",movement,"['laterality', 'localisation', 'movement']",L_Base_Y_For,0,3,robot,2,False,True,"['robot_stimuli\\L_Base_Y_For.mp4', 'robot_stimuli\\R_Base_Z_Back.mp4', 'robot_stimuli\\L_Head_Z_For.mp4', 'robot_stimuli\\L_Base_Z_For.mp4']",robot_stimuli\L_Base_Y_For.mp4,2,,,,,,,,,,,,,0,35,35,35,,,,,,,,,,,,,,,,,,,1053.0097664999998,1055.0835367,,,1069.6859680999999,1069.6859680999999,1069.6859680999999,4,3.0116326999999643,1072.7503771,1075.6687892,1072.7503771,1075.6687892,1072.7503771,1075.6687892,1072.7503771,1075.6687892,89.25925925925927,2.3795264000000316,space,,,2.8743634999999728,,,,,,,1053.0097664999998,1053.0097664999998,None,,,,1053.0097664999998,1053.0097664999998,1066.0511811,2,001,2024-07-05_10h21.00.613,robot_cogshifting_sign,2022.2.5,59.99214102952281,
"['L_Arm_Z_Back', 'L_Arm_X_Back', 'L_Base_X_Back', 'R_Arm_X_Back']","{'laterality': 'R_Arm_X_Back', 'localisation': 'L_Base_X_Back', 'movement': 'L_Arm_Z_Back'}",movement,"['laterality', 'movement']",L_Arm_Z_Back,0,2,robot,2,True,False,"['robot_stimuli\\L_Arm_Z_Back.mp4', 'robot_stimuli\\L_Arm_X_Back.mp4', 'robot_stimuli\\L_Base_X_Back.mp4', 'robot_stimuli\\R_Arm_X_Back.mp4']",robot_stimuli\L_Arm_Z_Back.mp4,2,,,,,,,,,,,,,0,36,36,36,,,,,,,,,,,,,,,,,,,1079.8432417,1081.9206052999998,,,1096.6970732999998,1096.6970732999998,1096.6970732999998,1,1.3999517999997266,1098.1263904,1098.1263904,1098.1263904,1098.1263904,1098.1263904,1098.1263904,1098.1263904,1098.1263904,None,None,None,,,,,,,,,,1075.6687892,1075.6687892,space,4.148941399999913,,,,,1093.0540029,2,001,2024-07-05_10h21.00.613,robot_cogshifting_sign,2022.2.5,59.99214102952281,
"['L_Torso_Z_For', 'R_Torso_Z_For', 'R_Base_Z_Back', 'R_Torso_Y_Back']","{'laterality': 'L_Torso_Z_For', 'localisation': 'R_Base_Z_Back', 'movement': 'R_Torso_Y_Back'}",localisation,"['localisation', 'movement']",R_Base_Z_Back,2,2,robot,2,False,False,"['robot_stimuli\\L_Torso_Z_For.mp4', 'robot_stimuli\\R_Torso_Z_For.mp4', 'robot_stimuli\\R_Base_Z_Back.mp4', 'robot_stimuli\\R_Torso_Y_Back.mp4']",robot_stimuli\R_Base_Z_Back.mp4,2,,,,,,,,,,,,,0,37,37,37,,,,,,,,,,,,,,,,,,,1098.1263904,1100.2025741,,,1114.9208497999998,1114.9208497999998,1114.9208497999998,3,1.2401065999998906,1116.193176,1116.193176,1116.193176,1116.193176,1116.193176,1116.193176,1116.193176,1116.193176,None,None,None,,,,,,,,,,1098.1263904,1098.1263904,None,,,,1098.1263904,1098.1263904,1111.2701714,2,001,2024-07-05_10h21.00.613,robot_cogshifting_sign,2022.2.5,59.99214102952281,
"['R_Base_X_Back', 'R_Head_Y_Back', 'R_Base_Y_Back', 'L_Base_Y_Back']","{'laterality': 'L_Base_Y_Back', 'localisation': 'R_Head_Y_Back', 'movement': 'R_Base_X_Back'}",localisation,"['localisation', 'movement']",R_Head_Y_Back,1,2,robot,2,False,False,"['robot_stimuli\\R_Base_X_Back.mp4', 'robot_stimuli\\R_Head_Y_Back.mp4', 'robot_stimuli\\R_Base_Y_Back.mp4', 'robot_stimuli\\L_Base_Y_Back.mp4']",robot_stimuli\R_Head_Y_Back.mp4,2,,,,,,,,,,,,,0,38,38,38,,,,,,,,,,,,,,,,,,,1116.193176,1118.2818347,,,1133.0096374,1133.0096374,1133.0096374,2,1.8875510999997829,1134.9264203999999,1134.9264203999999,1134.9264203999999,1134.9264203999999,1134.9264203999999,1134.9264203999999,1134.9264203999999,1134.9264203999999,None,None,None,,,,,,,,,,1116.193176,1116.193176,None,,,,1116.193176,1116.193176,1129.4527326,2,001,2024-07-05_10h21.00.613,robot_cogshifting_sign,2022.2.5,59.99214102952281,
"['R_Arm_Y_Back', 'L_Torso_Y_Back', 'L_Arm_Y_Back', 'L_Arm_X_Back']","{'laterality': 'R_Arm_Y_Back', 'localisation': 'L_Torso_Y_Back', 'movement': 'L_Arm_X_Back'}",movement,"['localisation', 'movement']",L_Arm_X_Back,3,2,robot,2,False,False,"['robot_stimuli\\R_Arm_Y_Back.mp4', 'robot_stimuli\\L_Torso_Y_Back.mp4', 'robot_stimuli\\L_Arm_Y_Back.mp4', 'robot_stimuli\\L_Arm_X_Back.mp4']",robot_stimuli\L_Arm_X_Back.mp4,2,,,,,,,,,,,,,0,39,39,39,,,,,,,,,,,,,,,,,,,1134.9264203999999,1137.0026417,,,1151.6691240999999,1151.6691240999999,1151.6691240999999,2,3.0838462999999052,1154.7765748,1154.7765748,1154.7765748,1154.7765748,1154.7765748,1154.7765748,1154.7765748,1154.7765748,None,None,None,,,,,,,,,,1134.9264203999999,1134.9264203999999,None,,,,1134.9264203999999,1134.9264203999999,1148.0236939,2,001,2024-07-05_10h21.00.613,robot_cogshifting_sign,2022.2.5,59.99214102952281,
"['L_Torso_X_Back', 'L_Base_Z_Back', 'R_Torso_Z_For', 'L_Torso_Z_Back']","{'laterality': 'R_Torso_Z_For', 'localisation': 'L_Base_Z_Back', 'movement': 'L_Torso_X_Back'}",laterality,"['laterality', 'localisation']",R_Torso_Z_For,2,2,robot,2,False,False,"['robot_stimuli\\L_Torso_X_Back.mp4', 'robot_stimuli\\L_Base_Z_Back.mp4', 'robot_stimuli\\R_Torso_Z_For.mp4', 'robot_stimuli\\L_Torso_Z_Back.mp4']",robot_stimuli\R_Torso_Z_For.mp4,2,,,,,,,,,,,,,0,40,40,40,,,,,,,,,,,,,,,,,,,1154.7765748,1156.8471138,,,1171.5355436999998,1171.5355436999998,1171.5355436999998,3,0.9460888999998502,1172.5098231999998,1172.5098231999998,1172.5098231999998,1172.5098231999998,1172.5098231999998,1172.5098231999998,1172.5098231999998,1172.5098231999998,None,None,None,,,,,,,,,,1154.7765748,1154.7765748,None,,,,1154.7765748,1154.7765748,1168.0241116,2,001,2024-07-05_10h21.00.613,robot_cogshifting_sign,2022.2.5,59.99214102952281,
"['R_Torso_X_Back', 'L_Torso_X_For', 'L_Torso_Y_Back', 'L_Head_X_For']","{'laterality': 'R_Torso_X_Back', 'localisation': 'L_Head_X_For', 'movement': 'L_Torso_Y_Back'}",laterality,"['laterality', 'movement']",R_Torso_X_Back,0,2,robot,2,False,False,"['robot_stimuli\\R_Torso_X_Back.mp4', 'robot_stimuli\\L_Torso_X_For.mp4', 'robot_stimuli\\L_Torso_Y_Back.mp4', 'robot_stimuli\\L_Head_X_For.mp4']",robot_stimuli\R_Torso_X_Back.mp4,2,,,,,,,,,,,,,0,41,41,41,,,,,,,,,,,,,,,,,,,1172.5098231999998,1174.5837949,,,1189.1764273,1189.1764273,1189.1764273,1,1.2406611999998773,1190.4430266,1190.4430266,1190.4430266,1190.4430266,1190.4430266,1190.4430266,1190.4430266,1190.4430266,None,None,None,,,,,,,,,,1172.5098231999998,1172.5098231999998,None,,,,1172.5098231999998,1172.5098231999998,1185.6203621999998,2,001,2024-07-05_10h21.00.613,robot_cogshifting_sign,2022.2.5,59.99214102952281,
"['R_Arm_Z_Back', 'R_Arm_Y_Back', 'R_Torso_Y_For', 'L_Arm_Y_Back']","{'laterality': 'L_Arm_Y_Back', 'localisation': 'R_Torso_Y_For', 'movement': 'R_Arm_Z_Back'}",localisation,"['localisation', 'movement']",R_Torso_Y_For,2,2,robot,2,False,False,"['robot_stimuli\\R_Arm_Z_Back.mp4', 'robot_stimuli\\R_Arm_Y_Back.mp4', 'robot_stimuli\\R_Torso_Y_For.mp4', 'robot_stimuli\\L_Arm_Y_Back.mp4']",robot_stimuli\R_Torso_Y_For.mp4,2,,,,,,,,,,,,,0,42,42,42,,,,,,,,,,,,,,,,,,,1190.4430266,1192.5215558999998,,,1207.3156448,1207.3156448,1207.3156448,2,4.469111900000044,1211.8098994999998,1211.8098994999998,1211.8098994999998,1211.8098994999998,1211.8098994999998,1211.8098994999998,1211.8098994999998,1211.8098994999998,None,None,None,,,,,,,,,,1190.4430266,1190.4430266,None,,,,1190.4430266,1190.4430266,1203.6763047,2,001,2024-07-05_10h21.00.613,robot_cogshifting_sign,2022.2.5,59.99214102952281,
"['R_Head_X_Back', 'L_Head_Z_Back', 'L_Arm_X_For', 'L_Head_X_Back']","{'laterality': 'R_Head_X_Back', 'localisation': 'L_Arm_X_For', 'movement': 'L_Head_Z_Back'}",laterality,"['laterality', 'movement']",R_Head_X_Back,0,2,robot,2,False,False,"['robot_stimuli\\R_Head_X_Back.mp4', 'robot_stimuli\\L_Head_Z_Back.mp4', 'robot_stimuli\\L_Arm_X_For.mp4', 'robot_stimuli\\L_Head_X_Back.mp4']",robot_stimuli\R_Head_X_Back.mp4,2,,,,,,,,,,,,,0,43,43,43,,,,,,,,,,,,,,,,,,,1211.8098994999998,1213.8836336,,,1228.7017148,1228.7017148,1228.7017148,3,1.73912600000007,1230.4601675,1230.4601675,1230.4601675,1230.4601675,1230.4601675,1230.4601675,1230.4601675,1230.4601675,None,None,None,,,,,,,,,,1211.8098994999998,1211.8098994999998,None,,,,1211.8098994999998,1211.8098994999998,1225.0547273999998,2,001,2024-07-05_10h21.00.613,robot_cogshifting_sign,2022.2.5,59.99214102952281,
"['L_Head_X_For', 'R_Base_X_For', 'R_Head_Z_Back', 'R_Head_X_For']","{'laterality': 'L_Head_X_For', 'localisation': 'R_Base_X_For', 'movement': 'R_Head_Z_Back'}",movement,"['localisation', 'movement']",R_Head_Z_Back,2,2,robot,2,False,True,"['robot_stimuli\\L_Head_X_For.mp4', 'robot_stimuli\\R_Base_X_For.mp4', 'robot_stimuli\\R_Head_Z_Back.mp4', 'robot_stimuli\\R_Head_X_For.mp4']",robot_stimuli\R_Head_Z_Back.mp4,2,,,,,,,,,,,,,0,44,44,44,,,,,,,,,,,,,,,,,,,1230.4601675,1232.5344636999998,,,1247.1837710999998,1247.1837710999998,1247.1837710999998,3,2.6971807999999697,1249.9344698999998,1253.1859794999998,1249.9344698999998,1253.1859794999998,1249.9344698999998,1253.1859794999998,1249.9344698999998,1253.1859794999998,61.01851851851852,1.997694700000011,space,,,3.201454599999934,,,,,,,1230.4601675,1230.4601675,None,,,,1230.4601675,1230.4601675,1243.5390886999999,2,001,2024-07-05_10h21.00.613,robot_cogshifting_sign,2022.2.5,59.99214102952281,
"['R_Torso_X_For', 'R_Arm_X_Back', 'L_Arm_X_Back', 'R_Arm_Y_For']","{'laterality': 'L_Arm_X_Back', 'localisation': 'R_Torso_X_For', 'movement': 'R_Arm_Y_For'}",localisation,['localisation'],R_Torso_X_For,0,1,robot,2,True,False,"['robot_stimuli\\R_Torso_X_For.mp4', 'robot_stimuli\\R_Arm_X_Back.mp4', 'robot_stimuli\\L_Arm_X_Back.mp4', 'robot_stimuli\\R_Arm_Y_For.mp4']",robot_stimuli\R_Torso_X_For.mp4,2,,,,,,,,,,,,,0,45,45,45,,,,,,,,,,,,,,,,,,,1253.8598347999998,1255.9317165999998,,,1270.6160094,1270.6160094,1270.6160094,3,2.135937400000003,1272.7766525,1272.7766525,1272.7766525,1272.7766525,1272.7766525,1272.7766525,1272.7766525,1272.7766525,None,None,None,,,,,,,,,,1253.1859794999998,1253.1859794999998,space,0.6474472999999676,,,,,1267.1037531,2,001,2024-07-05_10h21.00.613,robot_cogshifting_sign,2022.2.5,59.99214102952281,
"['L_Head_Y_For', 'L_Torso_Z_Back', 'R_Head_Z_For', 'L_Head_Z_Back']","{'laterality': 'R_Head_Z_For', 'localisation': 'L_Torso_Z_Back', 'movement': 'L_Head_Y_For'}",movement,['movement'],L_Head_Y_For,0,1,robot,2,False,False,"['robot_stimuli\\L_Head_Y_For.mp4', 'robot_stimuli\\L_Torso_Z_Back.mp4', 'robot_stimuli\\R_Head_Z_For.mp4', 'robot_stimuli\\L_Head_Z_Back.mp4']",robot_stimuli\L_Head_Y_For.mp4,2,,,,,,,,,,,,,0,46,46,46,,,,,,,,,,,,,,,,,,,1272.7766525,1274.8507487,,,1289.4988446999998,1289.4988446999998,1289.4988446999998,2,0.581749900000105,1290.1102073,1290.1102073,1290.1102073,1290.1102073,1290.1102073,1290.1102073,1290.1102073,1290.1102073,None,None,None,,,,,,,,,,1272.7766525,1272.7766525,None,,,,1272.7766525,1272.7766525,1285.8641945999998,2,001,2024-07-05_10h21.00.613,robot_cogshifting_sign,2022.2.5,59.99214102952281,
"['R_Base_X_For', 'R_Torso_X_Back', 'L_Base_X_Back', 'R_Base_Y_For']","{'laterality': 'L_Base_X_Back', 'localisation': 'R_Torso_X_Back', 'movement': 'R_Base_Y_For'}",laterality,['laterality'],L_Base_X_Back,2,1,robot,2,False,False,"['robot_stimuli\\R_Base_X_For.mp4', 'robot_stimuli\\R_Torso_X_Back.mp4', 'robot_stimuli\\L_Base_X_Back.mp4', 'robot_stimuli\\R_Base_Y_For.mp4']",robot_stimuli\L_Base_X_Back.mp4,2,,,,,,,,,,,,,0,47,47,47,,,,,,,,,,,,,,,,,,,1290.1102073,1292.1854489999998,,,1306.8529529,1306.8529529,1306.8529529,3,0.40344759999983637,1307.2766818,1307.2766818,1307.2766818,1307.2766818,1307.2766818,1307.2766818,1307.2766818,1307.2766818,None,None,None,,,,,,,,,,1290.1102073,1290.1102073,None,,,,1290.1102073,1290.1102073,1303.2142276999998,2,001,2024-07-05_10h21.00.613,robot_cogshifting_sign,2022.2.5,59.99214102952281,
"['L_Arm_Y_Back', 'R_Base_Y_Back', 'R_Arm_Y_For', 'R_Arm_Z_For']","{'laterality': 'L_Arm_Y_Back', 'localisation': 'R_Base_Y_Back', 'movement': 'R_Arm_Z_For'}",localisation,['localisation'],R_Base_Y_Back,1,1,robot,2,False,False,"['robot_stimuli\\L_Arm_Y_Back.mp4', 'robot_stimuli\\R_Base_Y_Back.mp4', 'robot_stimuli\\R_Arm_Y_For.mp4', 'robot_stimuli\\R_Arm_Z_For.mp4']",robot_stimuli\R_Base_Y_Back.mp4,2,,,,,,,,,,,,,0,48,48,48,,,,,,,,,,,,,,,,,,,1307.2766818,1309.356304,,,1324.0371197,1324.0371197,1324.0371197,2,0.3167626999999271,1324.3768102,1324.3768102,1324.3768102,1324.3768102,1324.3768102,1324.3768102,1324.3768102,1324.3768102,None,None,None,,,,,,,,,,1307.2766818,1307.2766818,None,,,,1307.2766818,1307.2766818,1320.4016394999999,2,001,2024-07-05_10h21.00.613,robot_cogshifting_sign,2022.2.5,59.99214102952281,
"['L_Arm_X_Back', 'L_Head_X_For', 'R_Head_X_For', 'L_Head_Y_Back']","{'laterality': 'R_Head_X_For', 'localisation': 'L_Arm_X_Back', 'movement': 'L_Head_Y_Back'}",movement,['movement'],L_Head_Y_Back,3,1,robot,2,False,False,"['robot_stimuli\\L_Arm_X_Back.mp4', 'robot_stimuli\\L_Head_X_For.mp4', 'robot_stimuli\\R_Head_X_For.mp4', 'robot_stimuli\\L_Head_Y_Back.mp4']",robot_stimuli\L_Head_Y_Back.mp4,2,,,,,,,,,,,,,0,49,49,49,,,,,,,,,,,,,,,,,,,1324.3768102,1326.4505004,,,1341.1806287999998,1341.1806287999998,1341.1806287999998,4,2.141203699999906,1343.3435900999998,1343.3435900999998,1343.3435900999998,1343.3435900999998,1343.3435900999998,1343.3435900999998,1343.3435900999998,1343.3435900999998,None,None,None,,,,,,,,,,1324.3768102,1324.3768102,None,,,,1324.3768102,1324.3768102,1337.5468626999998,2,001,2024-07-05_10h21.00.613,robot_cogshifting_sign,2022.2.5,59.99214102952281,
"['L_Head_Z_Back', 'L_Arm_Y_For', 'R_Head_Y_For', 'L_Head_Y_For']","{'laterality': 'R_Head_Y_For', 'localisation': 'L_Arm_Y_For', 'movement': 'L_Head_Z_Back'}",localisation,['localisation'],L_Arm_Y_For,1,1,robot,2,False,False,"['robot_stimuli\\L_Head_Z_Back.mp4', 'robot_stimuli\\L_Arm_Y_For.mp4', 'robot_stimuli\\R_Head_Y_For.mp4', 'robot_stimuli\\L_Head_Y_For.mp4']",robot_stimuli\L_Arm_Y_For.mp4,2,,,,,,,,,,,,,0,50,50,50,,,,,,,,,,,,,,,,,,,1343.3435900999998,1345.4171466999999,,,1360.2152019999999,1360.2152019999999,1360.2152019999999,2,0.41868529999977966,1360.6600546999998,1360.6600546999998,1360.6600546999998,1360.6600546999998,1360.6600546999998,1360.6600546999998,1360.6600546999998,1360.6600546999998,None,None,None,,,,,,,,,,1343.3435900999998,1343.3435900999998,None,,,,1343.3435900999998,1343.3435900999998,1356.5793018999998,2,001,2024-07-05_10h21.00.613,robot_cogshifting_sign,2022.2.5,59.99214102952281,
"['R_Head_Z_Back', 'R_Head_X_Back', 'R_Base_X_For', 'L_Head_X_For']","{'laterality': 'L_Head_X_For', 'localisation': 'R_Base_X_For', 'movement': 'R_Head_Z_Back'}",movement,['movement'],R_Head_Z_Back,0,1,robot,2,False,False,"['robot_stimuli\\R_Head_Z_Back.mp4', 'robot_stimuli\\R_Head_X_Back.mp4', 'robot_stimuli\\R_Base_X_For.mp4', 'robot_stimuli\\L_Head_X_For.mp4']",robot_stimuli\R_Head_Z_Back.mp4,2,,,,,,,,,,,,,0,51,51,51,,,,,,,,,,,,,,,,,,,1360.6600546999998,1362.7535183999998,,,1377.4007064,1377.4007064,1377.4007064,2,2.336649699999853,1379.7602516,1379.7602516,1379.7602516,1379.7602516,1379.7602516,1379.7602516,1379.7602516,1379.7602516,None,None,None,,,,,,,,,,1360.6600546999998,1360.6600546999998,None,,,,1360.6600546999998,1360.6600546999998,1373.8194961,2,001,2024-07-05_10h21.00.613,robot_cogshifting_sign,2022.2.5,59.99214102952281,
"['R_Arm_Z_For', 'R_Base_Z_For', 'R_Arm_Y_Back', 'L_Arm_Z_For']","{'laterality': 'L_Arm_Z_For', 'localisation': 'R_Base_Z_For', 'movement': 'R_Arm_Y_Back'}",laterality,['laterality'],L_Arm_Z_For,3,1,robot,2,False,False,"['robot_stimuli\\R_Arm_Z_For.mp4', 'robot_stimuli\\R_Base_Z_For.mp4', 'robot_stimuli\\R_Arm_Y_Back.mp4', 'robot_stimuli\\L_Arm_Z_For.mp4']",robot_stimuli\L_Arm_Z_For.mp4,2,,,,,,,,,,,,,0,52,52,52,,,,,,,,,,,,,,,,,,,1379.7602516,1381.8307687,,,1396.6663377999998,1396.6663377999998,1396.6663377999998,4,0.3189495999998968,1397.0102006999998,1397.0102006999998,1397.0102006999998,1397.0102006999998,1397.0102006999998,1397.0102006999998,1397.0102006999998,1397.0102006999998,None,None,None,,,,,,,,,,1379.7602516,1379.7602516,None,,,,1379.7602516,1379.7602516,1393.0232512,2,001,2024-07-05_10h21.00.613,robot_cogshifting_sign,2022.2.5,59.99214102952281,
"['R_Torso_Z_For', 'L_Arm_Z_Back', 'L_Torso_Y_Back', 'L_Torso_Z_For']","{'laterality': 'R_Torso_Z_For', 'localisation': 'L_Arm_Z_Back', 'movement': 'L_Torso_Y_Back'}",laterality,['laterality'],R_Torso_Z_For,0,1,robot,2,False,True,"['robot_stimuli\\R_Torso_Z_For.mp4', 'robot_stimuli\\L_Arm_Z_Back.mp4', 'robot_stimuli\\L_Torso_Y_Back.mp4', 'robot_stimuli\\L_Torso_Z_For.mp4']",robot_stimuli\R_Torso_Z_For.mp4,2,,,,,,,,,,,,,0,53,53,53,,,,,,,,,,,,,,,,,,,1397.0102006999998,1399.0835037,,,1413.7464713,1413.7464713,1413.7464713,1,0.39000529999988487,1414.1849570999998,1417.3929056,1414.1849570999998,1417.3929056,1414.1849570999998,1417.3929056,1414.1849570999998,1417.3929056,46.666666666666664,2.3898887000000286,space,,,3.1669249000000406,,,,,,,1397.0102006999998,1397.0102006999998,None,,,,1397.0102006999998,1397.0102006999998,1410.1141939,2,001,2024-07-05_10h21.00.613,robot_cogshifting_sign,2022.2.5,59.99214102952281,
"['red_bottom_Z_0', 'blue_bottom_X_45', 'red_top_L_45', 'red_bottom_C_45']","{'color': 'blue_bottom_X_45', 'position': 'red_top_L_45', 'orientation': 'red_bottom_Z_0'}",orientation,['orientation'],red_bottom_Z_0,0,1,letter,3,True,False,"['robot_stimuli\\\\filler.mp4', 'robot_stimuli\\\\filler.mp4', 'robot_stimuli\\\\filler.mp4', 'robot_stimuli\\\\filler.mp4']",robot_stimuli\\filler.mp4,2,,,,,,,,,,,,,0,54,54,54,,,,,,,,,,,,,,,,,,,1418.060096,1420.1158495,,,1428.7879509999998,1428.7879509999998,1428.7879509999998,1,0.004174199999752659,1428.8170272,1428.8170272,1428.8170272,1428.8170272,1428.8170272,1428.8170272,1428.8170272,1428.8170272,None,None,None,,,,,,,,,,1417.3929056,1417.3929056,space,0.6476207999998138,1426.7710557999999,1428.7879509999998,,,,2,001,2024-07-05_10h21.00.613,robot_cogshifting_sign,2022.2.5,59.99214102952281,
"['blue_top_D_45', 'red_top_B_45', 'red_bottom_T_45', 'red_top_F_0']","{'color': 'blue_top_D_45', 'position': 'red_bottom_T_45', 'orientation': 'red_top_F_0'}",orientation,['orientation'],red_top_F_0,3,1,letter,3,False,False,"['robot_stimuli\\\\filler.mp4', 'robot_stimuli\\\\filler.mp4', 'robot_stimuli\\\\filler.mp4', 'robot_stimuli\\\\filler.mp4']",robot_stimuli\\filler.mp4,2,,,,,,,,,,,,,0,55,55,55,,,,,,,,,,,,,,,,,,,1428.8170272,1430.8828618999999,,,1439.7575528,1439.7575528,1439.7575528,4,0.2514029999998826,1440.0269793,1440.0269793,1440.0269793,1440.0269793,1440.0269793,1440.0269793,1440.0269793,1440.0269793,None,None,None,,,,,,,,,,1428.8170272,1428.8170272,None,,1437.7404356999998,1439.7575528,1428.8170272,1428.8170272,,2,001,2024-07-05_10h21.00.613,robot_cogshifting_sign,2022.2.5,59.99214102952281,
"['blue_top_X_0', 'blue_top_M_45', 'blue_right_V_45', 'red_top_C_45']","{'color': 'red_top_C_45', 'position': 'blue_right_V_45', 'orientation': 'blue_top_X_0'}",color,['color'],red_top_C_45,3,1,letter,3,False,False,"['robot_stimuli\\\\filler.mp4', 'robot_stimuli\\\\filler.mp4', 'robot_stimuli\\\\filler.mp4', 'robot_stimuli\\\\filler.mp4']",robot_stimuli\\filler.mp4,2,,,,,,,,,,,,,0,56,56,56,,,,,,,,,,,,,,,,,,,1440.0269793,1442.0809418,,,1450.7648218,1450.7648218,1450.7648218,4,0.036233999999822686,1450.8269682999999,1450.8269682999999,1450.8269682999999,1450.8269682999999,1450.8269682999999,1450.8269682999999,1450.8269682999999,1450.8269682999999,None,None,None,,,,,,,,,,1440.0269793,1440.0269793,None,,1448.7429123999998,1450.7648218,1440.0269793,1440.0269793,,2,001,2024-07-05_10h21.00.613,robot_cogshifting_sign,2022.2.5,59.99214102952281,
"['red_right_B_45', 'red_bottom_M_0', 'red_right_X_0', 'blue_right_G_0']","{'color': 'blue_right_G_0', 'position': 'red_bottom_M_0', 'orientation': 'red_right_B_45'}",position,['position'],red_bottom_M_0,1,1,letter,3,False,False,"['robot_stimuli\\\\filler.mp4', 'robot_stimuli\\\\filler.mp4', 'robot_stimuli\\\\filler.mp4', 'robot_stimuli\\\\filler.mp4']",robot_stimuli\\filler.mp4,2,,,,,,,,,,,,,0,57,57,57,,,,,,,,,,,,,,,,,,,1450.8269682999999,1452.8807451999999,,,1461.5676869,1461.5676869,1461.5676869,2,0.19276769999977716,1461.7768354999998,1461.7768354999998,1461.7768354999998,1461.7768354999998,1461.7768354999998,1461.7768354999998,1461.7768354999998,1461.7768354999998,None,None,None,,,,,,,,,,1450.8269682999999,1450.8269682999999,None,,1459.3542911999998,1461.5676869,1450.8269682999999,1450.8269682999999,,2,001,2024-07-05_10h21.00.613,robot_cogshifting_sign,2022.2.5,59.99214102952281,
"['red_bottom_Q_0', 'blue_top_K_0', 'red_top_R_45', 'red_top_C_0']","{'color': 'blue_top_K_0', 'position': 'red_bottom_Q_0', 'orientation': 'red_top_R_45'}",position,['position'],red_bottom_Q_0,0,1,letter,3,False,False,"['robot_stimuli\\\\filler.mp4', 'robot_stimuli\\\\filler.mp4', 'robot_stimuli\\\\filler.mp4', 'robot_stimuli\\\\filler.mp4']",robot_stimuli\\filler.mp4,2,,,,,,,,,,,,,0,58,58,58,,,,,,,,,,,,,,,,,,,1461.7768354999998,1463.8391190999998,,,1472.3075293999998,1472.3075293999998,1472.3075293999998,1,0.26134459999993,1472.5935791999998,1472.5935791999998,1472.5935791999998,1472.5935791999998,1472.5935791999998,1472.5935791999998,1472.5935791999998,1472.5935791999998,None,None,None,,,,,,,,,,1461.7768354999998,1461.7768354999998,None,,1470.2939834,1472.3075293999998,1461.7768354999998,1461.7768354999998,,2,001,2024-07-05_10h21.00.613,robot_cogshifting_sign,2022.2.5,59.99214102952281,
"['blue_left_R_0', 'red_left_S_0', 'red_left_K_45', 'red_top_K_0']","{'color': 'blue_left_R_0', 'position': 'red_top_K_0', 'orientation': 'red_left_K_45'}",color,['color'],blue_left_R_0,0,1,letter,3,False,False,"['robot_stimuli\\\\filler.mp4', 'robot_stimuli\\\\filler.mp4', 'robot_stimuli\\\\filler.mp4', 'robot_stimuli\\\\filler.mp4']",robot_stimuli\\filler.mp4,2,,,,,,,,,,,,,0,59,59,59,,,,,,,,,,,,,,,,,,,1472.5935791999998,1474.6472344,,,1483.7291008,1483.7291008,1483.7291008,1,0.20813739999984193,1483.9604877,1483.9604877,1483.9604877,1483.9604877,1483.9604877,1483.9604877,1483.9604877,1483.9604877,None,None,None,,,,,,,,,,1472.5935791999998,1472.5935791999998,None,,1481.5126131999998,1483.7291008,1472.5935791999998,1472.5935791999998,,2,001,2024-07-05_10h21.00.613,robot_cogshifting_sign,2022.2.5,59.99214102952281,
"['red_bottom_R_45', 'blue_bottom_M_45', 'red_bottom_F_0', 'red_right_C_45']","{'color': 'blue_bottom_M_45', 'position': 'red_right_C_45', 'orientation': 'red_bottom_F_0'}",orientation,['orientation'],red_bottom_F_0,2,1,letter,3,False,False,"['robot_stimuli\\\\filler.mp4', 'robot_stimuli\\\\filler.mp4', 'robot_stimuli\\\\filler.mp4', 'robot_stimuli\\\\filler.mp4']",robot_stimuli\\filler.mp4,2,,,,,,,,,,,,,0,60,60,60,,,,,,,,,,,,,,,,,,,1483.9604877,1486.0159658,,,1494.6944858,1494.6944858,1494.6944858,3,0.2909178999997408,1495.0108160999998,1495.0108160999998,1495.0108160999998,1495.0108160999998,1495.0108160999998,1495.0108160999998,1495.0108160999998,1495.0108160999998,None,None,None,,,,,,,,,,1483.9604877,1483.9604877,None,,1492.4803878999999,1494.6944858,1483.9604877,1483.9604877,,2,001,2024-07-05_10h21.00.613,robot_cogshifting_sign,2022.2.5,59.99214102952281,
"['blue_top_N_0', 'blue_left_C_0', 'blue_left_K_45', 'red_left_Z_0']","{'color': 'red_left_Z_0', 'position': 'blue_top_N_0', 'orientation': 'blue_left_K_45'}",position,['position'],blue_top_N_0,0,1,letter,3,False,False,"['robot_stimuli\\\\filler.mp4', 'robot_stimuli\\\\filler.mp4', 'robot_stimuli\\\\filler.mp4', 'robot_stimuli\\\\filler.mp4']",robot_stimuli\\filler.mp4,2,,,,,,,,,,,,,0,61,61,61,,,,,,,,,,,,,,,,,,,1495.0108160999998,1497.0654986999998,,,1505.5445931,1505.5445931,1505.5445931,1,0.35153110000000254,1505.9270262999999,1505.9270262999999,1505.9270262999999,1505.9270262999999,1505.9270262999999,1505.9270262999999,1505.9270262999999,1505.9270262999999,None,None,None,,,,,,,,,,1495.0108160999998,1495.0108160999998,None,,1503.5202860999998,1505.5445931,1495.0108160999998,1495.0108160999998,,2,001,2024-07-05_10h21.00.613,robot_cogshifting_sign,2022.2.5,59.99214102952281,
"['red_top_T_0', 'blue_top_B_45', 'blue_bottom_G_0', 'blue_top_D_0']","{'color': 'red_top_T_0', 'position': 'blue_bottom_G_0', 'orientation': 'blue_top_B_45'}",color,['color'],red_top_T_0,0,1,letter,3,False,True,"['robot_stimuli\\\\filler.mp4', 'robot_stimuli\\\\filler.mp4', 'robot_stimuli\\\\filler.mp4', 'robot_stimuli\\\\filler.mp4']",robot_stimuli\\filler.mp4,2,,,,,,,,,,,,,0,62,62,62,,,,,,,,,,,,,,,,,,,1505.9270262999999,1507.9892596999998,,,1516.6578814,1516.6578814,1516.6578814,1,0.40726699999994764,1517.1190087999998,1520.9702498,1517.1190087999998,1520.9702498,1517.1190087999998,1520.9702498,1517.1190087999998,1520.9702498,23.67283950617283,3.007683100000122,space,,,3.809379099999788,,,,,,,1505.9270262999999,1505.9270262999999,None,,1514.4449975,1516.6578814,1505.9270262999999,1505.9270262999999,,2,001,2024-07-05_10h21.00.613,robot_cogshifting_sign,2022.2.5,59.99214102952281,
"['red_left_P_45', 'red_bottom_F_0', 'red_left_D_0', 'blue_left_X_0']","{'color': 'blue_left_X_0', 'position': 'red_bottom_F_0', 'orientation': 'red_left_P_45'}",color,"['color', 'orientation']",blue_left_X_0,3,2,letter,3,True,False,"['robot_stimuli\\\\filler.mp4', 'robot_stimuli\\\\filler.mp4', 'robot_stimuli\\\\filler.mp4', 'robot_stimuli\\\\filler.mp4']",robot_stimuli\\filler.mp4,2,,,,,,,,,,,,,0,63,63,63,,,,,,,,,,,,,,,,,,,1524.0270191,1526.0826869,,,1534.7668053,1534.7668053,1534.7668053,4,0.5227406000000343,1535.3102967999998,1535.3102967999998,1535.3102967999998,1535.3102967999998,1535.3102967999998,1535.3102967999998,1535.3102967999998,1535.3102967999998,None,None,None,,,,,,,,,,1520.9702498,1520.9702498,space,3.0311494999997564,1532.7537728,1534.7668053,,,,2,001,2024-07-05_10h21.00.613,robot_cogshifting_sign,2022.2.5,59.99214102952281,
"['red_bottom_K_0', 'red_bottom_S_45', 'blue_bottom_H_45', 'red_top_T_45']","{'color': 'blue_bottom_H_45', 'position': 'red_top_T_45', 'orientation': 'red_bottom_K_0'}",color,"['color', 'position']",blue_bottom_H_45,2,2,letter,3,False,False,"['robot_stimuli\\\\filler.mp4', 'robot_stimuli\\\\filler.mp4', 'robot_stimuli\\\\filler.mp4', 'robot_stimuli\\\\filler.mp4']",robot_stimuli\\filler.mp4,2,,,,,,,,,,,,,0,64,64,64,,,,,,,,,,,,,,,,,,,1535.3102967999998,1537.3685019,,,1546.0417837999998,1546.0417837999998,1546.0417837999998,3,0.392158499999951,1546.4603235,1546.4603235,1546.4603235,1546.4603235,1546.4603235,1546.4603235,1546.4603235,1546.4603235,None,None,None,,,,,,,,,,1535.3102967999998,1535.3102967999998,None,,1544.022792,1546.0417837999998,1535.3102967999998,1535.3102967999998,,2,001,2024-07-05_10h21.00.613,robot_cogshifting_sign,2022.2.5,59.99214102952281,
"['blue_bottom_H_0', 'blue_bottom_J_45', 'red_bottom_N_45', 'blue_left_L_45']","{'color': 'red_bottom_N_45', 'position': 'blue_left_L_45', 'orientation': 'blue_bottom_H_0'}",position,"['orientation', 'position']",blue_left_L_45,3,2,letter,3,False,False,"['robot_stimuli\\\\filler.mp4', 'robot_stimuli\\\\filler.mp4', 'robot_stimuli\\\\filler.mp4', 'robot_stimuli\\\\filler.mp4']",robot_stimuli\\filler.mp4,2,,,,,,,,,,,,,0,65,65,65,,,,,,,,,,,,,,,,,,,1546.4603235,1548.5139728,,,1557.3893573999999,1557.3893573999999,1557.3893573999999,4,1.6116378999999057,1559.0271323,1559.0271323,1559.0271323,1559.0271323,1559.0271323,1559.0271323,1559.0271323,1559.0271323,None,None,None,,,,,,,,,,1546.4603235,1546.4603235,None,,1555.3692055,1557.3893573999999,1546.4603235,1546.4603235,,2,001,2024-07-05_10h21.00.613,robot_cogshifting_sign,2022.2.5,59.99214102952281,
"['blue_right_C_0', 'blue_left_G_45', 'red_left_K_0', 'blue_left_G_0']","{'color': 'red_left_K_0', 'position': 'blue_right_C_0', 'orientation': 'blue_left_G_45'}",color,"['color', 'orientation']",red_left_K_0,2,2,letter,3,False,False,"['robot_stimuli\\\\filler.mp4', 'robot_stimuli\\\\filler.mp4', 'robot_stimuli\\\\filler.mp4', 'robot_stimuli\\\\filler.mp4']",robot_stimuli\\filler.mp4,2,,,,,,,,,,,,,0,66,66,66,,,,,,,,,,,,,,,,,,,1559.0271323,1561.0794458999999,,,1569.9609298999999,1569.9609298999999,1569.9609298999999,1,16.807685199999824,1586.7938763,1586.7938763,1586.7938763,1586.7938763,1586.7938763,1586.7938763,1586.7938763,1586.7938763,None,None,None,,,,,,,,,,1559.0271323,1559.0271323,None,,1567.7520132,1569.9609298999999,1559.0271323,1559.0271323,,2,001,2024-07-05_10h21.00.613,robot_cogshifting_sign,2022.2.5,59.99214102952281,
"['red_right_C_0', 'blue_right_L_0', 'blue_bottom_X_0', 'blue_right_G_45']","{'color': 'red_right_C_0', 'position': 'blue_bottom_X_0', 'orientation': 'blue_right_G_45'}",orientation,"['orientation', 'position']",blue_right_G_45,3,2,letter,3,False,False,"['robot_stimuli\\\\filler.mp4', 'robot_stimuli\\\\filler.mp4', 'robot_stimuli\\\\filler.mp4', 'robot_stimuli\\\\filler.mp4']",robot_stimuli\\filler.mp4,2,,,,,,,,,,,,,0,67,67,67,,,,,,,,,,,,,,,,,,,1586.7938763,1588.8502678,,,1597.5266212,1597.5266212,1597.5266212,4,1.466618299999837,1599.0111164,1599.0111164,1599.0111164,1599.0111164,1599.0111164,1599.0111164,1599.0111164,1599.0111164,None,None,None,,,,,,,,,,1586.7938763,1586.7938763,None,,1595.5050061,1597.5266212,1586.7938763,1586.7938763,,2,001,2024-07-05_10h21.00.613,robot_cogshifting_sign,2022.2.5,59.99214102952281,
"['blue_bottom_M_0', 'blue_top_H_45', 'red_bottom_W_45', 'blue_bottom_P_45']","{'color': 'red_bottom_W_45', 'position': 'blue_top_H_45', 'orientation': 'blue_bottom_M_0'}",orientation,"['color', 'orientation']",blue_bottom_M_0,0,2,letter,3,False,False,"['robot_stimuli\\\\filler.mp4', 'robot_stimuli\\\\filler.mp4', 'robot_stimuli\\\\filler.mp4', 'robot_stimuli\\\\filler.mp4']",robot_stimuli\\filler.mp4,2,,,,,,,,,,,,,0,68,68,68,,,,,,,,,,,,,,,,,,,1599.0111164,1601.0662833,,,1609.7729866,1609.7729866,1609.7729866,1,1.3008065999998877,1611.0938437999998,1611.0938437999998,1611.0938437999998,1611.0938437999998,1611.0938437999998,1611.0938437999998,1611.0938437999998,1611.0938437999998,None,None,None,,,,,,,,,,1599.0111164,1599.0111164,None,,1607.7585345,1609.7729866,1599.0111164,1599.0111164,,2,001,2024-07-05_10h21.00.613,robot_cogshifting_sign,2022.2.5,59.99214102952281,
"['red_top_P_0', 'blue_top_Q_45', 'red_top_R_45', 'red_right_W_45']","{'color': 'blue_top_Q_45', 'position': 'red_right_W_45', 'orientation': 'red_top_P_0'}",orientation,"['orientation', 'position']",red_top_P_0,0,2,letter,3,False,False,"['robot_stimuli\\\\filler.mp4', 'robot_stimuli\\\\filler.mp4', 'robot_stimuli\\\\filler.mp4', 'robot_stimuli\\\\filler.mp4']",robot_stimuli\\filler.mp4,2,,,,,,,,,,,,,0,69,69,69,,,,,,,,,,,,,,,,,,,1611.0938437999998,1613.1451392,,,1622.0123219,1622.0123219,1622.0123219,1,2.566441800000021,1624.6105152999999,1624.6105152999999,1624.6105152999999,1624.6105152999999,1624.6105152999999,1624.6105152999999,1624.6105152999999,1624.6105152999999,None,None,None,,,,,,,,,,1611.0938437999998,1611.0938437999998,None,,1619.8025977999998,1622.0123219,1611.0938437999998,1611.0938437999998,,2,001,2024-07-05_10h21.00.613,robot_cogshifting_sign,2022.2.5,59.99214102952281,
"['blue_right_D_0', 'red_right_R_45', 'blue_bottom_D_45', 'blue_right_H_45']","{'color': 'red_right_R_45', 'position': 'blue_bottom_D_45', 'orientation': 'blue_right_D_0'}",position,"['color', 'position']",blue_bottom_D_45,2,2,letter,3,False,False,"['robot_stimuli\\\\filler.mp4', 'robot_stimuli\\\\filler.mp4', 'robot_stimuli\\\\filler.mp4', 'robot_stimuli\\\\filler.mp4']",robot_stimuli\\filler.mp4,2,,,,,,,,,,,,,0,70,70,70,,,,,,,,,,,,,,,,,,,1624.6105152999999,1626.6740363,,,1635.3486403,1635.3486403,1635.3486403,2,103.58872429999987,1738.960595,1738.960595,1738.960595,1738.960595,1738.960595,1738.960595,1738.960595,1738.960595,None,None,None,,,,,,,,,,1624.6105152999999,1624.6105152999999,None,,1633.1349928,1635.3486403,1624.6105152999999,1624.6105152999999,,2,001,2024-07-05_10h21.00.613,robot_cogshifting_sign,2022.2.5,59.99214102952281,
"['red_left_Q_0', 'blue_right_X_0', 'blue_left_B_45', 'blue_left_J_0']","{'color': 'red_left_Q_0', 'position': 'blue_right_X_0', 'orientation': 'blue_left_B_45'}",position,"['color', 'position']",blue_right_X_0,1,2,letter,3,False,True,"['robot_stimuli\\\\filler.mp4', 'robot_stimuli\\\\filler.mp4', 'robot_stimuli\\\\filler.mp4', 'robot_stimuli\\\\filler.mp4']",robot_stimuli\\filler.mp4,2,,,,,,,,,,,,,0,71,71,71,,,,,,,,,,,,,,,,,,,1738.960595,1741.0151308,,,1749.8984074999998,1749.8984074999998,1749.8984074999998,2,1.0301734000000948,1750.9884221,1753.5261893,1750.9884221,1753.5261893,1750.9884221,1753.5261893,1750.9884221,1753.5261893,50.370370370370374,2.090843500000119,space,,,2.4768570000000096,,,,,,,1738.960595,1738.960595,None,,1747.6801719,1749.8984074999998,1738.960595,1738.960595,,2,001,2024-07-05_10h21.00.613,robot_cogshifting_sign,2022.2.5,59.99214102952281,
"['red_bottom_X_0', 'blue_bottom_T_45', 'blue_left_Q_0', 'blue_bottom_H_0']","{'color': 'red_bottom_X_0', 'position': 'blue_left_Q_0', 'orientation': 'blue_bottom_T_45'}",position,"['color', 'orientation', 'position']",blue_left_Q_0,2,3,letter,3,True,False,"['robot_stimuli\\\\filler.mp4', 'robot_stimuli\\\\filler.mp4', 'robot_stimuli\\\\filler.mp4', 'robot_stimuli\\\\filler.mp4']",robot_stimuli\\filler.mp4,2,,,,,,,,,,,,,0,72,72,72,,,,,,,,,,,,,,,,,,,1754.6940823,1756.7536205,,,1765.2236237,1765.2236237,1765.2236237,3,1.4804929999996972,1766.7273802999998,1766.7273802999998,1766.7273802999998,1766.7273802999998,1766.7273802999998,1766.7273802999998,1766.7273802999998,1766.7273802999998,None,None,None,,,,,,,,,,1753.5261893,1753.5261893,space,1.1395151999999058,1763.2083054,1765.2236237,,,,2,001,2024-07-05_10h21.00.613,robot_cogshifting_sign,2022.2.5,59.99214102952281,
"['red_right_R_0', 'blue_bottom_Z_0', 'blue_right_P_0', 'blue_right_T_45']","{'color': 'red_right_R_0', 'position': 'blue_bottom_Z_0', 'orientation': 'blue_right_T_45'}",orientation,"['color', 'orientation', 'position']",blue_right_T_45,3,3,letter,3,False,False,"['robot_stimuli\\\\filler.mp4', 'robot_stimuli\\\\filler.mp4', 'robot_stimuli\\\\filler.mp4', 'robot_stimuli\\\\filler.mp4']",robot_stimuli\\filler.mp4,2,,,,,,,,,,,,,0,73,73,73,,,,,,,,,,,,,,,,,,,1766.7273802999998,1768.7815618,,,1777.8686965,1777.8686965,1777.8686965,4,1.6919073000000395,1779.5775947,1779.5775947,1779.5775947,1779.5775947,1779.5775947,1779.5775947,1779.5775947,1779.5775947,None,None,None,,,,,,,,,,1766.7273802999998,1766.7273802999998,None,,1775.6539578,1777.8686965,1766.7273802999998,1766.7273802999998,,2,001,2024-07-05_10h21.00.613,robot_cogshifting_sign,2022.2.5,59.99214102952281,
"['blue_left_L_45', 'blue_right_W_0', 'red_left_N_0', 'blue_left_C_0']","{'color': 'red_left_N_0', 'position': 'blue_right_W_0', 'orientation': 'blue_left_L_45'}",orientation,"['color', 'orientation', 'position']",blue_left_L_45,0,3,letter,3,False,False,"['robot_stimuli\\\\filler.mp4', 'robot_stimuli\\\\filler.mp4', 'robot_stimuli\\\\filler.mp4', 'robot_stimuli\\\\filler.mp4']",robot_stimuli\\filler.mp4,2,,,,,,,,,,,,,0,74,74,74,,,,,,,,,,,,,,,,,,,1779.5775947,1781.6319629999998,,,1790.1100817,1790.1100817,1790.1100817,1,3.2518039999998933,1793.3940725,1793.3940725,1793.3940725,1793.3940725,1793.3940725,1793.3940725,1793.3940725,1793.3940725,None,None,None,,,,,,,,,,1779.5775947,1779.5775947,None,,1787.8962921,1790.1100817,1779.5775947,1779.5775947,,2,001,2024-07-05_10h21.00.613,robot_cogshifting_sign,2022.2.5,59.99214102952281,
"['blue_bottom_Q_45', 'blue_top_X_45', 'red_top_T_45', 'blue_top_C_0']","{'color': 'red_top_T_45', 'position': 'blue_bottom_Q_45', 'orientation': 'blue_top_C_0'}",orientation,"['color', 'orientation', 'position']",blue_top_C_0,3,3,letter,3,False,False,"['robot_stimuli\\\\filler.mp4', 'robot_stimuli\\\\filler.mp4', 'robot_stimuli\\\\filler.mp4', 'robot_stimuli\\\\filler.mp4']",robot_stimuli\\filler.mp4,2,,,,,,,,,,,,,0,75,75,75,,,,,,,,,,,,,,,,,,,1793.3940725,1795.4531198,,,1804.1324992,1804.1324992,1804.1324992,4,1.4608434999999105,1805.6109777,1805.6109777,1805.6109777,1805.6109777,1805.6109777,1805.6109777,1805.6109777,1805.6109777,None,None,None,,,,,,,,,,1793.3940725,1793.3940725,None,,1801.9130033,1804.1324992,1793.3940725,1793.3940725,,2,001,2024-07-05_10h21.00.613,robot_cogshifting_sign,2022.2.5,59.99214102952281,
"['red_left_T_45', 'red_top_B_0', 'blue_left_L_0', 'red_left_B_0']","{'color': 'blue_left_L_0', 'position': 'red_top_B_0', 'orientation': 'red_left_T_45'}",position,"['color', 'orientation', 'position']",red_top_B_0,1,3,letter,3,False,False,"['robot_stimuli\\\\filler.mp4', 'robot_stimuli\\\\filler.mp4', 'robot_stimuli\\\\filler.mp4', 'robot_stimuli\\\\filler.mp4']",robot_stimuli\\filler.mp4,2,,,,,,,,,,,,,0,76,76,76,,,,,,,,,,,,,,,,,,,1805.6109777,1807.6807881999998,,,1816.7601719,1816.7601719,1816.7601719,2,2.60002939999994,1819.3774712,1819.3774712,1819.3774712,1819.3774712,1819.3774712,1819.3774712,1819.3774712,1819.3774712,None,None,None,,,,,,,,,,1805.6109777,1805.6109777,None,,1814.5479489999998,1816.7601719,1805.6109777,1805.6109777,,2,001,2024-07-05_10h21.00.613,robot_cogshifting_sign,2022.2.5,59.99214102952281,
"['blue_left_P_0', 'blue_top_M_45', 'red_left_P_45', 'blue_left_X_45']","{'color': 'red_left_P_45', 'position': 'blue_top_M_45', 'orientation': 'blue_left_P_0'}",color,"['color', 'orientation', 'position']",red_left_P_45,2,3,letter,3,False,False,"['robot_stimuli\\\\filler.mp4', 'robot_stimuli\\\\filler.mp4', 'robot_stimuli\\\\filler.mp4', 'robot_stimuli\\\\filler.mp4']",robot_stimuli\\filler.mp4,2,,,,,,,,,,,,,0,77,77,77,,,,,,,,,,,,,,,,,,,1819.3774712,1821.4406319,,,1830.1275698,1830.1275698,1830.1275698,3,0.8253271999998475,1830.9775448999999,1830.9775448999999,1830.9775448999999,1830.9775448999999,1830.9775448999999,1830.9775448999999,1830.9775448999999,1830.9775448999999,None,None,None,,,,,,,,,,1819.3774712,1819.3774712,None,,1828.1033687,1830.1275698,1819.3774712,1819.3774712,,2,001,2024-07-05_10h21.00.613,robot_cogshifting_sign,2022.2.5,59.99214102952281,
"['blue_top_T_45', 'blue_right_Q_0', 'red_right_H_45', 'blue_right_X_45']","{'color': 'red_right_H_45', 'position': 'blue_top_T_45', 'orientation': 'blue_right_Q_0'}",position,"['color', 'orientation', 'position']",blue_top_T_45,0,3,letter,3,False,False,"['robot_stimuli\\\\filler.mp4', 'robot_stimuli\\\\filler.mp4', 'robot_stimuli\\\\filler.mp4', 'robot_stimuli\\\\filler.mp4']",robot_stimuli\\filler.mp4,2,,,,,,,,,,,,,0,78,78,78,,,,,,,,,,,,,,,,,,,1830.9775448999999,1833.0309547,,,1841.5161859,1841.5161859,1841.5161859,1,1.4930013999998124,1843.0276657999998,1843.0276657999998,1843.0276657999998,1843.0276657999998,1843.0276657999998,1843.0276657999998,1843.0276657999998,1843.0276657999998,None,None,None,,,,,,,,,,1830.9775448999999,1830.9775448999999,None,,1839.4950537999998,1841.5161859,1830.9775448999999,1830.9775448999999,,2,001,2024-07-05_10h21.00.613,robot_cogshifting_sign,2022.2.5,59.99214102952281,
"['blue_top_J_45', 'blue_left_S_45', 'blue_top_D_0', 'red_top_L_45']","{'color': 'red_top_L_45', 'position': 'blue_left_S_45', 'orientation': 'blue_top_D_0'}",color,"['color', 'orientation', 'position']",red_top_L_45,3,3,letter,3,False,False,"['robot_stimuli\\\\filler.mp4', 'robot_stimuli\\\\filler.mp4', 'robot_stimuli\\\\filler.mp4', 'robot_stimuli\\\\filler.mp4']",robot_stimuli\\filler.mp4,2,,,,,,,,,,,,,0,79,79,79,,,,,,,,,,,,,,,,,,,1843.0276657999998,1845.0817794,,,1853.5594706999998,1853.5594706999998,1853.5594706999998,4,0.7613446999997819,1854.3442513,1854.3442513,1854.3442513,1854.3442513,1854.3442513,1854.3442513,1854.3442513,1854.3442513,None,None,None,,,,,,,,,,1843.0276657999998,1843.0276657999998,None,,1851.3464729999998,1853.5594706999998,1843.0276657999998,1843.0276657999998,,2,001,2024-07-05_10h21.00.613,robot_cogshifting_sign,2022.2.5,59.99214102952281,
"['blue_top_S_45', 'blue_bottom_L_45', 'red_bottom_S_45', 'blue_bottom_S_0']","{'color': 'red_bottom_S_45', 'position': 'blue_top_S_45', 'orientation': 'blue_bottom_S_0'}",color,"['color', 'orientation', 'position']",red_bottom_S_45,2,3,letter,3,False,True,"['robot_stimuli\\\\filler.mp4', 'robot_stimuli\\\\filler.mp4', 'robot_stimuli\\\\filler.mp4', 'robot_stimuli\\\\filler.mp4']",robot_stimuli\\filler.mp4,2,,,,,,,,,,,,,0,80,80,80,,,,,,,,,,,,,,,,,,,1854.3442513,1856.3992796,,,1865.0729939999999,1865.0729939999999,1865.0729939999999,4,0.6802800999997913,1865.802573,1868.0433349,1865.802573,1868.0433349,1865.802573,1868.0433349,1865.802573,1868.0433349,49.75308641975309,1.585314500000095,space,,,2.1911338000001166,,,,,,,1854.3442513,1854.3442513,None,,1863.0590197,1865.0729939999999,1854.3442513,1854.3442513,,2,001,2024-07-05_10h21.00.613,robot_cogshifting_sign,2022.2.5,59.99214102952281,
"['L_Head_X_For', 'L_Head_Z_Back', 'L_Base_X_For', 'R_Head_X_For']","{'laterality': 'R_Head_X_For', 'localisation': 'L_Base_X_For', 'movement': 'L_Head_Z_Back'}",movement,"['localisation', 'movement']",L_Head_Z_Back,1,2,robot,4,True,False,"['robot_stimuli\\L_Head_X_For.mp4', 'robot_stimuli\\L_Head_Z_Back.mp4', 'robot_stimuli\\L_Base_X_For.mp4', 'robot_stimuli\\R_Head_X_For.mp4']",robot_stimuli\L_Head_Z_Back.mp4,2,,,,,,,,,,,,,0,81,81,81,,,,,,,,,,,,,,,,,,,1869.1944366999999,1871.2793652999999,,,1885.969394,1885.969394,1885.969394,3,2.9679001999999315,1888.9608598,1888.9608598,1888.9608598,1888.9608598,1888.9608598,1888.9608598,1888.9608598,1888.9608598,None,None,None,,,,,,,,,,1868.0433349,1868.0433349,space,1.118541199999882,,,,,1882.3232383999998,2,001,2024-07-05_10h21.00.613,robot_cogshifting_sign,2022.2.5,59.99214102952281,
"['R_Torso_Y_Back', 'L_Head_Y_For', 'R_Head_Z_Back', 'R_Head_Y_Back']","{'laterality': 'L_Head_Y_For', 'localisation': 'R_Torso_Y_Back', 'movement': 'R_Head_Z_Back'}",movement,"['laterality', 'movement']",R_Head_Z_Back,2,2,robot,4,False,False,"['robot_stimuli\\R_Torso_Y_Back.mp4', 'robot_stimuli\\L_Head_Y_For.mp4', 'robot_stimuli\\R_Head_Z_Back.mp4', 'robot_stimuli\\R_Head_Y_Back.mp4']",robot_stimuli\R_Head_Z_Back.mp4,2,,,,,,,,,,,,,0,82,82,82,,,,,,,,,,,,,,,,,,,1888.9608598,1891.0345528999999,,,1905.8650395999998,1905.8650395999998,1905.8650395999998,3,1.111965599999749,1906.9941205999999,1906.9941205999999,1906.9941205999999,1906.9941205999999,1906.9941205999999,1906.9941205999999,1906.9941205999999,1906.9941205999999,None,None,None,,,,,,,,,,1888.9608598,1888.9608598,None,,,,1888.9608598,1888.9608598,1902.2217535999998,2,001,2024-07-05_10h21.00.613,robot_cogshifting_sign,2022.2.5,59.99214102952281,
"['L_Arm_Z_For', 'L_Torso_Z_Back', 'R_Arm_Z_Back', 'L_Arm_Y_For']","{'laterality': 'R_Arm_Z_Back', 'localisation': 'L_Torso_Z_Back', 'movement': 'L_Arm_Y_For'}",laterality,"['laterality', 'localisation']",R_Arm_Z_Back,2,2,robot,4,False,False,"['robot_stimuli\\L_Arm_Z_For.mp4', 'robot_stimuli\\L_Torso_Z_Back.mp4', 'robot_stimuli\\R_Arm_Z_Back.mp4', 'robot_stimuli\\L_Arm_Y_For.mp4']",robot_stimuli\R_Arm_Z_Back.mp4,2,,,,,,,,,,,,,0,83,83,83,,,,,,,,,,,,,,,,,,,1906.9941205999999,1909.0682597,,,1923.7538688999998,1923.7538688999998,1923.7538688999998,3,0.6798910999999777,1924.4611026,1924.4611026,1924.4611026,1924.4611026,1924.4611026,1924.4611026,1924.4611026,1924.4611026,None,None,None,,,,,,,,,,1906.9941205999999,1906.9941205999999,None,,,,1906.9941205999999,1906.9941205999999,1920.104498,2,001,2024-07-05_10h21.00.613,robot_cogshifting_sign,2022.2.5,59.99214102952281,
"['L_Torso_X_Back', 'R_Torso_Y_Back', 'R_Arm_X_For', 'R_Torso_X_Back']","{'laterality': 'L_Torso_X_Back', 'localisation': 'R_Arm_X_For', 'movement': 'R_Torso_Y_Back'}",localisation,"['localisation', 'movement']",R_Arm_X_For,2,2,robot,4,False,False,"['robot_stimuli\\L_Torso_X_Back.mp4', 'robot_stimuli\\R_Torso_Y_Back.mp4', 'robot_stimuli\\R_Arm_X_For.mp4', 'robot_stimuli\\R_Torso_X_Back.mp4']",robot_stimuli\R_Arm_X_For.mp4,2,,,,,,,,,,,,,0,84,84,84,,,,,,,,,,,,,,,,,,,1924.4611026,1926.5346524,,,1941.337648,1941.337648,1941.337648,3,3.2796898999998945,1944.6446109,1944.6446109,1944.6446109,1944.6446109,1944.6446109,1944.6446109,1944.6446109,1944.6446109,None,None,None,,,,,,,,,,1924.4611026,1924.4611026,None,,,,1924.4611026,1924.4611026,1937.6912443999997,2,001,2024-07-05_10h21.00.613,robot_cogshifting_sign,2022.2.5,59.99214102952281,
"['L_Head_Z_For', 'R_Torso_Z_For', 'L_Torso_Z_For', 'L_Torso_X_For']","{'laterality': 'R_Torso_Z_For', 'localisation': 'L_Head_Z_For', 'movement': 'L_Torso_X_For'}",localisation,"['laterality', 'localisation']",L_Head_Z_For,0,2,robot,4,False,False,"['robot_stimuli\\L_Head_Z_For.mp4', 'robot_stimuli\\R_Torso_Z_For.mp4', 'robot_stimuli\\L_Torso_Z_For.mp4', 'robot_stimuli\\L_Torso_X_For.mp4']",robot_stimuli\L_Head_Z_For.mp4,2,,,,,,,,,,,,,0,85,85,85,,,,,,,,,,,,,,,,,,,1944.6446109,1946.7172895,,,1961.4955173,1961.4955173,1961.4955173,1,0.7289361000001833,1962.2445362,1962.2445362,1962.2445362,1962.2445362,1962.2445362,1962.2445362,1962.2445362,1962.2445362,None,None,None,,,,,,,,,,1944.6446109,1944.6446109,None,,,,1944.6446109,1944.6446109,1957.8650753999998,2,001,2024-07-05_10h21.00.613,robot_cogshifting_sign,2022.2.5,59.99214102952281,
"['R_Arm_Y_For', 'L_Arm_Y_For', 'L_Base_Y_For', 'L_Arm_Z_Back']","{'laterality': 'R_Arm_Y_For', 'localisation': 'L_Base_Y_For', 'movement': 'L_Arm_Z_Back'}",localisation,"['laterality', 'localisation']",L_Base_Y_For,2,2,robot,4,False,False,"['robot_stimuli\\R_Arm_Y_For.mp4', 'robot_stimuli\\L_Arm_Y_For.mp4', 'robot_stimuli\\L_Base_Y_For.mp4', 'robot_stimuli\\L_Arm_Z_Back.mp4']",robot_stimuli\L_Base_Y_For.mp4,2,,,,,,,,,,,,,0,86,86,86,,,,,,,,,,,,,,,,,,,1962.2445362,1964.3189676999998,,,1978.8982666999998,1978.8982666999998,1978.8982666999998,3,1.6234914999999006,1980.5446823999998,1980.5446823999998,1980.5446823999998,1980.5446823999998,1980.5446823999998,1980.5446823999998,1980.5446823999998,1980.5446823999998,None,None,None,,,,,,,,,,1962.2445362,1962.2445362,None,,,,1962.2445362,1962.2445362,1975.2554727999998,2,001,2024-07-05_10h21.00.613,robot_cogshifting_sign,2022.2.5,59.99214102952281,
"['L_Arm_Y_Back', 'R_Head_Y_For', 'R_Arm_Y_For', 'R_Arm_X_Back']","{'laterality': 'L_Arm_Y_Back', 'localisation': 'R_Head_Y_For', 'movement': 'R_Arm_X_Back'}",laterality,"['laterality', 'localisation']",L_Arm_Y_Back,0,2,robot,4,False,False,"['robot_stimuli\\L_Arm_Y_Back.mp4', 'robot_stimuli\\R_Head_Y_For.mp4', 'robot_stimuli\\R_Arm_Y_For.mp4', 'robot_stimuli\\R_Arm_X_Back.mp4']",robot_stimuli\L_Arm_Y_Back.mp4,2,,,,,,,,,,,,,0,87,87,87,,,,,,,,,,,,,,,,,,,1980.5446823999998,1982.6154052,,,1997.3043288000001,1997.3043288000001,1997.3043288000001,2,2.408428699999959,1999.7446542999999,1999.7446542999999,1999.7446542999999,1999.7446542999999,1999.7446542999999,1999.7446542999999,1999.7446542999999,1999.7446542999999,None,None,None,,,,,,,,,,1980.5446823999998,1980.5446823999998,None,,,,1980.5446823999998,1980.5446823999998,1993.6572592999999,2,001,2024-07-05_10h21.00.613,robot_cogshifting_sign,2022.2.5,59.99214102952281,
"['L_Arm_X_For', 'L_Arm_Y_For', 'L_Torso_Y_Back', 'R_Arm_Y_For']","{'laterality': 'R_Arm_Y_For', 'localisation': 'L_Torso_Y_Back', 'movement': 'L_Arm_X_For'}",laterality,"['laterality', 'localisation']",R_Arm_Y_For,3,2,robot,4,False,False,"['robot_stimuli\\L_Arm_X_For.mp4', 'robot_stimuli\\L_Arm_Y_For.mp4', 'robot_stimuli\\L_Torso_Y_Back.mp4', 'robot_stimuli\\R_Arm_Y_For.mp4']",robot_stimuli\R_Arm_Y_For.mp4,2,,,,,,,,,,,,,0,88,88,88,,,,,,,,,,,,,,,,,,,1999.7446542999999,2001.8196744,,,2016.3457302,2016.3457302,2016.3457302,4,2.3912161999995902,2018.7613304999998,2018.7613304999998,2018.7613304999998,2018.7613304999998,2018.7613304999998,2018.7613304999998,2018.7613304999998,2018.7613304999998,None,None,None,,,,,,,,,,1999.7446542999999,1999.7446542999999,None,,,,1999.7446542999999,1999.7446542999999,2012.8524974,2,001,2024-07-05_10h21.00.613,robot_cogshifting_sign,2022.2.5,59.99214102952281,
"['L_Arm_Z_For', 'R_Arm_X_Back', 'R_Base_Z_Back', 'R_Arm_Z_For']","{'laterality': 'L_Arm_Z_For', 'localisation': 'R_Base_Z_Back', 'movement': 'R_Arm_X_Back'}",movement,"['localisation', 'movement']",R_Arm_X_Back,1,2,robot,4,False,True,"['robot_stimuli\\L_Arm_Z_For.mp4', 'robot_stimuli\\R_Arm_X_Back.mp4', 'robot_stimuli\\R_Base_Z_Back.mp4', 'robot_stimuli\\R_Arm_Z_For.mp4']",robot_stimuli\R_Arm_X_Back.mp4,2,,,,,,,,,,,,,0,89,89,89,,,,,,,,,,,,,,,,,,,2018.7613304999998,2020.8503417999998,,,2035.5722788,2035.5722788,2035.5722788,3,2.9240080999997105,2038.5561698999998,2046.269865,2038.5561698999998,2046.269865,2038.5561698999998,2046.269865,2038.5561698999998,2046.269865,47.90123456790123,6.8021451999998135,space,,,7.652233700000025,,,,,,,2018.7613304999998,2018.7613304999998,None,,,,2018.7613304999998,2018.7613304999998,2031.9360264,2,001,2024-07-05_10h21.00.613,robot_cogshifting_sign,2022.2.5,59.99214102952281,
"['R_Torso_Y_For', 'R_Base_Z_For', 'R_Torso_Z_Back', 'L_Torso_Z_Back']","{'laterality': 'L_Torso_Z_Back', 'localisation': 'R_Base_Z_For', 'movement': 'R_Torso_Y_For'}",movement,['movement'],R_Torso_Y_For,0,1,robot,4,True,False,"['robot_stimuli\\R_Torso_Y_For.mp4', 'robot_stimuli\\R_Base_Z_For.mp4', 'robot_stimuli\\R_Torso_Z_Back.mp4', 'robot_stimuli\\L_Torso_Z_Back.mp4']",robot_stimuli\R_Torso_Y_For.mp4,2,,,,,,,,,,,,,0,90,90,90,,,,,,,,,,,,,,,,,,,2047.3613355999998,2049.4339704,,,2064.1109635000003,2064.1109635000003,2064.1109635000003,1,0.7391475999999244,2064.8778524,2064.8778524,2064.8778524,2064.8778524,2064.8778524,2064.8778524,2064.8778524,2064.8778524,None,None,None,,,,,,,,,,2046.269865,2046.269865,space,1.0598566000002307,,,,,2060.6186174,2,001,2024-07-05_10h21.00.613,robot_cogshifting_sign,2022.2.5,59.99214102952281,
"['L_Torso_Z_For', 'L_Torso_X_For', 'L_Base_X_Back', 'R_Torso_X_Back']","{'laterality': 'R_Torso_X_Back', 'localisation': 'L_Base_X_Back', 'movement': 'L_Torso_Z_For'}",laterality,['laterality'],R_Torso_X_Back,3,1,robot,4,False,False,"['robot_stimuli\\L_Torso_Z_For.mp4', 'robot_stimuli\\L_Torso_X_For.mp4', 'robot_stimuli\\L_Base_X_Back.mp4', 'robot_stimuli\\R_Torso_X_Back.mp4']",robot_stimuli\R_Torso_X_Back.mp4,2,,,,,,,,,,,,,0,91,91,91,,,,,,,,,,,,,,,,,,,2064.8778524,2066.9526031,,,2081.7359982000003,2081.7359982000003,2081.7359982000003,4,0.08026669999993885,2081.8446566000002,2081.8446566000002,2081.8446566000002,2081.8446566000002,2081.8446566000002,2081.8446566000002,2081.8446566000002,2081.8446566000002,None,None,None,,,,,,,,,,2064.8778524,2064.8778524,None,,,,2064.8778524,2064.8778524,2078.0897675,2,001,2024-07-05_10h21.00.613,robot_cogshifting_sign,2022.2.5,59.99214102952281,
"['L_Torso_Y_For', 'L_Base_Y_For', 'L_Base_Z_For', 'R_Base_Y_For']","{'laterality': 'R_Base_Y_For', 'localisation': 'L_Torso_Y_For', 'movement': 'L_Base_Z_For'}",movement,['movement'],L_Base_Z_For,2,1,robot,4,False,False,"['robot_stimuli\\L_Torso_Y_For.mp4', 'robot_stimuli\\L_Base_Y_For.mp4', 'robot_stimuli\\L_Base_Z_For.mp4', 'robot_stimuli\\R_Base_Y_For.mp4']",robot_stimuli\L_Base_Z_For.mp4,2,,,,,,,,,,,,,0,92,92,92,,,,,,,,,,,,,,,,,,,2081.8446566000002,2083.9178328000003,,,2098.622346,2098.622346,2098.622346,3,0.16324550000003057,2098.811408,2098.811408,2098.811408,2098.811408,2098.811408,2098.811408,2098.811408,2098.811408,None,None,None,,,,,,,,,,2081.8446566000002,2081.8446566000002,None,,,,2081.8446566000002,2081.8446566000002,2094.9883867000003,2,001,2024-07-05_10h21.00.613,robot_cogshifting_sign,2022.2.5,59.99214102952281,
"['R_Arm_X_For', 'R_Base_X_Back', 'L_Arm_X_Back', 'R_Arm_Y_Back']","{'laterality': 'L_Arm_X_Back', 'localisation': 'R_Base_X_Back', 'movement': 'R_Arm_Y_Back'}",laterality,['laterality'],L_Arm_X_Back,2,1,robot,4,False,False,"['robot_stimuli\\R_Arm_X_For.mp4', 'robot_stimuli\\R_Base_X_Back.mp4', 'robot_stimuli\\L_Arm_X_Back.mp4', 'robot_stimuli\\R_Arm_Y_Back.mp4']",robot_stimuli\L_Arm_X_Back.mp4,2,,,,,,,,,,,,,0,93,93,93,,,,,,,,,,,,,,,,,,,2098.811408,2100.8856308,,,2115.6704792,2115.6704792,2115.6704792,3,0.051267899999984934,2115.7446711000002,2115.7446711000002,2115.7446711000002,2115.7446711000002,2115.7446711000002,2115.7446711000002,2115.7446711000002,2115.7446711000002,None,None,None,,,,,,,,,,2098.811408,2098.811408,None,,,,2098.811408,2098.811408,2112.0333896,2,001,2024-07-05_10h21.00.613,robot_cogshifting_sign,2022.2.5,59.99214102952281,
