sequence,is_true,target,condition,stimuli,block,is_block_beginning,is_block_ending,sequence_fnames,target_fname,subject,retraining.thisRepN,retraining.thisTrialN,retraining.thisN,retraining.thisIndex,training.thisRepN,training.thisTrialN,training.thisN,training.thisIndex,training_sequence_loop.thisRepN,training_sequence_loop.thisTrialN,training_sequence_loop.thisN,training_sequence_loop.thisIndex,trials.thisRepN,trials.thisTrialN,trials.thisN,trials.thisIndex,sequence_loop.thisRepN,sequence_loop.thisTrialN,sequence_loop.thisN,sequence_loop.thisIndex,langage_text.started,langage_key.started,langage_key.keys,langage_key.rt,intro_text.started,intro_key.started,intro_key.keys,intro_key.rt,training_intro_text.started,training_intro_key.started,training_intro_key.keys,training_intro_key.rt,polygon.started,polygon.stopped,training_presentation_letter.started,training_presentation_letter.stopped,training_recall_letter.started,training_recall_key.started,training_recall_question.started,training_recall_answer.started,training_recall_key.keys,training_recall_key.rt,RSME_labels.started,RSME_labels.stopped,RSME_ticks.started,RSME_ticks.stopped,RSME_text.started,RSME_text.stopped,RSME_key.started,RSME_key.stopped,RSME_ticks.response,RSME_ticks.rt,RSME_key.keys,training_intro_text.stopped,training_intro_key.stopped,RSME_key.rt,training_presentation_movie.started,training_recall_movie.started,experiment_beginning_text.started,experiment_beginning_keys.started,experiment_beginning_key.started,experiment_beginning_key.keys,experiment_beginning_key.rt,block_intro_text.started,block_intro_key.started,block_intro_key.keys,block_intro_key.rt,presentation_movie.started,recall_movie.started,recall_key.started,recall_question.started,recall_answer.started,recall_key.keys,recall_key.rt,block_intro_text.stopped,block_intro_key.stopped,presentation_letter.started,presentation_letter.stopped,recall_letter.started,participant,session,date,expName,psychopyVersion,frameRate,
,,,,,,,,,,,,,,,,,,,,,,,,,,,,,,,13.704109499998594,13.704109499998594,f,1.7543754000016634,,,,,,,,,,,,,,,,,,,,,,,,,,,,,,,,,,,,,,,,,,,,,,,,,,,,,,,,3,001,2024-06-25_14h24.37.016,robot_sternberg_sign,2022.2.5,59.955560937933306,
,,,,,,,,,,,,,,,,,,,,,,,,,,,,,,,,,,,15.523056899999574,15.523056899999574,space,38.43019190000268,,,,,,,,,,,,,,,,,,,,,,,,,,,,,,,,,,,,,,,,,,,,,,,,,,,,3,001,2024-06-25_14h24.37.016,robot_sternberg_sign,2022.2.5,59.955560937933306,
"['T', 'D']",True,T,2,letter,2,True,False,"['robot_stimuli\\\\filler.mp4', 'robot_stimuli\\\\filler.mp4']",robot_stimuli\\filler.mp4,3,0,0,0,0,0,0,0,0,,,,,,,,,,,,,,,,,,,,,53.98557149999942,53.98557149999942,space,26.719967000000906,86.21048659999906,87.30910899999981,84.1982911999985,86.21048659999906,87.30910899999981,87.30910899999981,87.30910899999981,87.30910899999981,c,2.4519754000011744,90.04738240000006,90.04738240000006,90.04738240000006,90.04738240000006,90.04738240000006,90.04738240000006,90.04738240000006,90.04738240000006,None,None,None,,,,,,,,,,,,,,,,,,,,,,,,,,,3,001,2024-06-25_14h24.37.016,robot_sternberg_sign,2022.2.5,59.955560937933306,
"['V', 'L']",True,L,2,letter,2,False,False,"['robot_stimuli\\\\filler.mp4', 'robot_stimuli\\\\filler.mp4']",robot_stimuli\\filler.mp4,3,0,0,0,0,0,1,1,1,,,,,,,,,,,,,,,,,,,,,90.04738240000006,90.04738240000006,None,,95.645896,96.72007909999957,93.43112089999886,95.645896,96.72007909999957,96.72007909999957,96.72007909999957,96.72007909999957,c,0.8811325000006036,97.7447145999995,97.7447145999995,97.7447145999995,97.7447145999995,97.7447145999995,97.7447145999995,97.7447145999995,97.7447145999995,None,None,None,90.04738240000006,90.04738240000006,,,,,,,,,,,,,,,,,,,,,,,,,3,001,2024-06-25_14h24.37.016,robot_sternberg_sign,2022.2.5,59.955560937933306,
"['B', 'P']",False,D,2,letter,2,False,True,"['robot_stimuli\\\\filler.mp4', 'robot_stimuli\\\\filler.mp4']",robot_stimuli\\filler.mp4,3,0,0,0,0,0,2,2,2,,,,,,,,,,,,,,,,,,,,,97.7447145999995,97.7447145999995,None,,103.14823189999879,104.2184373,101.13273509999999,103.14823189999879,104.2184373,104.2184373,104.2184373,104.2184373,n,0.8625208000012208,105.29904989999886,111.36810319999859,105.29904989999886,111.36810319999859,105.29904989999886,111.36810319999859,105.29904989999886,111.36810319999859,0.0,4.071904999998878,space,97.7447145999995,97.7447145999995,6.0061803000007785,,,,,,,,,,,,,,,,,,,,,,,,3,001,2024-06-25_14h24.37.016,robot_sternberg_sign,2022.2.5,59.955560937933306,
"['W', 'S', 'J', 'X']",False,R,4,letter,2,True,False,"['robot_stimuli\\\\filler.mp4', 'robot_stimuli\\\\filler.mp4', 'robot_stimuli\\\\filler.mp4', 'robot_stimuli\\\\filler.mp4']",robot_stimuli\\filler.mp4,3,0,0,0,0,0,3,3,3,,,,,,,,,,,,,,,,,,,,,111.36810319999859,111.36810319999859,space,4.041369300000952,125.23661759999959,126.30634789999931,123.22157659999903,125.23661759999959,126.30634789999931,126.30634789999931,126.30634789999931,126.30634789999931,n,0.5989368000009563,127.13496549999945,127.13496549999945,127.13496549999945,127.13496549999945,127.13496549999945,127.13496549999945,127.13496549999945,127.13496549999945,None,None,None,,,,,,,,,,,,,,,,,,,,,,,,,,,3,001,2024-06-25_14h24.37.016,robot_sternberg_sign,2022.2.5,59.955560937933306,
"['V', 'J', 'K', 'F']",True,J,4,letter,2,False,False,"['robot_stimuli\\\\filler.mp4', 'robot_stimuli\\\\filler.mp4', 'robot_stimuli\\\\filler.mp4', 'robot_stimuli\\\\filler.mp4']",robot_stimuli\\filler.mp4,3,0,0,0,0,0,4,4,4,,,,,,,,,,,,,,,,,,,,,127.13496549999945,127.13496549999945,None,,136.9297190999987,138.00131899999906,134.91736820000006,136.9297190999987,138.00131899999906,138.00131899999906,138.00131899999906,138.00131899999906,c,0.8873134000004939,139.02929429999858,139.02929429999858,139.02929429999858,139.02929429999858,139.02929429999858,139.02929429999858,139.02929429999858,139.02929429999858,None,None,None,127.13496549999945,127.13496549999945,,,,,,,,,,,,,,,,,,,,,,,,,3,001,2024-06-25_14h24.37.016,robot_sternberg_sign,2022.2.5,59.955560937933306,
"['X', 'T', 'H', 'F']",True,H,4,letter,2,False,True,"['robot_stimuli\\\\filler.mp4', 'robot_stimuli\\\\filler.mp4', 'robot_stimuli\\\\filler.mp4', 'robot_stimuli\\\\filler.mp4']",robot_stimuli\\filler.mp4,3,0,0,0,0,0,5,5,5,,,,,,,,,,,,,,,,,,,,,139.02929429999858,139.02929429999858,None,,148.82073879999916,149.88486569999986,146.8025404,148.82073879999916,149.88486569999986,149.88486569999986,149.88486569999986,149.88486569999986,c,1.7647789000002376,151.75001619999966,155.34910379999928,151.75001619999966,155.34910379999928,151.75001619999966,155.34910379999928,151.75001619999966,155.34910379999928,0,2.7136258000009548,space,139.02929429999858,139.02929429999858,3.546905600001992,,,,,,,,,,,,,,,,,,,,,,,,3,001,2024-06-25_14h24.37.016,robot_sternberg_sign,2022.2.5,59.955560937933306,
"['G', 'M', 'P', 'B', 'K', 'Q']",False,C,6,letter,2,True,False,"['robot_stimuli\\\\filler.mp4', 'robot_stimuli\\\\filler.mp4', 'robot_stimuli\\\\filler.mp4', 'robot_stimuli\\\\filler.mp4', 'robot_stimuli\\\\filler.mp4', 'robot_stimuli\\\\filler.mp4']",robot_stimuli\\filler.mp4,3,0,0,0,0,0,6,6,6,,,,,,,,,,,,,,,,,,,,,155.34910379999928,155.34910379999928,space,1.1397958000015933,171.11500729999898,172.18833180000001,169.09860499999922,171.11500729999898,172.18833180000001,172.18833180000001,172.18833180000001,172.18833180000001,n,1.1568914000017685,173.41573769999923,173.41573769999923,173.41573769999923,173.41573769999923,173.41573769999923,173.41573769999923,173.41573769999923,173.41573769999923,None,None,None,,,,,,,,,,,,,,,,,,,,,,,,,,,3,001,2024-06-25_14h24.37.016,robot_sternberg_sign,2022.2.5,59.955560937933306,
"['Q', 'L', 'B', 'F', 'P', 'W']",True,W,6,letter,2,False,False,"['robot_stimuli\\\\filler.mp4', 'robot_stimuli\\\\filler.mp4', 'robot_stimuli\\\\filler.mp4', 'robot_stimuli\\\\filler.mp4', 'robot_stimuli\\\\filler.mp4', 'robot_stimuli\\\\filler.mp4']",robot_stimuli\\filler.mp4,3,0,0,0,0,0,7,7,7,,,,,,,,,,,,,,,,,,,,,173.41573769999923,173.41573769999923,None,,187.6219216999998,188.6839629999995,185.40982479999911,187.6219216999998,188.6839629999995,188.6839629999995,188.6839629999995,188.6839629999995,c,1.7009956000019884,190.5109212999996,190.5109212999996,190.5109212999996,190.5109212999996,190.5109212999996,190.5109212999996,190.5109212999996,190.5109212999996,None,None,None,173.41573769999923,173.41573769999923,,,,,,,,,,,,,,,,,,,,,,,,,3,001,2024-06-25_14h24.37.016,robot_sternberg_sign,2022.2.5,59.955560937933306,
"['R', 'N', 'H', 'B', 'W', 'X']",True,R,6,letter,2,False,True,"['robot_stimuli\\\\filler.mp4', 'robot_stimuli\\\\filler.mp4', 'robot_stimuli\\\\filler.mp4', 'robot_stimuli\\\\filler.mp4', 'robot_stimuli\\\\filler.mp4', 'robot_stimuli\\\\filler.mp4']",robot_stimuli\\filler.mp4,3,0,0,0,0,0,8,8,8,,,,,,,,,,,,,,,,,,,,,190.5109212999996,190.5109212999996,None,,204.86910869999883,205.93177920000016,202.65533759999926,204.86910869999883,205.93177920000016,205.93177920000016,205.93177920000016,205.93177920000016,c,1.3816378000010445,207.3873984999991,213.32301329999973,207.3873984999991,213.32301329999973,207.3873984999991,213.32301329999973,207.3873984999991,213.32301329999973,0.06172839506172478,4.226715200000399,space,190.5109212999996,190.5109212999996,5.877443600000333,,,,,,,,,,,,,,,,,,,,,,,,3,001,2024-06-25_14h24.37.016,robot_sternberg_sign,2022.2.5,59.955560937933306,
"['L_Torso_Y_Back', 'L_Base_Z_For']",False,L_Base_Z_Back,2,robot,1,True,False,"['robot_stimuli\\L_Torso_Y_Back.mp4', 'robot_stimuli\\L_Base_Z_For.mp4']",robot_stimuli\L_Base_Z_Back.mp4,3,0,0,0,0,0,9,9,9,,,,,,,,,,,,,,,,,,,,,213.32301329999973,213.32301329999973,space,4.58951049999996,226.2396437999996,219.0327191999986,,,,227.33807779999916,227.33807779999916,227.33807779999916,n,2.75144740000178,230.98062709999977,230.98062709999977,230.98062709999977,230.98062709999977,230.98062709999977,230.98062709999977,230.98062709999977,230.98062709999977,None,None,None,,,,222.6175865999994,227.33807779999916,,,,,,,,,,,,,,,,,,,,,,3,001,2024-06-25_14h24.37.016,robot_sternberg_sign,2022.2.5,59.955560937933306,
"['L_Head_Y_Back', 'R_Base_X_For']",True,L_Head_Y_Back,2,robot,1,False,False,"['robot_stimuli\\L_Head_Y_Back.mp4', 'robot_stimuli\\R_Base_X_For.mp4']",robot_stimuli\L_Head_Y_Back.mp4,3,0,0,0,0,0,10,10,10,,,,,,,,,,,,,,,,,,,,,230.98062709999977,230.98062709999977,None,,239.3383337999985,232.07421839999915,,,,240.4330691999985,240.4330691999985,240.4330691999985,c,2.623919500001648,244.0823683999988,244.0823683999988,244.0823683999988,244.0823683999988,244.0823683999988,244.0823683999988,244.0823683999988,244.0823683999988,None,None,None,230.98062709999977,230.98062709999977,,235.80772409999918,240.4330691999985,,,,,,,,,,,,,,,,,,,,,,3,001,2024-06-25_14h24.37.016,robot_sternberg_sign,2022.2.5,59.955560937933306,
"['R_Base_Z_For', 'L_Arm_Y_For']",True,R_Base_Z_For,2,robot,1,False,True,"['robot_stimuli\\R_Base_Z_For.mp4', 'robot_stimuli\\L_Arm_Y_For.mp4']",robot_stimuli\R_Base_Z_For.mp4,3,0,0,0,0,0,11,11,11,,,,,,,,,,,,,,,,,,,,,244.0823683999988,244.0823683999988,None,,252.54357039999923,253.63308529999995,,,,253.63308529999995,253.63308529999995,253.63308529999995,c,2.8485682000009547,257.3120094999995,261.0245639999994,257.3120094999995,261.0245639999994,257.3120094999995,261.0245639999994,257.3120094999995,261.0245639999994,0,2.706149399999049,space,244.0823683999988,244.0823683999988,3.640760300000693,248.9040219999988,253.63308529999995,,,,,,,,,,,,,,,,,,,,,,3,001,2024-06-25_14h24.37.016,robot_sternberg_sign,2022.2.5,59.955560937933306,
"['R_Torso_Z_Back', 'R_Base_Y_For', 'R_Base_Z_For', 'R_Torso_X_Back']",True,R_Base_Z_For,4,robot,1,True,False,"['robot_stimuli\\R_Torso_Z_Back.mp4', 'robot_stimuli\\R_Base_Y_For.mp4', 'robot_stimuli\\R_Base_Z_For.mp4', 'robot_stimuli\\R_Torso_X_Back.mp4']",robot_stimuli\R_Base_Z_For.mp4,3,0,0,0,0,0,12,12,12,,,,,,,,,,,,,,,,,,,,,261.0245639999994,261.0245639999994,space,5.312299299999722,282.2763467999994,283.3778652000001,,,,283.3778652000001,283.3778652000001,283.3778652000001,c,3.2239483000012115,287.01751890000014,287.01751890000014,287.01751890000014,287.01751890000014,287.01751890000014,287.01751890000014,287.01751890000014,287.01751890000014,None,None,None,,,,278.6321431999986,283.3778652000001,,,,,,,,,,,,,,,,,,,,,,3,001,2024-06-25_14h24.37.016,robot_sternberg_sign,2022.2.5,59.955560937933306,
"['R_Torso_X_For', 'L_Head_Z_For', 'L_Arm_Z_For', 'L_Arm_Y_For']",False,R_Torso_Z_Back,4,robot,1,False,False,"['robot_stimuli\\R_Torso_X_For.mp4', 'robot_stimuli\\L_Head_Z_For.mp4', 'robot_stimuli\\L_Arm_Z_For.mp4', 'robot_stimuli\\L_Arm_Y_For.mp4']",robot_stimuli\R_Torso_Z_Back.mp4,3,0,0,0,0,0,13,13,13,,,,,,,,,,,,,,,,,,,,,287.01751890000014,287.01751890000014,None,,302.94287019999865,304.03390769999896,,,,304.03390769999896,304.03390769999896,304.03390769999896,n,2.8706168999997317,307.6843639999988,307.6843639999988,307.6843639999988,307.6843639999988,307.6843639999988,307.6843639999988,307.6843639999988,307.6843639999988,None,None,None,287.01751890000014,287.01751890000014,,299.29914389999976,304.03390769999896,,,,,,,,,,,,,,,,,,,,,,3,001,2024-06-25_14h24.37.016,robot_sternberg_sign,2022.2.5,59.955560937933306,
"['R_Arm_X_Back', 'R_Base_X_Back', 'L_Torso_Z_For', 'R_Arm_Y_For']",True,R_Arm_X_Back,4,robot,1,False,True,"['robot_stimuli\\R_Arm_X_Back.mp4', 'robot_stimuli\\R_Base_X_Back.mp4', 'robot_stimuli\\L_Torso_Z_For.mp4', 'robot_stimuli\\R_Arm_Y_For.mp4']",robot_stimuli\R_Arm_X_Back.mp4,3,0,0,0,0,0,14,14,14,,,,,,,,,,,,,,,,,,,,,307.6843639999988,307.6843639999988,None,,323.4416848000001,324.53418259999853,,,,324.53418259999853,324.53418259999853,324.53418259999853,c,3.506466900000305,328.21710059999896,331.5666106999997,328.21710059999896,331.5666106999997,328.21710059999896,331.5666106999997,328.21710059999896,331.5666106999997,0,2.453528300000471,space,307.6843639999988,307.6843639999988,3.2958858000019973,319.93344739999884,324.53418259999853,,,,,,,,,,,,,,,,,,,,,,3,001,2024-06-25_14h24.37.016,robot_sternberg_sign,2022.2.5,59.955560937933306,
"['L_Head_X_Back', 'R_Base_X_Back', 'L_Arm_Z_For', 'R_Head_X_Back', 'R_Torso_Y_For', 'R_Head_Y_Back']",False,L_Arm_X_Back,6,robot,1,True,False,"['robot_stimuli\\L_Head_X_Back.mp4', 'robot_stimuli\\R_Base_X_Back.mp4', 'robot_stimuli\\L_Arm_Z_For.mp4', 'robot_stimuli\\R_Head_X_Back.mp4', 'robot_stimuli\\R_Torso_Y_For.mp4', 'robot_stimuli\\R_Head_Y_Back.mp4']",robot_stimuli\L_Arm_X_Back.mp4,3,0,0,0,0,0,15,15,15,,,,,,,,,,,,,,,,,,,,,331.5666106999997,331.5666106999997,space,6.762985300001674,361.7308359999988,362.83112230000006,,,,362.83112230000006,362.83112230000006,362.83112230000006,n,2.8097631000000547,366.4713438999988,366.4713438999988,366.4713438999988,366.4713438999988,366.4713438999988,366.4713438999988,366.4713438999988,366.4713438999988,None,None,None,,,,358.0851071999987,362.83112230000006,,,,,,,,,,,,,,,,,,,,,,3,001,2024-06-25_14h24.37.016,robot_sternberg_sign,2022.2.5,59.955560937933306,
"['R_Arm_Y_Back', 'R_Torso_Y_For', 'L_Arm_Z_For', 'L_Torso_X_For', 'L_Arm_Y_Back', 'R_Torso_Z_For']",True,L_Arm_Z_For,6,robot,1,False,False,"['robot_stimuli\\R_Arm_Y_Back.mp4', 'robot_stimuli\\R_Torso_Y_For.mp4', 'robot_stimuli\\L_Arm_Z_For.mp4', 'robot_stimuli\\L_Torso_X_For.mp4', 'robot_stimuli\\L_Arm_Y_Back.mp4', 'robot_stimuli\\R_Torso_Z_For.mp4']",robot_stimuli\L_Arm_Z_For.mp4,3,0,0,0,0,0,16,16,16,,,,,,,,,,,,,,,,,,,,,366.4713438999988,366.4713438999988,None,,389.82685390000006,390.9164603999998,,,,390.9164603999998,390.9164603999998,390.9164603999998,c,2.9733083000010083,394.5539854999988,394.5539854999988,394.5539854999988,394.5539854999988,394.5539854999988,394.5539854999988,394.5539854999988,394.5539854999988,None,None,None,366.4713438999988,366.4713438999988,,386.1952205999987,390.9164603999998,,,,,,,,,,,,,,,,,,,,,,3,001,2024-06-25_14h24.37.016,robot_sternberg_sign,2022.2.5,59.955560937933306,
"['L_Torso_Z_Back', 'R_Head_Y_Back', 'L_Arm_X_Back', 'R_Head_X_For', 'L_Torso_X_For', 'L_Base_X_For']",True,R_Head_X_For,6,robot,1,False,True,"['robot_stimuli\\L_Torso_Z_Back.mp4', 'robot_stimuli\\R_Head_Y_Back.mp4', 'robot_stimuli\\L_Arm_X_Back.mp4', 'robot_stimuli\\R_Head_X_For.mp4', 'robot_stimuli\\L_Torso_X_For.mp4', 'robot_stimuli\\L_Base_X_For.mp4']",robot_stimuli\R_Head_X_For.mp4,3,0,0,0,0,0,17,17,17,,,,,,,,,,,,,,,,,,,,,394.5539854999988,394.5539854999988,None,,417.6926782999999,418.7838198999998,,,,418.7838198999998,418.7838198999998,418.7838198999998,c,2.5369365000024118,422.46633199999997,425.5882507999995,422.46633199999997,425.5882507999995,422.46633199999997,425.5882507999995,422.46633199999997,425.5882507999995,2.222222222222217,2.3517953000009584,space,394.5539854999988,394.5539854999988,3.061789500001396,414.1246417000002,418.7838198999998,,,,,,,,,,,,,,,,,,,,,,3,001,2024-06-25_14h24.37.016,robot_sternberg_sign,2022.2.5,59.955560937933306,
,,,,,,,,,,,0,0,0,0,,,,,,,,,,,,,,,,,,,,,,,,,,,,,,,,,,,,,,,,,,,,,,,,,,,,,,,425.5882507999995,425.5882507999995,425.5882507999995,c,1.99578400000064,,,,,,,,,,,,,,,,,3,001,2024-06-25_14h24.37.016,robot_sternberg_sign,2022.2.5,59.955560937933306,
"['R_Head_Y_Back', 'R_Torso_X_Back', 'L_Torso_X_For', 'R_Torso_Y_Back']",False,L_Torso_Z_Back,4,robot,1,True,False,"['robot_stimuli\\R_Head_Y_Back.mp4', 'robot_stimuli\\R_Torso_X_Back.mp4', 'robot_stimuli\\L_Torso_X_For.mp4', 'robot_stimuli\\R_Torso_Y_Back.mp4']",robot_stimuli\L_Torso_Z_Back.mp4,3,,,,,,,,,,,,,0,0,0,0,,,,,,,,,,,,,,,,,446.6288915999994,447.7180085,,,,,,,,,451.2347109000002,451.2347109000002,451.2347109000002,451.2347109000002,451.2347109000002,451.2347109000002,451.2347109000002,451.2347109000002,None,None,None,,,,,,,,,,,427.61943359999896,427.61943359999896,space,3.093775600000299,442.98713529999986,447.7180085,447.7180085,447.7180085,447.7180085,n,2.3625849000018206,,,,,,3,001,2024-06-25_14h24.37.016,robot_sternberg_sign,2022.2.5,59.955560937933306,
"['L_Torso_Z_Back', 'L_Base_Z_Back', 'R_Base_X_For', 'R_Arm_X_Back']",False,L_Head_Z_For,4,robot,1,False,False,"['robot_stimuli\\L_Torso_Z_Back.mp4', 'robot_stimuli\\L_Base_Z_Back.mp4', 'robot_stimuli\\R_Base_X_For.mp4', 'robot_stimuli\\R_Arm_X_Back.mp4']",robot_stimuli\L_Head_Z_For.mp4,3,,,,,,,,,,,,,0,1,1,1,,,,,,,,,,,,,,,,,466.8902804999998,452.31669169999986,,,,,,,,,471.63793909999913,471.63793909999913,471.63793909999913,471.63793909999913,471.63793909999913,471.63793909999913,471.63793909999913,471.63793909999913,None,None,None,,,,,,,,,,,451.2347109000002,451.2347109000002,None,,463.2501749000003,467.98760199999924,467.98760199999924,467.98760199999924,467.98760199999924,n,1.9342657000015606,451.2347109000002,451.2347109000002,,,,3,001,2024-06-25_14h24.37.016,robot_sternberg_sign,2022.2.5,59.955560937933306,
"['R_Torso_X_For', 'L_Head_Z_Back', 'R_Base_Z_Back', 'L_Arm_Z_Back']",True,R_Base_Z_Back,4,robot,1,False,False,"['robot_stimuli\\R_Torso_X_For.mp4', 'robot_stimuli\\L_Head_Z_Back.mp4', 'robot_stimuli\\R_Base_Z_Back.mp4', 'robot_stimuli\\L_Arm_Z_Back.mp4']",robot_stimuli\R_Base_Z_Back.mp4,3,,,,,,,,,,,,,0,2,2,2,,,,,,,,,,,,,,,,,487.4422466999986,488.53236339999967,,,,,,,,,492.08250729999963,492.08250729999963,492.08250729999963,492.08250729999963,492.08250729999963,492.08250729999963,492.08250729999963,492.08250729999963,None,None,None,,,,,,,,,,,471.63793909999913,471.63793909999913,None,,483.7990136999997,488.53236339999967,488.53236339999967,488.53236339999967,488.53236339999967,c,2.5325929000009637,471.63793909999913,471.63793909999913,,,,3,001,2024-06-25_14h24.37.016,robot_sternberg_sign,2022.2.5,59.955560937933306,
"['L_Base_X_Back', 'R_Head_X_For', 'R_Head_Z_For', 'R_Torso_Z_Back']",True,L_Base_X_Back,4,robot,1,False,False,"['robot_stimuli\\L_Base_X_Back.mp4', 'robot_stimuli\\R_Head_X_For.mp4', 'robot_stimuli\\R_Head_Z_For.mp4', 'robot_stimuli\\R_Torso_Z_Back.mp4']",robot_stimuli\L_Base_X_Back.mp4,3,,,,,,,,,,,,,0,3,3,3,,,,,,,,,,,,,,,,,507.9597686999987,509.0492532999997,,,,,,,,,513.7168817000002,513.7168817000002,513.7168817000002,513.7168817000002,513.7168817000002,513.7168817000002,513.7168817000002,513.7168817000002,None,None,None,,,,,,,,,,,492.08250729999963,492.08250729999963,None,,504.3283209000001,509.0492532999997,509.0492532999997,509.0492532999997,509.0492532999997,c,4.632032800000161,492.08250729999963,492.08250729999963,,,,3,001,2024-06-25_14h24.37.016,robot_sternberg_sign,2022.2.5,59.955560937933306,
"['R_Arm_Y_For', 'R_Torso_X_Back', 'R_Head_X_Back', 'R_Head_Z_Back']",True,R_Head_X_Back,4,robot,1,False,False,"['robot_stimuli\\R_Arm_Y_For.mp4', 'robot_stimuli\\R_Torso_X_Back.mp4', 'robot_stimuli\\R_Head_X_Back.mp4', 'robot_stimuli\\R_Head_Z_Back.mp4']",robot_stimuli\R_Head_X_Back.mp4,3,,,,,,,,,,,,,0,4,4,4,,,,,,,,,,,,,,,,,529.4600503000001,530.5492082000001,,,,,,,,,534.1909395000002,534.1909395000002,534.1909395000002,534.1909395000002,534.1909395000002,534.1909395000002,534.1909395000002,534.1909395000002,None,None,None,,,,,,,,,,,513.7168817000002,513.7168817000002,None,,525.8272696999993,530.5492082000001,530.5492082000001,530.5492082000001,530.5492082000001,c,2.5160381000005145,513.7168817000002,513.7168817000002,,,,3,001,2024-06-25_14h24.37.016,robot_sternberg_sign,2022.2.5,59.955560937933306,
"['L_Head_X_Back', 'R_Head_X_Back', 'R_Base_X_For', 'L_Base_Y_For']",True,L_Head_X_Back,4,robot,1,False,False,"['robot_stimuli\\L_Head_X_Back.mp4', 'robot_stimuli\\R_Head_X_Back.mp4', 'robot_stimuli\\R_Base_X_For.mp4', 'robot_stimuli\\L_Base_Y_For.mp4']",robot_stimuli\L_Head_X_Back.mp4,3,,,,,,,,,,,,,0,5,5,5,,,,,,,,,,,,,,,,,549.9287191999993,551.0184262999992,,,,,,,,,554.6667521999989,554.6667521999989,554.6667521999989,554.6667521999989,554.6667521999989,554.6667521999989,554.6667521999989,554.6667521999989,None,None,None,,,,,,,,,,,534.1909395000002,534.1909395000002,None,,546.3872289999999,551.0184262999992,551.0184262999992,551.0184262999992,551.0184262999992,c,2.2226909000019077,534.1909395000002,534.1909395000002,,,,3,001,2024-06-25_14h24.37.016,robot_sternberg_sign,2022.2.5,59.955560937933306,
"['L_Head_Y_Back', 'L_Base_Y_For', 'L_Head_Y_For', 'L_Base_Z_Back']",False,R_Head_Z_Back,4,robot,1,False,False,"['robot_stimuli\\L_Head_Y_Back.mp4', 'robot_stimuli\\L_Base_Y_For.mp4', 'robot_stimuli\\L_Head_Y_For.mp4', 'robot_stimuli\\L_Base_Z_Back.mp4']",robot_stimuli\R_Head_Z_Back.mp4,3,,,,,,,,,,,,,0,6,6,6,,,,,,,,,,,,,,,,,570.4735974999985,555.7449292999991,,,,,,,,,575.2000625000001,575.2000625000001,575.2000625000001,575.2000625000001,575.2000625000001,575.2000625000001,575.2000625000001,575.2000625000001,None,None,None,,,,,,,,,,,554.6667521999989,554.6667521999989,None,,566.8315710999996,571.5659190999995,571.5659190999995,571.5659190999995,571.5659190999995,n,1.778446399999666,554.6667521999989,554.6667521999989,,,,3,001,2024-06-25_14h24.37.016,robot_sternberg_sign,2022.2.5,59.955560937933306,
"['L_Head_X_Back', 'L_Torso_Y_Back', 'R_Base_Z_For', 'L_Base_Y_For']",False,R_Head_Z_For,4,robot,1,False,False,"['robot_stimuli\\L_Head_X_Back.mp4', 'robot_stimuli\\L_Torso_Y_Back.mp4', 'robot_stimuli\\R_Base_Z_For.mp4', 'robot_stimuli\\L_Base_Y_For.mp4']",robot_stimuli\R_Head_Z_For.mp4,3,,,,,,,,,,,,,0,7,7,7,,,,,,,,,,,,,,,,,590.8597893999995,591.9510398000002,,,,,,,,,595.6013148999991,595.6013148999991,595.6013148999991,595.6013148999991,595.6013148999991,595.6013148999991,595.6013148999991,595.6013148999991,None,None,None,,,,,,,,,,,575.2000625000001,575.2000625000001,None,,587.3252096999986,591.9510398000002,591.9510398000002,591.9510398000002,591.9510398000002,n,2.0985313000019232,575.2000625000001,575.2000625000001,,,,3,001,2024-06-25_14h24.37.016,robot_sternberg_sign,2022.2.5,59.955560937933306,
"['R_Head_Z_Back', 'L_Arm_X_For', 'L_Base_X_Back', 'L_Arm_Y_Back']",True,L_Arm_X_For,4,robot,1,False,False,"['robot_stimuli\\R_Head_Z_Back.mp4', 'robot_stimuli\\L_Arm_X_For.mp4', 'robot_stimuli\\L_Base_X_Back.mp4', 'robot_stimuli\\L_Arm_Y_Back.mp4']",robot_stimuli\L_Arm_X_For.mp4,3,,,,,,,,,,,,,0,8,8,8,,,,,,,,,,,,,,,,,611.4758575999986,612.5655424999986,,,,,,,,,616.202770599999,616.202770599999,616.202770599999,616.202770599999,616.202770599999,616.202770599999,616.202770599999,616.202770599999,None,None,None,,,,,,,,,,,595.6013148999991,595.6013148999991,None,,607.8333932999994,612.5655424999986,612.5655424999986,612.5655424999986,612.5655424999986,n,2.9141982000019198,595.6013148999991,595.6013148999991,,,,3,001,2024-06-25_14h24.37.016,robot_sternberg_sign,2022.2.5,59.955560937933306,
"['R_Head_X_For', 'L_Base_X_Back', 'L_Base_X_For', 'L_Head_X_For']",False,R_Head_Y_For,4,robot,1,False,True,"['robot_stimuli\\R_Head_X_For.mp4', 'robot_stimuli\\L_Base_X_Back.mp4', 'robot_stimuli\\L_Base_X_For.mp4', 'robot_stimuli\\L_Head_X_For.mp4']",robot_stimuli\R_Head_Y_For.mp4,3,,,,,,,,,,,,,0,9,9,9,,,,,,,,,,,,,,,,,631.9405643999999,617.2750759999999,,,,,,,,,636.7031912000002,641.9878683999996,636.7031912000002,641.9878683999996,636.7031912000002,641.9878683999996,636.7031912000002,641.9878683999996,4.691358024691358,4.017882799998915,space,,,5.209085500002402,,,,,,,,616.202770599999,616.202770599999,None,,628.3765391999987,633.0306275999992,633.0306275999992,633.0306275999992,633.0306275999992,n,1.9934462000019266,616.202770599999,616.202770599999,,,,3,001,2024-06-25_14h24.37.016,robot_sternberg_sign,2022.2.5,59.955560937933306,
"['R_Base_Z_For', 'R_Head_Z_For', 'R_Arm_Y_For', 'R_Base_X_Back', 'L_Base_Z_For', 'L_Torso_Y_For']",True,R_Arm_Y_For,6,robot,1,True,False,"['robot_stimuli\\R_Base_Z_For.mp4', 'robot_stimuli\\R_Head_Z_For.mp4', 'robot_stimuli\\R_Arm_Y_For.mp4', 'robot_stimuli\\R_Base_X_Back.mp4', 'robot_stimuli\\L_Base_Z_For.mp4', 'robot_stimuli\\L_Torso_Y_For.mp4']",robot_stimuli\R_Arm_Y_For.mp4,3,,,,,,,,,,,,,0,10,10,10,,,,,,,,,,,,,,,,,669.7449540999987,670.8328181999987,,,,,,,,,674.4348562999985,674.4348562999985,674.4348562999985,674.4348562999985,674.4348562999985,674.4348562999985,674.4348562999985,674.4348562999985,None,None,None,,,,,,,,,,,641.9878683999996,641.9878683999996,space,4.5417264999996405,666.1110657999998,670.8328181999987,670.8328181999987,670.8328181999987,670.8328181999987,c,3.5669446000010794,,,,,,3,001,2024-06-25_14h24.37.016,robot_sternberg_sign,2022.2.5,59.955560937933306,
"['L_Head_Z_For', 'L_Head_X_Back', 'L_Base_X_Back', 'R_Torso_Y_For', 'R_Head_X_Back', 'R_Base_Z_For']",False,R_Head_Y_For,6,robot,1,False,False,"['robot_stimuli\\L_Head_Z_For.mp4', 'robot_stimuli\\L_Head_X_Back.mp4', 'robot_stimuli\\L_Base_X_Back.mp4', 'robot_stimuli\\R_Torso_Y_For.mp4', 'robot_stimuli\\R_Head_X_Back.mp4', 'robot_stimuli\\R_Base_Z_For.mp4']",robot_stimuli\R_Head_Y_For.mp4,3,,,,,,,,,,,,,0,11,11,11,,,,,,,,,,,,,,,,,697.6876799000001,698.7669408000002,,,,,,,,,702.4168592999995,702.4168592999995,702.4168592999995,702.4168592999995,702.4168592999995,702.4168592999995,702.4168592999995,702.4168592999995,None,None,None,,,,,,,,,,,674.4348562999985,674.4348562999985,None,,694.0643062999989,698.7669408000002,698.7669408000002,698.7669408000002,698.7669408000002,n,2.114121000000523,674.4348562999985,674.4348562999985,,,,3,001,2024-06-25_14h24.37.016,robot_sternberg_sign,2022.2.5,59.955560937933306,
"['L_Torso_Z_For', 'L_Arm_X_Back', 'R_Base_Z_For', 'R_Base_X_Back', 'L_Head_Y_For', 'L_Torso_X_Back']",False,L_Torso_Y_Back,6,robot,1,False,False,"['robot_stimuli\\L_Torso_Z_For.mp4', 'robot_stimuli\\L_Arm_X_Back.mp4', 'robot_stimuli\\R_Base_Z_For.mp4', 'robot_stimuli\\R_Base_X_Back.mp4', 'robot_stimuli\\L_Head_Y_For.mp4', 'robot_stimuli\\L_Torso_X_Back.mp4']",robot_stimuli\L_Torso_Y_Back.mp4,3,,,,,,,,,,,,,0,12,12,12,,,,,,,,,,,,,,,,,725.7417855999993,726.8326602999987,,,,,,,,,730.3379112000002,730.3379112000002,730.3379112000002,730.3379112000002,730.3379112000002,730.3379112000002,730.3379112000002,730.3379112000002,None,None,None,,,,,,,,,,,702.4168592999995,702.4168592999995,None,,722.0967101999995,726.8326602999987,726.8326602999987,726.8326602999987,726.8326602999987,n,2.584897300001103,702.4168592999995,702.4168592999995,,,,3,001,2024-06-25_14h24.37.016,robot_sternberg_sign,2022.2.5,59.955560937933306,
"['L_Head_X_For', 'R_Head_Z_For', 'L_Arm_Z_Back', 'R_Base_Y_For', 'L_Base_Z_For', 'L_Base_Y_For']",True,L_Head_X_For,6,robot,1,False,False,"['robot_stimuli\\L_Head_X_For.mp4', 'robot_stimuli\\R_Head_Z_For.mp4', 'robot_stimuli\\L_Arm_Z_Back.mp4', 'robot_stimuli\\R_Base_Y_For.mp4', 'robot_stimuli\\L_Base_Z_For.mp4', 'robot_stimuli\\L_Base_Y_For.mp4']",robot_stimuli\L_Head_X_For.mp4,3,,,,,,,,,,,,,0,13,13,13,,,,,,,,,,,,,,,,,753.5093321999993,754.5997012999997,,,,,,,,,758.1610349000002,758.1610349000002,758.1610349000002,758.1610349000002,758.1610349000002,758.1610349000002,758.1610349000002,758.1610349000002,None,None,None,,,,,,,,,,,730.3379112000002,730.3379112000002,None,,749.9790985,754.5997012999997,754.5997012999997,754.5997012999997,754.5997012999997,c,2.9369794000012917,730.3379112000002,730.3379112000002,,,,3,001,2024-06-25_14h24.37.016,robot_sternberg_sign,2022.2.5,59.955560937933306,
"['L_Head_X_For', 'R_Torso_Z_Back', 'L_Head_X_Back', 'L_Torso_Y_Back', 'L_Arm_Z_For', 'L_Base_Z_Back']",False,L_Torso_Z_For,6,robot,1,False,False,"['robot_stimuli\\L_Head_X_For.mp4', 'robot_stimuli\\R_Torso_Z_Back.mp4', 'robot_stimuli\\L_Head_X_Back.mp4', 'robot_stimuli\\L_Torso_Y_Back.mp4', 'robot_stimuli\\L_Arm_Z_For.mp4', 'robot_stimuli\\L_Base_Z_Back.mp4']",robot_stimuli\L_Torso_Z_For.mp4,3,,,,,,,,,,,,,0,14,14,14,,,,,,,,,,,,,,,,,781.2598308999986,782.3593865000003,,,,,,,,,786.0890827000003,786.0890827000003,786.0890827000003,786.0890827000003,786.0890827000003,786.0890827000003,786.0890827000003,786.0890827000003,None,None,None,,,,,,,,,,,758.1610349000002,758.1610349000002,None,,777.6246001999989,782.3593865000003,782.3593865000003,782.3593865000003,782.3593865000003,c,3.6890419000010297,758.1610349000002,758.1610349000002,,,,3,001,2024-06-25_14h24.37.016,robot_sternberg_sign,2022.2.5,59.955560937933306,
"['R_Arm_X_For', 'R_Arm_Z_Back', 'L_Head_Z_Back', 'R_Torso_Y_Back', 'L_Arm_X_Back', 'R_Head_Y_Back']",True,L_Arm_X_Back,6,robot,1,False,False,"['robot_stimuli\\R_Arm_X_For.mp4', 'robot_stimuli\\R_Arm_Z_Back.mp4', 'robot_stimuli\\L_Head_Z_Back.mp4', 'robot_stimuli\\R_Torso_Y_Back.mp4', 'robot_stimuli\\L_Arm_X_Back.mp4', 'robot_stimuli\\R_Head_Y_Back.mp4']",robot_stimuli\L_Arm_X_Back.mp4,3,,,,,,,,,,,,,0,15,15,15,,,,,,,,,,,,,,,,,809.4232008999988,,,,,,,,,,814.3222045000002,814.3222045000002,814.3222045000002,814.3222045000002,814.3222045000002,814.3222045000002,814.3222045000002,814.3222045000002,None,None,None,,,,,,,,,,,786.0890827000003,786.0890827000003,None,,805.7823302999986,810.5161029999999,810.5161029999999,810.5161029999999,810.5161029999999,n,3.764027100000021,786.0890827000003,786.0890827000003,,,,3,001,2024-06-25_14h24.37.016,robot_sternberg_sign,2022.2.5,59.955560937933306,
"['R_Torso_X_Back', 'L_Head_X_For', 'L_Torso_X_For', 'R_Head_Z_Back', 'R_Arm_Y_Back', 'R_Head_X_Back']",True,L_Head_X_For,6,robot,1,False,False,"['robot_stimuli\\R_Torso_X_Back.mp4', 'robot_stimuli\\L_Head_X_For.mp4', 'robot_stimuli\\L_Torso_X_For.mp4', 'robot_stimuli\\R_Head_Z_Back.mp4', 'robot_stimuli\\R_Arm_Y_Back.mp4', 'robot_stimuli\\R_Head_X_Back.mp4']",robot_stimuli\L_Head_X_For.mp4,3,,,,,,,,,,,,,0,16,16,16,,,,,,,,,,,,,,,,,837.6569763999996,,,,,,,,,,842.3288291999997,842.3288291999997,842.3288291999997,842.3288291999997,842.3288291999997,842.3288291999997,842.3288291999997,842.3288291999997,None,None,None,,,,,,,,,,,814.3222045000002,814.3222045000002,None,,834.0316126999987,838.766633199999,838.766633199999,838.766633199999,838.766633199999,c,2.5773397000011755,814.3222045000002,814.3222045000002,,,,3,001,2024-06-25_14h24.37.016,robot_sternberg_sign,2022.2.5,59.955560937933306,
"['L_Base_X_Back', 'L_Base_Z_For', 'R_Torso_X_Back', 'R_Base_Y_For', 'L_Arm_Y_Back', 'R_Base_Y_Back']",True,R_Base_Y_Back,6,robot,1,False,False,"['robot_stimuli\\L_Base_X_Back.mp4', 'robot_stimuli\\L_Base_Z_For.mp4', 'robot_stimuli\\R_Torso_X_Back.mp4', 'robot_stimuli\\R_Base_Y_For.mp4', 'robot_stimuli\\L_Arm_Y_Back.mp4', 'robot_stimuli\\R_Base_Y_Back.mp4']",robot_stimuli\R_Base_Y_Back.mp4,3,,,,,,,,,,,,,0,17,17,17,,,,,,,,,,,,,,,,,865.6452723999992,866.7313464999988,,,,,,,,,870.3624468999988,870.3624468999988,870.3624468999988,870.3624468999988,870.3624468999988,870.3624468999988,870.3624468999988,870.3624468999988,None,None,None,,,,,,,,,,,842.3288291999997,842.3288291999997,None,,862.0041326999999,866.7313464999988,866.7313464999988,866.7313464999988,866.7313464999988,c,3.172925100001521,842.3288291999997,842.3288291999997,,,,3,001,2024-06-25_14h24.37.016,robot_sternberg_sign,2022.2.5,59.955560937933306,
"['R_Base_Z_Back', 'R_Head_Y_For', 'L_Head_Z_For', 'R_Arm_Y_For', 'R_Torso_Y_Back', 'R_Torso_X_For']",False,R_Head_Z_For,6,robot,1,False,False,"['robot_stimuli\\R_Base_Z_Back.mp4', 'robot_stimuli\\R_Head_Y_For.mp4', 'robot_stimuli\\L_Head_Z_For.mp4', 'robot_stimuli\\R_Arm_Y_For.mp4', 'robot_stimuli\\R_Torso_Y_Back.mp4', 'robot_stimuli\\R_Torso_X_For.mp4']",robot_stimuli\R_Head_Z_For.mp4,3,,,,,,,,,,,,,0,18,18,18,,,,,,,,,,,,,,,,,893.4761963000001,894.5677679,,,,,,,,,898.2157623999992,898.2157623999992,898.2157623999992,898.2157623999992,898.2157623999992,898.2157623999992,898.2157623999992,898.2157623999992,None,None,None,,,,,,,,,,,870.3624468999988,870.3624468999988,None,,889.8318906999993,894.5677679,894.5677679,894.5677679,894.5677679,n,2.1276959000024362,870.3624468999988,870.3624468999988,,,,3,001,2024-06-25_14h24.37.016,robot_sternberg_sign,2022.2.5,59.955560937933306,
"['R_Arm_X_For', 'L_Head_Y_For', 'L_Arm_Z_Back', 'R_Head_Z_For', 'L_Arm_X_Back', 'L_Head_X_Back']",False,L_Arm_Y_Back,6,robot,1,False,True,"['robot_stimuli\\R_Arm_X_For.mp4', 'robot_stimuli\\L_Head_Y_For.mp4', 'robot_stimuli\\L_Arm_Z_Back.mp4', 'robot_stimuli\\R_Head_Z_For.mp4', 'robot_stimuli\\L_Arm_X_Back.mp4', 'robot_stimuli\\L_Head_X_Back.mp4']",robot_stimuli\L_Arm_Y_Back.mp4,3,,,,,,,,,,,,,0,19,19,19,,,,,,,,,,,,,,,,,921.5261216999988,922.6147003999995,,,,,,,,,926.3674754999993,928.9124728999996,926.3674754999993,928.9124728999996,926.3674754999993,928.9124728999996,926.3674754999993,928.9124728999996,7.469135802469132,1.904187500000262,space,,,2.496310000000449,,,,,,,,898.2157623999992,898.2157623999992,None,,917.8908472999992,922.6147003999995,922.6147003999995,922.6147003999995,922.6147003999995,n,3.689041100000395,898.2157623999992,898.2157623999992,,,,3,001,2024-06-25_14h24.37.016,robot_sternberg_sign,2022.2.5,59.955560937933306,
"['R_Arm_Y_For', 'L_Base_Z_Back']",False,L_Torso_X_For,2,robot,1,True,False,"['robot_stimuli\\R_Arm_Y_For.mp4', 'robot_stimuli\\L_Base_Z_Back.mp4']",robot_stimuli\L_Torso_X_For.mp4,3,,,,,,,,,,,,,0,20,20,20,,,,,,,,,,,,,,,,,938.9569402999987,931.7173551999986,,,,,,,,,943.6860336999998,943.6860336999998,943.6860336999998,943.6860336999998,943.6860336999998,943.6860336999998,943.6860336999998,943.6860336999998,None,None,None,,,,,,,,,,,928.9124728999996,928.9124728999996,space,1.6963470999999117,935.3181131000001,940.0487929999999,940.0487929999999,940.0487929999999,940.0487929999999,n,2.6313101000014285,,,,,,3,001,2024-06-25_14h24.37.016,robot_sternberg_sign,2022.2.5,59.955560937933306,
"['L_Head_Z_Back', 'R_Torso_X_Back']",True,L_Head_Z_Back,2,robot,1,False,False,"['robot_stimuli\\L_Head_Z_Back.mp4', 'robot_stimuli\\R_Torso_X_Back.mp4']",robot_stimuli\L_Head_Z_Back.mp4,3,,,,,,,,,,,,,0,21,21,21,,,,,,,,,,,,,,,,,952.1265601999985,953.2166669999988,,,,,,,,,956.8525051999986,956.8525051999986,956.8525051999986,956.8525051999986,956.8525051999986,956.8525051999986,956.8525051999986,956.8525051999986,None,None,None,,,,,,,,,,,943.6860336999998,943.6860336999998,None,,948.4838030999999,953.2166669999988,953.2166669999988,953.2166669999988,953.2166669999988,c,2.495778900001824,943.6860336999998,943.6860336999998,,,,3,001,2024-06-25_14h24.37.016,robot_sternberg_sign,2022.2.5,59.955560937933306,
"['L_Base_Y_For', 'R_Torso_Y_For']",False,R_Arm_Y_For,2,robot,1,False,False,"['robot_stimuli\\L_Base_Y_For.mp4', 'robot_stimuli\\R_Torso_Y_For.mp4']",robot_stimuli\R_Arm_Y_For.mp4,3,,,,,,,,,,,,,0,22,22,22,,,,,,,,,,,,,,,,,965.1916334999987,966.2876866999995,,,,,,,,,969.8019558999986,969.8019558999986,969.8019558999986,969.8019558999986,969.8019558999986,969.8019558999986,969.8019558999986,969.8019558999986,None,None,None,,,,,,,,,,,956.8525051999986,956.8525051999986,None,,961.5499273999994,966.2876866999995,966.2876866999995,966.2876866999995,966.2876866999995,n,1.6404884999992646,956.8525051999986,956.8525051999986,,,,3,001,2024-06-25_14h24.37.016,robot_sternberg_sign,2022.2.5,59.955560937933306,
"['L_Head_Y_Back', 'R_Torso_Y_Back']",True,R_Torso_Y_Back,2,robot,1,False,False,"['robot_stimuli\\L_Head_Y_Back.mp4', 'robot_stimuli\\R_Torso_Y_Back.mp4']",robot_stimuli\R_Torso_Y_Back.mp4,3,,,,,,,,,,,,,0,23,23,23,,,,,,,,,,,,,,,,,978.2278220999997,979.3138945999999,,,,,,,,,982.9658577999999,982.9658577999999,982.9658577999999,982.9658577999999,982.9658577999999,982.9658577999999,982.9658577999999,982.9658577999999,None,None,None,,,,,,,,,,,969.8019558999986,969.8019558999986,None,,974.5983047999998,979.3138945999999,979.3138945999999,979.3138945999999,979.3138945999999,c,2.4459019000005355,969.8019558999986,969.8019558999986,,,,3,001,2024-06-25_14h24.37.016,robot_sternberg_sign,2022.2.5,59.955560937933306,
"['L_Head_Y_Back', 'R_Head_Y_Back']",True,L_Head_Y_Back,2,robot,1,False,False,"['robot_stimuli\\L_Head_Y_Back.mp4', 'robot_stimuli\\R_Head_Y_Back.mp4']",robot_stimuli\L_Head_Y_Back.mp4,3,,,,,,,,,,,,,0,24,24,24,,,,,,,,,,,,,,,,,991.4096560999988,992.4989780999986,,,,,,,,,996.1486033000001,996.1486033000001,996.1486033000001,996.1486033000001,996.1486033000001,996.1486033000001,996.1486033000001,996.1486033000001,None,None,None,,,,,,,,,,,982.9658577999999,982.9658577999999,None,,987.7693278999996,992.4989780999986,992.4989780999986,992.4989780999986,992.4989780999986,c,1.9497885000000679,982.9658577999999,982.9658577999999,,,,3,001,2024-06-25_14h24.37.016,robot_sternberg_sign,2022.2.5,59.955560937933306,
"['L_Torso_Z_For', 'R_Head_X_For']",False,R_Head_X_Back,2,robot,1,False,False,"['robot_stimuli\\L_Torso_Z_For.mp4', 'robot_stimuli\\R_Head_X_For.mp4']",robot_stimuli\R_Head_X_Back.mp4,3,,,,,,,,,,,,,0,25,25,25,,,,,,,,,,,,,,,,,1004.5904699000002,997.2288028000003,,,,,,,,,1009.3190341999998,1009.3190341999998,1009.3190341999998,1009.3190341999998,1009.3190341999998,1009.3190341999998,1009.3190341999998,1009.3190341999998,None,None,None,,,,,,,,,,,996.1486033000001,996.1486033000001,None,,1000.9484694000002,1005.6827318999985,1005.6827318999985,1005.6827318999985,1005.6827318999985,n,2.43073270000059,996.1486033000001,996.1486033000001,,,,3,001,2024-06-25_14h24.37.016,robot_sternberg_sign,2022.2.5,59.955560937933306,
"['L_Head_Y_Back', 'L_Arm_X_For']",False,L_Head_Z_For,2,robot,1,False,False,"['robot_stimuli\\L_Head_Y_Back.mp4', 'robot_stimuli\\L_Arm_X_For.mp4']",robot_stimuli\L_Head_Z_For.mp4,3,,,,,,,,,,,,,0,26,26,26,,,,,,,,,,,,,,,,,1017.7378214,1018.8122235999999,,,,,,,,,1022.4442082999994,1022.4442082999994,1022.4442082999994,1022.4442082999994,1022.4442082999994,1022.4442082999994,1022.4442082999994,1022.4442082999994,None,None,None,,,,,,,,,,,1009.3190341999998,1009.3190341999998,None,,1014.1104751000003,1018.8122235999999,1018.8122235999999,1018.8122235999999,1018.8122235999999,n,2.66011140000046,1009.3190341999998,1009.3190341999998,,,,3,001,2024-06-25_14h24.37.016,robot_sternberg_sign,2022.2.5,59.955560937933306,
"['L_Torso_Y_For', 'R_Torso_Z_For']",False,R_Head_Z_Back,2,robot,1,False,False,"['robot_stimuli\\L_Torso_Y_For.mp4', 'robot_stimuli\\R_Torso_Z_For.mp4']",robot_stimuli\R_Head_Z_Back.mp4,3,,,,,,,,,,,,,0,27,27,27,,,,,,,,,,,,,,,,,1030.875563399999,1031.9658063999996,,,,,,,,,1035.6026636999995,1035.6026636999995,1035.6026636999995,1035.6026636999995,1035.6026636999995,1035.6026636999995,1035.6026636999995,1035.6026636999995,None,None,None,,,,,,,,,,,1022.4442082999994,1022.4442082999994,None,,1027.2457510999993,1031.9658063999996,1031.9658063999996,1031.9658063999996,1031.9658063999996,n,1.7308335000016086,1022.4442082999994,1022.4442082999994,,,,3,001,2024-06-25_14h24.37.016,robot_sternberg_sign,2022.2.5,59.955560937933306,
"['L_Head_X_Back', 'R_Head_Y_Back']",True,R_Head_Y_Back,2,robot,1,False,False,"['robot_stimuli\\L_Head_X_Back.mp4', 'robot_stimuli\\R_Head_Y_Back.mp4']",robot_stimuli\R_Head_Y_Back.mp4,3,,,,,,,,,,,,,0,28,28,28,,,,,,,,,,,,,,,,,1044.0404517999996,1036.6785272999987,,,,,,,,,1048.761113999999,1048.761113999999,1048.761113999999,1048.761113999999,1048.761113999999,1048.761113999999,1048.761113999999,1048.761113999999,None,None,None,,,,,,,,,,,1035.6026636999995,1035.6026636999995,None,,1040.4005863000002,1045.1319055999993,1045.1319055999993,1045.1319055999993,1045.1319055999993,c,2.7476366000009875,1035.6026636999995,1035.6026636999995,,,,3,001,2024-06-25_14h24.37.016,robot_sternberg_sign,2022.2.5,59.955560937933306,
"['R_Base_Z_For', 'R_Base_Z_Back']",True,R_Base_Z_Back,2,robot,1,False,True,"['robot_stimuli\\R_Base_Z_For.mp4', 'robot_stimuli\\R_Base_Z_Back.mp4']",robot_stimuli\R_Base_Z_Back.mp4,3,,,,,,,,,,,,,0,29,29,29,,,,,,,,,,,,,,,,,1057.1111894999995,1058.2140577999999,,,,,,,,,1061.7880387999994,1064.9160217999997,1061.7880387999994,1064.9160217999997,1061.7880387999994,1064.9160217999997,1061.7880387999994,1064.9160217999997,0.0,2.7919000999991113,space,,,3.0592611000010947,,,,,,,,1048.761113999999,1048.761113999999,None,,1053.5673809,1058.2140577999999,1058.2140577999999,1058.2140577999999,1058.2140577999999,c,2.3060841000005894,1048.761113999999,1048.761113999999,,,,3,001,2024-06-25_14h24.37.016,robot_sternberg_sign,2022.2.5,59.955560937933306,
"['F', 'H', 'X', 'J']",False,D,4,letter,2,True,False,"['robot_stimuli\\\\filler.mp4', 'robot_stimuli\\\\filler.mp4', 'robot_stimuli\\\\filler.mp4', 'robot_stimuli\\\\filler.mp4']",robot_stimuli\\filler.mp4,3,,,,,,,,,,,,,0,30,30,30,,,,,,,,,,,,,,,,,1077.7336003,1078.7985899999985,,,,,,,,,1080.228221899999,1080.228221899999,1080.228221899999,1080.228221899999,1080.228221899999,1080.228221899999,1080.228221899999,1080.228221899999,None,None,None,,,,,,,,,,,1064.9160217999997,1064.9160217999997,space,3.043153800001164,,,1078.7985899999985,1078.7985899999985,1078.7985899999985,n,1.2979166000004625,,,1075.7102607999987,1077.7336003,1078.7985899999985,3,001,2024-06-25_14h24.37.016,robot_sternberg_sign,2022.2.5,59.955560937933306,
"['P', 'D', 'G', 'J']",True,D,4,letter,2,False,False,"['robot_stimuli\\\\filler.mp4', 'robot_stimuli\\\\filler.mp4', 'robot_stimuli\\\\filler.mp4', 'robot_stimuli\\\\filler.mp4']",robot_stimuli\\filler.mp4,3,,,,,,,,,,,,,0,31,31,31,,,,,,,,,,,,,,,,,1089.9666022000001,1091.0229428000002,,,,,,,,,1093.0459543999987,1093.0459543999987,1093.0459543999987,1093.0459543999987,1093.0459543999987,1093.0459543999987,1093.0459543999987,1093.0459543999987,None,None,None,,,,,,,,,,,1080.228221899999,1080.228221899999,None,,,,1091.0229428000002,1091.0229428000002,1091.0229428000002,c,1.8093595000009373,1080.228221899999,1080.228221899999,1087.9447138999985,1089.9666022000001,1091.0229428000002,3,001,2024-06-25_14h24.37.016,robot_sternberg_sign,2022.2.5,59.955560937933306,
"['T', 'F', 'H', 'X']",True,F,4,letter,2,False,False,"['robot_stimuli\\\\filler.mp4', 'robot_stimuli\\\\filler.mp4', 'robot_stimuli\\\\filler.mp4', 'robot_stimuli\\\\filler.mp4']",robot_stimuli\\filler.mp4,3,,,,,,,,,,,,,0,32,32,32,,,,,,,,,,,,,,,,,1102.7681930999988,1103.8241573999985,,,,,,,,,1105.6521348999995,1105.6521348999995,1105.6521348999995,1105.6521348999995,1105.6521348999995,1105.6521348999995,1105.6521348999995,1105.6521348999995,None,None,None,,,,,,,,,,,1093.0459543999987,1093.0459543999987,None,,,,1103.8241573999985,1103.8241573999985,1103.8241573999985,c,1.7206141000006028,1093.0459543999987,1093.0459543999987,1100.7485668999998,1102.7681930999988,1103.8241573999985,3,001,2024-06-25_14h24.37.016,robot_sternberg_sign,2022.2.5,59.955560937933306,
"['L', 'V', 'X', 'F']",True,V,4,letter,2,False,False,"['robot_stimuli\\\\filler.mp4', 'robot_stimuli\\\\filler.mp4', 'robot_stimuli\\\\filler.mp4', 'robot_stimuli\\\\filler.mp4']",robot_stimuli\\filler.mp4,3,,,,,,,,,,,,,0,33,33,33,,,,,,,,,,,,,,,,,1115.1852378999993,1116.242923599999,,,,,,,,,1120.074499799999,1120.074499799999,1120.074499799999,1120.074499799999,1120.074499799999,1120.074499799999,1120.074499799999,1120.074499799999,None,None,None,,,,,,,,,,,1105.6521348999995,1105.6521348999995,None,,,,1116.242923599999,1116.242923599999,1116.242923599999,c,3.6296714000000065,1105.6521348999995,1105.6521348999995,1113.1690543999994,1115.1852378999993,1116.242923599999,3,001,2024-06-25_14h24.37.016,robot_sternberg_sign,2022.2.5,59.955560937933306,
"['D', 'V', 'H', 'X']",False,C,4,letter,2,False,False,"['robot_stimuli\\\\filler.mp4', 'robot_stimuli\\\\filler.mp4', 'robot_stimuli\\\\filler.mp4', 'robot_stimuli\\\\filler.mp4']",robot_stimuli\\filler.mp4,3,,,,,,,,,,,,,0,34,34,34,,,,,,,,,,,,,,,,,1129.6153613999995,1130.6743602999995,,,,,,,,,1132.7084055999985,1132.7084055999985,1132.7084055999985,1132.7084055999985,1132.7084055999985,1132.7084055999985,1132.7084055999985,1132.7084055999985,None,None,None,,,,,,,,,,,1120.074499799999,1120.074499799999,None,,,,1130.6743602999995,1130.6743602999995,1130.6743602999995,n,1.8139513000005536,1120.074499799999,1120.074499799999,1127.5969477999988,1129.6153613999995,1130.6743602999995,3,001,2024-06-25_14h24.37.016,robot_sternberg_sign,2022.2.5,59.955560937933306,
"['D', 'P', 'Z', 'L']",False,S,4,letter,2,False,False,"['robot_stimuli\\\\filler.mp4', 'robot_stimuli\\\\filler.mp4', 'robot_stimuli\\\\filler.mp4', 'robot_stimuli\\\\filler.mp4']",robot_stimuli\\filler.mp4,3,,,,,,,,,,,,,0,35,35,35,,,,,,,,,,,,,,,,,1142.6350927999993,1143.6907801999987,,,,,,,,,1145.1184288999993,1145.1184288999993,1145.1184288999993,1145.1184288999993,1145.1184288999993,1145.1184288999993,1145.1184288999993,1145.1184288999993,None,None,None,,,,,,,,,,,1132.7084055999985,1132.7084055999985,None,,,,1143.6907801999987,1143.6907801999987,1143.6907801999987,n,1.2379892000008113,1132.7084055999985,1132.7084055999985,1140.4221531000003,1142.6350927999993,1143.6907801999987,3,001,2024-06-25_14h24.37.016,robot_sternberg_sign,2022.2.5,59.955560937933306,
"['D', 'B', 'H', 'F']",False,L,4,letter,2,False,False,"['robot_stimuli\\\\filler.mp4', 'robot_stimuli\\\\filler.mp4', 'robot_stimuli\\\\filler.mp4', 'robot_stimuli\\\\filler.mp4']",robot_stimuli\\filler.mp4,3,,,,,,,,,,,,,0,36,36,36,,,,,,,,,,,,,,,,,1154.8492572999985,1155.9091172999997,,,,,,,,,1157.3368852999993,1157.3368852999993,1157.3368852999993,1157.3368852999993,1157.3368852999993,1157.3368852999993,1157.3368852999993,1157.3368852999993,None,None,None,,,,,,,,,,,1145.1184288999993,1145.1184288999993,None,,,,1155.9091172999997,1155.9091172999997,1155.9091172999997,n,1.203115500000422,1145.1184288999993,1145.1184288999993,1152.8309651,1154.8492572999985,1155.9091172999997,3,001,2024-06-25_14h24.37.016,robot_sternberg_sign,2022.2.5,59.955560937933306,
"['M', 'F', 'P', 'S']",False,B,4,letter,2,False,False,"['robot_stimuli\\\\filler.mp4', 'robot_stimuli\\\\filler.mp4', 'robot_stimuli\\\\filler.mp4', 'robot_stimuli\\\\filler.mp4']",robot_stimuli\\filler.mp4,3,,,,,,,,,,,,,0,37,37,37,,,,,,,,,,,,,,,,,1166.8693993999987,1167.9245286999994,,,,,,,,,1169.7589214,1169.7589214,1169.7589214,1169.7589214,1169.7589214,1169.7589214,1169.7589214,1169.7589214,None,None,None,,,,,,,,,,,1157.3368852999993,1157.3368852999993,None,,,,1167.9245286999994,1167.9245286999994,1167.9245286999994,n,1.6274126000025717,1157.3368852999993,1157.3368852999993,1164.6594621999993,1166.8693993999987,1167.9245286999994,3,001,2024-06-25_14h24.37.016,robot_sternberg_sign,2022.2.5,59.955560937933306,
"['C', 'W', 'J', 'S']",True,C,4,letter,2,False,False,"['robot_stimuli\\\\filler.mp4', 'robot_stimuli\\\\filler.mp4', 'robot_stimuli\\\\filler.mp4', 'robot_stimuli\\\\filler.mp4']",robot_stimuli\\filler.mp4,3,,,,,,,,,,,,,0,38,38,38,,,,,,,,,,,,,,,,,1179.1005269999987,1180.1567949,,,,,,,,,1181.7872337999997,1181.7872337999997,1181.7872337999997,1181.7872337999997,1181.7872337999997,1181.7872337999997,1181.7872337999997,1181.7872337999997,None,None,None,,,,,,,,,,,1169.7589214,1169.7589214,None,,,,1180.1567949,1180.1567949,1180.1567949,c,1.41989360000116,1169.7589214,1169.7589214,1177.0846853999992,1179.1005269999987,1180.1567949,3,001,2024-06-25_14h24.37.016,robot_sternberg_sign,2022.2.5,59.955560937933306,
"['D', 'B', 'R', 'J']",True,J,4,letter,2,False,True,"['robot_stimuli\\\\filler.mp4', 'robot_stimuli\\\\filler.mp4', 'robot_stimuli\\\\filler.mp4', 'robot_stimuli\\\\filler.mp4']",robot_stimuli\\filler.mp4,3,,,,,,,,,,,,,0,39,39,39,,,,,,,,,,,,,,,,,1191.3680864999988,1192.4259858999994,,,,,,,,,1193.8883616000003,1196.9643132,1193.8883616000003,1196.9643132,1193.8883616000003,1196.9643132,1193.8883616000003,1196.9643132,0,2.3877924000007624,space,,,3.032061600000816,,,,,,,,1181.7872337999997,1181.7872337999997,None,,,,1192.4259858999994,1192.4259858999994,1192.4259858999994,c,1.310886000001119,1181.7872337999997,1181.7872337999997,1189.3549956999996,1191.3680864999988,1192.4259858999994,3,001,2024-06-25_14h24.37.016,robot_sternberg_sign,2022.2.5,59.955560937933306,
"['Z', 'T']",False,C,2,letter,2,True,False,"['robot_stimuli\\\\filler.mp4', 'robot_stimuli\\\\filler.mp4']",robot_stimuli\\filler.mp4,3,,,,,,,,,,,,,0,40,40,40,,,,,,,,,,,,,,,,,1203.8627828999997,1204.9243281999989,,,,,,,,,1206.5509524999998,1206.5509524999998,1206.5509524999998,1206.5509524999998,1206.5509524999998,1206.5509524999998,1206.5509524999998,1206.5509524999998,None,None,None,,,,,,,,,,,1196.9643132,1196.9643132,space,1.3232767000008607,,,1204.9243281999989,1204.9243281999989,1204.9243281999989,n,1.4443307000001369,,,1201.6490864999996,1203.8627828999997,1204.9243281999989,3,001,2024-06-25_14h24.37.016,robot_sternberg_sign,2022.2.5,59.955560937933306,
"['S', 'J']",True,S,2,letter,2,False,False,"['robot_stimuli\\\\filler.mp4', 'robot_stimuli\\\\filler.mp4']",robot_stimuli\\filler.mp4,3,,,,,,,,,,,,,0,41,41,41,,,,,,,,,,,,,,,,,1211.912706699999,1212.973361799999,,,,,,,,,1214.2006678999987,1214.2006678999987,1214.2006678999987,1214.2006678999987,1214.2006678999987,1214.2006678999987,1214.2006678999987,1214.2006678999987,None,None,None,,,,,,,,,,,1206.5509524999998,1206.5509524999998,None,,,,1212.973361799999,1212.973361799999,1212.973361799999,c,1.1227202000009129,1206.5509524999998,1206.5509524999998,1209.8928400999994,1211.912706699999,1212.973361799999,3,001,2024-06-25_14h24.37.016,robot_sternberg_sign,2022.2.5,59.955560937933306,
"['Q', 'T']",True,Q,2,letter,2,False,False,"['robot_stimuli\\\\filler.mp4', 'robot_stimuli\\\\filler.mp4']",robot_stimuli\\filler.mp4,3,,,,,,,,,,,,,0,42,42,42,,,,,,,,,,,,,,,,,1219.5621304999986,1220.6248997999992,,,,,,,,,1221.8477846999995,1221.8477846999995,1221.8477846999995,1221.8477846999995,1221.8477846999995,1221.8477846999995,1221.8477846999995,1221.8477846999995,None,None,None,,,,,,,,,,,1214.2006678999987,1214.2006678999987,None,,,,1220.6248997999992,1220.6248997999992,1220.6248997999992,c,1.1507105000000593,1214.2006678999987,1214.2006678999987,1217.5476012,1219.5621304999986,1220.6248997999992,3,001,2024-06-25_14h24.37.016,robot_sternberg_sign,2022.2.5,59.955560937933306,
"['K', 'Q']",False,J,2,letter,2,False,False,"['robot_stimuli\\\\filler.mp4', 'robot_stimuli\\\\filler.mp4']",robot_stimuli\\filler.mp4,3,,,,,,,,,,,,,0,43,43,43,,,,,,,,,,,,,,,,,1227.2079644999994,1228.2738343,,,,,,,,,1229.5039916999995,1229.5039916999995,1229.5039916999995,1229.5039916999995,1229.5039916999995,1229.5039916999995,1229.5039916999995,1229.5039916999995,None,None,None,,,,,,,,,,,1221.8477846999995,1221.8477846999995,None,,,,1228.2738343,1228.2738343,1228.2738343,n,1.1579215000001568,1221.8477846999995,1221.8477846999995,1225.1975846999994,1227.2079644999994,1228.2738343,3,001,2024-06-25_14h24.37.016,robot_sternberg_sign,2022.2.5,59.955560937933306,
"['J', 'S']",True,J,2,letter,2,False,False,"['robot_stimuli\\\\filler.mp4', 'robot_stimuli\\\\filler.mp4']",robot_stimuli\\filler.mp4,3,,,,,,,,,,,,,0,44,44,44,,,,,,,,,,,,,,,,,1235.0599411999992,1236.1243663999994,,,,,,,,,1240.9636750999998,1240.9636750999998,1240.9636750999998,1240.9636750999998,1240.9636750999998,1240.9636750999998,1240.9636750999998,1240.9636750999998,None,None,None,,,,,,,,,,,1229.5039916999995,1229.5039916999995,None,,,,1236.1243663999994,1236.1243663999994,1236.1243663999994,c,4.691345300001558,1229.5039916999995,1229.5039916999995,1232.845060399999,1235.0599411999992,1236.1243663999994,3,001,2024-06-25_14h24.37.016,robot_sternberg_sign,2022.2.5,59.955560937933306,
"['D', 'X']",False,H,2,letter,2,False,False,"['robot_stimuli\\\\filler.mp4', 'robot_stimuli\\\\filler.mp4']",robot_stimuli\\filler.mp4,3,,,,,,,,,,,,,0,45,45,45,,,,,,,,,,,,,,,,,1246.3295753000002,1247.3920855999986,,,,,,,,,1249.0216428999993,1249.0216428999993,1249.0216428999993,1249.0216428999993,1249.0216428999993,1249.0216428999993,1249.0216428999993,1249.0216428999993,None,None,None,,,,,,,,,,,1240.9636750999998,1240.9636750999998,None,,,,1247.3920855999986,1247.3920855999986,1247.3920855999986,n,1.5040523000025132,1240.9636750999998,1240.9636750999998,1244.3121747999994,1246.3295753000002,1247.3920855999986,3,001,2024-06-25_14h24.37.016,robot_sternberg_sign,2022.2.5,59.955560937933306,
"['M', 'T']",True,T,2,letter,2,False,False,"['robot_stimuli\\\\filler.mp4', 'robot_stimuli\\\\filler.mp4']",robot_stimuli\\filler.mp4,3,,,,,,,,,,,,,0,46,46,46,,,,,,,,,,,,,,,,,1254.384150599999,1255.4413069000002,,,,,,,,,1256.6634993999996,1256.6634993999996,1256.6634993999996,1256.6634993999996,1256.6634993999996,1256.6634993999996,1256.6634993999996,1256.6634993999996,None,None,None,,,,,,,,,,,1249.0216428999993,1249.0216428999993,None,,,,1255.4413069000002,1255.4413069000002,1255.4413069000002,c,1.030992400001196,1249.0216428999993,1249.0216428999993,1252.3646231000002,1254.384150599999,1255.4413069000002,3,001,2024-06-25_14h24.37.016,robot_sternberg_sign,2022.2.5,59.955560937933306,
"['R', 'P']",False,D,2,letter,2,False,False,"['robot_stimuli\\\\filler.mp4', 'robot_stimuli\\\\filler.mp4']",robot_stimuli\\filler.mp4,3,,,,,,,,,,,,,0,47,47,47,,,,,,,,,,,,,,,,,1262.0326126,1263.090037,,,,,,,,,1264.3193591999989,1264.3193591999989,1264.3193591999989,1264.3193591999989,1264.3193591999989,1264.3193591999989,1264.3193591999989,1264.3193591999989,None,None,None,,,,,,,,,,,1256.6634993999996,1256.6634993999996,None,,,,1263.090037,1263.090037,1263.090037,n,1.0061858000008215,1256.6634993999996,1256.6634993999996,1259.8227580999992,1262.0326126,1263.090037,3,001,2024-06-25_14h24.37.016,robot_sternberg_sign,2022.2.5,59.955560937933306,
"['H', 'N']",True,N,2,letter,2,False,False,"['robot_stimuli\\\\filler.mp4', 'robot_stimuli\\\\filler.mp4']",robot_stimuli\\filler.mp4,3,,,,,,,,,,,,,0,48,48,48,,,,,,,,,,,,,,,,,1269.4845838,1270.5409842999998,,,,,,,,,1271.7640362999991,1271.7640362999991,1271.7640362999991,1271.7640362999991,1271.7640362999991,1271.7640362999991,1271.7640362999991,1271.7640362999991,None,None,None,,,,,,,,,,,1264.3193591999989,1264.3193591999989,None,,,,1270.5409842999998,1270.5409842999998,1270.5409842999998,c,1.1627373000010266,1264.3193591999989,1264.3193591999989,1267.4663642999985,1269.4845838,1270.5409842999998,3,001,2024-06-25_14h24.37.016,robot_sternberg_sign,2022.2.5,59.955560937933306,
"['P', 'C']",False,B,2,letter,2,False,True,"['robot_stimuli\\\\filler.mp4', 'robot_stimuli\\\\filler.mp4']",robot_stimuli\\filler.mp4,3,,,,,,,,,,,,,0,49,49,49,,,,,,,,,,,,,,,,,1276.9347146,1277.9926114999998,,,,,,,,,1279.2446099999997,1281.5156592000003,1279.2446099999997,1281.5156592000003,1279.2446099999997,1281.5156592000003,1279.2446099999997,1281.5156592000003,0,1.6473359999999957,space,,,2.226800900001763,,,,,,,,1271.7640362999991,1271.7640362999991,None,,,,1277.9926114999998,1277.9926114999998,1277.9926114999998,n,1.0702968000005058,1271.7640362999991,1271.7640362999991,1274.9090364999993,1276.9347146,1277.9926114999998,3,001,2024-06-25_14h24.37.016,robot_sternberg_sign,2022.2.5,59.955560937933306,
"['N', 'P', 'M', 'R', 'Z', 'H']",False,X,6,letter,2,True,False,"['robot_stimuli\\\\filler.mp4', 'robot_stimuli\\\\filler.mp4', 'robot_stimuli\\\\filler.mp4', 'robot_stimuli\\\\filler.mp4', 'robot_stimuli\\\\filler.mp4', 'robot_stimuli\\\\filler.mp4']",robot_stimuli\\filler.mp4,3,,,,,,,,,,,,,0,50,50,50,,,,,,,,,,,,,,,,,1297.8012896,1298.8605123999987,,,,,,,,,1303.8931278,1303.8931278,1303.8931278,1303.8931278,1303.8931278,1303.8931278,1303.8931278,1303.8931278,None,None,None,,,,,,,,,,,1281.5156592000003,1281.5156592000003,space,2.357216700002027,,,1298.8605123999987,1298.8605123999987,1298.8605123999987,n,4.835535100000925,,,1295.7847776999988,1297.8012896,1298.8605123999987,3,001,2024-06-25_14h24.37.016,robot_sternberg_sign,2022.2.5,59.955560937933306,
"['V', 'J', 'Z', 'B', 'L', 'R']",True,B,6,letter,2,False,False,"['robot_stimuli\\\\filler.mp4', 'robot_stimuli\\\\filler.mp4', 'robot_stimuli\\\\filler.mp4', 'robot_stimuli\\\\filler.mp4', 'robot_stimuli\\\\filler.mp4', 'robot_stimuli\\\\filler.mp4']",robot_stimuli\\filler.mp4,3,,,,,,,,,,,,,0,51,51,51,,,,,,,,,,,,,,,,,1318.0041084999993,1319.0572477999995,,,,,,,,,1321.491880399999,1321.491880399999,1321.491880399999,1321.491880399999,1321.491880399999,1321.491880399999,1321.491880399999,1321.491880399999,None,None,None,,,,,,,,,,,1303.8931278,1303.8931278,None,,,,1319.0572477999995,1319.0572477999995,1319.0572477999995,c,2.2871324000007007,1303.8931278,1303.8931278,1315.7940915999989,1318.0041084999993,1319.0572477999995,3,001,2024-06-25_14h24.37.016,robot_sternberg_sign,2022.2.5,59.955560937933306,
"['C', 'J', 'B', 'K', 'L', 'D']",False,Q,6,letter,2,False,False,"['robot_stimuli\\\\filler.mp4', 'robot_stimuli\\\\filler.mp4', 'robot_stimuli\\\\filler.mp4', 'robot_stimuli\\\\filler.mp4', 'robot_stimuli\\\\filler.mp4', 'robot_stimuli\\\\filler.mp4']",robot_stimuli\\filler.mp4,3,,,,,,,,,,,,,0,52,52,52,,,,,,,,,,,,,,,,,1335.6284966000003,1336.6946174999994,,,,,,,,,1338.1161663000003,1338.1161663000003,1338.1161663000003,1338.1161663000003,1338.1161663000003,1338.1161663000003,1338.1161663000003,1338.1161663000003,None,None,None,,,,,,,,,,,1321.491880399999,1321.491880399999,None,,,,1336.6946174999994,1336.6946174999994,1336.6946174999994,n,1.3209689000013896,1321.491880399999,1321.491880399999,1333.617538299999,1335.6284966000003,1336.6946174999994,3,001,2024-06-25_14h24.37.016,robot_sternberg_sign,2022.2.5,59.955560937933306,
"['T', 'M', 'N', 'D', 'F', 'Q']",False,W,6,letter,2,False,False,"['robot_stimuli\\\\filler.mp4', 'robot_stimuli\\\\filler.mp4', 'robot_stimuli\\\\filler.mp4', 'robot_stimuli\\\\filler.mp4', 'robot_stimuli\\\\filler.mp4', 'robot_stimuli\\\\filler.mp4']",robot_stimuli\\filler.mp4,3,,,,,,,,,,,,,0,53,53,53,,,,,,,,,,,,,,,,,1352.6287011999993,1353.6907437999998,,,,,,,,,1354.9209360999994,1354.9209360999994,1354.9209360999994,1354.9209360999994,1354.9209360999994,1354.9209360999994,1354.9209360999994,1354.9209360999994,None,None,None,,,,,,,,,,,1338.1161663000003,1338.1161663000003,None,,,,1353.6907437999998,1353.6907437999998,1353.6907437999998,n,1.1486651000013808,1338.1161663000003,1338.1161663000003,1350.4100024,1352.6287011999993,1353.6907437999998,3,001,2024-06-25_14h24.37.016,robot_sternberg_sign,2022.2.5,59.955560937933306,
"['C', 'M', 'D', 'K', 'Z', 'L']",False,V,6,letter,2,False,False,"['robot_stimuli\\\\filler.mp4', 'robot_stimuli\\\\filler.mp4', 'robot_stimuli\\\\filler.mp4', 'robot_stimuli\\\\filler.mp4', 'robot_stimuli\\\\filler.mp4', 'robot_stimuli\\\\filler.mp4']",robot_stimuli\\filler.mp4,3,,,,,,,,,,,,,0,54,54,54,,,,,,,,,,,,,,,,,1369.425127999999,1370.4903001999992,,,,,,,,,1373.3251698999993,1373.3251698999993,1373.3251698999993,1373.3251698999993,1373.3251698999993,1373.3251698999993,1373.3251698999993,1373.3251698999993,None,None,None,,,,,,,,,,,1354.9209360999994,1354.9209360999994,None,,,,1370.4903001999992,1370.4903001999992,1370.4903001999992,n,2.677434600000197,1354.9209360999994,1354.9209360999994,1367.2132060999993,1369.425127999999,1370.4903001999992,3,001,2024-06-25_14h24.37.016,robot_sternberg_sign,2022.2.5,59.955560937933306,
"['S', 'H', 'Z', 'B', 'K', 'G']",True,K,6,letter,2,False,False,"['robot_stimuli\\\\filler.mp4', 'robot_stimuli\\\\filler.mp4', 'robot_stimuli\\\\filler.mp4', 'robot_stimuli\\\\filler.mp4', 'robot_stimuli\\\\filler.mp4', 'robot_stimuli\\\\filler.mp4']",robot_stimuli\\filler.mp4,3,,,,,,,,,,,,,0,55,55,55,,,,,,,,,,,,,,,,,1387.4660429999985,1388.5313964999987,,,,,,,,,1389.9598581999999,1389.9598581999999,1389.9598581999999,1389.9598581999999,1389.9598581999999,1389.9598581999999,1389.9598581999999,1389.9598581999999,None,None,None,,,,,,,,,,,1373.3251698999993,1373.3251698999993,None,,,,1388.5313964999987,1388.5313964999987,1388.5313964999987,c,1.3493446000011318,1373.3251698999993,1373.3251698999993,1385.4492059999993,1387.4660429999985,1388.5313964999987,3,001,2024-06-25_14h24.37.016,robot_sternberg_sign,2022.2.5,59.955560937933306,
"['Q', 'M', 'D', 'H', 'T', 'V']",True,Q,6,letter,2,False,False,"['robot_stimuli\\\\filler.mp4', 'robot_stimuli\\\\filler.mp4', 'robot_stimuli\\\\filler.mp4', 'robot_stimuli\\\\filler.mp4', 'robot_stimuli\\\\filler.mp4', 'robot_stimuli\\\\filler.mp4']",robot_stimuli\\filler.mp4,3,,,,,,,,,,,,,0,56,56,56,,,,,,,,,,,,,,,,,1404.274781099999,1405.3411206,,,,,,,,,1406.5650807000002,1406.5650807000002,1406.5650807000002,1406.5650807000002,1406.5650807000002,1406.5650807000002,1406.5650807000002,1406.5650807000002,None,None,None,,,,,,,,,,,1389.9598581999999,1389.9598581999999,None,,,,1405.3411206,1405.3411206,1405.3411206,c,1.1388343000016903,1389.9598581999999,1389.9598581999999,1402.2653891999998,1404.274781099999,1405.3411206,3,001,2024-06-25_14h24.37.016,robot_sternberg_sign,2022.2.5,59.955560937933306,
"['C', 'K', 'T', 'J', 'M', 'L']",True,L,6,letter,2,False,False,"['robot_stimuli\\\\filler.mp4', 'robot_stimuli\\\\filler.mp4', 'robot_stimuli\\\\filler.mp4', 'robot_stimuli\\\\filler.mp4', 'robot_stimuli\\\\filler.mp4', 'robot_stimuli\\\\filler.mp4']",robot_stimuli\\filler.mp4,3,,,,,,,,,,,,,0,57,57,57,,,,,,,,,,,,,,,,,1420.461774200001,1421.5263229999982,,,,,,,,,1423.1528728000012,1423.1528728000012,1423.1528728000012,1423.1528728000012,1423.1528728000012,1423.1528728000012,1423.1528728000012,1423.1528728000012,None,None,None,,,,,,,,,,,1406.5650807000002,1406.5650807000002,None,,,,1421.5263229999982,1421.5263229999982,1421.5263229999982,c,1.425632600001336,1406.5650807000002,1406.5650807000002,1418.4490896999996,1420.461774200001,1421.5263229999982,3,001,2024-06-25_14h24.37.016,robot_sternberg_sign,2022.2.5,59.955560937933306,
"['T', 'F', 'H', 'L', 'D', 'N']",False,G,6,letter,2,False,False,"['robot_stimuli\\\\filler.mp4', 'robot_stimuli\\\\filler.mp4', 'robot_stimuli\\\\filler.mp4', 'robot_stimuli\\\\filler.mp4', 'robot_stimuli\\\\filler.mp4', 'robot_stimuli\\\\filler.mp4']",robot_stimuli\\filler.mp4,3,,,,,,,,,,,,,0,58,58,58,,,,,,,,,,,,,,,,,1437.6455012000006,1438.7089809999998,,,,,,,,,1440.9418170999998,1440.9418170999998,1440.9418170999998,1440.9418170999998,1440.9418170999998,1440.9418170999998,1440.9418170999998,1440.9418170999998,None,None,None,,,,,,,,,,,1423.1528728000012,1423.1528728000012,None,,,,1438.7089809999998,1438.7089809999998,1438.7089809999998,n,2.002482500001861,1423.1528728000012,1423.1528728000012,1435.430131099998,1437.6455012000006,1438.7089809999998,3,001,2024-06-25_14h24.37.016,robot_sternberg_sign,2022.2.5,59.955560937933306,
"['P', 'D', 'R', 'L', 'M', 'S']",True,S,6,letter,2,False,True,"['robot_stimuli\\\\filler.mp4', 'robot_stimuli\\\\filler.mp4', 'robot_stimuli\\\\filler.mp4', 'robot_stimuli\\\\filler.mp4', 'robot_stimuli\\\\filler.mp4', 'robot_stimuli\\\\filler.mp4']",robot_stimuli\\filler.mp4,3,,,,,,,,,,,,,0,59,59,59,,,,,,,,,,,,,,,,,1455.4782278999992,1456.5410411999983,,,,,,,,,1457.9968599999993,1460.6829832000003,1457.9968599999993,1460.6829832000003,1457.9968599999993,1460.6829832000003,1457.9968599999993,1460.6829832000003,0,1.456626099999994,space,,,2.6271200999999564,,,,,,,,1440.9418170999998,1440.9418170999998,None,,,,1456.5410411999983,1456.5410411999983,1456.5410411999983,c,1.3708016000000498,1440.9418170999998,1440.9418170999998,1453.2682101999999,1455.4782278999992,1456.5410411999983,3,001,2024-06-25_14h24.37.016,robot_sternberg_sign,2022.2.5,59.955560937933306,
"['L_Base_Y_For', 'R_Head_Y_Back', 'L_Torso_Z_For', 'R_Arm_Z_Back', 'L_Torso_Y_Back', 'R_Base_Y_For']",False,R_Base_Z_Back,6,robot,3,True,False,"['robot_stimuli\\L_Base_Y_For.mp4', 'robot_stimuli\\R_Head_Y_Back.mp4', 'robot_stimuli\\L_Torso_Z_For.mp4', 'robot_stimuli\\R_Arm_Z_Back.mp4', 'robot_stimuli\\L_Torso_Y_Back.mp4', 'robot_stimuli\\R_Base_Y_For.mp4']",robot_stimuli\R_Base_Z_Back.mp4,3,,,,,,,,,,,,,0,60,60,60,,,,,,,,,,,,,,,,,1487.0941129999992,1488.178198499998,,,,,,,,,1492.1880051000007,1492.1880051000007,1492.1880051000007,1492.1880051000007,1492.1880051000007,1492.1880051000007,1492.1880051000007,1492.1880051000007,None,None,None,,,,,,,,,,,1460.6829832000003,1460.6829832000003,space,3.300593400001162,1483.4632257000012,1488.178198499998,1488.178198499998,1488.178198499998,1488.178198499998,n,3.9732409000007465,,,,,,3,001,2024-06-25_14h24.37.016,robot_sternberg_sign,2022.2.5,59.955560937933306,
"['L_Torso_Z_Back', 'L_Base_Y_For', 'R_Arm_Z_For', 'L_Base_Y_Back', 'R_Base_Z_Back', 'L_Arm_X_For']",False,R_Arm_Y_Back,6,robot,3,False,False,"['robot_stimuli\\L_Torso_Z_Back.mp4', 'robot_stimuli\\L_Base_Y_For.mp4', 'robot_stimuli\\R_Arm_Z_For.mp4', 'robot_stimuli\\L_Base_Y_Back.mp4', 'robot_stimuli\\R_Base_Z_Back.mp4', 'robot_stimuli\\L_Arm_X_For.mp4']",robot_stimuli\R_Arm_Y_Back.mp4,3,,,,,,,,,,,,,0,61,61,61,,,,,,,,,,,,,,,,,1515.104221499998,1516.1794874999978,,,,,,,,,1519.8198072999985,1519.8198072999985,1519.8198072999985,1519.8198072999985,1519.8198072999985,1519.8198072999985,1519.8198072999985,1519.8198072999985,None,None,None,,,,,,,,,,,1492.1880051000007,1492.1880051000007,None,,1511.4805866999995,1516.1794874999978,1516.1794874999978,1516.1794874999978,1516.1794874999978,n,3.500601800000368,1492.1880051000007,1492.1880051000007,,,,3,001,2024-06-25_14h24.37.016,robot_sternberg_sign,2022.2.5,59.955560937933306,
"['L_Head_Z_For', 'R_Arm_Y_For', 'R_Arm_Z_For', 'L_Base_Z_Back', 'L_Base_Z_For', 'R_Head_Z_Back']",False,R_Base_Y_Back,6,robot,3,False,False,"['robot_stimuli\\L_Head_Z_For.mp4', 'robot_stimuli\\R_Arm_Y_For.mp4', 'robot_stimuli\\R_Arm_Z_For.mp4', 'robot_stimuli\\L_Base_Z_Back.mp4', 'robot_stimuli\\L_Base_Z_For.mp4', 'robot_stimuli\\R_Head_Z_Back.mp4']",robot_stimuli\R_Base_Y_Back.mp4,3,,,,,,,,,,,,,0,62,62,62,,,,,,,,,,,,,,,,,1543.0080118000005,1544.0979626999979,,,,,,,,,1547.7361232000003,1547.7361232000003,1547.7361232000003,1547.7361232000003,1547.7361232000003,1547.7361232000003,1547.7361232000003,1547.7361232000003,None,None,None,,,,,,,,,,,1519.8198072999985,1519.8198072999985,None,,1539.3756205999998,1544.0979626999979,1544.0979626999979,1544.0979626999979,1544.0979626999979,n,2.485853900003349,1519.8198072999985,1519.8198072999985,,,,3,001,2024-06-25_14h24.37.016,robot_sternberg_sign,2022.2.5,59.955560937933306,
"['R_Base_Y_For', 'L_Arm_X_For', 'R_Base_Z_For', 'L_Base_Z_For', 'L_Head_Z_Back', 'L_Arm_Y_For']",True,L_Head_Z_Back,6,robot,3,False,False,"['robot_stimuli\\R_Base_Y_For.mp4', 'robot_stimuli\\L_Arm_X_For.mp4', 'robot_stimuli\\R_Base_Z_For.mp4', 'robot_stimuli\\L_Base_Z_For.mp4', 'robot_stimuli\\L_Head_Z_Back.mp4', 'robot_stimuli\\L_Arm_Y_For.mp4']",robot_stimuli\L_Head_Z_Back.mp4,3,,,,,,,,,,,,,0,63,63,63,,,,,,,,,,,,,,,,,1571.0574869999982,1572.1480902000003,,,,,,,,,1575.7874135999991,1575.7874135999991,1575.7874135999991,1575.7874135999991,1575.7874135999991,1575.7874135999991,1575.7874135999991,1575.7874135999991,None,None,None,,,,,,,,,,,1547.7361232000003,1547.7361232000003,None,,1567.4158270000007,1572.1480902000003,1572.1480902000003,1572.1480902000003,1572.1480902000003,c,2.676266799999212,1547.7361232000003,1547.7361232000003,,,,3,001,2024-06-25_14h24.37.016,robot_sternberg_sign,2022.2.5,59.955560937933306,
"['R_Head_Z_Back', 'R_Torso_X_For', 'R_Arm_X_Back', 'R_Head_Y_Back', 'L_Arm_Z_For', 'L_Arm_Y_For']",True,L_Arm_Y_For,6,robot,3,False,False,"['robot_stimuli\\R_Head_Z_Back.mp4', 'robot_stimuli\\R_Torso_X_For.mp4', 'robot_stimuli\\R_Arm_X_Back.mp4', 'robot_stimuli\\R_Head_Y_Back.mp4', 'robot_stimuli\\L_Arm_Z_For.mp4', 'robot_stimuli\\L_Arm_Y_For.mp4']",robot_stimuli\L_Arm_Y_For.mp4,3,,,,,,,,,,,,,0,64,64,64,,,,,,,,,,,,,,,,,1599.1262014999993,1600.2114399999991,,,,,,,,,1603.852823000001,1603.852823000001,1603.852823000001,1603.852823000001,1603.852823000001,1603.852823000001,1603.852823000001,1603.852823000001,None,None,None,,,,,,,,,,,1575.7874135999991,1575.7874135999991,None,,1595.4826262999995,1600.2114399999991,1600.2114399999991,1600.2114399999991,1600.2114399999991,c,2.7237600999997085,1575.7874135999991,1575.7874135999991,,,,3,001,2024-06-25_14h24.37.016,robot_sternberg_sign,2022.2.5,59.955560937933306,
"['L_Base_X_For', 'R_Arm_X_For', 'R_Base_X_Back', 'L_Base_X_Back', 'R_Arm_Z_For', 'L_Head_Z_Back']",True,R_Arm_Z_For,6,robot,3,False,False,"['robot_stimuli\\L_Base_X_For.mp4', 'robot_stimuli\\R_Arm_X_For.mp4', 'robot_stimuli\\R_Base_X_Back.mp4', 'robot_stimuli\\L_Base_X_Back.mp4', 'robot_stimuli\\R_Arm_Z_For.mp4', 'robot_stimuli\\L_Head_Z_Back.mp4']",robot_stimuli\R_Arm_Z_For.mp4,3,,,,,,,,,,,,,0,65,65,65,,,,,,,,,,,,,,,,,1627.095543299998,1628.1812471000012,,,,,,,,,1634.1495780999976,1634.1495780999976,1634.1495780999976,1634.1495780999976,1634.1495780999976,1634.1495780999976,1634.1495780999976,1634.1495780999976,None,None,None,,,,,,,,,,,1603.852823000001,1603.852823000001,None,,1623.4619175000007,1628.1812471000012,1628.1812471000012,1628.1812471000012,1628.1812471000012,n,5.9304316000034305,1603.852823000001,1603.852823000001,,,,3,001,2024-06-25_14h24.37.016,robot_sternberg_sign,2022.2.5,59.955560937933306,
"['L_Head_Z_Back', 'L_Head_X_Back', 'L_Base_Z_Back', 'L_Torso_X_Back', 'R_Head_X_For', 'L_Base_X_For']",False,L_Arm_Z_Back,6,robot,3,False,False,"['robot_stimuli\\L_Head_Z_Back.mp4', 'robot_stimuli\\L_Head_X_Back.mp4', 'robot_stimuli\\L_Base_Z_Back.mp4', 'robot_stimuli\\L_Torso_X_Back.mp4', 'robot_stimuli\\R_Head_X_For.mp4', 'robot_stimuli\\L_Base_X_For.mp4']",robot_stimuli\L_Arm_Z_Back.mp4,3,,,,,,,,,,,,,0,66,66,66,,,,,,,,,,,,,,,,,1657.406729800001,1635.2288814999993,,,,,,,,,1662.1334349999997,1662.1334349999997,1662.1334349999997,1662.1334349999997,1662.1334349999997,1662.1334349999997,1662.1334349999997,1662.1334349999997,None,None,None,,,,,,,,,,,1634.1495780999976,1634.1495780999976,None,,1653.832547599999,1658.4989337000006,1658.4989337000006,1658.4989337000006,1658.4989337000006,n,1.8449873000008665,1634.1495780999976,1634.1495780999976,,,,3,001,2024-06-25_14h24.37.016,robot_sternberg_sign,2022.2.5,59.955560937933306,
"['L_Torso_Y_For', 'R_Torso_Y_For', 'L_Head_X_For', 'R_Base_Y_For', 'L_Torso_X_Back', 'L_Head_Y_Back']",False,R_Head_X_For,6,robot,3,False,False,"['robot_stimuli\\L_Torso_Y_For.mp4', 'robot_stimuli\\R_Torso_Y_For.mp4', 'robot_stimuli\\L_Head_X_For.mp4', 'robot_stimuli\\R_Base_Y_For.mp4', 'robot_stimuli\\L_Torso_X_Back.mp4', 'robot_stimuli\\L_Head_Y_Back.mp4']",robot_stimuli\R_Head_X_For.mp4,3,,,,,,,,,,,,,0,67,67,67,,,,,,,,,,,,,,,,,1685.4279188,1686.5171045999996,,,,,,,,,1690.1646335000005,1690.1646335000005,1690.1646335000005,1690.1646335000005,1690.1646335000005,1690.1646335000005,1690.1646335000005,1690.1646335000005,None,None,None,,,,,,,,,,,1662.1334349999997,1662.1334349999997,None,,1681.7982950999976,1686.5171045999996,1686.5171045999996,1686.5171045999996,1686.5171045999996,n,2.3383379000024433,1662.1334349999997,1662.1334349999997,,,,3,001,2024-06-25_14h24.37.016,robot_sternberg_sign,2022.2.5,59.955560937933306,
"['L_Head_Z_For', 'R_Torso_X_For', 'R_Arm_Y_For', 'R_Head_Y_Back', 'R_Torso_Y_For', 'L_Base_Z_Back']",True,R_Arm_Y_For,6,robot,3,False,False,"['robot_stimuli\\L_Head_Z_For.mp4', 'robot_stimuli\\R_Torso_X_For.mp4', 'robot_stimuli\\R_Arm_Y_For.mp4', 'robot_stimuli\\R_Head_Y_Back.mp4', 'robot_stimuli\\R_Torso_Y_For.mp4', 'robot_stimuli\\L_Base_Z_Back.mp4']",robot_stimuli\R_Arm_Y_For.mp4,3,,,,,,,,,,,,,0,68,68,68,,,,,,,,,,,,,,,,,1713.341615199999,1714.4303252999998,,,,,,,,,1717.9503489999988,1717.9503489999988,1717.9503489999988,1717.9503489999988,1717.9503489999988,1717.9503489999988,1717.9503489999988,1717.9503489999988,None,None,None,,,,,,,,,,,1690.1646335000005,1690.1646335000005,None,,1709.7112879999986,1714.4303252999998,1714.4303252999998,1714.4303252999998,1714.4303252999998,c,3.041317400004118,1690.1646335000005,1690.1646335000005,,,,3,001,2024-06-25_14h24.37.016,robot_sternberg_sign,2022.2.5,59.955560937933306,
"['R_Arm_Z_For', 'R_Base_Y_For', 'L_Base_Z_For', 'L_Base_X_Back', 'R_Base_X_Back', 'L_Head_X_Back']",True,R_Base_Y_For,6,robot,3,False,True,"['robot_stimuli\\R_Arm_Z_For.mp4', 'robot_stimuli\\R_Base_Y_For.mp4', 'robot_stimuli\\L_Base_Z_For.mp4', 'robot_stimuli\\L_Base_X_Back.mp4', 'robot_stimuli\\R_Base_X_Back.mp4', 'robot_stimuli\\L_Head_X_Back.mp4']",robot_stimuli\R_Base_Y_For.mp4,3,,,,,,,,,,,,,0,69,69,69,,,,,,,,,,,,,,,,,1741.2441340999976,1742.3277820000003,,,,,,,,,1746.7165550999998,1750.2775943999986,1746.7165550999998,1750.2775943999986,1746.7165550999998,1750.2775943999986,1746.7165550999998,1750.2775943999986,5.92592592592592,2.412034200002381,space,,,3.497718500000701,,,,,,,,1717.9503489999988,1717.9503489999988,None,,1737.6120496000003,1742.3277820000003,1742.3277820000003,1742.3277820000003,1742.3277820000003,n,4.327344999999696,1717.9503489999988,1717.9503489999988,,,,3,001,2024-06-25_14h24.37.016,robot_sternberg_sign,2022.2.5,59.955560937933306,
"['R_Head_Z_Back', 'L_Head_Y_For']",True,L_Head_Y_For,2,robot,3,True,False,"['robot_stimuli\\R_Head_Z_Back.mp4', 'robot_stimuli\\L_Head_Y_For.mp4']",robot_stimuli\L_Head_Y_For.mp4,3,,,,,,,,,,,,,0,70,70,70,,,,,,,,,,,,,,,,,1760.6070059999984,1753.2455674999983,,,,,,,,,1765.3487464999998,1765.3487464999998,1765.3487464999998,1765.3487464999998,1765.3487464999998,1765.3487464999998,1765.3487464999998,1765.3487464999998,None,None,None,,,,,,,,,,,1750.2775943999986,1750.2775943999986,space,1.8656291000024794,1756.967897399998,1761.6960084999992,1761.6960084999992,1761.6960084999992,1761.6960084999992,c,2.024035799999183,,,,,,3,001,2024-06-25_14h24.37.016,robot_sternberg_sign,2022.2.5,59.955560937933306,
"['L_Torso_Z_Back', 'R_Head_X_Back']",True,R_Head_X_Back,2,robot,3,False,False,"['robot_stimuli\\L_Torso_Z_Back.mp4', 'robot_stimuli\\R_Head_X_Back.mp4']",robot_stimuli\R_Head_X_Back.mp4,3,,,,,,,,,,,,,0,71,71,71,,,,,,,,,,,,,,,,,1773.658470800001,1774.7489712999995,,,,,,,,,1778.3871833000012,1778.3871833000012,1778.3871833000012,1778.3871833000012,1778.3871833000012,1778.3871833000012,1778.3871833000012,1778.3871833000012,None,None,None,,,,,,,,,,,1765.3487464999998,1765.3487464999998,None,,1770.0164456999992,1774.7489712999995,1774.7489712999995,1774.7489712999995,1774.7489712999995,c,2.666836800000965,1765.3487464999998,1765.3487464999998,,,,3,001,2024-06-25_14h24.37.016,robot_sternberg_sign,2022.2.5,59.955560937933306,
"['R_Arm_Z_Back', 'L_Head_Y_Back']",False,R_Torso_Y_For,2,robot,3,False,False,"['robot_stimuli\\R_Arm_Z_Back.mp4', 'robot_stimuli\\L_Head_Y_Back.mp4']",robot_stimuli\R_Torso_Y_For.mp4,3,,,,,,,,,,,,,0,72,72,72,,,,,,,,,,,,,,,,,1786.824735099999,1787.915235299999,,,,,,,,,1791.5539284000006,1791.5539284000006,1791.5539284000006,1791.5539284000006,1791.5539284000006,1791.5539284000006,1791.5539284000006,1791.5539284000006,None,None,None,,,,,,,,,,,1778.3871833000012,1778.3871833000012,None,,1783.1851055000006,1787.915235299999,1787.915235299999,1787.915235299999,1787.915235299999,n,1.8751905000008264,1778.3871833000012,1778.3871833000012,,,,3,001,2024-06-25_14h24.37.016,robot_sternberg_sign,2022.2.5,59.955560937933306,
"['R_Head_X_Back', 'L_Arm_Y_Back']",True,L_Arm_Y_Back,2,robot,3,False,False,"['robot_stimuli\\R_Head_X_Back.mp4', 'robot_stimuli\\L_Arm_Y_Back.mp4']",robot_stimuli\L_Arm_Y_Back.mp4,3,,,,,,,,,,,,,0,73,73,73,,,,,,,,,,,,,,,,,1799.9951951000003,1801.0963157999977,,,,,,,,,1804.7333880999977,1804.7333880999977,1804.7333880999977,1804.7333880999977,1804.7333880999977,1804.7333880999977,1804.7333880999977,1804.7333880999977,None,None,None,,,,,,,,,,,1791.5539284000006,1791.5539284000006,None,,1796.3511696999994,1801.0963157999977,1801.0963157999977,1801.0963157999977,1801.0963157999977,c,2.3260758000014903,1791.5539284000006,1791.5539284000006,,,,3,001,2024-06-25_14h24.37.016,robot_sternberg_sign,2022.2.5,59.955560937933306,
"['R_Head_X_For', 'R_Head_Z_Back']",False,R_Torso_Z_For,2,robot,3,False,False,"['robot_stimuli\\R_Head_X_For.mp4', 'robot_stimuli\\R_Head_Z_Back.mp4']",robot_stimuli\R_Torso_Z_For.mp4,3,,,,,,,,,,,,,0,74,74,74,,,,,,,,,,,,,,,,,1813.1617750000005,1814.247580299998,,,,,,,,,1817.8976021999988,1817.8976021999988,1817.8976021999988,1817.8976021999988,1817.8976021999988,1817.8976021999988,1817.8976021999988,1817.8976021999988,None,None,None,,,,,,,,,,,1804.7333880999977,1804.7333880999977,None,,1809.5322339999984,1814.247580299998,1814.247580299998,1814.247580299998,1814.247580299998,n,2.3429923000021518,1804.7333880999977,1804.7333880999977,,,,3,001,2024-06-25_14h24.37.016,robot_sternberg_sign,2022.2.5,59.955560937933306,
"['R_Arm_Z_Back', 'L_Torso_Y_Back']",False,L_Torso_Y_For,2,robot,3,False,False,"['robot_stimuli\\R_Arm_Z_Back.mp4', 'robot_stimuli\\L_Torso_Y_Back.mp4']",robot_stimuli\L_Torso_Y_For.mp4,3,,,,,,,,,,,,,0,75,75,75,,,,,,,,,,,,,,,,,1826.2086008999977,1827.2981686999992,,,,,,,,,1830.9361434999992,1830.9361434999992,1830.9361434999992,1830.9361434999992,1830.9361434999992,1830.9361434999992,1830.9361434999992,1830.9361434999992,None,None,None,,,,,,,,,,,1817.8976021999988,1817.8976021999988,None,,1822.7032087000007,1827.2981686999992,1827.2981686999992,1827.2981686999992,1827.2981686999992,n,2.212883400001374,1817.8976021999988,1817.8976021999988,,,,3,001,2024-06-25_14h24.37.016,robot_sternberg_sign,2022.2.5,59.955560937933306,
"['L_Base_X_For', 'R_Head_Z_Back']",True,L_Base_X_For,2,robot,3,False,False,"['robot_stimuli\\L_Base_X_For.mp4', 'robot_stimuli\\R_Head_Z_Back.mp4']",robot_stimuli\L_Base_X_For.mp4,3,,,,,,,,,,,,,0,76,76,76,,,,,,,,,,,,,,,,,1839.3107146000002,1840.3952135,,,,,,,,,1843.9606268999996,1843.9606268999996,1843.9606268999996,1843.9606268999996,1843.9606268999996,1843.9606268999996,1843.9606268999996,1843.9606268999996,None,None,None,,,,,,,,,,,1830.9361434999992,1830.9361434999992,None,,1835.6804869000007,1840.3952135,1840.3952135,1840.3952135,1840.3952135,c,2.9323381000012887,1830.9361434999992,1830.9361434999992,,,,3,001,2024-06-25_14h24.37.016,robot_sternberg_sign,2022.2.5,59.955560937933306,
"['L_Head_X_Back', 'R_Base_Y_Back']",False,R_Base_X_For,2,robot,3,False,False,"['robot_stimuli\\L_Head_X_Back.mp4', 'robot_stimuli\\R_Base_Y_Back.mp4']",robot_stimuli\R_Base_X_For.mp4,3,,,,,,,,,,,,,0,77,77,77,,,,,,,,,,,,,,,,,1852.3912777000005,1853.4812970999992,,,,,,,,,1857.032664899998,1857.032664899998,1857.032664899998,1857.032664899998,1857.032664899998,1857.032664899998,1857.032664899998,1857.032664899998,None,None,None,,,,,,,,,,,1843.9606268999996,1843.9606268999996,None,,1848.7648286000003,1853.4812970999992,1853.4812970999992,1853.4812970999992,1853.4812970999992,n,2.301137700002073,1843.9606268999996,1843.9606268999996,,,,3,001,2024-06-25_14h24.37.016,robot_sternberg_sign,2022.2.5,59.955560937933306,
"['L_Head_Y_For', 'L_Head_X_Back']",True,L_Head_Y_For,2,robot,3,False,False,"['robot_stimuli\\L_Head_Y_For.mp4', 'robot_stimuli\\L_Head_X_Back.mp4']",robot_stimuli\L_Head_Y_For.mp4,3,,,,,,,,,,,,,0,78,78,78,,,,,,,,,,,,,,,,,1865.4783016000001,1866.5665594999991,,,,,,,,,1870.2153392,1870.2153392,1870.2153392,1870.2153392,1870.2153392,1870.2153392,1870.2153392,1870.2153392,None,None,None,,,,,,,,,,,1857.032664899998,1857.032664899998,None,,1861.848777700001,1866.5665594999991,1866.5665594999991,1866.5665594999991,1866.5665594999991,c,2.1923219000036624,1857.032664899998,1857.032664899998,,,,3,001,2024-06-25_14h24.37.016,robot_sternberg_sign,2022.2.5,59.955560937933306,
"['L_Arm_X_Back', 'R_Torso_X_For']",False,R_Torso_Y_For,2,robot,3,False,True,"['robot_stimuli\\L_Arm_X_Back.mp4', 'robot_stimuli\\R_Torso_X_For.mp4']",robot_stimuli\R_Torso_Y_For.mp4,3,,,,,,,,,,,,,0,79,79,79,,,,,,,,,,,,,,,,,1878.6451352000004,1879.7337603999986,,,,,,,,,1883.4162847999978,1886.7011338999982,1883.4162847999978,1886.7011338999982,1883.4162847999978,1886.7011338999982,1883.4162847999978,1886.7011338999982,0,2.72848040000099,space,,,3.2144955000021582,,,,,,,,1870.2153392,1870.2153392,None,,1875.0134411,1879.7337603999986,1879.7337603999986,1879.7337603999986,1879.7337603999986,n,2.4735386000011204,1870.2153392,1870.2153392,,,,3,001,2024-06-25_14h24.37.016,robot_sternberg_sign,2022.2.5,59.955560937933306,
"['R_Arm_Z_Back', 'L_Base_X_Back', 'R_Head_Y_For', 'L_Torso_Z_For']",False,L_Arm_X_For,4,robot,3,True,False,"['robot_stimuli\\R_Arm_Z_Back.mp4', 'robot_stimuli\\L_Base_X_Back.mp4', 'robot_stimuli\\R_Head_Y_For.mp4', 'robot_stimuli\\L_Torso_Z_For.mp4']",robot_stimuli\L_Arm_X_For.mp4,3,,,,,,,,,,,,,0,80,80,80,,,,,,,,,,,,,,,,,1903.7893877999995,1888.9975725000004,,,,,,,,,1908.510164700001,1908.510164700001,1908.510164700001,1908.510164700001,1908.510164700001,1908.510164700001,1908.510164700001,1908.510164700001,None,None,None,,,,,,,,,,,1886.7011338999982,1886.7011338999982,space,1.2021054999986518,1900.1491814,1904.882431599999,1904.882431599999,1904.882431599999,1904.882431599999,n,2.5011346000010235,,,,,,3,001,2024-06-25_14h24.37.016,robot_sternberg_sign,2022.2.5,59.955560937933306,
"['R_Arm_Y_For', 'L_Base_Z_Back', 'R_Head_Z_Back', 'R_Base_X_For']",True,L_Base_Z_Back,4,robot,3,False,False,"['robot_stimuli\\R_Arm_Y_For.mp4', 'robot_stimuli\\L_Base_Z_Back.mp4', 'robot_stimuli\\R_Head_Z_Back.mp4', 'robot_stimuli\\R_Base_X_For.mp4']",robot_stimuli\L_Base_Z_Back.mp4,3,,,,,,,,,,,,,0,81,81,81,,,,,,,,,,,,,,,,,1924.1818449999992,1925.2819853,,,,,,,,,1928.9201786999984,1928.9201786999984,1928.9201786999984,1928.9201786999984,1928.9201786999984,1928.9201786999984,1928.9201786999984,1928.9201786999984,None,None,None,,,,,,,,,,,1908.510164700001,1908.510164700001,None,,1920.6484598999996,1925.2819853,1925.2819853,1925.2819853,1925.2819853,c,3.421816800002489,1908.510164700001,1908.510164700001,,,,3,001,2024-06-25_14h24.37.016,robot_sternberg_sign,2022.2.5,59.955560937933306,
"['R_Base_Z_For', 'R_Torso_Y_Back', 'R_Arm_Z_For', 'R_Arm_X_Back']",False,R_Head_Z_Back,4,robot,3,False,False,"['robot_stimuli\\R_Base_Z_For.mp4', 'robot_stimuli\\R_Torso_Y_Back.mp4', 'robot_stimuli\\R_Arm_Z_For.mp4', 'robot_stimuli\\R_Arm_X_Back.mp4']",robot_stimuli\R_Head_Z_Back.mp4,3,,,,,,,,,,,,,0,82,82,82,,,,,,,,,,,,,,,,,1944.8108807999997,1945.8991384,,,,,,,,,1949.541506999998,1949.541506999998,1949.541506999998,1949.541506999998,1949.541506999998,1949.541506999998,1949.541506999998,1949.541506999998,None,None,None,,,,,,,,,,,1928.9201786999984,1928.9201786999984,None,,1941.1692444,1945.8991384,1945.8991384,1945.8991384,1945.8991384,n,3.1645990000015445,1928.9201786999984,1928.9201786999984,,,,3,001,2024-06-25_14h24.37.016,robot_sternberg_sign,2022.2.5,59.955560937933306,
"['L_Arm_Y_For', 'R_Head_Y_Back', 'L_Torso_Y_For', 'L_Head_Y_For']",False,R_Head_Z_Back,4,robot,3,False,False,"['robot_stimuli\\L_Arm_Y_For.mp4', 'robot_stimuli\\R_Head_Y_Back.mp4', 'robot_stimuli\\L_Torso_Y_For.mp4', 'robot_stimuli\\L_Head_Y_For.mp4']",robot_stimuli\R_Head_Z_Back.mp4,3,,,,,,,,,,,,,0,83,83,83,,,,,,,,,,,,,,,,,1965.4409663999977,1966.529254699999,,,,,,,,,1970.1661258999993,1970.1661258999993,1970.1661258999993,1970.1661258999993,1970.1661258999993,1970.1661258999993,1970.1661258999993,1970.1661258999993,None,None,None,,,,,,,,,,,1949.541506999998,1949.541506999998,None,,1961.7991189999993,1966.529254699999,1966.529254699999,1966.529254699999,1966.529254699999,n,2.582602100001168,1949.541506999998,1949.541506999998,,,,3,001,2024-06-25_14h24.37.016,robot_sternberg_sign,2022.2.5,59.955560937933306,
"['L_Torso_Y_Back', 'R_Head_Z_For', 'L_Head_Y_For', 'R_Base_X_For']",False,L_Arm_Y_Back,4,robot,3,False,False,"['robot_stimuli\\L_Torso_Y_Back.mp4', 'robot_stimuli\\R_Head_Z_For.mp4', 'robot_stimuli\\L_Head_Y_For.mp4', 'robot_stimuli\\R_Base_X_For.mp4']",robot_stimuli\L_Arm_Y_Back.mp4,3,,,,,,,,,,,,,0,84,84,84,,,,,,,,,,,,,,,,,1985.825600600001,1986.9149827,,,,,,,,,1990.5536508000005,1990.5536508000005,1990.5536508000005,1990.5536508000005,1990.5536508000005,1990.5536508000005,1990.5536508000005,1990.5536508000005,None,None,None,,,,,,,,,,,1970.1661258999993,1970.1661258999993,None,,1982.2802536999989,1986.9149827,1986.9149827,1986.9149827,1986.9149827,n,1.7162758000031317,1970.1661258999993,1970.1661258999993,,,,3,001,2024-06-25_14h24.37.016,robot_sternberg_sign,2022.2.5,59.955560937933306,
"['L_Arm_Z_For', 'R_Arm_Y_For', 'R_Head_Y_For', 'R_Arm_X_For']",True,R_Arm_X_For,4,robot,3,False,False,"['robot_stimuli\\L_Arm_Z_For.mp4', 'robot_stimuli\\R_Arm_Y_For.mp4', 'robot_stimuli\\R_Head_Y_For.mp4', 'robot_stimuli\\R_Arm_X_For.mp4']",robot_stimuli\R_Arm_X_For.mp4,3,,,,,,,,,,,,,0,85,85,85,,,,,,,,,,,,,,,,,2006.3401195999977,1991.6335942999976,,,,,,,,,2011.0703111000003,2011.0703111000003,2011.0703111000003,2011.0703111000003,2011.0703111000003,2011.0703111000003,2011.0703111000003,2011.0703111000003,None,None,None,,,,,,,,,,,1990.5536508000005,1990.5536508000005,None,,2002.6983899000006,2007.4320826000003,2007.4320826000003,2007.4320826000003,2007.4320826000003,c,2.183383800003867,1990.5536508000005,1990.5536508000005,,,,3,001,2024-06-25_14h24.37.016,robot_sternberg_sign,2022.2.5,59.955560937933306,
"['R_Base_Y_Back', 'L_Arm_Z_Back', 'R_Torso_Y_For', 'L_Head_Y_Back']",True,L_Arm_Z_Back,4,robot,3,False,False,"['robot_stimuli\\R_Base_Y_Back.mp4', 'robot_stimuli\\L_Arm_Z_Back.mp4', 'robot_stimuli\\R_Torso_Y_For.mp4', 'robot_stimuli\\L_Head_Y_Back.mp4']",robot_stimuli\L_Arm_Z_Back.mp4,3,,,,,,,,,,,,,0,86,86,86,,,,,,,,,,,,,,,,,2026.959386800001,2028.0499242999977,,,,,,,,,2031.962853500001,2031.962853500001,2031.962853500001,2031.962853500001,2031.962853500001,2031.962853500001,2031.962853500001,2031.962853500001,None,None,None,,,,,,,,,,,2011.0703111000003,2011.0703111000003,None,,2023.3281652000005,2028.0499242999977,2028.0499242999977,2028.0499242999977,2028.0499242999977,c,3.8773742000030325,2011.0703111000003,2011.0703111000003,,,,3,001,2024-06-25_14h24.37.016,robot_sternberg_sign,2022.2.5,59.955560937933306,
"['R_Torso_X_For', 'L_Base_Z_Back', 'R_Torso_Z_Back', 'R_Base_X_For']",True,R_Base_X_For,4,robot,3,False,False,"['robot_stimuli\\R_Torso_X_For.mp4', 'robot_stimuli\\L_Base_Z_Back.mp4', 'robot_stimuli\\R_Torso_Z_Back.mp4', 'robot_stimuli\\R_Base_X_For.mp4']",robot_stimuli\R_Base_X_For.mp4,3,,,,,,,,,,,,,0,87,87,87,,,,,,,,,,,,,,,,,2047.7569709999989,2033.0459107999995,,,,,,,,,2052.4039927999984,2052.4039927999984,2052.4039927999984,2052.4039927999984,2052.4039927999984,2052.4039927999984,2052.4039927999984,2052.4039927999984,None,None,None,,,,,,,,,,,2031.962853500001,2031.962853500001,None,,2044.2114505999998,2048.8520470000003,2048.8520470000003,2048.8520470000003,2048.8520470000003,c,2.715086500002144,2031.962853500001,2031.962853500001,,,,3,001,2024-06-25_14h24.37.016,robot_sternberg_sign,2022.2.5,59.955560937933306,
"['L_Head_Y_For', 'L_Base_Y_Back', 'R_Torso_Z_For', 'L_Head_Z_For']",True,R_Torso_Z_For,4,robot,3,False,False,"['robot_stimuli\\L_Head_Y_For.mp4', 'robot_stimuli\\L_Base_Y_Back.mp4', 'robot_stimuli\\R_Torso_Z_For.mp4', 'robot_stimuli\\L_Head_Z_For.mp4']",robot_stimuli\R_Torso_Z_For.mp4,3,,,,,,,,,,,,,0,88,88,88,,,,,,,,,,,,,,,,,2068.2249604999997,2069.3156141,,,,,,,,,2072.945191499999,2072.945191499999,2072.945191499999,2072.945191499999,2072.945191499999,2072.945191499999,2072.945191499999,2072.945191499999,None,None,None,,,,,,,,,,,2052.4039927999984,2052.4039927999984,None,,2064.5795365999984,2069.3156141,2069.3156141,2069.3156141,2069.3156141,c,2.8744051000012405,2052.4039927999984,2052.4039927999984,,,,3,001,2024-06-25_14h24.37.016,robot_sternberg_sign,2022.2.5,59.955560937933306,
"['L_Arm_X_Back', 'R_Head_Z_For', 'L_Base_Z_Back', 'L_Arm_Z_For']",False,R_Arm_Z_For,4,robot,3,False,True,"['robot_stimuli\\L_Arm_X_Back.mp4', 'robot_stimuli\\R_Head_Z_For.mp4', 'robot_stimuli\\L_Base_Z_Back.mp4', 'robot_stimuli\\L_Arm_Z_For.mp4']",robot_stimuli\R_Arm_Z_For.mp4,3,,,,,,,,,,,,,0,89,89,89,,,,,,,,,,,,,,,,,2088.8221491000004,2074.0302783999978,,,,,,,,,2093.5797354999995,2096.508786300001,2093.5797354999995,2096.508786300001,2093.5797354999995,2096.508786300001,2093.5797354999995,2096.508786300001,2.6851851851851904,2.281311700000515,space,,,2.882682299999942,,,,,,,,2072.945191499999,2072.945191499999,None,,2085.1907059000005,2089.915359499999,2089.915359499999,2089.915359499999,2089.915359499999,n,2.7317794999999023,2072.945191499999,2072.945191499999,,,,3,001,2024-06-25_14h24.37.016,robot_sternberg_sign,2022.2.5,59.955560937933306,
"['N', 'Q']",False,Z,2,letter,4,True,False,"['robot_stimuli\\\\filler.mp4', 'robot_stimuli\\\\filler.mp4']",robot_stimuli\\filler.mp4,3,,,,,,,,,,,,,0,90,90,90,,,,,,,,,,,,,,,,,2106.6673975999984,2107.7267718000003,,,,,,,,,2108.5430081999984,2108.5430081999984,2108.5430081999984,2108.5430081999984,2108.5430081999984,2108.5430081999984,2108.5430081999984,2108.5430081999984,None,None,None,,,,,,,,,,,2096.508786300001,2096.508786300001,space,4.5629706000017904,,,2107.7267718000003,2107.7267718000003,2107.7267718000003,n,0.5998268000021199,,,2104.457845000001,2106.6673975999984,2107.7267718000003,3,001,2024-06-25_14h24.37.016,robot_sternberg_sign,2022.2.5,59.955560937933306,
"['P', 'R']",False,B,2,letter,4,False,False,"['robot_stimuli\\\\filler.mp4', 'robot_stimuli\\\\filler.mp4']",robot_stimuli\\filler.mp4,3,,,,,,,,,,,,,0,91,91,91,,,,,,,,,,,,,,,,,2113.9183747999996,2114.9746495,,,,,,,,,2116.0059531999977,2116.0059531999977,2116.0059531999977,2116.0059531999977,2116.0059531999977,2116.0059531999977,2116.0059531999977,2116.0059531999977,None,None,None,,,,,,,,,,,2108.5430081999984,2108.5430081999984,None,,,,2114.9746495,2114.9746495,2114.9746495,n,0.8644518000019161,2108.5430081999984,2108.5430081999984,2111.8963865999976,2113.9183747999996,2114.9746495,3,001,2024-06-25_14h24.37.016,robot_sternberg_sign,2022.2.5,59.955560937933306,
"['J', 'T']",True,J,2,letter,4,False,False,"['robot_stimuli\\\\filler.mp4', 'robot_stimuli\\\\filler.mp4']",robot_stimuli\\filler.mp4,3,,,,,,,,,,,,,0,92,92,92,,,,,,,,,,,,,,,,,2121.391745699999,2122.4577941999996,,,,,,,,,2123.276848900001,2123.276848900001,2123.276848900001,2123.276848900001,2123.276848900001,2123.276848900001,2123.276848900001,2123.276848900001,None,None,None,,,,,,,,,,,2116.0059531999977,2116.0059531999977,None,,,,2122.4577941999996,2122.4577941999996,2122.4577941999996,c,0.764879699998346,2116.0059531999977,2116.0059531999977,2119.3818494999978,2121.391745699999,2122.4577941999996,3,001,2024-06-25_14h24.37.016,robot_sternberg_sign,2022.2.5,59.955560937933306,
"['F', 'N']",True,F,2,letter,4,False,False,"['robot_stimuli\\\\filler.mp4', 'robot_stimuli\\\\filler.mp4']",robot_stimuli\\filler.mp4,3,,,,,,,,,,,,,0,93,93,93,,,,,,,,,,,,,,,,,2128.6416372999993,2129.707338,,,,,,,,,2130.737096500001,2130.737096500001,2130.737096500001,2130.737096500001,2130.737096500001,2130.737096500001,2130.737096500001,2130.737096500001,None,None,None,,,,,,,,,,,2123.276848900001,2123.276848900001,None,,,,2129.707338,2129.707338,2129.707338,c,0.7881873000023916,2123.276848900001,2123.276848900001,2126.6302275999988,2128.6416372999993,2129.707338,3,001,2024-06-25_14h24.37.016,robot_sternberg_sign,2022.2.5,59.955560937933306,
"['M', 'S']",False,X,2,letter,4,False,False,"['robot_stimuli\\\\filler.mp4', 'robot_stimuli\\\\filler.mp4']",robot_stimuli\\filler.mp4,3,,,,,,,,,,,,,0,94,94,94,,,,,,,,,,,,,,,,,2136.094980599999,2137.1561193999987,,,,,,,,,2138.180042,2138.180042,2138.180042,2138.180042,2138.180042,2138.180042,2138.180042,2138.180042,None,None,None,,,,,,,,,,,2130.737096500001,2130.737096500001,None,,,,2137.1561193999987,2137.1561193999987,2137.1561193999987,n,0.8744211000030191,2130.737096500001,2130.737096500001,2134.0828643999994,2136.094980599999,2137.1561193999987,3,001,2024-06-25_14h24.37.016,robot_sternberg_sign,2022.2.5,59.955560937933306,
"['H', 'J']",True,H,2,letter,4,False,False,"['robot_stimuli\\\\filler.mp4', 'robot_stimuli\\\\filler.mp4']",robot_stimuli\\filler.mp4,3,,,,,,,,,,,,,0,95,95,95,,,,,,,,,,,,,,,,,2143.541109599999,2144.607850299999,,,,,,,,,2146.0292873,2146.0292873,2146.0292873,2146.0292873,2146.0292873,2146.0292873,2146.0292873,2146.0292873,None,None,None,,,,,,,,,,,2138.180042,2138.180042,None,,,,2144.607850299999,2144.607850299999,2144.607850299999,c,1.255563799999436,2138.180042,2138.180042,2141.531045699998,2143.541109599999,2144.607850299999,3,001,2024-06-25_14h24.37.016,robot_sternberg_sign,2022.2.5,59.955560937933306,
"['H', 'Z']",True,Z,2,letter,4,False,False,"['robot_stimuli\\\\filler.mp4', 'robot_stimuli\\\\filler.mp4']",robot_stimuli\\filler.mp4,3,,,,,,,,,,,,,0,96,96,96,,,,,,,,,,,,,,,,,2151.6028302999985,2152.657539,,,,,,,,,2153.8833840000007,2153.8833840000007,2153.8833840000007,2153.8833840000007,2153.8833840000007,2153.8833840000007,2153.8833840000007,2153.8833840000007,None,None,None,,,,,,,,,,,2146.0292873,2146.0292873,None,,,,2152.657539,2152.657539,2152.657539,c,1.0936923999997816,2146.0292873,2146.0292873,2149.3905245999995,2151.6028302999985,2152.657539,3,001,2024-06-25_14h24.37.016,robot_sternberg_sign,2022.2.5,59.955560937933306,
"['M', 'G']",False,H,2,letter,4,False,False,"['robot_stimuli\\\\filler.mp4', 'robot_stimuli\\\\filler.mp4']",robot_stimuli\\filler.mp4,3,,,,,,,,,,,,,0,97,97,97,,,,,,,,,,,,,,,,,2159.4577210999996,2160.5242586999993,,,,,,,,,2161.347955699999,2161.347955699999,2161.347955699999,2161.347955699999,2161.347955699999,2161.347955699999,2161.347955699999,2161.347955699999,None,None,None,,,,,,,,,,,2153.8833840000007,2153.8833840000007,None,,,,2160.5242586999993,2160.5242586999993,2160.5242586999993,n,0.6270122000005358,2153.8833840000007,2153.8833840000007,2157.239112200001,2159.4577210999996,2160.5242586999993,3,001,2024-06-25_14h24.37.016,robot_sternberg_sign,2022.2.5,59.955560937933306,
"['G', 'Q']",False,T,2,letter,4,False,False,"['robot_stimuli\\\\filler.mp4', 'robot_stimuli\\\\filler.mp4']",robot_stimuli\\filler.mp4,3,,,,,,,,,,,,,0,98,98,98,,,,,,,,,,,,,,,,,2166.9205354999976,2167.974990399998,,,,,,,,,2168.9979731999993,2168.9979731999993,2168.9979731999993,2168.9979731999993,2168.9979731999993,2168.9979731999993,2168.9979731999993,2168.9979731999993,None,None,None,,,,,,,,,,,2161.347955699999,2161.347955699999,None,,,,2167.974990399998,2167.974990399998,2167.974990399998,n,0.7840087000022322,2161.347955699999,2161.347955699999,2164.7073222,2166.9205354999976,2167.974990399998,3,001,2024-06-25_14h24.37.016,robot_sternberg_sign,2022.2.5,59.955560937933306,
"['F', 'S']",True,F,2,letter,4,False,True,"['robot_stimuli\\\\filler.mp4', 'robot_stimuli\\\\filler.mp4']",robot_stimuli\\filler.mp4,3,,,,,,,,,,,,,0,99,99,99,,,,,,,,,,,,,,,,,2174.371579800001,2175.4333824999994,,,,,,,,,2176.694894100001,2179.957772400001,2176.694894100001,2179.957772400001,2176.694894100001,2179.957772400001,2176.694894100001,2179.957772400001,0,2.645838399999775,space,,,3.1913030999985494,,,,,,,,2168.9979731999993,2168.9979731999993,None,,,,2175.4333824999994,2175.4333824999994,2175.4333824999994,c,1.0296101000003546,2168.9979731999993,2168.9979731999993,2172.158206799999,2174.371579800001,2175.4333824999994,3,001,2024-06-25_14h24.37.016,robot_sternberg_sign,2022.2.5,59.955560937933306,
"['N', 'V', 'G', 'Q']",False,D,4,letter,4,True,False,"['robot_stimuli\\\\filler.mp4', 'robot_stimuli\\\\filler.mp4', 'robot_stimuli\\\\filler.mp4', 'robot_stimuli\\\\filler.mp4']",robot_stimuli\\filler.mp4,3,,,,,,,,,,,,,0,100,100,100,,,,,,,,,,,,,,,,,2196.369986599999,2197.4256189000007,,,,,,,,,2199.8543823,2199.8543823,2199.8543823,2199.8543823,2199.8543823,2199.8543823,2199.8543823,2199.8543823,None,None,None,,,,,,,,,,,2179.957772400001,2179.957772400001,space,6.657022400000642,,,2197.4256189000007,2197.4256189000007,2197.4256189000007,n,2.2777569000008953,,,2194.157828700001,2196.369986599999,2197.4256189000007,3,001,2024-06-25_14h24.37.016,robot_sternberg_sign,2022.2.5,59.955560937933306,
"['P', 'Q', 'M', 'K']",False,J,4,letter,4,False,False,"['robot_stimuli\\\\filler.mp4', 'robot_stimuli\\\\filler.mp4', 'robot_stimuli\\\\filler.mp4', 'robot_stimuli\\\\filler.mp4']",robot_stimuli\\filler.mp4,3,,,,,,,,,,,,,0,101,101,101,,,,,,,,,,,,,,,,,2209.600372500001,2210.658167499998,,,,,,,,,2212.4851292999992,2212.4851292999992,2212.4851292999992,2212.4851292999992,2212.4851292999992,2212.4851292999992,2212.4851292999992,2212.4851292999992,None,None,None,,,,,,,,,,,2199.8543823,2199.8543823,None,,,,2210.658167499998,2210.658167499998,2210.658167499998,n,1.7319204000032187,2199.8543823,2199.8543823,2207.5859939,2209.600372500001,2210.658167499998,3,001,2024-06-25_14h24.37.016,robot_sternberg_sign,2022.2.5,59.955560937933306,
"['R', 'W', 'G', 'J']",False,P,4,letter,4,False,False,"['robot_stimuli\\\\filler.mp4', 'robot_stimuli\\\\filler.mp4', 'robot_stimuli\\\\filler.mp4', 'robot_stimuli\\\\filler.mp4']",robot_stimuli\\filler.mp4,3,,,,,,,,,,,,,0,102,102,102,,,,,,,,,,,,,,,,,2222.4298185000007,2223.4966227000004,,,,,,,,,2225.1249116,2225.1249116,2225.1249116,2225.1249116,2225.1249116,2225.1249116,2225.1249116,2225.1249116,None,None,None,,,,,,,,,,,2212.4851292999992,2212.4851292999992,None,,,,2223.4966227000004,2223.4966227000004,2223.4966227000004,n,1.5513060000030237,2212.4851292999992,2212.4851292999992,2220.4160889999985,2222.4298185000007,2223.4966227000004,3,001,2024-06-25_14h24.37.016,robot_sternberg_sign,2022.2.5,59.955560937933306,
"['J', 'F', 'M', 'K']",False,W,4,letter,4,False,False,"['robot_stimuli\\\\filler.mp4', 'robot_stimuli\\\\filler.mp4', 'robot_stimuli\\\\filler.mp4', 'robot_stimuli\\\\filler.mp4']",robot_stimuli\\filler.mp4,3,,,,,,,,,,,,,0,103,103,103,,,,,,,,,,,,,,,,,2234.6805064,2235.7407817999992,,,,,,,,,2237.3647022000005,2237.3647022000005,2237.3647022000005,2237.3647022000005,2237.3647022000005,2237.3647022000005,2237.3647022000005,2237.3647022000005,None,None,None,,,,,,,,,,,2225.1249116,2225.1249116,None,,,,2235.7407817999992,2235.7407817999992,2235.7407817999992,n,1.4101344999999128,2225.1249116,2225.1249116,2232.6618783999984,2234.6805064,2235.7407817999992,3,001,2024-06-25_14h24.37.016,robot_sternberg_sign,2022.2.5,59.955560937933306,
"['G', 'H', 'P', 'F']",False,K,4,letter,4,False,False,"['robot_stimuli\\\\filler.mp4', 'robot_stimuli\\\\filler.mp4', 'robot_stimuli\\\\filler.mp4', 'robot_stimuli\\\\filler.mp4']",robot_stimuli\\filler.mp4,3,,,,,,,,,,,,,0,104,104,104,,,,,,,,,,,,,,,,,2247.1038076000004,2248.157273599998,,,,,,,,,2249.582986999998,2249.582986999998,2249.582986999998,2249.582986999998,2249.582986999998,2249.582986999998,2249.582986999998,2249.582986999998,None,None,None,,,,,,,,,,,2237.3647022000005,2237.3647022000005,None,,,,2248.157273599998,2248.157273599998,2248.157273599998,n,1.1944325999993453,2237.3647022000005,2237.3647022000005,2244.890183399999,2247.1038076000004,2248.157273599998,3,001,2024-06-25_14h24.37.016,robot_sternberg_sign,2022.2.5,59.955560937933306,
"['S', 'R', 'Q', 'W']",True,Q,4,letter,4,False,False,"['robot_stimuli\\\\filler.mp4', 'robot_stimuli\\\\filler.mp4', 'robot_stimuli\\\\filler.mp4', 'robot_stimuli\\\\filler.mp4']",robot_stimuli\\filler.mp4,3,,,,,,,,,,,,,0,105,105,105,,,,,,,,,,,,,,,,,2259.1354939999983,2260.194201399998,,,,,,,,,2261.8184469000007,2261.8184469000007,2261.8184469000007,2261.8184469000007,2261.8184469000007,2261.8184469000007,2261.8184469000007,2261.8184469000007,None,None,None,,,,,,,,,,,2249.582986999998,2249.582986999998,None,,,,2260.194201399998,2260.194201399998,2260.194201399998,c,1.4602426000001287,2249.582986999998,2249.582986999998,2257.117235599999,2259.1354939999983,2260.194201399998,3,001,2024-06-25_14h24.37.016,robot_sternberg_sign,2022.2.5,59.955560937933306,
