sequence,is_target,condition,stimuli,block,is_block_beginning,is_block_ending,fname,subject,retraining.thisRepN,retraining.thisTrialN,retraining.thisN,retraining.thisIndex,training.thisRepN,training.thisTrialN,training.thisN,training.thisIndex,trials.thisRepN,trials.thisTrialN,trials.thisN,trials.thisIndex,langage_text.started,langage_key.started,langage_key.keys,langage_key.rt,intro_text.started,intro_key.started,intro_key.keys,intro_key.rt,training_robot_intro_text.started,training_robot_intro_key.started,training_robot_intro_key.keys,training_robot_intro_key.rt,cross.started,cross.stopped,training_letter.started,training_robot_key.started,training_robot_question.started,training_robot_keys.started,training_letter.stopped,training_robot_key.keys,RSME_labels.started,RSME_labels.stopped,RSME_ticks.started,RSME_ticks.stopped,RSME_text.started,RSME_text.stopped,RSME_key.started,RSME_key.stopped,RSME_ticks.response,RSME_ticks.rt,RSME_key.keys,training_robot_intro_text.stopped,training_robot_intro_key.stopped,training_robot_key.rt,RSME_key.rt,training_robot_movie.started,experiment_beginning_text.started,experiment_beginning_keys.started,experiment_beginning_key.started,experiment_beginning_key.keys,experiment_beginning_key.rt,block_intro_text.started,block_intro_key.started,block_intro_key.keys,block_intro_key.rt,movie.started,key.started,key.keys,block_intro_text.stopped,block_intro_key.stopped,key.rt,letter.started,letter.stopped,participant,session,date,expName,psychopyVersion,frameRate,
,,,,,,,,,,,,,,,,,,,,,13.651849800000036,13.651849800000036,f,207.94617259999995,,,,,,,,,,,,,,,,,,,,,,,,,,,,,,,,,,,,,,,,,,,,,,,,,,15,001,2024-06-20_13h35.49.204,robot_nback_sign,2022.2.5,60.07048670909585,
,,,,,,,,,,,,,,,,,,,,,,,,,221.6697797,221.6697797,space,78.8099618,,,,,,,,,,,,,,,,,,,,,,,,,,,,,,,,,,,,,,,,,,,,,,15,001,2024-06-20_13h35.49.204,robot_nback_sign,2022.2.5,60.07048670909585,
P,False,1,letter,2,True,False,robot_stimuli\\filler.mp4,15,0,0,0,0,0,0,0,0,,,,,,,,,,,,,300.5257591000001,300.5257591000001,space,63.057001199999945,363.61353110000005,364.93839330000003,364.93839330000003,364.93839330000003,364.93839330000003,364.93839330000003,367.2558411,None,367.2558411,367.2558411,367.2558411,367.2558411,367.2558411,367.2558411,367.2558411,367.2558411,None,None,None,,,,,,,,,,,,,,,,,,,,,,,15,001,2024-06-20_13h35.49.204,robot_nback_sign,2022.2.5,60.07048670909585,
W,False,1,letter,2,False,False,robot_stimuli\\filler.mp4,15,0,0,0,0,0,1,1,1,,,,,,,,,,,,,367.2558411,367.2558411,None,,367.2558411,,368.3313161,368.3313161,368.3313161,368.3313161,370.3581229,None,370.3581229,370.3581229,370.3581229,370.3581229,370.3581229,370.3581229,370.3581229,370.3581229,None,None,None,367.2558411,367.2558411,,,,,,,,,,,,,,,,,,,,,15,001,2024-06-20_13h35.49.204,robot_nback_sign,2022.2.5,60.07048670909585,
W,True,1,letter,2,False,False,robot_stimuli\\filler.mp4,15,0,0,0,0,0,2,2,2,,,,,,,,,,,,,370.3581229,370.3581229,None,,370.3581229,371.4262917,371.4262917,371.4262917,371.4262917,371.4262917,373.460058,n,373.460058,373.460058,373.460058,373.460058,373.460058,373.460058,373.460058,373.460058,None,None,None,370.3581229,370.3581229,1.0611370000000306,,,,,,,,,,,,,,,,,,,,15,001,2024-06-20_13h35.49.204,robot_nback_sign,2022.2.5,60.07048670909585,
Z,False,1,letter,2,False,False,robot_stimuli\\filler.mp4,15,0,0,0,0,0,3,3,3,,,,,,,,,,,,,373.460058,373.460058,None,,373.460058,374.52884560000007,374.52884560000007,374.52884560000007,374.52884560000007,374.52884560000007,376.55609390000006,n,376.55609390000006,376.55609390000006,376.55609390000006,376.55609390000006,376.55609390000006,376.55609390000006,376.55609390000006,376.55609390000006,None,None,None,373.460058,373.460058,0.8058268999999427,,,,,,,,,,,,,,,,,,,,15,001,2024-06-20_13h35.49.204,robot_nback_sign,2022.2.5,60.07048670909585,
Z,True,1,letter,2,False,False,robot_stimuli\\filler.mp4,15,0,0,0,0,0,4,4,4,,,,,,,,,,,,,376.55609390000006,376.55609390000006,None,,376.55609390000006,377.6314708,377.6314708,377.6314708,377.6314708,377.6314708,379.65841680000005,c,379.65841680000005,379.65841680000005,379.65841680000005,379.65841680000005,379.65841680000005,379.65841680000005,379.65841680000005,379.65841680000005,None,None,None,376.55609390000006,376.55609390000006,1.287315299999932,,,,,,,,,,,,,,,,,,,,15,001,2024-06-20_13h35.49.204,robot_nback_sign,2022.2.5,60.07048670909585,
S,False,1,letter,2,False,True,robot_stimuli\\filler.mp4,15,0,0,0,0,0,5,5,5,,,,,,,,,,,,,379.65841680000005,379.65841680000005,None,,379.65841680000005,380.7337011000001,380.7337011000001,380.7337011000001,380.7337011000001,380.7337011000001,383.0254863,n,383.0254863,397.2095494,383.0254863,397.2095494,383.0254863,397.2095494,383.0254863,397.2095494,13.179012345679011,11.176982600000088,space,379.65841680000005,379.65841680000005,1.4414121999999452,14.11804549999988,,,,,,,,,,,,,,,,,,,15,001,2024-06-20_13h35.49.204,robot_nback_sign,2022.2.5,60.07048670909585,
C,False,2,letter,2,True,False,robot_stimuli\\filler.mp4,15,0,0,0,0,0,6,6,6,,,,,,,,,,,,,397.2095494,397.2095494,space,2.045466000000033,399.28054729999997,400.35145980000004,400.35145980000004,400.35145980000004,400.35145980000004,400.35145980000004,402.5756401,None,402.5756401,402.5756401,402.5756401,402.5756401,402.5756401,402.5756401,402.5756401,402.5756401,None,None,None,,,,,,,,,,,,,,,,,,,,,,,15,001,2024-06-20_13h35.49.204,robot_nback_sign,2022.2.5,60.07048670909585,
G,False,2,letter,2,False,False,robot_stimuli\\filler.mp4,15,0,0,0,0,0,7,7,7,,,,,,,,,,,,,402.5756401,402.5756401,None,,402.5756401,403.6484621000001,403.6484621000001,403.6484621000001,403.6484621000001,403.6484621000001,405.8808795,None,405.8808795,405.8808795,405.8808795,405.8808795,405.8808795,405.8808795,405.8808795,405.8808795,None,None,None,402.5756401,402.5756401,,,,,,,,,,,,,,,,,,,,,15,001,2024-06-20_13h35.49.204,robot_nback_sign,2022.2.5,60.07048670909585,
T,False,2,letter,2,False,False,robot_stimuli\\filler.mp4,15,0,0,0,0,0,8,8,8,,,,,,,,,,,,,405.8808795,405.8808795,None,,405.8808795,406.94812780000007,406.94812780000007,406.94812780000007,406.94812780000007,406.94812780000007,408.9826173,n,408.9826173,408.9826173,408.9826173,408.9826173,408.9826173,408.9826173,408.9826173,408.9826173,None,None,None,405.8808795,405.8808795,1.2036463000000595,,,,,,,,,,,,,,,,,,,,15,001,2024-06-20_13h35.49.204,robot_nback_sign,2022.2.5,60.07048670909585,
G,True,2,letter,2,False,False,robot_stimuli\\filler.mp4,15,0,0,0,0,0,9,9,9,,,,,,,,,,,,,408.9826173,408.9826173,None,,408.9826173,,410.060017,410.060017,410.060017,410.060017,412.0964646,c,412.0964646,412.0964646,412.0964646,412.0964646,412.0964646,412.0964646,412.0964646,412.0964646,None,None,None,408.9826173,408.9826173,1.115028099999904,,,,,,,,,,,,,,,,,,,,15,001,2024-06-20_13h35.49.204,robot_nback_sign,2022.2.5,60.07048670909585,
N,False,2,letter,2,False,False,robot_stimuli\\filler.mp4,15,0,0,0,0,0,10,10,10,,,,,,,,,,,,,412.0964646,412.0964646,None,,412.0964646,413.1656379,413.1656379,413.1656379,413.1656379,413.1656379,415.40208670000004,n,415.40208670000004,415.40208670000004,415.40208670000004,415.40208670000004,415.40208670000004,415.40208670000004,415.40208670000004,415.40208670000004,None,None,None,412.0964646,412.0964646,0.7301069999999754,,,,,,,,,,,,,,,,,,,,15,001,2024-06-20_13h35.49.204,robot_nback_sign,2022.2.5,60.07048670909585,
G,True,2,letter,2,False,True,robot_stimuli\\filler.mp4,15,0,0,0,0,0,11,11,11,,,,,,,,,,,,,415.40208670000004,415.40208670000004,None,,415.40208670000004,416.47652790000006,416.47652790000006,416.47652790000006,416.47652790000006,416.47652790000006,418.54178939999997,n,418.54178939999997,425.40012220000006,418.54178939999997,425.40012220000006,418.54178939999997,425.40012220000006,418.54178939999997,425.40012220000006,19.96913580246913,3.848252699999989,space,415.40208670000004,415.40208670000004,1.1382189999999355,6.808821799999919,,,,,,,,,,,,,,,,,,,15,001,2024-06-20_13h35.49.204,robot_nback_sign,2022.2.5,60.07048670909585,
W,False,3,letter,2,True,False,robot_stimuli\\filler.mp4,15,0,0,0,0,0,12,12,12,,,,,,,,,,,,,425.40012220000006,425.40012220000006,space,8.54300139999998,433.96355960000005,435.03261499999996,435.03261499999996,435.03261499999996,435.03261499999996,435.03261499999996,437.2641801,None,437.2641801,437.2641801,437.2641801,437.2641801,437.2641801,437.2641801,437.2641801,437.2641801,None,None,None,,,,,,,,,,,,,,,,,,,,,,,15,001,2024-06-20_13h35.49.204,robot_nback_sign,2022.2.5,60.07048670909585,
L,False,3,letter,2,False,False,robot_stimuli\\filler.mp4,15,0,0,0,0,0,13,13,13,,,,,,,,,,,,,437.2641801,437.2641801,None,,437.2641801,438.3314452000001,438.3314452000001,438.3314452000001,438.3314452000001,438.3314452000001,440.5591974,None,440.5591974,440.5591974,440.5591974,440.5591974,440.5591974,440.5591974,440.5591974,440.5591974,None,None,None,437.2641801,437.2641801,,,,,,,,,,,,,,,,,,,,,15,001,2024-06-20_13h35.49.204,robot_nback_sign,2022.2.5,60.07048670909585,
K,False,3,letter,2,False,False,robot_stimuli\\filler.mp4,15,0,0,0,0,0,14,14,14,,,,,,,,,,,,,440.5591974,440.5591974,None,,440.5591974,441.6323863,441.6323863,441.6323863,441.6323863,441.6323863,443.8690765,None,443.8690765,443.8690765,443.8690765,443.8690765,443.8690765,443.8690765,443.8690765,443.8690765,None,None,None,440.5591974,440.5591974,,,,,,,,,,,,,,,,,,,,,15,001,2024-06-20_13h35.49.204,robot_nback_sign,2022.2.5,60.07048670909585,
W,True,3,letter,2,False,False,robot_stimuli\\filler.mp4,15,0,0,0,0,0,15,15,15,,,,,,,,,,,,,443.8690765,443.8690765,None,,443.8690765,444.9492726,444.9492726,444.9492726,444.9492726,444.9492726,447.1817357,c,447.1817357,447.1817357,447.1817357,447.1817357,447.1817357,447.1817357,447.1817357,447.1817357,None,None,None,443.8690765,443.8690765,0.9285804999999527,,,,,,,,,,,,,,,,,,,,15,001,2024-06-20_13h35.49.204,robot_nback_sign,2022.2.5,60.07048670909585,
L,True,3,letter,2,False,False,robot_stimuli\\filler.mp4,15,0,0,0,0,0,16,16,16,,,,,,,,,,,,,447.1817357,447.1817357,None,,447.1817357,,448.26057390000005,448.26057390000005,448.26057390000005,448.26057390000005,450.2881099,n,450.2881099,450.2881099,450.2881099,450.2881099,450.2881099,450.2881099,450.2881099,450.2881099,None,None,None,447.1817357,447.1817357,0.6905067999999801,,,,,,,,,,,,,,,,,,,,15,001,2024-06-20_13h35.49.204,robot_nback_sign,2022.2.5,60.07048670909585,
H,False,3,letter,2,False,True,robot_stimuli\\filler.mp4,15,0,0,0,0,0,17,17,17,,,,,,,,,,,,,450.2881099,450.2881099,None,,450.2881099,451.3640203,451.3640203,451.3640203,451.3640203,451.3640203,453.42569430000003,n,453.42569430000003,460.2136133,453.42569430000003,460.2136133,453.42569430000003,460.2136133,453.42569430000003,460.2136133,22.283950617283946,4.740259999999921,space,450.2881099,450.2881099,1.5465229000000136,6.724883900000009,,,,,,,,,,,,,,,,,,,15,001,2024-06-20_13h35.49.204,robot_nback_sign,2022.2.5,60.07048670909585,
R_Base_Z_For,False,1,robot,1,True,False,robot_stimuli\R_Base_Z_For.mp4,15,0,0,0,0,0,18,18,18,,,,,,,,,,,,,460.2136133,460.2136133,space,7.37706849999995,467.6132748,468.73496850000004,,468.73496850000004,468.73496850000004,468.73496850000004,,None,472.36360950000005,472.36360950000005,472.36360950000005,472.36360950000005,472.36360950000005,472.36360950000005,472.36360950000005,472.36360950000005,None,None,None,,,,,468.73496850000004,,,,,,,,,,,,,,,,,,15,001,2024-06-20_13h35.49.204,robot_nback_sign,2022.2.5,60.07048670909585,
L_Head_Z_Back,False,1,robot,1,False,False,robot_stimuli\L_Head_Z_Back.mp4,15,0,0,0,0,0,19,19,19,,,,,,,,,,,,,472.36360950000005,472.36360950000005,None,,472.36360950000005,473.4625539,,473.4625539,473.4625539,473.4625539,,n,477.1156376,477.1156376,477.1156376,477.1156376,477.1156376,477.1156376,477.1156376,477.1156376,None,None,None,472.36360950000005,472.36360950000005,1.8964188999999578,,473.4625539,,,,,,,,,,,,,,,,,,15,001,2024-06-20_13h35.49.204,robot_nback_sign,2022.2.5,60.07048670909585,
R_Arm_Y_For,False,1,robot,1,False,False,robot_stimuli\R_Arm_Y_For.mp4,15,0,0,0,0,0,20,20,20,,,,,,,,,,,,,477.1156376,477.1156376,None,,477.1156376,,,478.2327104,478.2327104,478.2327104,,n,481.74417030000006,481.74417030000006,481.74417030000006,481.74417030000006,481.74417030000006,481.74417030000006,481.74417030000006,481.74417030000006,None,None,None,477.1156376,477.1156376,2.079011899999955,,478.2327104,,,,,,,,,,,,,,,,,,15,001,2024-06-20_13h35.49.204,robot_nback_sign,2022.2.5,60.07048670909585,
R_Arm_Z_Back,False,1,robot,1,False,False,robot_stimuli\R_Arm_Z_Back.mp4,15,0,0,0,0,0,21,21,21,,,,,,,,,,,,,481.74417030000006,481.74417030000006,None,,481.74417030000006,482.8410605,,482.8410605,482.8410605,482.8410605,,c,486.4959881,486.4959881,486.4959881,486.4959881,486.4959881,486.4959881,486.4959881,486.4959881,None,None,None,481.74417030000006,481.74417030000006,1.7975738999999749,,482.8410605,,,,,,,,,,,,,,,,,,15,001,2024-06-20_13h35.49.204,robot_nback_sign,2022.2.5,60.07048670909585,
R_Arm_Z_Back,True,1,robot,1,False,False,robot_stimuli\R_Arm_Z_Back.mp4,15,0,0,0,0,0,22,22,22,,,,,,,,,,,,,486.4959881,486.4959881,None,,486.4959881,487.58440730000007,,487.58440730000007,487.58440730000007,487.58440730000007,,c,491.23153850000006,491.23153850000006,491.23153850000006,491.23153850000006,491.23153850000006,491.23153850000006,491.23153850000006,491.23153850000006,None,None,None,486.4959881,486.4959881,1.5498215000000073,,487.58440730000007,,,,,,,,,,,,,,,,,,15,001,2024-06-20_13h35.49.204,robot_nback_sign,2022.2.5,60.07048670909585,
R_Arm_Z_Back,True,1,robot,1,False,True,robot_stimuli\R_Arm_Z_Back.mp4,15,0,0,0,0,0,23,23,23,,,,,,,,,,,,,491.23153850000006,491.23153850000006,None,,491.23153850000006,,,492.3376544,492.3376544,492.3376544,,c,496.01071820000004,501.03291690000003,496.01071820000004,501.03291690000003,496.01071820000004,501.03291690000003,496.01071820000004,501.03291690000003,25.67901234567901,3.519548200000031,space,491.23153850000006,491.23153850000006,2.9249257999999827,4.972621199999935,492.3376544,,,,,,,,,,,,,,,,,,15,001,2024-06-20_13h35.49.204,robot_nback_sign,2022.2.5,60.07048670909585,
R_Arm_Z_For,False,2,robot,1,True,False,robot_stimuli\R_Arm_Z_For.mp4,15,0,0,0,0,0,24,24,24,,,,,,,,,,,,,501.03291690000003,501.03291690000003,space,6.0388624999999365,507.09707720000006,508.19258720000005,,508.19258720000005,508.19258720000005,508.19258720000005,,None,511.8318091,511.8318091,511.8318091,511.8318091,511.8318091,511.8318091,511.8318091,511.8318091,None,None,None,,,,,508.19258720000005,,,,,,,,,,,,,,,,,,15,001,2024-06-20_13h35.49.204,robot_nback_sign,2022.2.5,60.07048670909585,
R_Arm_Z_For,False,2,robot,1,False,False,robot_stimuli\R_Arm_Z_For.mp4,15,0,0,0,0,0,25,25,25,,,,,,,,,,,,,511.8318091,511.8318091,None,,511.8318091,,,512.9355681000001,512.9355681000001,512.9355681000001,,None,516.5763934,516.5763934,516.5763934,516.5763934,516.5763934,516.5763934,516.5763934,516.5763934,None,None,None,511.8318091,511.8318091,,,512.9355681000001,,,,,,,,,,,,,,,,,,15,001,2024-06-20_13h35.49.204,robot_nback_sign,2022.2.5,60.07048670909585,
L_Arm_X_For,False,2,robot,1,False,False,robot_stimuli\L_Arm_X_For.mp4,15,0,0,0,0,0,26,26,26,,,,,,,,,,,,,516.5763934,516.5763934,None,,516.5763934,517.6734582,,517.6734582,517.6734582,517.6734582,,n,521.3133668,521.3133668,521.3133668,521.3133668,521.3133668,521.3133668,521.3133668,521.3133668,None,None,None,516.5763934,516.5763934,1.6537045000000035,,517.6734582,,,,,,,,,,,,,,,,,,15,001,2024-06-20_13h35.49.204,robot_nback_sign,2022.2.5,60.07048670909585,
L_Head_Y_For,False,2,robot,1,False,False,robot_stimuli\L_Head_Y_For.mp4,15,0,0,0,0,0,27,27,27,,,,,,,,,,,,,521.3133668,521.3133668,None,,521.3133668,522.3976626,,522.3976626,522.3976626,522.3976626,,n,526.0503692,526.0503692,526.0503692,526.0503692,526.0503692,526.0503692,526.0503692,526.0503692,None,None,None,521.3133668,521.3133668,2.536089699999934,,522.3976626,,,,,,,,,,,,,,,,,,15,001,2024-06-20_13h35.49.204,robot_nback_sign,2022.2.5,60.07048670909585,
L_Arm_X_For,True,2,robot,1,False,False,robot_stimuli\L_Arm_X_For.mp4,15,0,0,0,0,0,28,28,28,,,,,,,,,,,,,526.0503692,526.0503692,None,,526.0503692,527.1521602,,527.1521602,527.1521602,527.1521602,,c,530.7967425,530.7967425,530.7967425,530.7967425,530.7967425,530.7967425,530.7967425,530.7967425,None,None,None,526.0503692,526.0503692,2.2553210999999465,,527.1521602,,,,,,,,,,,,,,,,,,15,001,2024-06-20_13h35.49.204,robot_nback_sign,2022.2.5,60.07048670909585,
L_Head_Y_For,True,2,robot,1,False,True,robot_stimuli\L_Head_Y_For.mp4,15,0,0,0,0,0,29,29,29,,,,,,,,,,,,,530.7967425,530.7967425,None,,530.7967425,531.8878704,,531.8878704,531.8878704,531.8878704,,c,535.5545406,540.5469353,535.5545406,540.5469353,535.5545406,540.5469353,535.5545406,540.5469353,28.45679012345679,3.657056599999919,space,530.7967425,530.7967425,3.350789799999916,4.931878799999936,531.8878704,,,,,,,,,,,,,,,,,,15,001,2024-06-20_13h35.49.204,robot_nback_sign,2022.2.5,60.07048670909585,
L_Arm_Z_For,False,3,robot,1,True,False,robot_stimuli\L_Arm_Z_For.mp4,15,0,0,0,0,0,30,30,30,,,,,,,,,,,,,540.5469353,540.5469353,space,9.67643320000002,550.246891,551.3445666,,551.3445666,551.3445666,551.3445666,,None,554.98319,554.98319,554.98319,554.98319,554.98319,554.98319,554.98319,554.98319,None,None,None,,,,,551.3445666,,,,,,,,,,,,,,,,,,15,001,2024-06-20_13h35.49.204,robot_nback_sign,2022.2.5,60.07048670909585,
L_Base_Y_Back,False,3,robot,1,False,False,robot_stimuli\L_Base_Y_Back.mp4,15,0,0,0,0,0,31,31,31,,,,,,,,,,,,,554.98319,554.98319,None,,554.98319,,,556.0903484,556.0903484,556.0903484,,None,559.6640383,559.6640383,559.6640383,559.6640383,559.6640383,559.6640383,559.6640383,559.6640383,None,None,None,554.98319,554.98319,,,556.0903484,,,,,,,,,,,,,,,,,,15,001,2024-06-20_13h35.49.204,robot_nback_sign,2022.2.5,60.07048670909585,
L_Head_Y_For,False,3,robot,1,False,False,robot_stimuli\L_Head_Y_For.mp4,15,0,0,0,0,0,32,32,32,,,,,,,,,,,,,559.6640383,559.6640383,None,,559.6640383,560.7545797,,560.7545797,560.7545797,560.7545797,,None,564.3948171000001,564.3948171000001,564.3948171000001,564.3948171000001,564.3948171000001,564.3948171000001,564.3948171000001,564.3948171000001,None,None,None,559.6640383,559.6640383,,,560.7545797,,,,,,,,,,,,,,,,,,15,001,2024-06-20_13h35.49.204,robot_nback_sign,2022.2.5,60.07048670909585,
L_Arm_Z_For,True,3,robot,1,False,False,robot_stimuli\L_Arm_Z_For.mp4,15,0,0,0,0,0,33,33,33,,,,,,,,,,,,,564.3948171000001,564.3948171000001,None,,564.3948171000001,565.4807480000001,,565.4807480000001,565.4807480000001,565.4807480000001,,c,569.1298026000001,569.1298026000001,569.1298026000001,569.1298026000001,569.1298026000001,569.1298026000001,569.1298026000001,569.1298026000001,None,None,None,564.3948171000001,564.3948171000001,2.046090700000036,,565.4807480000001,,,,,,,,,,,,,,,,,,15,001,2024-06-20_13h35.49.204,robot_nback_sign,2022.2.5,60.07048670909585,
L_Base_Y_Back,True,3,robot,1,False,False,robot_stimuli\L_Base_Y_Back.mp4,15,0,0,0,0,0,34,34,34,,,,,,,,,,,,,569.1298026000001,569.1298026000001,None,,569.1298026000001,570.2148152,,570.2148152,570.2148152,570.2148152,,c,573.7888558,573.7888558,573.7888558,573.7888558,573.7888558,573.7888558,573.7888558,573.7888558,None,None,None,569.1298026000001,569.1298026000001,2.5194289999999455,,570.2148152,,,,,,,,,,,,,,,,,,15,001,2024-06-20_13h35.49.204,robot_nback_sign,2022.2.5,60.07048670909585,
L_Arm_Y_For,False,3,robot,1,False,True,robot_stimuli\L_Arm_Y_For.mp4,15,0,0,0,0,0,35,35,35,,,,,,,,,,,,,573.7888558,573.7888558,None,,573.7888558,574.8802055,,574.8802055,574.8802055,574.8802055,,c,578.5626352,585.4075493,578.5626352,585.4075493,578.5626352,585.4075493,578.5626352,585.4075493,29.38271604938271,3.800087899999994,space,573.7888558,573.7888558,2.463601199999971,6.795690299999933,574.8802055,,,,,,,,,,,,,,,,,,15,001,2024-06-20_13h35.49.204,robot_nback_sign,2022.2.5,60.07048670909585,
,,,,,,,,,0,0,0,0,,,,,,,,,,,,,,,,,,,,,,,,,,,,,,,,,,,,,,,,,,,,,585.4075493,585.4075493,585.4075493,c,4.99836879999998,,,,,,,,,,,,,15,001,2024-06-20_13h35.49.204,robot_nback_sign,2022.2.5,60.07048670909585,
R_Head_Y_Back,False,2,robot,1,True,False,robot_stimuli\R_Head_Y_Back.mp4,15,,,,,,,,,0,0,0,0,,,,,,,,,,,,,596.6803963,597.7754356,,,,,,,601.4147776,601.4147776,601.4147776,601.4147776,601.4147776,601.4147776,601.4147776,601.4147776,None,None,None,,,,,,,,,,,590.4689158,590.4689158,space,6.19413469999995,597.7754356,597.7754356,None,,,,,,15,001,2024-06-20_13h35.49.204,robot_nback_sign,2022.2.5,60.07048670909585,
L_Base_Y_Back,False,2,robot,1,False,False,robot_stimuli\L_Base_Y_Back.mp4,15,,,,,,,,,0,1,1,1,,,,,,,,,,,,,601.4147776,,,,,,,,606.0905645,606.0905645,606.0905645,606.0905645,606.0905645,606.0905645,606.0905645,606.0905645,None,None,None,,,,,,,,,,,601.4147776,601.4147776,None,,602.5116722,602.5116722,None,601.4147776,601.4147776,,,,15,001,2024-06-20_13h35.49.204,robot_nback_sign,2022.2.5,60.07048670909585,
R_Head_Y_Back,True,2,robot,1,False,False,robot_stimuli\R_Head_Y_Back.mp4,15,,,,,,,,,0,2,2,2,,,,,,,,,,,,,606.0905645,607.190768,,,,,,,610.8252445,610.8252445,610.8252445,610.8252445,610.8252445,610.8252445,610.8252445,610.8252445,None,None,None,,,,,,,,,,,606.0905645,606.0905645,None,,607.190768,607.190768,c,606.0905645,606.0905645,2.1202314999999317,,,15,001,2024-06-20_13h35.49.204,robot_nback_sign,2022.2.5,60.07048670909585,
R_Arm_X_Back,False,2,robot,1,False,False,robot_stimuli\R_Arm_X_Back.mp4,15,,,,,,,,,0,3,3,3,,,,,,,,,,,,,610.8252445,611.9174284000001,,,,,,,615.5622020000001,615.5622020000001,615.5622020000001,615.5622020000001,615.5622020000001,615.5622020000001,615.5622020000001,615.5622020000001,None,None,None,,,,,,,,,,,610.8252445,610.8252445,None,,611.9174284000001,611.9174284000001,n,610.8252445,610.8252445,3.482152299999939,,,15,001,2024-06-20_13h35.49.204,robot_nback_sign,2022.2.5,60.07048670909585,
L_Arm_Y_For,False,2,robot,1,False,False,robot_stimuli\L_Arm_Y_For.mp4,15,,,,,,,,,0,4,4,4,,,,,,,,,,,,,615.5622020000001,616.646103,,,,,,,620.2966445000001,620.2966445000001,620.2966445000001,620.2966445000001,620.2966445000001,620.2966445000001,620.2966445000001,620.2966445000001,None,None,None,,,,,,,,,,,615.5622020000001,615.5622020000001,None,,616.646103,616.646103,n,615.5622020000001,615.5622020000001,2.6162510999999995,,,15,001,2024-06-20_13h35.49.204,robot_nback_sign,2022.2.5,60.07048670909585,
L_Base_Y_For,False,2,robot,1,False,False,robot_stimuli\L_Base_Y_For.mp4,15,,,,,,,,,0,5,5,5,,,,,,,,,,,,,620.2966445000001,621.3792931,,,,,,,624.9289863,624.9289863,624.9289863,624.9289863,624.9289863,624.9289863,624.9289863,624.9289863,None,None,None,,,,,,,,,,,620.2966445000001,620.2966445000001,None,,621.3792931,621.3792931,None,620.2966445000001,620.2966445000001,,,,15,001,2024-06-20_13h35.49.204,robot_nback_sign,2022.2.5,60.07048670909585,
L_Torso_Z_For,False,2,robot,1,False,False,robot_stimuli\L_Torso_Z_For.mp4,15,,,,,,,,,0,6,6,6,,,,,,,,,,,,,624.9289863,626.0053393000001,,,,,,,629.6627833,629.6627833,629.6627833,629.6627833,629.6627833,629.6627833,629.6627833,629.6627833,None,None,None,,,,,,,,,,,624.9289863,624.9289863,None,,626.0053393000001,626.0053393000001,n,624.9289863,624.9289863,3.1203873000000613,,,15,001,2024-06-20_13h35.49.204,robot_nback_sign,2022.2.5,60.07048670909585,
R_Arm_X_Back,False,2,robot,1,False,False,robot_stimuli\R_Arm_X_Back.mp4,15,,,,,,,,,0,7,7,7,,,,,,,,,,,,,629.6627833,630.7542711,,,,,,,634.3954544000001,634.3954544000001,634.3954544000001,634.3954544000001,634.3954544000001,634.3954544000001,634.3954544000001,634.3954544000001,None,None,None,,,,,,,,,,,629.6627833,629.6627833,None,,630.7542711,630.7542711,None,629.6627833,629.6627833,,,,15,001,2024-06-20_13h35.49.204,robot_nback_sign,2022.2.5,60.07048670909585,
R_Base_Y_For,False,2,robot,1,False,False,robot_stimuli\R_Base_Y_For.mp4,15,,,,,,,,,0,8,8,8,,,,,,,,,,,,,634.3954544000001,635.4746158,,,,,,,639.1288945,639.1288945,639.1288945,639.1288945,639.1288945,639.1288945,639.1288945,639.1288945,None,None,None,,,,,,,,,,,634.3954544000001,634.3954544000001,None,,635.4746158,635.4746158,n,634.3954544000001,634.3954544000001,2.9084413999999015,,,15,001,2024-06-20_13h35.49.204,robot_nback_sign,2022.2.5,60.07048670909585,
R_Base_X_Back,False,2,robot,1,False,False,robot_stimuli\R_Base_X_Back.mp4,15,,,,,,,,,0,9,9,9,,,,,,,,,,,,,639.1288945,640.211152,,,,,,,643.8623958000001,643.8623958000001,643.8623958000001,643.8623958000001,643.8623958000001,643.8623958000001,643.8623958000001,643.8623958000001,None,None,None,,,,,,,,,,,639.1288945,639.1288945,None,,640.211152,640.211152,None,639.1288945,639.1288945,,,,15,001,2024-06-20_13h35.49.204,robot_nback_sign,2022.2.5,60.07048670909585,
L_Arm_Z_Back,False,2,robot,1,False,False,robot_stimuli\L_Arm_Z_Back.mp4,15,,,,,,,,,0,10,10,10,,,,,,,,,,,,,643.8623958000001,644.9459806,,,,,,,648.5943305000001,648.5943305000001,648.5943305000001,648.5943305000001,648.5943305000001,648.5943305000001,648.5943305000001,648.5943305000001,None,None,None,,,,,,,,,,,643.8623958000001,643.8623958000001,None,,644.9459806,644.9459806,n,643.8623958000001,643.8623958000001,3.3097062999999025,,,15,001,2024-06-20_13h35.49.204,robot_nback_sign,2022.2.5,60.07048670909585,
R_Torso_X_Back,False,2,robot,1,False,False,robot_stimuli\R_Torso_X_Back.mp4,15,,,,,,,,,0,11,11,11,,,,,,,,,,,,,648.5943305000001,649.6755933000001,,,,,,,653.3281755,653.3281755,653.3281755,653.3281755,653.3281755,653.3281755,653.3281755,653.3281755,None,None,None,,,,,,,,,,,648.5943305000001,648.5943305000001,None,,649.6755933000001,649.6755933000001,n,648.5943305000001,648.5943305000001,3.5959832999999435,,,15,001,2024-06-20_13h35.49.204,robot_nback_sign,2022.2.5,60.07048670909585,
L_Head_X_Back,False,2,robot,1,False,False,robot_stimuli\L_Head_X_Back.mp4,15,,,,,,,,,0,12,12,12,,,,,,,,,,,,,653.3281755,654.4087527,,,,,,,658.0576837,658.0576837,658.0576837,658.0576837,658.0576837,658.0576837,658.0576837,658.0576837,None,None,None,,,,,,,,,,,653.3281755,653.3281755,None,,654.4087527,654.4087527,n,653.3281755,653.3281755,2.197654099999909,,,15,001,2024-06-20_13h35.49.204,robot_nback_sign,2022.2.5,60.07048670909585,
R_Base_X_Back,False,2,robot,1,False,False,robot_stimuli\R_Base_X_Back.mp4,15,,,,,,,,,0,13,13,13,,,,,,,,,,,,,658.0576837,659.1407532000001,,,,,,,662.7726387,662.7726387,662.7726387,662.7726387,662.7726387,662.7726387,662.7726387,662.7726387,None,None,None,,,,,,,,,,,658.0576837,658.0576837,None,,659.1407532000001,659.1407532000001,n,658.0576837,658.0576837,3.5382025000000112,,,15,001,2024-06-20_13h35.49.204,robot_nback_sign,2022.2.5,60.07048670909585,
R_Arm_X_For,False,2,robot,1,False,False,robot_stimuli\R_Arm_X_For.mp4,15,,,,,,,,,0,14,14,14,,,,,,,,,,,,,662.7726387,663.8608114,,,,,,,667.5127216,667.5127216,667.5127216,667.5127216,667.5127216,667.5127216,667.5127216,667.5127216,None,None,None,,,,,,,,,,,662.7726387,662.7726387,None,,663.8608114,663.8608114,n,662.7726387,662.7726387,1.7948155999999926,,,15,001,2024-06-20_13h35.49.204,robot_nback_sign,2022.2.5,60.07048670909585,
R_Torso_Y_For,False,2,robot,1,False,False,robot_stimuli\R_Torso_Y_For.mp4,15,,,,,,,,,0,15,15,15,,,,,,,,,,,,,667.5127216,668.5898733,,,,,,,672.2303082,672.2303082,672.2303082,672.2303082,672.2303082,672.2303082,672.2303082,672.2303082,None,None,None,,,,,,,,,,,667.5127216,667.5127216,None,,668.5898733,668.5898733,n,667.5127216,667.5127216,2.9762256000000207,,,15,001,2024-06-20_13h35.49.204,robot_nback_sign,2022.2.5,60.07048670909585,
L_Base_Y_For,False,2,robot,1,False,False,robot_stimuli\L_Base_Y_For.mp4,15,,,,,,,,,0,16,16,16,,,,,,,,,,,,,672.2303082,673.3052772,,,,,,,676.8603733,676.8603733,676.8603733,676.8603733,676.8603733,676.8603733,676.8603733,676.8603733,None,None,None,,,,,,,,,,,672.2303082,672.2303082,None,,673.3052772,673.3052772,n,672.2303082,672.2303082,3.1810404999999946,,,15,001,2024-06-20_13h35.49.204,robot_nback_sign,2022.2.5,60.07048670909585,
L_Torso_Y_Back,False,2,robot,1,False,False,robot_stimuli\L_Torso_Y_Back.mp4,15,,,,,,,,,0,17,17,17,,,,,,,,,,,,,676.8603733,677.9468349,,,,,,,681.4557111,681.4557111,681.4557111,681.4557111,681.4557111,681.4557111,681.4557111,681.4557111,None,None,None,,,,,,,,,,,676.8603733,676.8603733,None,,677.9468349,677.9468349,n,676.8603733,676.8603733,1.9635824999999159,,,15,001,2024-06-20_13h35.49.204,robot_nback_sign,2022.2.5,60.07048670909585,
L_Base_Y_For,True,2,robot,1,False,False,robot_stimuli\L_Base_Y_For.mp4,15,,,,,,,,,0,18,18,18,,,,,,,,,,,,,681.4557111,682.5392464,,,,,,,686.0797075,686.0797075,686.0797075,686.0797075,686.0797075,686.0797075,686.0797075,686.0797075,None,None,None,,,,,,,,,,,681.4557111,681.4557111,None,,682.5392464,682.5392464,c,681.4557111,681.4557111,2.227663399999983,,,15,001,2024-06-20_13h35.49.204,robot_nback_sign,2022.2.5,60.07048670909585,
R_Base_Z_For,False,2,robot,1,False,False,robot_stimuli\R_Base_Z_For.mp4,15,,,,,,,,,0,19,19,19,,,,,,,,,,,,,686.0797075,687.1581186,,,,,,,690.7878081,690.7878081,690.7878081,690.7878081,690.7878081,690.7878081,690.7878081,690.7878081,None,None,None,,,,,,,,,,,686.0797075,686.0797075,None,,687.1581186,687.1581186,n,686.0797075,686.0797075,2.8163935999999694,,,15,001,2024-06-20_13h35.49.204,robot_nback_sign,2022.2.5,60.07048670909585,
R_Arm_X_For,False,2,robot,1,False,False,robot_stimuli\R_Arm_X_For.mp4,15,,,,,,,,,0,20,20,20,,,,,,,,,,,,,690.7878081,691.8742248,,,,,,,695.5180483,695.5180483,695.5180483,695.5180483,695.5180483,695.5180483,695.5180483,695.5180483,None,None,None,,,,,,,,,,,690.7878081,690.7878081,None,,691.8742248,691.8742248,n,690.7878081,690.7878081,3.0208099000000175,,,15,001,2024-06-20_13h35.49.204,robot_nback_sign,2022.2.5,60.07048670909585,
R_Base_Z_For,True,2,robot,1,False,False,robot_stimuli\R_Base_Z_For.mp4,15,,,,,,,,,0,21,21,21,,,,,,,,,,,,,695.5180483,696.6205142,,,,,,,700.2640527,700.2640527,700.2640527,700.2640527,700.2640527,700.2640527,700.2640527,700.2640527,None,None,None,,,,,,,,,,,695.5180483,695.5180483,None,,696.6205142,696.6205142,c,695.5180483,695.5180483,1.9062024999999494,,,15,001,2024-06-20_13h35.49.204,robot_nback_sign,2022.2.5,60.07048670909585,
L_Base_X_Back,False,2,robot,1,False,False,robot_stimuli\L_Base_X_Back.mp4,15,,,,,,,,,0,22,22,22,,,,,,,,,,,,,700.2640527,701.3511012,,,,,,,704.9651709,704.9651709,704.9651709,704.9651709,704.9651709,704.9651709,704.9651709,704.9651709,None,None,None,,,,,,,,,,,700.2640527,700.2640527,None,,701.3511012,701.3511012,n,700.2640527,700.2640527,2.19923689999996,,,15,001,2024-06-20_13h35.49.204,robot_nback_sign,2022.2.5,60.07048670909585,
R_Base_Z_Back,False,2,robot,1,False,False,robot_stimuli\R_Base_Z_Back.mp4,15,,,,,,,,,0,23,23,23,,,,,,,,,,,,,704.9651709,,,,,,,,709.6135667,709.6135667,709.6135667,709.6135667,709.6135667,709.6135667,709.6135667,709.6135667,None,None,None,,,,,,,,,,,704.9651709,704.9651709,None,,706.0676842,706.0676842,c,704.9651709,704.9651709,3.2596154999999953,,,15,001,2024-06-20_13h35.49.204,robot_nback_sign,2022.2.5,60.07048670909585,
R_Arm_Y_Back,False,2,robot,1,False,False,robot_stimuli\R_Arm_Y_Back.mp4,15,,,,,,,,,0,24,24,24,,,,,,,,,,,,,709.6135667,710.6873516,,,,,,,714.3214976,714.3214976,714.3214976,714.3214976,714.3214976,714.3214976,714.3214976,714.3214976,None,None,None,,,,,,,,,,,709.6135667,709.6135667,None,,710.6873516,710.6873516,n,709.6135667,709.6135667,2.071439400000031,,,15,001,2024-06-20_13h35.49.204,robot_nback_sign,2022.2.5,60.07048670909585,
R_Base_Z_Back,True,2,robot,1,False,False,robot_stimuli\R_Base_Z_Back.mp4,15,,,,,,,,,0,25,25,25,,,,,,,,,,,,,714.3214976,715.4076658,,,,,,,718.9580248,718.9580248,718.9580248,718.9580248,718.9580248,718.9580248,718.9580248,718.9580248,None,None,None,,,,,,,,,,,714.3214976,714.3214976,None,,715.4076658,715.4076658,c,714.3214976,714.3214976,2.774100199999907,,,15,001,2024-06-20_13h35.49.204,robot_nback_sign,2022.2.5,60.07048670909585,
L_Arm_X_Back,False,2,robot,1,False,False,robot_stimuli\L_Arm_X_Back.mp4,15,,,,,,,,,0,26,26,26,,,,,,,,,,,,,718.9580248,720.0455701,,,,,,,723.6957999,723.6957999,723.6957999,723.6957999,723.6957999,723.6957999,723.6957999,723.6957999,None,None,None,,,,,,,,,,,718.9580248,718.9580248,None,,720.0455701,720.0455701,n,718.9580248,718.9580248,2.0170636999998806,,,15,001,2024-06-20_13h35.49.204,robot_nback_sign,2022.2.5,60.07048670909585,
R_Arm_X_Back,False,2,robot,1,False,False,robot_stimuli\R_Arm_X_Back.mp4,15,,,,,,,,,0,27,27,27,,,,,,,,,,,,,723.6957999,724.7750365,,,,,,,728.4249379,728.4249379,728.4249379,728.4249379,728.4249379,728.4249379,728.4249379,728.4249379,None,None,None,,,,,,,,,,,723.6957999,723.6957999,None,,724.7750365,724.7750365,n,723.6957999,723.6957999,2.542586799999981,,,15,001,2024-06-20_13h35.49.204,robot_nback_sign,2022.2.5,60.07048670909585,
L_Base_Y_Back,False,2,robot,1,False,False,robot_stimuli\L_Base_Y_Back.mp4,15,,,,,,,,,0,28,28,28,,,,,,,,,,,,,728.4249379,729.5070574,,,,,,,733.0807989,733.0807989,733.0807989,733.0807989,733.0807989,733.0807989,733.0807989,733.0807989,None,None,None,,,,,,,,,,,728.4249379,728.4249379,None,,729.5070574,729.5070574,n,728.4249379,728.4249379,2.058575299999916,,,15,001,2024-06-20_13h35.49.204,robot_nback_sign,2022.2.5,60.07048670909585,
L_Base_X_Back,False,2,robot,1,False,False,robot_stimuli\L_Base_X_Back.mp4,15,,,,,,,,,0,29,29,29,,,,,,,,,,,,,733.0807989,734.1569278000001,,,,,,,737.7636910000001,737.7636910000001,737.7636910000001,737.7636910000001,737.7636910000001,737.7636910000001,737.7636910000001,737.7636910000001,None,None,None,,,,,,,,,,,733.0807989,733.0807989,None,,734.1569278000001,734.1569278000001,n,733.0807989,733.0807989,2.2895178999999644,,,15,001,2024-06-20_13h35.49.204,robot_nback_sign,2022.2.5,60.07048670909585,
R_Head_X_Back,False,2,robot,1,False,False,robot_stimuli\R_Head_X_Back.mp4,15,,,,,,,,,0,30,30,30,,,,,,,,,,,,,737.7636910000001,738.8413370000001,,,,,,,742.4968853,742.4968853,742.4968853,742.4968853,742.4968853,742.4968853,742.4968853,742.4968853,None,None,None,,,,,,,,,,,737.7636910000001,737.7636910000001,None,,738.8413370000001,738.8413370000001,n,737.7636910000001,737.7636910000001,2.3803997999999638,,,15,001,2024-06-20_13h35.49.204,robot_nback_sign,2022.2.5,60.07048670909585,
L_Head_Z_Back,False,2,robot,1,False,False,robot_stimuli\L_Head_Z_Back.mp4,15,,,,,,,,,0,31,31,31,,,,,,,,,,,,,742.4968853,743.5868315,,,,,,,747.2207437,747.2207437,747.2207437,747.2207437,747.2207437,747.2207437,747.2207437,747.2207437,None,None,None,,,,,,,,,,,742.4968853,742.4968853,None,,743.5868315,743.5868315,n,742.4968853,742.4968853,2.7069258999998738,,,15,001,2024-06-20_13h35.49.204,robot_nback_sign,2022.2.5,60.07048670909585,
R_Head_X_Back,True,2,robot,1,False,False,robot_stimuli\R_Head_X_Back.mp4,15,,,,,,,,,0,32,32,32,,,,,,,,,,,,,747.2207437,748.3061929,,,,,,,751.9379160000001,751.9379160000001,751.9379160000001,751.9379160000001,751.9379160000001,751.9379160000001,751.9379160000001,751.9379160000001,None,None,None,,,,,,,,,,,747.2207437,747.2207437,None,,748.3061929,748.3061929,n,747.2207437,747.2207437,3.4842705999998316,,,15,001,2024-06-20_13h35.49.204,robot_nback_sign,2022.2.5,60.07048670909585,
R_Torso_X_Back,False,2,robot,1,False,False,robot_stimuli\R_Torso_X_Back.mp4,15,,,,,,,,,0,33,33,33,,,,,,,,,,,,,751.9379160000001,753.0252585000001,,,,,,,756.6772591000001,756.6772591000001,756.6772591000001,756.6772591000001,756.6772591000001,756.6772591000001,756.6772591000001,756.6772591000001,None,None,None,,,,,,,,,,,751.9379160000001,751.9379160000001,None,,753.0252585000001,753.0252585000001,n,751.9379160000001,751.9379160000001,1.8694422999998324,,,15,001,2024-06-20_13h35.49.204,robot_nback_sign,2022.2.5,60.07048670909585,
R_Arm_Z_For,False,2,robot,1,False,False,robot_stimuli\R_Arm_Z_For.mp4,15,,,,,,,,,0,34,34,34,,,,,,,,,,,,,756.6772591000001,757.7575938,,,,,,,761.3966576,761.3966576,761.3966576,761.3966576,761.3966576,761.3966576,761.3966576,761.3966576,None,None,None,,,,,,,,,,,756.6772591000001,756.6772591000001,None,,757.7575938,757.7575938,n,756.6772591000001,756.6772591000001,2.528171000000043,,,15,001,2024-06-20_13h35.49.204,robot_nback_sign,2022.2.5,60.07048670909585,
R_Torso_X_Back,True,2,robot,1,False,False,robot_stimuli\R_Torso_X_Back.mp4,15,,,,,,,,,0,35,35,35,,,,,,,,,,,,,761.3966576,762.4806932000001,,,,,,,766.1210452,766.1210452,766.1210452,766.1210452,766.1210452,766.1210452,766.1210452,766.1210452,None,None,None,,,,,,,,,,,761.3966576,761.3966576,None,,762.4806932000001,762.4806932000001,None,761.3966576,761.3966576,,,,15,001,2024-06-20_13h35.49.204,robot_nback_sign,2022.2.5,60.07048670909585,
R_Arm_Z_For,True,2,robot,1,False,False,robot_stimuli\R_Arm_Z_For.mp4,15,,,,,,,,,0,36,36,36,,,,,,,,,,,,,766.1210452,767.2031892,,,,,,,770.8467579999999,770.8467579999999,770.8467579999999,770.8467579999999,770.8467579999999,770.8467579999999,770.8467579999999,770.8467579999999,None,None,None,,,,,,,,,,,766.1210452,766.1210452,None,,767.2031892,767.2031892,None,766.1210452,766.1210452,,,,15,001,2024-06-20_13h35.49.204,robot_nback_sign,2022.2.5,60.07048670909585,
L_Arm_Y_For,False,2,robot,1,False,False,robot_stimuli\L_Arm_Y_For.mp4,15,,,,,,,,,0,37,37,37,,,,,,,,,,,,,770.8467579999999,771.9245126999999,,,,,,,775.5636004,775.5636004,775.5636004,775.5636004,775.5636004,775.5636004,775.5636004,775.5636004,None,None,None,,,,,,,,,,,770.8467579999999,770.8467579999999,None,,771.9245126999999,771.9245126999999,n,770.8467579999999,770.8467579999999,3.1631664999998748,,,15,001,2024-06-20_13h35.49.204,robot_nback_sign,2022.2.5,60.07048670909585,
L_Torso_Y_Back,False,2,robot,1,False,False,robot_stimuli\L_Torso_Y_Back.mp4,15,,,,,,,,,0,38,38,38,,,,,,,,,,,,,775.5636004,776.6411823000001,,,,,,,780.1382931,780.1382931,780.1382931,780.1382931,780.1382931,780.1382931,780.1382931,780.1382931,None,None,None,,,,,,,,,,,775.5636004,775.5636004,None,,776.6411823000001,776.6411823000001,n,775.5636004,775.5636004,2.613112600000136,,,15,001,2024-06-20_13h35.49.204,robot_nback_sign,2022.2.5,60.07048670909585,
R_Base_Y_For,False,2,robot,1,False,False,robot_stimuli\R_Base_Y_For.mp4,15,,,,,,,,,0,39,39,39,,,,,,,,,,,,,780.1382931,781.2250664000001,,,,,,,784.8761316,784.8761316,784.8761316,784.8761316,784.8761316,784.8761316,784.8761316,784.8761316,None,None,None,,,,,,,,,,,780.1382931,780.1382931,None,,781.2250664000001,781.2250664000001,n,780.1382931,780.1382931,2.868690299999912,,,15,001,2024-06-20_13h35.49.204,robot_nback_sign,2022.2.5,60.07048670909585,
L_Arm_X_For,False,2,robot,1,False,False,robot_stimuli\L_Arm_X_For.mp4,15,,,,,,,,,0,40,40,40,,,,,,,,,,,,,784.8761316,785.961411,,,,,,,789.610893,789.610893,789.610893,789.610893,789.610893,789.610893,789.610893,789.610893,None,None,None,,,,,,,,,,,784.8761316,784.8761316,None,,785.961411,785.961411,n,784.8761316,784.8761316,2.8372698999997965,,,15,001,2024-06-20_13h35.49.204,robot_nback_sign,2022.2.5,60.07048670909585,
R_Base_Y_For,True,2,robot,1,False,False,robot_stimuli\R_Base_Y_For.mp4,15,,,,,,,,,0,41,41,41,,,,,,,,,,,,,789.610893,790.6907372999999,,,,,,,794.3301454,794.3301454,794.3301454,794.3301454,794.3301454,794.3301454,794.3301454,794.3301454,None,None,None,,,,,,,,,,,789.610893,789.610893,None,,790.6907372999999,790.6907372999999,c,789.610893,789.610893,3.0200562999999647,,,15,001,2024-06-20_13h35.49.204,robot_nback_sign,2022.2.5,60.07048670909585,
L_Torso_Z_For,False,2,robot,1,False,False,robot_stimuli\L_Torso_Z_For.mp4,15,,,,,,,,,0,42,42,42,,,,,,,,,,,,,794.3301454,795.4066405000001,,,,,,,799.0465770000001,799.0465770000001,799.0465770000001,799.0465770000001,799.0465770000001,799.0465770000001,799.0465770000001,799.0465770000001,None,None,None,,,,,,,,,,,794.3301454,794.3301454,None,,795.4066405000001,795.4066405000001,n,794.3301454,794.3301454,3.08039129999986,,,15,001,2024-06-20_13h35.49.204,robot_nback_sign,2022.2.5,60.07048670909585,
R_Arm_Z_Back,False,2,robot,1,False,False,robot_stimuli\R_Arm_Z_Back.mp4,15,,,,,,,,,0,43,43,43,,,,,,,,,,,,,799.0465770000001,800.1244723,,,,,,,803.7631023000001,803.7631023000001,803.7631023000001,803.7631023000001,803.7631023000001,803.7631023000001,803.7631023000001,803.7631023000001,None,None,None,,,,,,,,,,,799.0465770000001,799.0465770000001,None,,800.1244723,800.1244723,n,799.0465770000001,799.0465770000001,1.5613477000000557,,,15,001,2024-06-20_13h35.49.204,robot_nback_sign,2022.2.5,60.07048670909585,
L_Torso_Z_For,True,2,robot,1,False,False,robot_stimuli\L_Torso_Z_For.mp4,15,,,,,,,,,0,44,44,44,,,,,,,,,,,,,803.7631023000001,804.839706,,,,,,,808.4798489,808.4798489,808.4798489,808.4798489,808.4798489,808.4798489,808.4798489,808.4798489,None,None,None,,,,,,,,,,,803.7631023000001,803.7631023000001,None,,804.839706,804.839706,n,803.7631023000001,803.7631023000001,2.8152008999999225,,,15,001,2024-06-20_13h35.49.204,robot_nback_sign,2022.2.5,60.07048670909585,
L_Torso_X_For,False,2,robot,1,False,False,robot_stimuli\L_Torso_X_For.mp4,15,,,,,,,,,0,45,45,45,,,,,,,,,,,,,808.4798489,809.5556924,,,,,,,813.1947407,813.1947407,813.1947407,813.1947407,813.1947407,813.1947407,813.1947407,813.1947407,None,None,None,,,,,,,,,,,808.4798489,808.4798489,None,,809.5556924,809.5556924,n,808.4798489,808.4798489,3.1718640999998797,,,15,001,2024-06-20_13h35.49.204,robot_nback_sign,2022.2.5,60.07048670909585,
L_Torso_Z_For,True,2,robot,1,False,False,robot_stimuli\L_Torso_Z_For.mp4,15,,,,,,,,,0,46,46,46,,,,,,,,,,,,,813.1947407,814.2755146,,,,,,,817.926829,817.926829,817.926829,817.926829,817.926829,817.926829,817.926829,817.926829,None,None,None,,,,,,,,,,,813.1947407,813.1947407,None,,814.2755146,814.2755146,c,813.1947407,813.1947407,2.1064236000000847,,,15,001,2024-06-20_13h35.49.204,robot_nback_sign,2022.2.5,60.07048670909585,
L_Arm_Y_Back,False,2,robot,1,False,False,robot_stimuli\L_Arm_Y_Back.mp4,15,,,,,,,,,0,47,47,47,,,,,,,,,,,,,817.926829,819.0110774,,,,,,,822.6606703,822.6606703,822.6606703,822.6606703,822.6606703,822.6606703,822.6606703,822.6606703,None,None,None,,,,,,,,,,,817.926829,817.926829,None,,819.0110774,819.0110774,n,817.926829,817.926829,2.970633199999952,,,15,001,2024-06-20_13h35.49.204,robot_nback_sign,2022.2.5,60.07048670909585,
R_Torso_Z_Back,False,2,robot,1,False,False,robot_stimuli\R_Torso_Z_Back.mp4,15,,,,,,,,,0,48,48,48,,,,,,,,,,,,,822.6606703,823.7427745,,,,,,,827.3956407999999,827.3956407999999,827.3956407999999,827.3956407999999,827.3956407999999,827.3956407999999,827.3956407999999,827.3956407999999,None,None,None,,,,,,,,,,,822.6606703,822.6606703,None,,823.7427745,823.7427745,n,822.6606703,822.6606703,3.4953779000001077,,,15,001,2024-06-20_13h35.49.204,robot_nback_sign,2022.2.5,60.07048670909585,
R_Head_Z_For,False,2,robot,1,False,True,robot_stimuli\R_Head_Z_For.mp4,15,,,,,,,,,0,49,49,49,,,,,,,,,,,,,827.3956407999999,828.4715031999999,,,,,,,832.1606242,856.5353791,832.1606242,856.5353791,832.1606242,856.5353791,832.1606242,856.5353791,48.20987654320988,7.687241700000186,space,,,,24.33357139999987,,,,,,,827.3956407999999,827.3956407999999,None,,828.4715031999999,828.4715031999999,n,827.3956407999999,827.3956407999999,3.5035155000001623,,,15,001,2024-06-20_13h35.49.204,robot_nback_sign,2022.2.5,60.07048670909585,
L_Torso_Y_For,False,3,robot,1,True,False,robot_stimuli\L_Torso_Y_For.mp4,15,,,,,,,,,0,50,50,50,,,,,,,,,,,,,865.3472627000001,866.4291714999999,,,,,,,870.0793013,870.0793013,870.0793013,870.0793013,870.0793013,870.0793013,870.0793013,870.0793013,None,None,None,,,,,,,,,,,856.5353791,856.5353791,space,8.790295899999933,866.4291714999999,866.4291714999999,None,,,,,,15,001,2024-06-20_13h35.49.204,robot_nback_sign,2022.2.5,60.07048670909585,
R_Torso_Z_Back,False,3,robot,1,False,False,robot_stimuli\R_Torso_Z_Back.mp4,15,,,,,,,,,0,51,51,51,,,,,,,,,,,,,870.0793013,871.1554862,,,,,,,874.8095806000001,874.8095806000001,874.8095806000001,874.8095806000001,874.8095806000001,874.8095806000001,874.8095806000001,874.8095806000001,None,None,None,,,,,,,,,,,870.0793013,870.0793013,None,,871.1554862,871.1554862,None,870.0793013,870.0793013,,,,15,001,2024-06-20_13h35.49.204,robot_nback_sign,2022.2.5,60.07048670909585,
R_Base_Y_For,False,3,robot,1,False,False,robot_stimuli\R_Base_Y_For.mp4,15,,,,,,,,,0,52,52,52,,,,,,,,,,,,,874.8095806000001,875.8921007000001,,,,,,,879.5426236000001,879.5426236000001,879.5426236000001,879.5426236000001,879.5426236000001,879.5426236000001,879.5426236000001,879.5426236000001,None,None,None,,,,,,,,,,,874.8095806000001,874.8095806000001,None,,875.8921007000001,875.8921007000001,None,874.8095806000001,874.8095806000001,,,,15,001,2024-06-20_13h35.49.204,robot_nback_sign,2022.2.5,60.07048670909585,
R_Torso_Z_Back,False,3,robot,1,False,False,robot_stimuli\R_Torso_Z_Back.mp4,15,,,,,,,,,0,53,53,53,,,,,,,,,,,,,879.5426236000001,880.6248149,,,,,,,884.2757174999999,884.2757174999999,884.2757174999999,884.2757174999999,884.2757174999999,884.2757174999999,884.2757174999999,884.2757174999999,None,None,None,,,,,,,,,,,879.5426236000001,879.5426236000001,None,,880.6248149,880.6248149,None,879.5426236000001,879.5426236000001,,,,15,001,2024-06-20_13h35.49.204,robot_nback_sign,2022.2.5,60.07048670909585,
L_Head_X_For,False,3,robot,1,False,False,robot_stimuli\L_Head_X_For.mp4,15,,,,,,,,,0,54,54,54,,,,,,,,,,,,,884.2757174999999,885.3578342999999,,,,,,,888.92154,888.92154,888.92154,888.92154,888.92154,888.92154,888.92154,888.92154,None,None,None,,,,,,,,,,,884.2757174999999,884.2757174999999,None,,885.3578342999999,885.3578342999999,n,884.2757174999999,884.2757174999999,3.4250794999999243,,,15,001,2024-06-20_13h35.49.204,robot_nback_sign,2022.2.5,60.07048670909585,
R_Arm_Y_For,False,3,robot,1,False,False,robot_stimuli\R_Arm_Y_For.mp4,15,,,,,,,,,0,55,55,55,,,,,,,,,,,,,888.92154,890.006009,,,,,,,893.5272827000001,893.5272827000001,893.5272827000001,893.5272827000001,893.5272827000001,893.5272827000001,893.5272827000001,893.5272827000001,None,None,None,,,,,,,,,,,888.92154,888.92154,None,,890.006009,890.006009,None,888.92154,888.92154,,,,15,001,2024-06-20_13h35.49.204,robot_nback_sign,2022.2.5,60.07048670909585,
R_Torso_X_Back,False,3,robot,1,False,False,robot_stimuli\R_Torso_X_Back.mp4,15,,,,,,,,,0,56,56,56,,,,,,,,,,,,,893.5272827000001,894.6045968999999,,,,,,,898.2369409,898.2369409,898.2369409,898.2369409,898.2369409,898.2369409,898.2369409,898.2369409,None,None,None,,,,,,,,,,,893.5272827000001,893.5272827000001,None,,894.6045968999999,894.6045968999999,None,893.5272827000001,893.5272827000001,,,,15,001,2024-06-20_13h35.49.204,robot_nback_sign,2022.2.5,60.07048670909585,
L_Base_Z_For,False,3,robot,1,False,False,robot_stimuli\L_Base_Z_For.mp4,15,,,,,,,,,0,57,57,57,,,,,,,,,,,,,898.2369409,899.3259885,,,,,,,902.9754898000001,902.9754898000001,902.9754898000001,902.9754898000001,902.9754898000001,902.9754898000001,902.9754898000001,902.9754898000001,None,None,None,,,,,,,,,,,898.2369409,898.2369409,None,,899.3259885,899.3259885,n,898.2369409,898.2369409,2.4238074999999526,,,15,001,2024-06-20_13h35.49.204,robot_nback_sign,2022.2.5,60.07048670909585,
L_Base_Z_For,False,3,robot,1,False,False,robot_stimuli\L_Base_Z_For.mp4,15,,,,,,,,,0,58,58,58,,,,,,,,,,,,,902.9754898000001,904.0546360000001,,,,,,,907.6939706000001,907.6939706000001,907.6939706000001,907.6939706000001,907.6939706000001,907.6939706000001,907.6939706000001,907.6939706000001,None,None,None,,,,,,,,,,,902.9754898000001,902.9754898000001,None,,904.0546360000001,904.0546360000001,None,902.9754898000001,902.9754898000001,,,,15,001,2024-06-20_13h35.49.204,robot_nback_sign,2022.2.5,60.07048670909585,
R_Torso_X_Back,True,3,robot,1,False,False,robot_stimuli\R_Torso_X_Back.mp4,15,,,,,,,,,0,59,59,59,,,,,,,,,,,,,907.6939706000001,908.7765426999999,,,,,,,912.4259927,912.4259927,912.4259927,912.4259927,912.4259927,912.4259927,912.4259927,912.4259927,None,None,None,,,,,,,,,,,907.6939706000001,907.6939706000001,None,,908.7765426999999,908.7765426999999,n,907.6939706000001,907.6939706000001,2.772893599999975,,,15,001,2024-06-20_13h35.49.204,robot_nback_sign,2022.2.5,60.07048670909585,
L_Head_Z_Back,False,3,robot,1,False,False,robot_stimuli\L_Head_Z_Back.mp4,15,,,,,,,,,0,60,60,60,,,,,,,,,,,,,912.4259927,913.5093734,,,,,,,917.1583906999999,917.1583906999999,917.1583906999999,917.1583906999999,917.1583906999999,917.1583906999999,917.1583906999999,917.1583906999999,None,None,None,,,,,,,,,,,912.4259927,912.4259927,None,,913.5093734,913.5093734,n,912.4259927,912.4259927,2.6888293999999178,,,15,001,2024-06-20_13h35.49.204,robot_nback_sign,2022.2.5,60.07048670909585,
R_Arm_X_For,False,3,robot,1,False,False,robot_stimuli\R_Arm_X_For.mp4,15,,,,,,,,,0,61,61,61,,,,,,,,,,,,,917.1583906999999,918.2405077999999,,,,,,,921.8720555,921.8720555,921.8720555,921.8720555,921.8720555,921.8720555,921.8720555,921.8720555,None,None,None,,,,,,,,,,,917.1583906999999,917.1583906999999,None,,918.2405077999999,918.2405077999999,None,917.1583906999999,917.1583906999999,,,,15,001,2024-06-20_13h35.49.204,robot_nback_sign,2022.2.5,60.07048670909585,
R_Torso_X_Back,True,3,robot,1,False,False,robot_stimuli\R_Torso_X_Back.mp4,15,,,,,,,,,0,62,62,62,,,,,,,,,,,,,921.8720555,922.9604502,,,,,,,926.6113819,926.6113819,926.6113819,926.6113819,926.6113819,926.6113819,926.6113819,926.6113819,None,None,None,,,,,,,,,,,921.8720555,921.8720555,None,,922.9604502,922.9604502,c,921.8720555,921.8720555,2.9180562000000236,,,15,001,2024-06-20_13h35.49.204,robot_nback_sign,2022.2.5,60.07048670909585,
R_Head_Z_For,False,3,robot,1,False,False,robot_stimuli\R_Head_Z_For.mp4,15,,,,,,,,,0,63,63,63,,,,,,,,,,,,,926.6113819,927.6919172,,,,,,,931.3421441,931.3421441,931.3421441,931.3421441,931.3421441,931.3421441,931.3421441,931.3421441,None,None,None,,,,,,,,,,,926.6113819,926.6113819,None,,927.6919172,927.6919172,n,926.6113819,926.6113819,1.4419030000000248,,,15,001,2024-06-20_13h35.49.204,robot_nback_sign,2022.2.5,60.07048670909585,
L_Arm_X_For,False,3,robot,1,False,False,robot_stimuli\L_Arm_X_For.mp4,15,,,,,,,,,0,64,64,64,,,,,,,,,,,,,931.3421441,932.4229541,,,,,,,936.0553172,936.0553172,936.0553172,936.0553172,936.0553172,936.0553172,936.0553172,936.0553172,None,None,None,,,,,,,,,,,931.3421441,931.3421441,None,,932.4229541,932.4229541,n,931.3421441,931.3421441,3.319131099999936,,,15,001,2024-06-20_13h35.49.204,robot_nback_sign,2022.2.5,60.07048670909585,
R_Head_X_For,False,3,robot,1,False,False,robot_stimuli\R_Head_X_For.mp4,15,,,,,,,,,0,65,65,65,,,,,,,,,,,,,936.0553172,937.1406558000001,,,,,,,940.7802543,940.7802543,940.7802543,940.7802543,940.7802543,940.7802543,940.7802543,940.7802543,None,None,None,,,,,,,,,,,936.0553172,936.0553172,None,,937.1406558000001,937.1406558000001,n,936.0553172,936.0553172,2.625579399999765,,,15,001,2024-06-20_13h35.49.204,robot_nback_sign,2022.2.5,60.07048670909585,
L_Arm_X_Back,False,3,robot,1,False,False,robot_stimuli\L_Arm_X_Back.mp4,15,,,,,,,,,0,66,66,66,,,,,,,,,,,,,940.7802543,941.8582741,,,,,,,945.4881544,945.4881544,945.4881544,945.4881544,945.4881544,945.4881544,945.4881544,945.4881544,None,None,None,,,,,,,,,,,940.7802543,940.7802543,None,,941.8582741,941.8582741,n,940.7802543,940.7802543,2.2272308000000294,,,15,001,2024-06-20_13h35.49.204,robot_nback_sign,2022.2.5,60.07048670909585,
R_Torso_X_For,False,3,robot,1,False,False,robot_stimuli\R_Torso_X_For.mp4,15,,,,,,,,,0,67,67,67,,,,,,,,,,,,,945.4881544,946.5751419000001,,,,,,,950.2272006000001,950.2272006000001,950.2272006000001,950.2272006000001,950.2272006000001,950.2272006000001,950.2272006000001,950.2272006000001,None,None,None,,,,,,,,,,,945.4881544,945.4881544,None,,946.5751419000001,946.5751419000001,None,945.4881544,945.4881544,,,,15,001,2024-06-20_13h35.49.204,robot_nback_sign,2022.2.5,60.07048670909585,
R_Head_X_For,True,3,robot,1,False,False,robot_stimuli\R_Head_X_For.mp4,15,,,,,,,,,0,68,68,68,,,,,,,,,,,,,950.2272006000001,951.3072121,,,,,,,954.9429802,954.9429802,954.9429802,954.9429802,954.9429802,954.9429802,954.9429802,954.9429802,None,None,None,,,,,,,,,,,950.2272006000001,950.2272006000001,None,,951.3072121,951.3072121,c,950.2272006000001,950.2272006000001,2.3243014000000812,,,15,001,2024-06-20_13h35.49.204,robot_nback_sign,2022.2.5,60.07048670909585,
L_Base_Z_For,False,3,robot,1,False,False,robot_stimuli\L_Base_Z_For.mp4,15,,,,,,,,,0,69,69,69,,,,,,,,,,,,,954.9429802,956.0391070000001,,,,,,,959.6797366999999,959.6797366999999,959.6797366999999,959.6797366999999,959.6797366999999,959.6797366999999,959.6797366999999,959.6797366999999,None,None,None,,,,,,,,,,,954.9429802,954.9429802,None,,956.0391070000001,956.0391070000001,n,954.9429802,954.9429802,2.527093900000068,,,15,001,2024-06-20_13h35.49.204,robot_nback_sign,2022.2.5,60.07048670909585,
R_Arm_Y_For,False,3,robot,1,False,False,robot_stimuli\R_Arm_Y_For.mp4,15,,,,,,,,,0,70,70,70,,,,,,,,,,,,,959.6797366999999,960.7616955000001,,,,,,,964.2707210000001,964.2707210000001,964.2707210000001,964.2707210000001,964.2707210000001,964.2707210000001,964.2707210000001,964.2707210000001,None,None,None,,,,,,,,,,,959.6797366999999,959.6797366999999,None,,960.7616955000001,960.7616955000001,n,959.6797366999999,959.6797366999999,2.66821850000008,,,15,001,2024-06-20_13h35.49.204,robot_nback_sign,2022.2.5,60.07048670909585,
R_Head_X_For,True,3,robot,1,False,False,robot_stimuli\R_Head_X_For.mp4,15,,,,,,,,,0,71,71,71,,,,,,,,,,,,,964.2707210000001,965.3551453,,,,,,,969.0122137000001,969.0122137000001,969.0122137000001,969.0122137000001,969.0122137000001,969.0122137000001,969.0122137000001,969.0122137000001,None,None,None,,,,,,,,,,,964.2707210000001,964.2707210000001,None,,965.3551453,965.3551453,c,964.2707210000001,964.2707210000001,2.435247000000004,,,15,001,2024-06-20_13h35.49.204,robot_nback_sign,2022.2.5,60.07048670909585,
L_Base_Z_For,True,3,robot,1,False,False,robot_stimuli\L_Base_Z_For.mp4,15,,,,,,,,,0,72,72,72,,,,,,,,,,,,,969.0122137000001,970.106229,,,,,,,973.7376025000001,973.7376025000001,973.7376025000001,973.7376025000001,973.7376025000001,973.7376025000001,973.7376025000001,973.7376025000001,None,None,None,,,,,,,,,,,969.0122137000001,969.0122137000001,None,,970.106229,970.106229,c,969.0122137000001,969.0122137000001,3.195182599999839,,,15,001,2024-06-20_13h35.49.204,robot_nback_sign,2022.2.5,60.07048670909585,
R_Arm_Y_For,True,3,robot,1,False,False,robot_stimuli\R_Arm_Y_For.mp4,15,,,,,,,,,0,73,73,73,,,,,,,,,,,,,973.7376025000001,974.8301248,,,,,,,978.3384082,978.3384082,978.3384082,978.3384082,978.3384082,978.3384082,978.3384082,978.3384082,None,None,None,,,,,,,,,,,973.7376025000001,973.7376025000001,None,,974.8301248,974.8301248,None,973.7376025000001,973.7376025000001,,,,15,001,2024-06-20_13h35.49.204,robot_nback_sign,2022.2.5,60.07048670909585,
R_Torso_X_For,False,3,robot,1,False,False,robot_stimuli\R_Torso_X_For.mp4,15,,,,,,,,,0,74,74,74,,,,,,,,,,,,,978.3384082,979.4257029,,,,,,,983.0756345,983.0756345,983.0756345,983.0756345,983.0756345,983.0756345,983.0756345,983.0756345,None,None,None,,,,,,,,,,,978.3384082,978.3384082,None,,979.4257029,979.4257029,None,978.3384082,978.3384082,,,,15,001,2024-06-20_13h35.49.204,robot_nback_sign,2022.2.5,60.07048670909585,
L_Arm_X_For,False,3,robot,1,False,False,robot_stimuli\L_Arm_X_For.mp4,15,,,,,,,,,0,75,75,75,,,,,,,,,,,,,983.0756345,984.1572297,,,,,,,987.7969743000001,987.7969743000001,987.7969743000001,987.7969743000001,987.7969743000001,987.7969743000001,987.7969743000001,987.7969743000001,None,None,None,,,,,,,,,,,983.0756345,983.0756345,None,,984.1572297,984.1572297,n,983.0756345,983.0756345,3.097204900000065,,,15,001,2024-06-20_13h35.49.204,robot_nback_sign,2022.2.5,60.07048670909585,
L_Torso_Z_Back,False,3,robot,1,False,False,robot_stimuli\L_Torso_Z_Back.mp4,15,,,,,,,,,0,76,76,76,,,,,,,,,,,,,987.7969743000001,988.8755278000001,,,,,,,992.3921594999999,992.3921594999999,992.3921594999999,992.3921594999999,992.3921594999999,992.3921594999999,992.3921594999999,992.3921594999999,None,None,None,,,,,,,,,,,987.7969743000001,987.7969743000001,None,,988.8755278000001,988.8755278000001,None,987.7969743000001,987.7969743000001,,,,15,001,2024-06-20_13h35.49.204,robot_nback_sign,2022.2.5,60.07048670909585,
R_Arm_Y_For,False,3,robot,1,False,False,robot_stimuli\R_Arm_Y_For.mp4,15,,,,,,,,,0,77,77,77,,,,,,,,,,,,,992.3921594999999,993.4747245000001,,,,,,,996.9708284999999,996.9708284999999,996.9708284999999,996.9708284999999,996.9708284999999,996.9708284999999,996.9708284999999,996.9708284999999,None,None,None,,,,,,,,,,,992.3921594999999,992.3921594999999,None,,993.4747245000001,993.4747245000001,n,992.3921594999999,992.3921594999999,2.6998534999999038,,,15,001,2024-06-20_13h35.49.204,robot_nback_sign,2022.2.5,60.07048670909585,
L_Arm_X_For,True,3,robot,1,False,False,robot_stimuli\L_Arm_X_For.mp4,15,,,,,,,,,0,78,78,78,,,,,,,,,,,,,996.9708284999999,998.0570966,,,,,,,1001.6974608,1001.6974608,1001.6974608,1001.6974608,1001.6974608,1001.6974608,1001.6974608,1001.6974608,None,None,None,,,,,,,,,,,996.9708284999999,996.9708284999999,None,,998.0570966,998.0570966,c,996.9708284999999,996.9708284999999,2.589771399999904,,,15,001,2024-06-20_13h35.49.204,robot_nback_sign,2022.2.5,60.07048670909585,
L_Torso_Z_Back,True,3,robot,1,False,False,robot_stimuli\L_Torso_Z_Back.mp4,15,,,,,,,,,0,79,79,79,,,,,,,,,,,,,1001.6974608,1002.7744795000001,,,,,,,1006.2703312000001,1006.2703312000001,1006.2703312000001,1006.2703312000001,1006.2703312000001,1006.2703312000001,1006.2703312000001,1006.2703312000001,None,None,None,,,,,,,,,,,1001.6974608,1001.6974608,None,,1002.7744795000001,1002.7744795000001,c,1001.6974608,1001.6974608,2.2485127000001057,,,15,001,2024-06-20_13h35.49.204,robot_nback_sign,2022.2.5,60.07048670909585,
R_Arm_Z_Back,False,3,robot,1,False,False,robot_stimuli\R_Arm_Z_Back.mp4,15,,,,,,,,,0,80,80,80,,,,,,,,,,,,,1006.2703312000001,1007.3566484,,,,,,,1010.9969893,1010.9969893,1010.9969893,1010.9969893,1010.9969893,1010.9969893,1010.9969893,1010.9969893,None,None,None,,,,,,,,,,,1006.2703312000001,1006.2703312000001,None,,1007.3566484,1007.3566484,n,1006.2703312000001,1006.2703312000001,3.568945099999951,,,15,001,2024-06-20_13h35.49.204,robot_nback_sign,2022.2.5,60.07048670909585,
R_Head_Z_For,False,3,robot,1,False,False,robot_stimuli\R_Head_Z_For.mp4,15,,,,,,,,,0,81,81,81,,,,,,,,,,,,,1010.9969893,1012.0751903,,,,,,,1015.725661,1015.725661,1015.725661,1015.725661,1015.725661,1015.725661,1015.725661,1015.725661,None,None,None,,,,,,,,,,,1010.9969893,1010.9969893,None,,1012.0751903,1012.0751903,None,1010.9969893,1010.9969893,,,,15,001,2024-06-20_13h35.49.204,robot_nback_sign,2022.2.5,60.07048670909585,
R_Arm_X_For,False,3,robot,1,False,False,robot_stimuli\R_Arm_X_For.mp4,15,,,,,,,,,0,82,82,82,,,,,,,,,,,,,1015.725661,1016.8043474000001,,,,,,,1020.439235,1020.439235,1020.439235,1020.439235,1020.439235,1020.439235,1020.439235,1020.439235,None,None,None,,,,,,,,,,,1015.725661,1015.725661,None,,1016.8043474000001,1016.8043474000001,None,1015.725661,1015.725661,,,,15,001,2024-06-20_13h35.49.204,robot_nback_sign,2022.2.5,60.07048670909585,
R_Torso_X_Back,False,3,robot,1,False,False,robot_stimuli\R_Torso_X_Back.mp4,15,,,,,,,,,0,83,83,83,,,,,,,,,,,,,1020.439235,1021.5331586,,,,,,,1025.1727425,1025.1727425,1025.1727425,1025.1727425,1025.1727425,1025.1727425,1025.1727425,1025.1727425,None,None,None,,,,,,,,,,,1020.439235,1020.439235,None,,1021.5331586,1021.5331586,n,1020.439235,1020.439235,3.496408599999768,,,15,001,2024-06-20_13h35.49.204,robot_nback_sign,2022.2.5,60.07048670909585,
L_Base_X_Back,False,3,robot,1,False,False,robot_stimuli\L_Base_X_Back.mp4,15,,,,,,,,,0,84,84,84,,,,,,,,,,,,,1025.1727425,1026.2579215,,,,,,,1029.8543418,1029.8543418,1029.8543418,1029.8543418,1029.8543418,1029.8543418,1029.8543418,1029.8543418,None,None,None,,,,,,,,,,,1025.1727425,1025.1727425,None,,1026.2579215,1026.2579215,n,1025.1727425,1025.1727425,2.4372814999999264,,,15,001,2024-06-20_13h35.49.204,robot_nback_sign,2022.2.5,60.07048670909585,
R_Torso_Z_Back,False,3,robot,1,False,False,robot_stimuli\R_Torso_Z_Back.mp4,15,,,,,,,,,0,85,85,85,,,,,,,,,,,,,1029.8543418,1030.9481739,,,,,,,1034.5882801,1034.5882801,1034.5882801,1034.5882801,1034.5882801,1034.5882801,1034.5882801,1034.5882801,None,None,None,,,,,,,,,,,1029.8543418,1029.8543418,None,,1030.9481739,1030.9481739,n,1029.8543418,1029.8543418,3.2899825000001783,,,15,001,2024-06-20_13h35.49.204,robot_nback_sign,2022.2.5,60.07048670909585,
R_Arm_Z_For,False,3,robot,1,False,False,robot_stimuli\R_Arm_Z_For.mp4,15,,,,,,,,,0,86,86,86,,,,,,,,,,,,,1034.5882801,1035.6729256,,,,,,,1039.3125306,1039.3125306,1039.3125306,1039.3125306,1039.3125306,1039.3125306,1039.3125306,1039.3125306,None,None,None,,,,,,,,,,,1034.5882801,1034.5882801,None,,1035.6729256,1035.6729256,None,1034.5882801,1034.5882801,,,,15,001,2024-06-20_13h35.49.204,robot_nback_sign,2022.2.5,60.07048670909585,
R_Torso_X_For,False,3,robot,1,False,False,robot_stimuli\R_Torso_X_For.mp4,15,,,,,,,,,0,87,87,87,,,,,,,,,,,,,1039.3125306,1040.3898041,,,,,,,1044.0453451,1044.0453451,1044.0453451,1044.0453451,1044.0453451,1044.0453451,1044.0453451,1044.0453451,None,None,None,,,,,,,,,,,1039.3125306,1039.3125306,None,,1040.3898041,1040.3898041,n,1039.3125306,1039.3125306,3.0731590000000324,,,15,001,2024-06-20_13h35.49.204,robot_nback_sign,2022.2.5,60.07048670909585,
R_Base_X_For,False,3,robot,1,False,False,robot_stimuli\R_Base_X_For.mp4,15,,,,,,,,,0,88,88,88,,,,,,,,,,,,,1044.0453451,1045.1275766,,,,,,,1048.6761408,1048.6761408,1048.6761408,1048.6761408,1048.6761408,1048.6761408,1048.6761408,1048.6761408,None,None,None,,,,,,,,,,,1044.0453451,1044.0453451,None,,1045.1275766,1045.1275766,None,1044.0453451,1044.0453451,,,,15,001,2024-06-20_13h35.49.204,robot_nback_sign,2022.2.5,60.07048670909585,
R_Arm_Z_For,True,3,robot,1,False,False,robot_stimuli\R_Arm_Z_For.mp4,15,,,,,,,,,0,89,89,89,,,,,,,,,,,,,1048.6761408,1049.7589116,,,,,,,1053.4143022,1053.4143022,1053.4143022,1053.4143022,1053.4143022,1053.4143022,1053.4143022,1053.4143022,None,None,None,,,,,,,,,,,1048.6761408,1048.6761408,None,,1049.7589116,1049.7589116,None,1048.6761408,1048.6761408,,,,15,001,2024-06-20_13h35.49.204,robot_nback_sign,2022.2.5,60.07048670909585,
R_Arm_X_Back,False,3,robot,1,False,False,robot_stimuli\R_Arm_X_Back.mp4,15,,,,,,,,,0,90,90,90,,,,,,,,,,,,,1053.4143022,1054.5080229,,,,,,,1058.1457692000001,1058.1457692000001,1058.1457692000001,1058.1457692000001,1058.1457692000001,1058.1457692000001,1058.1457692000001,1058.1457692000001,None,None,None,,,,,,,,,,,1053.4143022,1053.4143022,None,,1054.5080229,1054.5080229,n,1053.4143022,1053.4143022,2.785974099999976,,,15,001,2024-06-20_13h35.49.204,robot_nback_sign,2022.2.5,60.07048670909585,
R_Arm_X_Back,False,3,robot,1,False,False,robot_stimuli\R_Arm_X_Back.mp4,15,,,,,,,,,0,91,91,91,,,,,,,,,,,,,1058.1457692000001,1059.2219675000001,,,,,,,1062.8606616,1062.8606616,1062.8606616,1062.8606616,1062.8606616,1062.8606616,1062.8606616,1062.8606616,None,None,None,,,,,,,,,,,1058.1457692000001,1058.1457692000001,None,,1059.2219675000001,1059.2219675000001,None,1058.1457692000001,1058.1457692000001,,,,15,001,2024-06-20_13h35.49.204,robot_nback_sign,2022.2.5,60.07048670909585,
L_Head_Z_Back,False,3,robot,1,False,False,robot_stimuli\L_Head_Z_Back.mp4,15,,,,,,,,,0,92,92,92,,,,,,,,,,,,,1062.8606616,1063.9426022,,,,,,,1067.592812,1067.592812,1067.592812,1067.592812,1067.592812,1067.592812,1067.592812,1067.592812,None,None,None,,,,,,,,,,,1062.8606616,1062.8606616,None,,1063.9426022,1063.9426022,n,1062.8606616,1062.8606616,3.1277929000000313,,,15,001,2024-06-20_13h35.49.204,robot_nback_sign,2022.2.5,60.07048670909585,
R_Arm_X_Back,True,3,robot,1,False,False,robot_stimuli\R_Arm_X_Back.mp4,15,,,,,,,,,0,93,93,93,,,,,,,,,,,,,1067.592812,1068.6756735000001,,,,,,,1072.3260063,1072.3260063,1072.3260063,1072.3260063,1072.3260063,1072.3260063,1072.3260063,1072.3260063,None,None,None,,,,,,,,,,,1067.592812,1067.592812,None,,1068.6756735000001,1068.6756735000001,c,1067.592812,1067.592812,2.5939118000001145,,,15,001,2024-06-20_13h35.49.204,robot_nback_sign,2022.2.5,60.07048670909585,
R_Head_Y_Back,False,3,robot,1,False,False,robot_stimuli\R_Head_Y_Back.mp4,15,,,,,,,,,0,94,94,94,,,,,,,,,,,,,1072.3260063,1073.4071862,,,,,,,1077.0477143,1077.0477143,1077.0477143,1077.0477143,1077.0477143,1077.0477143,1077.0477143,1077.0477143,None,None,None,,,,,,,,,,,1072.3260063,1072.3260063,None,,1073.4071862,1073.4071862,n,1072.3260063,1072.3260063,3.5032100999997056,,,15,001,2024-06-20_13h35.49.204,robot_nback_sign,2022.2.5,60.07048670909585,
L_Arm_Y_For,False,3,robot,1,False,False,robot_stimuli\L_Arm_Y_For.mp4,15,,,,,,,,,0,95,95,95,,,,,,,,,,,,,1077.0477143,1078.127894,,,,,,,1081.7787001,1081.7787001,1081.7787001,1081.7787001,1081.7787001,1081.7787001,1081.7787001,1081.7787001,None,None,None,,,,,,,,,,,1077.0477143,1077.0477143,None,,1078.127894,1078.127894,n,1077.0477143,1077.0477143,2.854278400000112,,,15,001,2024-06-20_13h35.49.204,robot_nback_sign,2022.2.5,60.07048670909585,
R_Arm_Y_For,False,3,robot,1,False,False,robot_stimuli\R_Arm_Y_For.mp4,15,,,,,,,,,0,96,96,96,,,,,,,,,,,,,1081.7787001,1082.8586397,,,,,,,1086.3743536,1086.3743536,1086.3743536,1086.3743536,1086.3743536,1086.3743536,1086.3743536,1086.3743536,None,None,None,,,,,,,,,,,1081.7787001,1081.7787001,None,,1082.8586397,1082.8586397,None,1081.7787001,1081.7787001,,,,15,001,2024-06-20_13h35.49.204,robot_nback_sign,2022.2.5,60.07048670909585,
L_Torso_Z_For,False,3,robot,1,False,False,robot_stimuli\L_Torso_Z_For.mp4,15,,,,,,,,,0,97,97,97,,,,,,,,,,,,,1086.3743536,1087.456979,,,,,,,1091.0871484,1091.0871484,1091.0871484,1091.0871484,1091.0871484,1091.0871484,1091.0871484,1091.0871484,None,None,None,,,,,,,,,,,1086.3743536,1086.3743536,None,,1087.456979,1087.456979,n,1086.3743536,1086.3743536,2.4529645999998593,,,15,001,2024-06-20_13h35.49.204,robot_nback_sign,2022.2.5,60.07048670909585,
L_Arm_Z_For,False,3,robot,1,False,False,robot_stimuli\L_Arm_Z_For.mp4,15,,,,,,,,,0,98,98,98,,,,,,,,,,,,,1091.0871484,1092.1700465000001,,,,,,,1095.8037472,1095.8037472,1095.8037472,1095.8037472,1095.8037472,1095.8037472,1095.8037472,1095.8037472,None,None,None,,,,,,,,,,,1091.0871484,1091.0871484,None,,1092.1700465000001,1092.1700465000001,c,1091.0871484,1091.0871484,3.1085527999998703,,,15,001,2024-06-20_13h35.49.204,robot_nback_sign,2022.2.5,60.07048670909585,
R_Base_Z_For,False,3,robot,1,False,True,robot_stimuli\R_Base_Z_For.mp4,15,,,,,,,,,0,99,99,99,,,,,,,,,,,,,1095.8037472,1096.8893216000001,,,,,,,1100.5637223,1108.5147503,1100.5637223,1108.5147503,1100.5637223,1108.5147503,1100.5637223,1108.5147503,48.98148148148148,4.392801099999815,space,,,,7.905524900000046,,,,,,,1095.8037472,1095.8037472,None,,1096.8893216000001,1096.8893216000001,n,1095.8037472,1095.8037472,2.5894534000001386,,,15,001,2024-06-20_13h35.49.204,robot_nback_sign,2022.2.5,60.07048670909585,
R_Torso_Y_Back,False,1,robot,1,True,False,robot_stimuli\R_Torso_Y_Back.mp4,15,,,,,,,,,0,100,100,100,,,,,,,,,,,,,1111.6140309,1112.693107,,,,,,,1116.329393,1116.329393,1116.329393,1116.329393,1116.329393,1116.329393,1116.329393,1116.329393,None,None,None,,,,,,,,,,,1108.5147503,1108.5147503,space,3.0667181999999684,1112.693107,1112.693107,None,,,,,,15,001,2024-06-20_13h35.49.204,robot_nback_sign,2022.2.5,60.07048670909585,
R_Torso_Y_Back,True,1,robot,1,False,False,robot_stimuli\R_Torso_Y_Back.mp4,15,,,,,,,,,0,101,101,101,,,,,,,,,,,,,1116.329393,1117.4051649,,,,,,,1121.0454894,1121.0454894,1121.0454894,1121.0454894,1121.0454894,1121.0454894,1121.0454894,1121.0454894,None,None,None,,,,,,,,,,,1116.329393,1116.329393,None,,1117.4051649,1117.4051649,c,1116.329393,1116.329393,2.1288782999997693,,,15,001,2024-06-20_13h35.49.204,robot_nback_sign,2022.2.5,60.07048670909585,
L_Base_Z_Back,False,1,robot,1,False,False,robot_stimuli\L_Base_Z_Back.mp4,15,,,,,,,,,0,102,102,102,,,,,,,,,,,,,1121.0454894,1122.1260825,,,,,,,1125.7751327,1125.7751327,1125.7751327,1125.7751327,1125.7751327,1125.7751327,1125.7751327,1125.7751327,None,None,None,,,,,,,,,,,1121.0454894,1121.0454894,None,,1122.1260825,1122.1260825,n,1121.0454894,1121.0454894,1.544665200000054,,,15,001,2024-06-20_13h35.49.204,robot_nback_sign,2022.2.5,60.07048670909585,
R_Base_Y_For,False,1,robot,1,False,False,robot_stimuli\R_Base_Y_For.mp4,15,,,,,,,,,0,103,103,103,,,,,,,,,,,,,1125.7751327,1126.8546344000001,,,,,,,1130.4870356000001,1130.4870356000001,1130.4870356000001,1130.4870356000001,1130.4870356000001,1130.4870356000001,1130.4870356000001,1130.4870356000001,None,None,None,,,,,,,,,,,1125.7751327,1125.7751327,None,,1126.8546344000001,1126.8546344000001,n,1125.7751327,1125.7751327,1.768693199999916,,,15,001,2024-06-20_13h35.49.204,robot_nback_sign,2022.2.5,60.07048670909585,
R_Arm_Y_For,False,1,robot,1,False,False,robot_stimuli\R_Arm_Y_For.mp4,15,,,,,,,,,0,104,104,104,,,,,,,,,,,,,1130.4870356000001,1131.5790768,,,,,,,1135.0957187,1135.0957187,1135.0957187,1135.0957187,1135.0957187,1135.0957187,1135.0957187,1135.0957187,None,None,None,,,,,,,,,,,1130.4870356000001,1130.4870356000001,None,,1131.5790768,1131.5790768,n,1130.4870356000001,1130.4870356000001,1.7863291999997273,,,15,001,2024-06-20_13h35.49.204,robot_nback_sign,2022.2.5,60.07048670909585,
L_Head_X_Back,False,1,robot,1,False,False,robot_stimuli\L_Head_X_Back.mp4,15,,,,,,,,,0,105,105,105,,,,,,,,,,,,,1135.0957187,1136.1706604,,,,,,,1139.805391,1139.805391,1139.805391,1139.805391,1139.805391,1139.805391,1139.805391,1139.805391,None,None,None,,,,,,,,,,,1135.0957187,1135.0957187,None,,1136.1706604,1136.1706604,n,1135.0957187,1135.0957187,2.971987800000079,,,15,001,2024-06-20_13h35.49.204,robot_nback_sign,2022.2.5,60.07048670909585,
L_Base_Z_Back,False,1,robot,1,False,False,robot_stimuli\L_Base_Z_Back.mp4,15,,,,,,,,,0,106,106,106,,,,,,,,,,,,,1139.805391,1140.8902822,,,,,,,1144.5202193,1144.5202193,1144.5202193,1144.5202193,1144.5202193,1144.5202193,1144.5202193,1144.5202193,None,None,None,,,,,,,,,,,1139.805391,1139.805391,None,,1140.8902822,1140.8902822,n,1139.805391,1139.805391,2.468545199999653,,,15,001,2024-06-20_13h35.49.204,robot_nback_sign,2022.2.5,60.07048670909585,
L_Arm_Y_Back,False,1,robot,1,False,False,robot_stimuli\L_Arm_Y_Back.mp4,15,,,,,,,,,0,107,107,107,,,,,,,,,,,,,1144.5202193,1145.6078841,,,,,,,1149.2380056,1149.2380056,1149.2380056,1149.2380056,1149.2380056,1149.2380056,1149.2380056,1149.2380056,None,None,None,,,,,,,,,,,1144.5202193,1144.5202193,None,,1145.6078841,1145.6078841,n,1144.5202193,1144.5202193,1.5182036999999582,,,15,001,2024-06-20_13h35.49.204,robot_nback_sign,2022.2.5,60.07048670909585,
L_Base_Z_For,False,1,robot,1,False,False,robot_stimuli\L_Base_Z_For.mp4,15,,,,,,,,,0,108,108,108,,,,,,,,,,,,,1149.2380056,1150.3254834,,,,,,,1153.9788861,1153.9788861,1153.9788861,1153.9788861,1153.9788861,1153.9788861,1153.9788861,1153.9788861,None,None,None,,,,,,,,,,,1149.2380056,1149.2380056,None,,1150.3254834,1150.3254834,n,1149.2380056,1149.2380056,1.9841076000000157,,,15,001,2024-06-20_13h35.49.204,robot_nback_sign,2022.2.5,60.07048670909585,
L_Base_Z_For,True,1,robot,1,False,False,robot_stimuli\L_Base_Z_For.mp4,15,,,,,,,,,0,109,109,109,,,,,,,,,,,,,1153.9788861,1155.0670574,,,,,,,1158.7102183,1158.7102183,1158.7102183,1158.7102183,1158.7102183,1158.7102183,1158.7102183,1158.7102183,None,None,None,,,,,,,,,,,1153.9788861,1153.9788861,None,,1155.0670574,1155.0670574,c,1153.9788861,1153.9788861,1.7715984999999819,,,15,001,2024-06-20_13h35.49.204,robot_nback_sign,2022.2.5,60.07048670909585,
L_Base_Z_For,True,1,robot,1,False,False,robot_stimuli\L_Base_Z_For.mp4,15,,,,,,,,,0,110,110,110,,,,,,,,,,,,,1158.7102183,1159.7900339,,,,,,,1163.430519,1163.430519,1163.430519,1163.430519,1163.430519,1163.430519,1163.430519,1163.430519,None,None,None,,,,,,,,,,,1158.7102183,1158.7102183,None,,1159.7900339,1159.7900339,c,1158.7102183,1158.7102183,1.8402269000000615,,,15,001,2024-06-20_13h35.49.204,robot_nback_sign,2022.2.5,60.07048670909585,
R_Torso_X_Back,False,1,robot,1,False,False,robot_stimuli\R_Torso_X_Back.mp4,15,,,,,,,,,0,111,111,111,,,,,,,,,,,,,1163.430519,1164.5091424,,,,,,,1168.1594469,1168.1594469,1168.1594469,1168.1594469,1168.1594469,1168.1594469,1168.1594469,1168.1594469,None,None,None,,,,,,,,,,,1163.430519,1163.430519,None,,1164.5091424,1164.5091424,n,1163.430519,1163.430519,1.8407046000002083,,,15,001,2024-06-20_13h35.49.204,robot_nback_sign,2022.2.5,60.07048670909585,
L_Base_Z_Back,False,1,robot,1,False,False,robot_stimuli\L_Base_Z_Back.mp4,15,,,,,,,,,0,112,112,112,,,,,,,,,,,,,1168.1594469,1169.241382,,,,,,,1172.8708357,1172.8708357,1172.8708357,1172.8708357,1172.8708357,1172.8708357,1172.8708357,1172.8708357,None,None,None,,,,,,,,,,,1168.1594469,1168.1594469,None,,1169.241382,1169.241382,n,1168.1594469,1168.1594469,1.90842170000019,,,15,001,2024-06-20_13h35.49.204,robot_nback_sign,2022.2.5,60.07048670909585,
L_Base_Z_Back,True,1,robot,1,False,False,robot_stimuli\L_Base_Z_Back.mp4,15,,,,,,,,,0,113,113,113,,,,,,,,,,,,,1172.8708357,1173.9539481,,,,,,,1177.5934252,1177.5934252,1177.5934252,1177.5934252,1177.5934252,1177.5934252,1177.5934252,1177.5934252,None,None,None,,,,,,,,,,,1172.8708357,1172.8708357,None,,1173.9539481,1173.9539481,c,1172.8708357,1172.8708357,2.09231960000011,,,15,001,2024-06-20_13h35.49.204,robot_nback_sign,2022.2.5,60.07048670909585,
L_Head_X_Back,False,1,robot,1,False,False,robot_stimuli\L_Head_X_Back.mp4,15,,,,,,,,,0,114,114,114,,,,,,,,,,,,,1177.5934252,1178.6761127,,,,,,,1182.3266093,1182.3266093,1182.3266093,1182.3266093,1182.3266093,1182.3266093,1182.3266093,1182.3266093,None,None,None,,,,,,,,,,,1177.5934252,1177.5934252,None,,1178.6761127,1178.6761127,n,1177.5934252,1177.5934252,2.561383199999682,,,15,001,2024-06-20_13h35.49.204,robot_nback_sign,2022.2.5,60.07048670909585,
L_Head_X_Back,True,1,robot,1,False,False,robot_stimuli\L_Head_X_Back.mp4,15,,,,,,,,,0,115,115,115,,,,,,,,,,,,,1182.3266093,1183.4078999,,,,,,,1187.03751,1187.03751,1187.03751,1187.03751,1187.03751,1187.03751,1187.03751,1187.03751,None,None,None,,,,,,,,,,,1182.3266093,1182.3266093,None,,1183.4078999,1183.4078999,c,1182.3266093,1182.3266093,2.1419384999996964,,,15,001,2024-06-20_13h35.49.204,robot_nback_sign,2022.2.5,60.07048670909585,
L_Base_Y_Back,False,1,robot,1,False,False,robot_stimuli\L_Base_Y_Back.mp4,15,,,,,,,,,0,116,116,116,,,,,,,,,,,,,1187.03751,1188.1243424,,,,,,,1191.6874508,1191.6874508,1191.6874508,1191.6874508,1191.6874508,1191.6874508,1191.6874508,1191.6874508,None,None,None,,,,,,,,,,,1187.03751,1187.03751,None,,1188.1243424,1188.1243424,n,1187.03751,1187.03751,1.9051549999999224,,,15,001,2024-06-20_13h35.49.204,robot_nback_sign,2022.2.5,60.07048670909585,
L_Arm_Y_For,False,1,robot,1,False,False,robot_stimuli\L_Arm_Y_For.mp4,15,,,,,,,,,0,117,117,117,,,,,,,,,,,,,1191.6874508,1192.7734532,,,,,,,1196.4125153,1196.4125153,1196.4125153,1196.4125153,1196.4125153,1196.4125153,1196.4125153,1196.4125153,None,None,None,,,,,,,,,,,1191.6874508,1191.6874508,None,,1192.7734532,1192.7734532,n,1191.6874508,1191.6874508,1.8962170999998307,,,15,001,2024-06-20_13h35.49.204,robot_nback_sign,2022.2.5,60.07048670909585,
L_Base_X_Back,False,1,robot,1,False,False,robot_stimuli\L_Base_X_Back.mp4,15,,,,,,,,,0,118,118,118,,,,,,,,,,,,,1196.4125153,1197.4927806,,,,,,,1201.1087813,1201.1087813,1201.1087813,1201.1087813,1201.1087813,1201.1087813,1201.1087813,1201.1087813,None,None,None,,,,,,,,,,,1196.4125153,1196.4125153,None,,1197.4927806,1197.4927806,n,1196.4125153,1196.4125153,2.065717100000029,,,15,001,2024-06-20_13h35.49.204,robot_nback_sign,2022.2.5,60.07048670909585,
R_Head_Z_Back,False,1,robot,1,False,False,robot_stimuli\R_Head_Z_Back.mp4,15,,,,,,,,,0,119,119,119,,,,,,,,,,,,,1201.1087813,1202.1968593,,,,,,,1205.8464641,1205.8464641,1205.8464641,1205.8464641,1205.8464641,1205.8464641,1205.8464641,1205.8464641,None,None,None,,,,,,,,,,,1201.1087813,1201.1087813,None,,1202.1968593,1202.1968593,n,1201.1087813,1201.1087813,1.5606876000001648,,,15,001,2024-06-20_13h35.49.204,robot_nback_sign,2022.2.5,60.07048670909585,
R_Base_Y_For,False,1,robot,1,False,False,robot_stimuli\R_Base_Y_For.mp4,15,,,,,,,,,0,120,120,120,,,,,,,,,,,,,1205.8464641,1206.926068,,,,,,,1210.5760563000001,1210.5760563000001,1210.5760563000001,1210.5760563000001,1210.5760563000001,1210.5760563000001,1210.5760563000001,1210.5760563000001,None,None,None,,,,,,,,,,,1205.8464641,1205.8464641,None,,1206.926068,1206.926068,n,1205.8464641,1205.8464641,1.9594610999999986,,,15,001,2024-06-20_13h35.49.204,robot_nback_sign,2022.2.5,60.07048670909585,
L_Torso_Z_For,False,1,robot,1,False,False,robot_stimuli\L_Torso_Z_For.mp4,15,,,,,,,,,0,121,121,121,,,,,,,,,,,,,1210.5760563000001,1211.6554407,,,,,,,1215.3135334,1215.3135334,1215.3135334,1215.3135334,1215.3135334,1215.3135334,1215.3135334,1215.3135334,None,None,None,,,,,,,,,,,1210.5760563000001,1210.5760563000001,None,,1211.6554407,1211.6554407,n,1210.5760563000001,1210.5760563000001,2.4543967000001885,,,15,001,2024-06-20_13h35.49.204,robot_nback_sign,2022.2.5,60.07048670909585,
R_Arm_X_Back,False,1,robot,1,False,False,robot_stimuli\R_Arm_X_Back.mp4,15,,,,,,,,,0,122,122,122,,,,,,,,,,,,,1215.3135334,1216.4028461,,,,,,,1220.0374624,1220.0374624,1220.0374624,1220.0374624,1220.0374624,1220.0374624,1220.0374624,1220.0374624,None,None,None,,,,,,,,,,,1215.3135334,1215.3135334,None,,1216.4028461,1216.4028461,n,1215.3135334,1215.3135334,2.2988857999996526,,,15,001,2024-06-20_13h35.49.204,robot_nback_sign,2022.2.5,60.07048670909585,
R_Head_X_For,False,1,robot,1,False,False,robot_stimuli\R_Head_X_For.mp4,15,,,,,,,,,0,123,123,123,,,,,,,,,,,,,1220.0374624,1221.127914,,,,,,,1224.7793804,1224.7793804,1224.7793804,1224.7793804,1224.7793804,1224.7793804,1224.7793804,1224.7793804,None,None,None,,,,,,,,,,,1220.0374624,1220.0374624,None,,1221.127914,1221.127914,c,1220.0374624,1220.0374624,3.1894511999996666,,,15,001,2024-06-20_13h35.49.204,robot_nback_sign,2022.2.5,60.07048670909585,
L_Base_Z_Back,False,1,robot,1,False,False,robot_stimuli\L_Base_Z_Back.mp4,15,,,,,,,,,0,124,124,124,,,,,,,,,,,,,1224.7793804,1225.8578297,,,,,,,1229.4892789,1229.4892789,1229.4892789,1229.4892789,1229.4892789,1229.4892789,1229.4892789,1229.4892789,None,None,None,,,,,,,,,,,1224.7793804,1224.7793804,None,,1225.8578297,1225.8578297,None,1224.7793804,1224.7793804,,,,15,001,2024-06-20_13h35.49.204,robot_nback_sign,2022.2.5,60.07048670909585,
R_Arm_X_For,False,1,robot,1,False,False,robot_stimuli\R_Arm_X_For.mp4,15,,,,,,,,,0,125,125,125,,,,,,,,,,,,,1229.4892789,1230.5730884,,,,,,,1234.2132202,1234.2132202,1234.2132202,1234.2132202,1234.2132202,1234.2132202,1234.2132202,1234.2132202,None,None,None,,,,,,,,,,,1229.4892789,1229.4892789,None,,1230.5730884,1230.5730884,n,1229.4892789,1229.4892789,2.5933505000000423,,,15,001,2024-06-20_13h35.49.204,robot_nback_sign,2022.2.5,60.07048670909585,
L_Torso_Y_For,False,1,robot,1,False,False,robot_stimuli\L_Torso_Y_For.mp4,15,,,,,,,,,0,126,126,126,,,,,,,,,,,,,1234.2132202,1235.2922315,,,,,,,1238.9207163,1238.9207163,1238.9207163,1238.9207163,1238.9207163,1238.9207163,1238.9207163,1238.9207163,None,None,None,,,,,,,,,,,1234.2132202,1234.2132202,None,,1235.2922315,1235.2922315,n,1234.2132202,1234.2132202,2.218382500000189,,,15,001,2024-06-20_13h35.49.204,robot_nback_sign,2022.2.5,60.07048670909585,
L_Torso_Y_For,True,1,robot,1,False,False,robot_stimuli\L_Torso_Y_For.mp4,15,,,,,,,,,0,127,127,127,,,,,,,,,,,,,1238.9207163,1240.0061256000001,,,,,,,1243.6409414,1243.6409414,1243.6409414,1243.6409414,1243.6409414,1243.6409414,1243.6409414,1243.6409414,None,None,None,,,,,,,,,,,1238.9207163,1238.9207163,None,,1240.0061256000001,1240.0061256000001,c,1238.9207163,1238.9207163,2.0325779999998304,,,15,001,2024-06-20_13h35.49.204,robot_nback_sign,2022.2.5,60.07048670909585,
L_Base_Y_For,False,1,robot,1,False,False,robot_stimuli\L_Base_Y_For.mp4,15,,,,,,,,,0,128,128,128,,,,,,,,,,,,,1243.6409414,1244.741291,,,,,,,1248.2700912,1248.2700912,1248.2700912,1248.2700912,1248.2700912,1248.2700912,1248.2700912,1248.2700912,None,None,None,,,,,,,,,,,1243.6409414,1243.6409414,None,,1244.741291,1244.741291,n,1243.6409414,1243.6409414,3.2642534000001433,,,15,001,2024-06-20_13h35.49.204,robot_nback_sign,2022.2.5,60.07048670909585,
L_Base_Z_For,False,1,robot,1,False,False,robot_stimuli\L_Base_Z_For.mp4,15,,,,,,,,,0,129,129,129,,,,,,,,,,,,,1248.2700912,1249.3569926,,,,,,,1252.9971017,1252.9971017,1252.9971017,1252.9971017,1252.9971017,1252.9971017,1252.9971017,1252.9971017,None,None,None,,,,,,,,,,,1248.2700912,1248.2700912,None,,1249.3569926,1249.3569926,n,1248.2700912,1248.2700912,2.168518499999891,,,15,001,2024-06-20_13h35.49.204,robot_nback_sign,2022.2.5,60.07048670909585,
R_Torso_Y_For,False,1,robot,1,False,False,robot_stimuli\R_Torso_Y_For.mp4,15,,,,,,,,,0,130,130,130,,,,,,,,,,,,,1252.9971017,1254.0754917,,,,,,,1257.7266406,1257.7266406,1257.7266406,1257.7266406,1257.7266406,1257.7266406,1257.7266406,1257.7266406,None,None,None,,,,,,,,,,,1252.9971017,1252.9971017,None,,1254.0754917,1254.0754917,n,1252.9971017,1252.9971017,1.4033050999996703,,,15,001,2024-06-20_13h35.49.204,robot_nback_sign,2022.2.5,60.07048670909585,
L_Head_Y_For,False,1,robot,1,False,False,robot_stimuli\L_Head_Y_For.mp4,15,,,,,,,,,0,131,131,131,,,,,,,,,,,,,1257.7266406,1258.8100737,,,,,,,1262.4620415,1262.4620415,1262.4620415,1262.4620415,1262.4620415,1262.4620415,1262.4620415,1262.4620415,None,None,None,,,,,,,,,,,1257.7266406,1257.7266406,None,,1258.8100737,1258.8100737,n,1257.7266406,1257.7266406,1.7164631000000554,,,15,001,2024-06-20_13h35.49.204,robot_nback_sign,2022.2.5,60.07048670909585,
R_Base_Z_For,False,1,robot,1,False,False,robot_stimuli\R_Base_Z_For.mp4,15,,,,,,,,,0,132,132,132,,,,,,,,,,,,,1262.4620415,1263.5412138,,,,,,,1267.1716479,1267.1716479,1267.1716479,1267.1716479,1267.1716479,1267.1716479,1267.1716479,1267.1716479,None,None,None,,,,,,,,,,,1262.4620415,1262.4620415,None,,1263.5412138,1263.5412138,n,1262.4620415,1262.4620415,2.3215326000001824,,,15,001,2024-06-20_13h35.49.204,robot_nback_sign,2022.2.5,60.07048670909585,
L_Torso_Z_For,False,1,robot,1,False,False,robot_stimuli\L_Torso_Z_For.mp4,15,,,,,,,,,0,133,133,133,,,,,,,,,,,,,1267.1716479,1268.258068,,,,,,,1271.8870353,1271.8870353,1271.8870353,1271.8870353,1271.8870353,1271.8870353,1271.8870353,1271.8870353,None,None,None,,,,,,,,,,,1267.1716479,1267.1716479,None,,1268.258068,1268.258068,n,1267.1716479,1267.1716479,2.2432573000000957,,,15,001,2024-06-20_13h35.49.204,robot_nback_sign,2022.2.5,60.07048670909585,
L_Head_Y_For,False,1,robot,1,False,False,robot_stimuli\L_Head_Y_For.mp4,15,,,,,,,,,0,134,134,134,,,,,,,,,,,,,1271.8870353,1272.9752282,,,,,,,1276.6143286,1276.6143286,1276.6143286,1276.6143286,1276.6143286,1276.6143286,1276.6143286,1276.6143286,None,None,None,,,,,,,,,,,1271.8870353,1271.8870353,None,,1272.9752282,1272.9752282,n,1271.8870353,1271.8870353,1.7510341999998218,,,15,001,2024-06-20_13h35.49.204,robot_nback_sign,2022.2.5,60.07048670909585,
R_Torso_Z_For,False,1,robot,1,False,False,robot_stimuli\R_Torso_Z_For.mp4,15,,,,,,,,,0,135,135,135,,,,,,,,,,,,,1276.6143286,1277.6905702,,,,,,,1281.3219076,1281.3219076,1281.3219076,1281.3219076,1281.3219076,1281.3219076,1281.3219076,1281.3219076,None,None,None,,,,,,,,,,,1276.6143286,1276.6143286,None,,1277.6905702,1277.6905702,n,1276.6143286,1276.6143286,2.300467699999899,,,15,001,2024-06-20_13h35.49.204,robot_nback_sign,2022.2.5,60.07048670909585,
L_Torso_X_Back,False,1,robot,1,False,False,robot_stimuli\L_Torso_X_Back.mp4,15,,,,,,,,,0,136,136,136,,,,,,,,,,,,,1281.3219076,1282.4034879,,,,,,,1286.0467382,1286.0467382,1286.0467382,1286.0467382,1286.0467382,1286.0467382,1286.0467382,1286.0467382,None,None,None,,,,,,,,,,,1281.3219076,1281.3219076,None,,1282.4034879,1282.4034879,n,1281.3219076,1281.3219076,1.4351425999998355,,,15,001,2024-06-20_13h35.49.204,robot_nback_sign,2022.2.5,60.07048670909585,
R_Arm_Y_Back,False,1,robot,1,False,False,robot_stimuli\R_Arm_Y_Back.mp4,15,,,,,,,,,0,137,137,137,,,,,,,,,,,,,1286.0467382,1287.1250637,,,,,,,1290.7634323,1290.7634323,1290.7634323,1290.7634323,1290.7634323,1290.7634323,1290.7634323,1290.7634323,None,None,None,,,,,,,,,,,1286.0467382,1286.0467382,None,,1287.1250637,1287.1250637,n,1286.0467382,1286.0467382,1.7379989999999452,,,15,001,2024-06-20_13h35.49.204,robot_nback_sign,2022.2.5,60.07048670909585,
L_Torso_Z_Back,False,1,robot,1,False,False,robot_stimuli\L_Torso_Z_Back.mp4,15,,,,,,,,,0,138,138,138,,,,,,,,,,,,,1290.7634323,1291.8412187000001,,,,,,,1295.3472359,1295.3472359,1295.3472359,1295.3472359,1295.3472359,1295.3472359,1295.3472359,1295.3472359,None,None,None,,,,,,,,,,,1290.7634323,1290.7634323,None,,1291.8412187000001,1291.8412187000001,n,1290.7634323,1290.7634323,2.3571896999999353,,,15,001,2024-06-20_13h35.49.204,robot_nback_sign,2022.2.5,60.07048670909585,
L_Torso_X_Back,False,1,robot,1,False,False,robot_stimuli\L_Torso_X_Back.mp4,15,,,,,,,,,0,139,139,139,,,,,,,,,,,,,1295.3472359,1296.4243452,,,,,,,1300.075269,1300.075269,1300.075269,1300.075269,1300.075269,1300.075269,1300.075269,1300.075269,None,None,None,,,,,,,,,,,1295.3472359,1295.3472359,None,,1296.4243452,1296.4243452,c,1295.3472359,1295.3472359,2.854192699999885,,,15,001,2024-06-20_13h35.49.204,robot_nback_sign,2022.2.5,60.07048670909585,
R_Torso_Y_For,False,1,robot,1,False,False,robot_stimuli\R_Torso_Y_For.mp4,15,,,,,,,,,0,140,140,140,,,,,,,,,,,,,1300.075269,1301.1583868,,,,,,,1304.8085112,1304.8085112,1304.8085112,1304.8085112,1304.8085112,1304.8085112,1304.8085112,1304.8085112,None,None,None,,,,,,,,,,,1300.075269,1300.075269,None,,1301.1583868,1301.1583868,n,1300.075269,1300.075269,1.8718012000001636,,,15,001,2024-06-20_13h35.49.204,robot_nback_sign,2022.2.5,60.07048670909585,
R_Torso_Y_For,True,1,robot,1,False,False,robot_stimuli\R_Torso_Y_For.mp4,15,,,,,,,,,0,141,141,141,,,,,,,,,,,,,1304.8085112,1305.890677,,,,,,,1309.5211948,1309.5211948,1309.5211948,1309.5211948,1309.5211948,1309.5211948,1309.5211948,1309.5211948,None,None,None,,,,,,,,,,,1304.8085112,1304.8085112,None,,1305.890677,1305.890677,c,1304.8085112,1304.8085112,1.987272399999938,,,15,001,2024-06-20_13h35.49.204,robot_nback_sign,2022.2.5,60.07048670909585,
R_Head_Z_For,False,1,robot,1,False,False,robot_stimuli\R_Head_Z_For.mp4,15,,,,,,,,,0,142,142,142,,,,,,,,,,,,,1309.5211948,1310.6075275,,,,,,,1314.2370447,1314.2370447,1314.2370447,1314.2370447,1314.2370447,1314.2370447,1314.2370447,1314.2370447,None,None,None,,,,,,,,,,,1309.5211948,1309.5211948,None,,1310.6075275,1310.6075275,n,1309.5211948,1309.5211948,2.5262124999997013,,,15,001,2024-06-20_13h35.49.204,robot_nback_sign,2022.2.5,60.07048670909585,
R_Head_Z_For,True,1,robot,1,False,False,robot_stimuli\R_Head_Z_For.mp4,15,,,,,,,,,0,143,143,143,,,,,,,,,,,,,1314.2370447,1315.3206599,,,,,,,1318.9635622,1318.9635622,1318.9635622,1318.9635622,1318.9635622,1318.9635622,1318.9635622,1318.9635622,None,None,None,,,,,,,,,,,1314.2370447,1314.2370447,None,,1315.3206599,1315.3206599,c,1314.2370447,1314.2370447,2.2851312999998754,,,15,001,2024-06-20_13h35.49.204,robot_nback_sign,2022.2.5,60.07048670909585,
R_Torso_Z_For,False,1,robot,1,False,False,robot_stimuli\R_Torso_Z_For.mp4,15,,,,,,,,,0,144,144,144,,,,,,,,,,,,,1318.9635622,1320.0565026,,,,,,,1323.6964837,1323.6964837,1323.6964837,1323.6964837,1323.6964837,1323.6964837,1323.6964837,1323.6964837,None,None,None,,,,,,,,,,,1318.9635622,1318.9635622,None,,1320.0565026,1320.0565026,n,1318.9635622,1318.9635622,2.493181899999854,,,15,001,2024-06-20_13h35.49.204,robot_nback_sign,2022.2.5,60.07048670909585,
L_Torso_X_Back,False,1,robot,1,False,False,robot_stimuli\L_Torso_X_Back.mp4,15,,,,,,,,,0,145,145,145,,,,,,,,,,,,,1323.6964837,1324.7732721,,,,,,,1328.4133427,1328.4133427,1328.4133427,1328.4133427,1328.4133427,1328.4133427,1328.4133427,1328.4133427,None,None,None,,,,,,,,,,,1323.6964837,1323.6964837,None,,1324.7732721,1324.7732721,n,1323.6964837,1323.6964837,1.953219099999842,,,15,001,2024-06-20_13h35.49.204,robot_nback_sign,2022.2.5,60.07048670909585,
R_Arm_X_Back,False,1,robot,1,False,False,robot_stimuli\R_Arm_X_Back.mp4,15,,,,,,,,,0,146,146,146,,,,,,,,,,,,,1328.4133427,1329.4904226,,,,,,,1333.1299368,1333.1299368,1333.1299368,1333.1299368,1333.1299368,1333.1299368,1333.1299368,1333.1299368,None,None,None,,,,,,,,,,,1328.4133427,1328.4133427,None,,1329.4904226,1329.4904226,n,1328.4133427,1328.4133427,1.7806989000000613,,,15,001,2024-06-20_13h35.49.204,robot_nback_sign,2022.2.5,60.07048670909585,
R_Torso_Z_For,False,1,robot,1,False,False,robot_stimuli\R_Torso_Z_For.mp4,15,,,,,,,,,0,147,147,147,,,,,,,,,,,,,1333.1299368,1334.2079177,,,,,,,1337.83808,1337.83808,1337.83808,1337.83808,1337.83808,1337.83808,1337.83808,1337.83808,None,None,None,,,,,,,,,,,1333.1299368,1333.1299368,None,,1334.2079177,1334.2079177,n,1333.1299368,1333.1299368,2.1987366999996993,,,15,001,2024-06-20_13h35.49.204,robot_nback_sign,2022.2.5,60.07048670909585,
R_Torso_Z_For,True,1,robot,1,False,False,robot_stimuli\R_Torso_Z_For.mp4,15,,,,,,,,,0,148,148,148,,,,,,,,,,,,,1337.83808,1338.9215621,,,,,,,1342.5626162,1342.5626162,1342.5626162,1342.5626162,1342.5626162,1342.5626162,1342.5626162,1342.5626162,None,None,None,,,,,,,,,,,1337.83808,1337.83808,None,,1338.9215621,1338.9215621,c,1337.83808,1337.83808,2.0836704000000736,,,15,001,2024-06-20_13h35.49.204,robot_nback_sign,2022.2.5,60.07048670909585,
R_Torso_Z_For,True,1,robot,1,False,True,robot_stimuli\R_Torso_Z_For.mp4,15,,,,,,,,,0,149,149,149,,,,,,,,,,,,,1342.5626162,1343.6351768,,,,,,,1347.3136977,1372.6927152,1347.3136977,1372.6927152,1347.3136977,1372.6927152,1347.3136977,1372.6927152,38.33333333333333,10.679819599999973,space,,,,25.31596380000019,,,,,,,1342.5626162,1342.5626162,None,,1343.6351768,1343.6351768,c,1342.5626162,1342.5626162,1.8269950999999764,,,15,001,2024-06-20_13h35.49.204,robot_nback_sign,2022.2.5,60.07048670909585,
W,False,3,letter,2,True,False,robot_stimuli\\filler.mp4,15,,,,,,,,,0,150,150,150,,,,,,,,,,,,,1379.7139022000001,1380.7706187,,,,,,,1382.9958166000001,1382.9958166000001,1382.9958166000001,1382.9958166000001,1382.9958166000001,1382.9958166000001,1382.9958166000001,1382.9958166000001,None,None,None,,,,,,,,,,,1372.6927152,1372.6927152,space,7.002332699999897,,1380.7706187,None,,,,1380.7706187,1382.9958166000001,15,001,2024-06-20_13h35.49.204,robot_nback_sign,2022.2.5,60.07048670909585,
S,False,3,letter,2,False,False,robot_stimuli\\filler.mp4,15,,,,,,,,,0,151,151,151,,,,,,,,,,,,,1382.9958166000001,1384.0502927,,,,,,,1386.0795311,1386.0795311,1386.0795311,1386.0795311,1386.0795311,1386.0795311,1386.0795311,1386.0795311,None,None,None,,,,,,,,,,,1382.9958166000001,1382.9958166000001,None,,,1384.0502927,None,1382.9958166000001,1382.9958166000001,,1384.0502927,1386.0795311,15,001,2024-06-20_13h35.49.204,robot_nback_sign,2022.2.5,60.07048670909585,
V,False,3,letter,2,False,False,robot_stimuli\\filler.mp4,15,,,,,,,,,0,152,152,152,,,,,,,,,,,,,1386.0795311,1387.1385363,,,,,,,1389.1689302,1389.1689302,1389.1689302,1389.1689302,1389.1689302,1389.1689302,1389.1689302,1389.1689302,None,None,None,,,,,,,,,,,1386.0795311,1386.0795311,None,,,1387.1385363,None,1386.0795311,1386.0795311,,1387.1385363,1389.1689302,15,001,2024-06-20_13h35.49.204,robot_nback_sign,2022.2.5,60.07048670909585,
G,False,3,letter,2,False,False,robot_stimuli\\filler.mp4,15,,,,,,,,,0,153,153,153,,,,,,,,,,,,,1389.1689302,1390.2332152000001,,,,,,,1392.4662416,1392.4662416,1392.4662416,1392.4662416,1392.4662416,1392.4662416,1392.4662416,1392.4662416,None,None,None,,,,,,,,,,,1389.1689302,1389.1689302,None,,,1390.2332152000001,n,1389.1689302,1389.1689302,0.7488464000000477,1390.2332152000001,1392.4662416,15,001,2024-06-20_13h35.49.204,robot_nback_sign,2022.2.5,60.07048670909585,
S,True,3,letter,2,False,False,robot_stimuli\\filler.mp4,15,,,,,,,,,0,154,154,154,,,,,,,,,,,,,1392.4662416,,,,,,,,1395.7657792,1395.7657792,1395.7657792,1395.7657792,1395.7657792,1395.7657792,1395.7657792,1395.7657792,None,None,None,,,,,,,,,,,1392.4662416,1392.4662416,None,,,1393.532586,c,1392.4662416,1392.4662416,1.0262446999997792,1393.532586,1395.7657792,15,001,2024-06-20_13h35.49.204,robot_nback_sign,2022.2.5,60.07048670909585,
K,False,3,letter,2,False,False,robot_stimuli\\filler.mp4,15,,,,,,,,,0,155,155,155,,,,,,,,,,,,,1395.7657792,,,,,,,,1399.0662394,1399.0662394,1399.0662394,1399.0662394,1399.0662394,1399.0662394,1399.0662394,1399.0662394,None,None,None,,,,,,,,,,,1395.7657792,1395.7657792,None,,,1396.8334309,n,1395.7657792,1395.7657792,0.7486568999997871,1396.8334309,1399.0662394,15,001,2024-06-20_13h35.49.204,robot_nback_sign,2022.2.5,60.07048670909585,
Z,False,3,letter,2,False,False,robot_stimuli\\filler.mp4,15,,,,,,,,,0,156,156,156,,,,,,,,,,,,,1399.0662394,,,,,,,,1402.3570456,1402.3570456,1402.3570456,1402.3570456,1402.3570456,1402.3570456,1402.3570456,1402.3570456,None,None,None,,,,,,,,,,,1399.0662394,1399.0662394,None,,,1400.1337154,n,1399.0662394,1399.0662394,0.6323456999998598,1400.1337154,1402.3570456,15,001,2024-06-20_13h35.49.204,robot_nback_sign,2022.2.5,60.07048670909585,
S,True,3,letter,2,False,False,robot_stimuli\\filler.mp4,15,,,,,,,,,0,157,157,157,,,,,,,,,,,,,1402.3570456,1403.415892,,,,,,,1405.6435363,1405.6435363,1405.6435363,1405.6435363,1405.6435363,1405.6435363,1405.6435363,1405.6435363,None,None,None,,,,,,,,,,,1402.3570456,1402.3570456,None,,,1403.415892,c,1402.3570456,1402.3570456,0.725914800000055,1403.415892,1405.6435363,15,001,2024-06-20_13h35.49.204,robot_nback_sign,2022.2.5,60.07048670909585,
B,False,3,letter,2,False,False,robot_stimuli\\filler.mp4,15,,,,,,,,,0,158,158,158,,,,,,,,,,,,,1405.6435363,1406.7011842,,,,,,,1408.9234907,1408.9234907,1408.9234907,1408.9234907,1408.9234907,1408.9234907,1408.9234907,1408.9234907,None,None,None,,,,,,,,,,,1405.6435363,1405.6435363,None,,,1406.7011842,n,1405.6435363,1405.6435363,0.825201300000117,1406.7011842,1408.9234907,15,001,2024-06-20_13h35.49.204,robot_nback_sign,2022.2.5,60.07048670909585,
X,False,3,letter,2,False,False,robot_stimuli\\filler.mp4,15,,,,,,,,,0,159,159,159,,,,,,,,,,,,,1408.9234907,1409.9846798,,,,,,,1412.0133442000001,1412.0133442000001,1412.0133442000001,1412.0133442000001,1412.0133442000001,1412.0133442000001,1412.0133442000001,1412.0133442000001,None,None,None,,,,,,,,,,,1408.9234907,1408.9234907,None,,,1409.9846798,n,1408.9234907,1408.9234907,0.7496502999999848,1409.9846798,1412.0133442000001,15,001,2024-06-20_13h35.49.204,robot_nback_sign,2022.2.5,60.07048670909585,
M,False,3,letter,2,False,False,robot_stimuli\\filler.mp4,15,,,,,,,,,0,160,160,160,,,,,,,,,,,,,1412.0133442000001,1413.0700184,,,,,,,1415.0921726,1415.0921726,1415.0921726,1415.0921726,1415.0921726,1415.0921726,1415.0921726,1415.0921726,None,None,None,,,,,,,,,,,1412.0133442000001,1412.0133442000001,None,,,1413.0700184,n,1412.0133442000001,1412.0133442000001,0.7359682000001158,1413.0700184,1415.0921726,15,001,2024-06-20_13h35.49.204,robot_nback_sign,2022.2.5,60.07048670909585,
C,False,3,letter,2,False,False,robot_stimuli\\filler.mp4,15,,,,,,,,,0,161,161,161,,,,,,,,,,,,,1415.0921726,1416.1574559,,,,,,,1418.192427,1418.192427,1418.192427,1418.192427,1418.192427,1418.192427,1418.192427,1418.192427,None,None,None,,,,,,,,,,,1415.0921726,1415.0921726,None,,,1416.1574559,n,1415.0921726,1415.0921726,0.8643870999999308,1416.1574559,1418.192427,15,001,2024-06-20_13h35.49.204,robot_nback_sign,2022.2.5,60.07048670909585,
Q,False,3,letter,2,False,False,robot_stimuli\\filler.mp4,15,,,,,,,,,0,162,162,162,,,,,,,,,,,,,1418.192427,1419.2539677,,,,,,,1421.289193,1421.289193,1421.289193,1421.289193,1421.289193,1421.289193,1421.289193,1421.289193,None,None,None,,,,,,,,,,,1418.192427,1418.192427,None,,,1419.2539677,n,1418.192427,1418.192427,0.936590299999807,1419.2539677,1421.289193,15,001,2024-06-20_13h35.49.204,robot_nback_sign,2022.2.5,60.07048670909585,
L,False,3,letter,2,False,False,robot_stimuli\\filler.mp4,15,,,,,,,,,0,163,163,163,,,,,,,,,,,,,1421.289193,1422.3501914,,,,,,,1424.3863572,1424.3863572,1424.3863572,1424.3863572,1424.3863572,1424.3863572,1424.3863572,1424.3863572,None,None,None,,,,,,,,,,,1421.289193,1421.289193,None,,,1422.3501914,n,1421.289193,1421.289193,0.8247886999999992,1422.3501914,1424.3863572,15,001,2024-06-20_13h35.49.204,robot_nback_sign,2022.2.5,60.07048670909585,
N,False,3,letter,2,False,False,robot_stimuli\\filler.mp4,15,,,,,,,,,0,164,164,164,,,,,,,,,,,,,1424.3863572,1425.4498177,,,,,,,1427.4744792000001,1427.4744792000001,1427.4744792000001,1427.4744792000001,1427.4744792000001,1427.4744792000001,1427.4744792000001,1427.4744792000001,None,None,None,,,,,,,,,,,1424.3863572,1424.3863572,None,,,1425.4498177,n,1424.3863572,1424.3863572,1.5085245000002487,1425.4498177,1427.4744792000001,15,001,2024-06-20_13h35.49.204,robot_nback_sign,2022.2.5,60.07048670909585,
T,False,3,letter,2,False,False,robot_stimuli\\filler.mp4,15,,,,,,,,,0,165,165,165,,,,,,,,,,,,,1427.4744792000001,1428.5395504,,,,,,,1430.5699218,1430.5699218,1430.5699218,1430.5699218,1430.5699218,1430.5699218,1430.5699218,1430.5699218,None,None,None,,,,,,,,,,,1427.4744792000001,1427.4744792000001,None,,,1428.5395504,n,1427.4744792000001,1427.4744792000001,1.0192067000000407,1428.5395504,1430.5699218,15,001,2024-06-20_13h35.49.204,robot_nback_sign,2022.2.5,60.07048670909585,
V,False,3,letter,2,False,False,robot_stimuli\\filler.mp4,15,,,,,,,,,0,166,166,166,,,,,,,,,,,,,1430.5699218,1431.6335485,,,,,,,1433.8636601,1433.8636601,1433.8636601,1433.8636601,1433.8636601,1433.8636601,1433.8636601,1433.8636601,None,None,None,,,,,,,,,,,1430.5699218,1430.5699218,None,,,1431.6335485,n,1430.5699218,1430.5699218,1.1647674999999253,1431.6335485,1433.8636601,15,001,2024-06-20_13h35.49.204,robot_nback_sign,2022.2.5,60.07048670909585,
N,True,3,letter,2,False,False,robot_stimuli\\filler.mp4,15,,,,,,,,,0,167,167,167,,,,,,,,,,,,,1433.8636601,1434.9156646000001,,,,,,,1437.1475065,1437.1475065,1437.1475065,1437.1475065,1437.1475065,1437.1475065,1437.1475065,1437.1475065,None,None,None,,,,,,,,,,,1433.8636601,1433.8636601,None,,,1434.9156646000001,None,1433.8636601,1433.8636601,,1434.9156646000001,1437.1475065,15,001,2024-06-20_13h35.49.204,robot_nback_sign,2022.2.5,60.07048670909585,
G,False,3,letter,2,False,False,robot_stimuli\\filler.mp4,15,,,,,,,,,0,168,168,168,,,,,,,,,,,,,1437.1475065,1438.1998659,,,,,,,1440.4311863,1440.4311863,1440.4311863,1440.4311863,1440.4311863,1440.4311863,1440.4311863,1440.4311863,None,None,None,,,,,,,,,,,1437.1475065,1437.1475065,None,,,1438.1998659,n,1437.1475065,1437.1475065,1.2953207000000475,1438.1998659,1440.4311863,15,001,2024-06-20_13h35.49.204,robot_nback_sign,2022.2.5,60.07048670909585,
G,False,3,letter,2,False,False,robot_stimuli\\filler.mp4,15,,,,,,,,,0,169,169,169,,,,,,,,,,,,,1440.4311863,1441.4821181,,,,,,,1443.7113063,1443.7113063,1443.7113063,1443.7113063,1443.7113063,1443.7113063,1443.7113063,1443.7113063,None,None,None,,,,,,,,,,,1440.4311863,1440.4311863,None,,,1441.4821181,n,1440.4311863,1440.4311863,0.988117000000102,1441.4821181,1443.7113063,15,001,2024-06-20_13h35.49.204,robot_nback_sign,2022.2.5,60.07048670909585,
H,False,3,letter,2,False,False,robot_stimuli\\filler.mp4,15,,,,,,,,,0,170,170,170,,,,,,,,,,,,,1443.7113063,1444.7673769,,,,,,,1446.9979531000001,1446.9979531000001,1446.9979531000001,1446.9979531000001,1446.9979531000001,1446.9979531000001,1446.9979531000001,1446.9979531000001,None,None,None,,,,,,,,,,,1443.7113063,1443.7113063,None,,,1444.7673769,n,1443.7113063,1443.7113063,0.7431219000000056,1444.7673769,1446.9979531000001,15,001,2024-06-20_13h35.49.204,robot_nback_sign,2022.2.5,60.07048670909585,
G,True,3,letter,2,False,False,robot_stimuli\\filler.mp4,15,,,,,,,,,0,171,171,171,,,,,,,,,,,,,1446.9979531000001,1448.0667158,,,,,,,1450.2939499,1450.2939499,1450.2939499,1450.2939499,1450.2939499,1450.2939499,1450.2939499,1450.2939499,None,None,None,,,,,,,,,,,1446.9979531000001,1446.9979531000001,None,,,1448.0667158,c,1446.9979531000001,1446.9979531000001,0.8599027999998725,1448.0667158,1450.2939499,15,001,2024-06-20_13h35.49.204,robot_nback_sign,2022.2.5,60.07048670909585,
M,False,3,letter,2,False,False,robot_stimuli\\filler.mp4,15,,,,,,,,,0,172,172,172,,,,,,,,,,,,,1450.2939499,1451.3644281,,,,,,,1453.3975229,1453.3975229,1453.3975229,1453.3975229,1453.3975229,1453.3975229,1453.3975229,1453.3975229,None,None,None,,,,,,,,,,,1450.2939499,1450.2939499,None,,,1451.3644281,None,1450.2939499,1450.2939499,,1451.3644281,1453.3975229,15,001,2024-06-20_13h35.49.204,robot_nback_sign,2022.2.5,60.07048670909585,
H,True,3,letter,2,False,False,robot_stimuli\\filler.mp4,15,,,,,,,,,0,173,173,173,,,,,,,,,,,,,1453.3975229,1454.4508208,,,,,,,1456.6763927,1456.6763927,1456.6763927,1456.6763927,1456.6763927,1456.6763927,1456.6763927,1456.6763927,None,None,None,,,,,,,,,,,1453.3975229,1453.3975229,None,,,1454.4508208,c,1453.3975229,1453.3975229,1.7957495000000563,1454.4508208,1456.6763927,15,001,2024-06-20_13h35.49.204,robot_nback_sign,2022.2.5,60.07048670909585,
