sequence,is_target,condition,stimuli,block,is_block_beginning,is_block_ending,fname,subject,retraining.thisRepN,retraining.thisTrialN,retraining.thisN,retraining.thisIndex,training.thisRepN,training.thisTrialN,training.thisN,training.thisIndex,trials.thisRepN,trials.thisTrialN,trials.thisN,trials.thisIndex,langage_text.started,langage_key.started,langage_key.keys,langage_key.rt,intro_text.started,intro_key.started,intro_key.keys,intro_key.rt,training_robot_intro_text.started,training_robot_intro_key.started,training_robot_intro_key.keys,training_robot_intro_key.rt,cross.started,cross.stopped,training_letter.started,training_robot_key.started,training_robot_question.started,training_robot_keys.started,training_letter.stopped,training_robot_key.keys,RSME_labels.started,RSME_labels.stopped,RSME_ticks.started,RSME_ticks.stopped,RSME_text.started,RSME_text.stopped,RSME_key.started,RSME_key.stopped,RSME_ticks.response,RSME_ticks.rt,RSME_key.keys,training_robot_intro_text.stopped,training_robot_intro_key.stopped,training_robot_key.rt,RSME_key.rt,training_robot_movie.started,experiment_beginning_text.started,experiment_beginning_keys.started,experiment_beginning_key.started,experiment_beginning_key.keys,experiment_beginning_key.rt,block_intro_text.started,block_intro_key.started,block_intro_key.keys,block_intro_key.rt,movie.started,key.started,key.keys,key.rt,block_intro_text.stopped,block_intro_key.stopped,letter.started,letter.stopped,participant,session,date,expName,psychopyVersion,frameRate,
,,,,,,,,,,,,,,,,,,,,,49.88174219999996,49.88174219999996,f,385.87856020000004,,,,,,,,,,,,,,,,,,,,,,,,,,,,,,,,,,,,,,,,,,,,,,,,,,1,001,2024-05-24_13h55.46.357,robot_nback_sign,2022.2.5,60.01514782331876,
,,,,,,,,,,,,,,,,,,,,,,,,,435.8212388000002,435.8212388000002,space,45.86080769999967,,,,,,,,,,,,,,,,,,,,,,,,,,,,,,,,,,,,,,,,,,,,,,1,001,2024-05-24_13h55.46.357,robot_nback_sign,2022.2.5,60.01514782331876,
G,False,1,letter,2,True,False,robot_stimuli\\filler.mp4,1,0,0,0,0,0,0,0,0,,,,,,,,,,,,,481.71678740000016,481.71678740000016,space,3.684110699999792,485.43297440000015,486.9155694000001,486.9155694000001,486.9155694000001,486.9155694000001,486.9155694000001,489.2242847000002,None,489.2242847000002,489.2242847000002,489.2242847000002,489.2242847000002,489.2242847000002,489.2242847000002,489.2242847000002,489.2242847000002,None,None,None,,,,,,,,,,,,,,,,,,,,,,,1,001,2024-05-24_13h55.46.357,robot_nback_sign,2022.2.5,60.01514782331876,
G,True,1,letter,2,False,False,robot_stimuli\\filler.mp4,1,0,0,0,0,0,1,1,1,,,,,,,,,,,,,489.2242847000002,489.2242847000002,None,,489.2242847000002,,490.2964393000002,490.2964393000002,490.2964393000002,490.2964393000002,492.3324523000001,c,492.3324523000001,492.3324523000001,492.3324523000001,492.3324523000001,492.3324523000001,492.3324523000001,492.3324523000001,492.3324523000001,None,None,None,489.2242847000002,489.2242847000002,0.8888924000000316,,,,,,,,,,,,,,,,,,,,1,001,2024-05-24_13h55.46.357,robot_nback_sign,2022.2.5,60.01514782331876,
T,False,1,letter,2,False,False,robot_stimuli\\filler.mp4,1,0,0,0,0,0,2,2,2,,,,,,,,,,,,,492.3324523000001,492.3324523000001,None,,492.3324523000001,493.40306280000004,493.40306280000004,493.40306280000004,493.40306280000004,493.40306280000004,495.6413057,n,495.6413057,495.6413057,495.6413057,495.6413057,495.6413057,495.6413057,495.6413057,495.6413057,None,None,None,492.3324523000001,492.3324523000001,1.295361599999751,,,,,,,,,,,,,,,,,,,,1,001,2024-05-24_13h55.46.357,robot_nback_sign,2022.2.5,60.01514782331876,
S,False,1,letter,2,False,False,robot_stimuli\\filler.mp4,1,0,0,0,0,0,3,3,3,,,,,,,,,,,,,495.6413057,495.6413057,None,,495.6413057,496.71774289999985,496.71774289999985,496.71774289999985,496.71774289999985,496.71774289999985,498.94522099999995,n,498.94522099999995,498.94522099999995,498.94522099999995,498.94522099999995,498.94522099999995,498.94522099999995,498.94522099999995,498.94522099999995,None,None,None,495.6413057,495.6413057,0.7227549999995517,,,,,,,,,,,,,,,,,,,,1,001,2024-05-24_13h55.46.357,robot_nback_sign,2022.2.5,60.01514782331876,
C,False,1,letter,2,False,False,robot_stimuli\\filler.mp4,1,0,0,0,0,0,4,4,4,,,,,,,,,,,,,498.94522099999995,498.94522099999995,None,,498.94522099999995,500.02185710000003,500.02185710000003,500.02185710000003,500.02185710000003,500.02185710000003,502.0589043,n,502.0589043,502.0589043,502.0589043,502.0589043,502.0589043,502.0589043,502.0589043,502.0589043,None,None,None,498.94522099999995,498.94522099999995,1.2755987000002733,,,,,,,,,,,,,,,,,,,,1,001,2024-05-24_13h55.46.357,robot_nback_sign,2022.2.5,60.01514782331876,
C,True,1,letter,2,False,False,robot_stimuli\\filler.mp4,1,0,0,0,0,0,5,5,5,,,,,,,,,,,,,502.0589043,502.0589043,None,,502.0589043,503.12960209999983,503.12960209999983,503.12960209999983,503.12960209999983,503.12960209999983,505.1659211000001,c,505.1659211000001,505.1659211000001,505.1659211000001,505.1659211000001,505.1659211000001,505.1659211000001,505.1659211000001,505.1659211000001,None,None,None,502.0589043,502.0589043,0.5441978999999719,,,,,,,,,,,,,,,,,,,,1,001,2024-05-24_13h55.46.357,robot_nback_sign,2022.2.5,60.01514782331876,
C,True,1,letter,2,False,False,robot_stimuli\\filler.mp4,1,0,0,0,0,0,6,6,6,,,,,,,,,,,,,505.1659211000001,505.1659211000001,None,,505.1659211000001,506.22984110000016,506.22984110000016,506.22984110000016,506.22984110000016,506.22984110000016,508.25667090000024,c,508.25667090000024,508.25667090000024,508.25667090000024,508.25667090000024,508.25667090000024,508.25667090000024,508.25667090000024,508.25667090000024,None,None,None,505.1659211000001,505.1659211000001,0.5635477999996965,,,,,,,,,,,,,,,,,,,,1,001,2024-05-24_13h55.46.357,robot_nback_sign,2022.2.5,60.01514782331876,
N,False,1,letter,2,False,False,robot_stimuli\\filler.mp4,1,0,0,0,0,0,7,7,7,,,,,,,,,,,,,508.25667090000024,508.25667090000024,None,,508.25667090000024,509.337082,509.337082,509.337082,509.337082,509.337082,511.56930330000023,n,511.56930330000023,511.56930330000023,511.56930330000023,511.56930330000023,511.56930330000023,511.56930330000023,511.56930330000023,511.56930330000023,None,None,None,508.25667090000024,508.25667090000024,0.4727440999997725,,,,,,,,,,,,,,,,,,,,1,001,2024-05-24_13h55.46.357,robot_nback_sign,2022.2.5,60.01514782331876,
M,False,1,letter,2,False,True,robot_stimuli\\filler.mp4,1,0,0,0,0,0,8,8,8,,,,,,,,,,,,,511.56930330000023,511.56930330000023,None,,511.56930330000023,,512.6494388000001,512.6494388000001,512.6494388000001,512.6494388000001,514.7419737999999,n,514.7419737999999,531.1499029000001,514.7419737999999,531.1499029000001,514.7419737999999,531.1499029000001,514.7419737999999,531.1499029000001,2.9938271604938227,12.482091699999728,space,511.56930330000023,511.56930330000023,0.9354869000001145,16.339775400000008,,,,,,,,,,,,,,,,,,,1,001,2024-05-24_13h55.46.357,robot_nback_sign,2022.2.5,60.01514782331876,
Z,False,2,letter,2,True,False,robot_stimuli\\filler.mp4,1,0,0,0,0,0,9,9,9,,,,,,,,,,,,,531.1499029000001,531.1499029000001,space,8.48412809999968,539.6663794000001,540.7391396000003,540.7391396000003,540.7391396000003,540.7391396000003,540.7391396000003,542.9648488000003,n,542.9648488000003,542.9648488000003,542.9648488000003,542.9648488000003,542.9648488000003,542.9648488000003,542.9648488000003,542.9648488000003,None,None,None,,,0.46203940000009425,,,,,,,,,,,,,,,,,,,,1,001,2024-05-24_13h55.46.357,robot_nback_sign,2022.2.5,60.01514782331876,
H,False,2,letter,2,False,False,robot_stimuli\\filler.mp4,1,0,0,0,0,0,10,10,10,,,,,,,,,,,,,542.9648488000003,542.9648488000003,None,,542.9648488000003,544.034032,544.034032,544.034032,544.034032,544.034032,546.0693783000002,n,546.0693783000002,546.0693783000002,546.0693783000002,546.0693783000002,546.0693783000002,546.0693783000002,546.0693783000002,546.0693783000002,None,None,None,542.9648488000003,542.9648488000003,0.48702479999997195,,,,,,,,,,,,,,,,,,,,1,001,2024-05-24_13h55.46.357,robot_nback_sign,2022.2.5,60.01514782331876,
V,False,2,letter,2,False,False,robot_stimuli\\filler.mp4,1,0,0,0,0,0,11,11,11,,,,,,,,,,,,,546.0693783000002,546.0693783000002,None,,546.0693783000002,,547.1523580000003,547.1523580000003,547.1523580000003,547.1523580000003,549.3835399,n,549.3835399,549.3835399,549.3835399,549.3835399,549.3835399,549.3835399,549.3835399,549.3835399,None,None,None,546.0693783000002,546.0693783000002,0.7280797999999322,,,,,,,,,,,,,,,,,,,,1,001,2024-05-24_13h55.46.357,robot_nback_sign,2022.2.5,60.01514782331876,
H,True,2,letter,2,False,False,robot_stimuli\\filler.mp4,1,0,0,0,0,0,12,12,12,,,,,,,,,,,,,549.3835399,549.3835399,None,,549.3835399,550.4532096000003,550.4532096000003,550.4532096000003,550.4532096000003,550.4532096000003,552.6864949000001,c,552.6864949000001,552.6864949000001,552.6864949000001,552.6864949000001,552.6864949000001,552.6864949000001,552.6864949000001,552.6864949000001,None,None,None,549.3835399,549.3835399,0.5082986999998411,,,,,,,,,,,,,,,,,,,,1,001,2024-05-24_13h55.46.357,robot_nback_sign,2022.2.5,60.01514782331876,
Z,False,2,letter,2,False,False,robot_stimuli\\filler.mp4,1,0,0,0,0,0,13,13,13,,,,,,,,,,,,,552.6864949000001,552.6864949000001,None,,552.6864949000001,553.7649168000003,553.7649168000003,553.7649168000003,553.7649168000003,553.7649168000003,555.7981450000002,n,555.7981450000002,555.7981450000002,555.7981450000002,555.7981450000002,555.7981450000002,555.7981450000002,555.7981450000002,555.7981450000002,None,None,None,552.6864949000001,552.6864949000001,0.8769362999998975,,,,,,,,,,,,,,,,,,,,1,001,2024-05-24_13h55.46.357,robot_nback_sign,2022.2.5,60.01514782331876,
H,True,2,letter,2,False,False,robot_stimuli\\filler.mp4,1,0,0,0,0,0,14,14,14,,,,,,,,,,,,,555.7981450000002,555.7981450000002,None,,555.7981450000002,556.8653964,556.8653964,556.8653964,556.8653964,556.8653964,558.8974871,c,558.8974871,558.8974871,558.8974871,558.8974871,558.8974871,558.8974871,558.8974871,558.8974871,None,None,None,555.7981450000002,555.7981450000002,0.5031569000000218,,,,,,,,,,,,,,,,,,,,1,001,2024-05-24_13h55.46.357,robot_nback_sign,2022.2.5,60.01514782331876,
G,False,2,letter,2,False,False,robot_stimuli\\filler.mp4,1,0,0,0,0,0,15,15,15,,,,,,,,,,,,,558.8974871,558.8974871,None,,558.8974871,559.9650729,559.9650729,559.9650729,559.9650729,559.9650729,561.9946328999999,n,561.9946328999999,561.9946328999999,561.9946328999999,561.9946328999999,561.9946328999999,561.9946328999999,561.9946328999999,561.9946328999999,None,None,None,558.8974871,558.8974871,0.619215899999972,,,,,,,,,,,,,,,,,,,,1,001,2024-05-24_13h55.46.357,robot_nback_sign,2022.2.5,60.01514782331876,
Q,False,2,letter,2,False,False,robot_stimuli\\filler.mp4,1,0,0,0,0,0,16,16,16,,,,,,,,,,,,,561.9946328999999,561.9946328999999,None,,561.9946328999999,563.0673516000002,563.0673516000002,563.0673516000002,563.0673516000002,563.0673516000002,565.0968492000002,n,565.0968492000002,565.0968492000002,565.0968492000002,565.0968492000002,565.0968492000002,565.0968492000002,565.0968492000002,565.0968492000002,None,None,None,561.9946328999999,561.9946328999999,0.6460726999996496,,,,,,,,,,,,,,,,,,,,1,001,2024-05-24_13h55.46.357,robot_nback_sign,2022.2.5,60.01514782331876,
G,True,2,letter,2,False,True,robot_stimuli\\filler.mp4,1,0,0,0,0,0,17,17,17,,,,,,,,,,,,,565.0968492000002,565.0968492000002,None,,565.0968492000002,566.1638367999999,566.1638367999999,566.1638367999999,566.1638367999999,566.1638367999999,568.2356880000002,c,568.2356880000002,573.7062918000001,568.2356880000002,573.7062918000001,568.2356880000002,573.7062918000001,568.2356880000002,573.7062918000001,19.197530864197525,4.716555900000003,space,565.0968492000002,565.0968492000002,1.0848849000001337,5.398538799999869,,,,,,,,,,,,,,,,,,,1,001,2024-05-24_13h55.46.357,robot_nback_sign,2022.2.5,60.01514782331876,
M,False,3,letter,2,True,False,robot_stimuli\\filler.mp4,1,0,0,0,0,0,18,18,18,,,,,,,,,,,,,573.7062918000001,573.7062918000001,space,1.3981361999997262,575.1330109,576.2066905000001,576.2066905000001,576.2066905000001,576.2066905000001,576.2066905000001,578.4368364000002,n,578.4368364000002,578.4368364000002,578.4368364000002,578.4368364000002,578.4368364000002,578.4368364000002,578.4368364000002,578.4368364000002,None,None,None,,,1.265829000000167,,,,,,,,,,,,,,,,,,,,1,001,2024-05-24_13h55.46.357,robot_nback_sign,2022.2.5,60.01514782331876,
S,False,3,letter,2,False,False,robot_stimuli\\filler.mp4,1,0,0,0,0,0,19,19,19,,,,,,,,,,,,,578.4368364000002,578.4368364000002,None,,578.4368364000002,579.5155195000002,579.5155195000002,579.5155195000002,579.5155195000002,579.5155195000002,581.5467776,n,581.5467776,581.5467776,581.5467776,581.5467776,581.5467776,581.5467776,581.5467776,581.5467776,None,None,None,578.4368364000002,578.4368364000002,1.085854000000154,,,,,,,,,,,,,,,,,,,,1,001,2024-05-24_13h55.46.357,robot_nback_sign,2022.2.5,60.01514782331876,
K,False,3,letter,2,False,False,robot_stimuli\\filler.mp4,1,0,0,0,0,0,20,20,20,,,,,,,,,,,,,581.5467776,581.5467776,None,,581.5467776,582.6213386,582.6213386,582.6213386,582.6213386,582.6213386,584.6571113999998,n,584.6571113999998,584.6571113999998,584.6571113999998,584.6571113999998,584.6571113999998,584.6571113999998,584.6571113999998,584.6571113999998,None,None,None,581.5467776,581.5467776,0.43659939999974995,,,,,,,,,,,,,,,,,,,,1,001,2024-05-24_13h55.46.357,robot_nback_sign,2022.2.5,60.01514782331876,
M,True,3,letter,2,False,False,robot_stimuli\\filler.mp4,1,0,0,0,0,0,21,21,21,,,,,,,,,,,,,584.6571113999998,584.6571113999998,None,,584.6571113999998,585.7304723000002,585.7304723000002,585.7304723000002,585.7304723000002,585.7304723000002,587.7684371,c,587.7684371,587.7684371,587.7684371,587.7684371,587.7684371,587.7684371,587.7684371,587.7684371,None,None,None,584.6571113999998,584.6571113999998,0.49403959999995095,,,,,,,,,,,,,,,,,,,,1,001,2024-05-24_13h55.46.357,robot_nback_sign,2022.2.5,60.01514782331876,
D,False,3,letter,2,False,False,robot_stimuli\\filler.mp4,1,0,0,0,0,0,22,22,22,,,,,,,,,,,,,587.7684371,587.7684371,None,,587.7684371,,588.8484960000001,588.8484960000001,588.8484960000001,588.8484960000001,590.8794738000001,n,590.8794738000001,590.8794738000001,590.8794738000001,590.8794738000001,590.8794738000001,590.8794738000001,590.8794738000001,590.8794738000001,None,None,None,587.7684371,587.7684371,1.0891771999997673,,,,,,,,,,,,,,,,,,,,1,001,2024-05-24_13h55.46.357,robot_nback_sign,2022.2.5,60.01514782331876,
K,True,3,letter,2,False,False,robot_stimuli\\filler.mp4,1,0,0,0,0,0,23,23,23,,,,,,,,,,,,,590.8794738000001,590.8794738000001,None,,590.8794738000001,591.9469486000003,591.9469486000003,591.9469486000003,591.9469486000003,591.9469486000003,593.9737423000001,c,593.9737423000001,593.9737423000001,593.9737423000001,593.9737423000001,593.9737423000001,593.9737423000001,593.9737423000001,593.9737423000001,None,None,None,590.8794738000001,590.8794738000001,1.421576800000139,,,,,,,,,,,,,,,,,,,,1,001,2024-05-24_13h55.46.357,robot_nback_sign,2022.2.5,60.01514782331876,
R,False,3,letter,2,False,False,robot_stimuli\\filler.mp4,1,0,0,0,0,0,24,24,24,,,,,,,,,,,,,593.9737423000001,593.9737423000001,None,,593.9737423000001,595.0517012999999,595.0517012999999,595.0517012999999,595.0517012999999,595.0517012999999,597.2889043999999,n,597.2889043999999,597.2889043999999,597.2889043999999,597.2889043999999,597.2889043999999,597.2889043999999,597.2889043999999,597.2889043999999,None,None,None,593.9737423000001,593.9737423000001,1.3012166999999408,,,,,,,,,,,,,,,,,,,,1,001,2024-05-24_13h55.46.357,robot_nback_sign,2022.2.5,60.01514782331876,
F,False,3,letter,2,False,False,robot_stimuli\\filler.mp4,1,0,0,0,0,0,25,25,25,,,,,,,,,,,,,597.2889043999999,597.2889043999999,None,,597.2889043999999,598.3700131,598.3700131,598.3700131,598.3700131,598.3700131,600.6091044,n,600.6091044,600.6091044,600.6091044,600.6091044,600.6091044,600.6091044,600.6091044,600.6091044,None,None,None,597.2889043999999,597.2889043999999,0.9903377999996792,,,,,,,,,,,,,,,,,,,,1,001,2024-05-24_13h55.46.357,robot_nback_sign,2022.2.5,60.01514782331876,
K,True,3,letter,2,False,True,robot_stimuli\\filler.mp4,1,0,0,0,0,0,26,26,26,,,,,,,,,,,,,600.6091044,600.6091044,None,,600.6091044,601.6817040000001,601.6817040000001,601.6817040000001,601.6817040000001,601.6817040000001,603.7416622999999,c,603.7416622999999,608.9031644000002,603.7416622999999,608.9031644000002,603.7416622999999,608.9031644000002,603.7416622999999,608.9031644000002,46.358024691358025,3.6883818000001156,space,600.6091044,600.6091044,1.3442671999998765,5.107182899999998,,,,,,,,,,,,,,,,,,,1,001,2024-05-24_13h55.46.357,robot_nback_sign,2022.2.5,60.01514782331876,
R_Arm_Y_Back,False,1,robot,1,True,False,robot_stimuli\R_Arm_Y_Back.mp4,1,0,0,0,0,0,27,27,27,,,,,,,,,,,,,608.9031644000002,608.9031644000002,space,1.96982230000026,610.8998087999998,612.0184887,,612.0184887,612.0184887,612.0184887,,n,615.6488978000002,615.6488978000002,615.6488978000002,615.6488978000002,615.6488978000002,615.6488978000002,615.6488978000002,615.6488978000002,None,None,None,,,2.982484699999759,,612.0184887,,,,,,,,,,,,,,,,,,1,001,2024-05-24_13h55.46.357,robot_nback_sign,2022.2.5,60.01514782331876,
L_Torso_Z_For,False,1,robot,1,False,False,robot_stimuli\L_Torso_Z_For.mp4,1,0,0,0,0,0,28,28,28,,,,,,,,,,,,,615.6488978000002,615.6488978000002,None,,615.6488978000002,616.7482850000001,,616.7482850000001,616.7482850000001,616.7482850000001,,n,620.4009151,620.4009151,620.4009151,620.4009151,620.4009151,620.4009151,620.4009151,620.4009151,None,None,None,615.6488978000002,615.6488978000002,3.101131199999827,,616.7482850000001,,,,,,,,,,,,,,,,,,1,001,2024-05-24_13h55.46.357,robot_nback_sign,2022.2.5,60.01514782331876,
R_Base_X_For,False,1,robot,1,False,False,robot_stimuli\R_Base_X_For.mp4,1,0,0,0,0,0,29,29,29,,,,,,,,,,,,,620.4009151,620.4009151,None,,620.4009151,,,621.5133401000003,621.5133401000003,621.5133401000003,,n,625.1680765000001,625.1680765000001,625.1680765000001,625.1680765000001,625.1680765000001,625.1680765000001,625.1680765000001,625.1680765000001,None,None,None,620.4009151,620.4009151,2.383319700000129,,621.5133401000003,,,,,,,,,,,,,,,,,,1,001,2024-05-24_13h55.46.357,robot_nback_sign,2022.2.5,60.01514782331876,
R_Base_X_For,True,1,robot,1,False,False,robot_stimuli\R_Base_X_For.mp4,1,0,0,0,0,0,30,30,30,,,,,,,,,,,,,625.1680765000001,625.1680765000001,None,,625.1680765000001,,,626.2746654000002,626.2746654000002,626.2746654000002,,c,629.9179525,629.9179525,629.9179525,629.9179525,629.9179525,629.9179525,629.9179525,629.9179525,None,None,None,625.1680765000001,625.1680765000001,1.6458534000000782,,626.2746654000002,,,,,,,,,,,,,,,,,,1,001,2024-05-24_13h55.46.357,robot_nback_sign,2022.2.5,60.01514782331876,
R_Base_X_For,True,1,robot,1,False,False,robot_stimuli\R_Base_X_For.mp4,1,0,0,0,0,0,31,31,31,,,,,,,,,,,,,629.9179525,629.9179525,None,,629.9179525,,,631.0243743000001,631.0243743000001,631.0243743000001,,c,634.6638799000002,634.6638799000002,634.6638799000002,634.6638799000002,634.6638799000002,634.6638799000002,634.6638799000002,634.6638799000002,None,None,None,629.9179525,629.9179525,1.7282643999999436,,631.0243743000001,,,,,,,,,,,,,,,,,,1,001,2024-05-24_13h55.46.357,robot_nback_sign,2022.2.5,60.01514782331876,
R_Torso_Z_Back,False,1,robot,1,False,False,robot_stimuli\R_Torso_Z_Back.mp4,1,0,0,0,0,0,32,32,32,,,,,,,,,,,,,634.6638799000002,634.6638799000002,None,,634.6638799000002,635.7507931999999,,635.7507931999999,635.7507931999999,635.7507931999999,,n,639.4023551,639.4023551,639.4023551,639.4023551,639.4023551,639.4023551,639.4023551,639.4023551,None,None,None,634.6638799000002,634.6638799000002,2.5228410000001986,,635.7507931999999,,,,,,,,,,,,,,,,,,1,001,2024-05-24_13h55.46.357,robot_nback_sign,2022.2.5,60.01514782331876,
R_Torso_Z_Back,True,1,robot,1,False,False,robot_stimuli\R_Torso_Z_Back.mp4,1,0,0,0,0,0,33,33,33,,,,,,,,,,,,,639.4023551,639.4023551,None,,639.4023551,,,640.5065496000002,640.5065496000002,640.5065496000002,,n,644.1453704,644.1453704,644.1453704,644.1453704,644.1453704,644.1453704,644.1453704,644.1453704,None,None,None,639.4023551,639.4023551,2.7112139999997,,640.5065496000002,,,,,,,,,,,,,,,,,,1,001,2024-05-24_13h55.46.357,robot_nback_sign,2022.2.5,60.01514782331876,
R_Torso_X_Back,False,1,robot,1,False,False,robot_stimuli\R_Torso_X_Back.mp4,1,0,0,0,0,0,34,34,34,,,,,,,,,,,,,644.1453704,644.1453704,None,,644.1453704,645.2343690000002,,645.2343690000002,645.2343690000002,645.2343690000002,,n,648.8790690000001,648.8790690000001,648.8790690000001,648.8790690000001,648.8790690000001,648.8790690000001,648.8790690000001,648.8790690000001,None,None,None,644.1453704,644.1453704,2.1752239999998437,,645.2343690000002,,,,,,,,,,,,,,,,,,1,001,2024-05-24_13h55.46.357,robot_nback_sign,2022.2.5,60.01514782331876,
L_Head_Y_For,False,1,robot,1,False,True,robot_stimuli\L_Head_Y_For.mp4,1,0,0,0,0,0,35,35,35,,,,,,,,,,,,,648.8790690000001,648.8790690000001,None,,648.8790690000001,649.9793342000003,,649.9793342000003,649.9793342000003,649.9793342000003,,n,653.6628869000001,656.5825166,653.6628869000001,656.5825166,653.6628869000001,656.5825166,653.6628869000001,656.5825166,6.85185185185185,2.3204257000002144,space,648.8790690000001,648.8790690000001,1.1980759999999009,2.8736731999999847,649.9793342000003,,,,,,,,,,,,,,,,,,1,001,2024-05-24_13h55.46.357,robot_nback_sign,2022.2.5,60.01514782331876,
R_Base_Z_For,False,2,robot,1,True,False,robot_stimuli\R_Base_Z_For.mp4,1,0,0,0,0,0,36,36,36,,,,,,,,,,,,,656.5825166,656.5825166,space,1.4830672000000504,658.0831076,659.1663162,,659.1663162,659.1663162,659.1663162,,n,662.8141541999998,662.8141541999998,662.8141541999998,662.8141541999998,662.8141541999998,662.8141541999998,662.8141541999998,662.8141541999998,None,None,None,,,2.2581892999999127,,659.1663162,,,,,,,,,,,,,,,,,,1,001,2024-05-24_13h55.46.357,robot_nback_sign,2022.2.5,60.01514782331876,
L_Torso_Y_For,False,2,robot,1,False,False,robot_stimuli\L_Torso_Y_For.mp4,1,0,0,0,0,0,37,37,37,,,,,,,,,,,,,662.8141541999998,662.8141541999998,None,,662.8141541999998,663.9010090000002,,663.9010090000002,663.9010090000002,663.9010090000002,,n,667.5531663000002,667.5531663000002,667.5531663000002,667.5531663000002,667.5531663000002,667.5531663000002,667.5531663000002,667.5531663000002,None,None,None,662.8141541999998,662.8141541999998,0.9407850999998573,,663.9010090000002,,,,,,,,,,,,,,,,,,1,001,2024-05-24_13h55.46.357,robot_nback_sign,2022.2.5,60.01514782331876,
L_Head_Y_Back,False,2,robot,1,False,False,robot_stimuli\L_Head_Y_Back.mp4,1,0,0,0,0,0,38,38,38,,,,,,,,,,,,,667.5531663000002,667.5531663000002,None,,667.5531663000002,,,668.6605697999998,668.6605697999998,668.6605697999998,,n,672.2930295000001,672.2930295000001,672.2930295000001,672.2930295000001,672.2930295000001,672.2930295000001,672.2930295000001,672.2930295000001,None,None,None,667.5531663000002,667.5531663000002,1.2448282999996536,,668.6605697999998,,,,,,,,,,,,,,,,,,1,001,2024-05-24_13h55.46.357,robot_nback_sign,2022.2.5,60.01514782331876,
L_Torso_Y_For,True,2,robot,1,False,False,robot_stimuli\L_Torso_Y_For.mp4,1,0,0,0,0,0,39,39,39,,,,,,,,,,,,,672.2930295000001,672.2930295000001,None,,672.2930295000001,673.3929800000001,,673.3929800000001,673.3929800000001,673.3929800000001,,c,677.0330868000001,677.0330868000001,677.0330868000001,677.0330868000001,677.0330868000001,677.0330868000001,677.0330868000001,677.0330868000001,None,None,None,672.2930295000001,672.2930295000001,1.640084799999613,,673.3929800000001,,,,,,,,,,,,,,,,,,1,001,2024-05-24_13h55.46.357,robot_nback_sign,2022.2.5,60.01514782331876,
L_Head_Y_Back,True,2,robot,1,False,False,robot_stimuli\L_Head_Y_Back.mp4,1,0,0,0,0,0,40,40,40,,,,,,,,,,,,,677.0330868000001,677.0330868000001,None,,677.0330868000001,678.1166732000002,,678.1166732000002,678.1166732000002,678.1166732000002,,c,681.7694557999998,681.7694557999998,681.7694557999998,681.7694557999998,681.7694557999998,681.7694557999998,681.7694557999998,681.7694557999998,None,None,None,677.0330868000001,677.0330868000001,1.5571803999998792,,678.1166732000002,,,,,,,,,,,,,,,,,,1,001,2024-05-24_13h55.46.357,robot_nback_sign,2022.2.5,60.01514782331876,
R_Head_Y_For,False,2,robot,1,False,False,robot_stimuli\R_Head_Y_For.mp4,1,0,0,0,0,0,41,41,41,,,,,,,,,,,,,681.7694557999998,681.7694557999998,None,,681.7694557999998,,,682.8766608000001,682.8766608000001,682.8766608000001,,n,686.5172716000002,686.5172716000002,686.5172716000002,686.5172716000002,686.5172716000002,686.5172716000002,686.5172716000002,686.5172716000002,None,None,None,681.7694557999998,681.7694557999998,1.3577579000000242,,682.8766608000001,,,,,,,,,,,,,,,,,,1,001,2024-05-24_13h55.46.357,robot_nback_sign,2022.2.5,60.01514782331876,
L_Head_Y_Back,True,2,robot,1,False,False,robot_stimuli\L_Head_Y_Back.mp4,1,0,0,0,0,0,42,42,42,,,,,,,,,,,,,686.5172716000002,686.5172716000002,None,,686.5172716000002,687.6004447999999,,687.6004447999999,687.6004447999999,687.6004447999999,,c,691.2498519000001,691.2498519000001,691.2498519000001,691.2498519000001,691.2498519000001,691.2498519000001,691.2498519000001,691.2498519000001,None,None,None,686.5172716000002,686.5172716000002,1.4886447000001226,,687.6004447999999,,,,,,,,,,,,,,,,,,1,001,2024-05-24_13h55.46.357,robot_nback_sign,2022.2.5,60.01514782331876,
R_Base_Z_For,False,2,robot,1,False,False,robot_stimuli\R_Base_Z_For.mp4,1,0,0,0,0,0,43,43,43,,,,,,,,,,,,,691.2498519000001,691.2498519000001,None,,691.2498519000001,692.3445915000002,,692.3445915000002,692.3445915000002,692.3445915000002,,n,695.9854347999999,695.9854347999999,695.9854347999999,695.9854347999999,695.9854347999999,695.9854347999999,695.9854347999999,695.9854347999999,None,None,None,691.2498519000001,691.2498519000001,1.8486256999997295,,692.3445915000002,,,,,,,,,,,,,,,,,,1,001,2024-05-24_13h55.46.357,robot_nback_sign,2022.2.5,60.01514782331876,
R_Base_X_Back,False,2,robot,1,False,True,robot_stimuli\R_Base_X_Back.mp4,1,0,0,0,0,0,44,44,44,,,,,,,,,,,,,695.9854347999999,695.9854347999999,None,,695.9854347999999,,,697.0942174000002,697.0942174000002,697.0942174000002,,n,700.7636364999998,705.307241,700.7636364999998,705.307241,700.7636364999998,705.307241,700.7636364999998,705.307241,36.48148148148148,4.155454799999916,space,695.9854347999999,695.9854347999999,1.8838822999998683,4.47733809999977,697.0942174000002,,,,,,,,,,,,,,,,,,1,001,2024-05-24_13h55.46.357,robot_nback_sign,2022.2.5,60.01514782331876,
R_Base_Y_For,False,3,robot,1,True,False,robot_stimuli\R_Base_Y_For.mp4,1,0,0,0,0,0,45,45,45,,,,,,,,,,,,,705.307241,705.307241,space,2.5417884999999387,707.8665746000001,708.9522857000002,,708.9522857000002,708.9522857000002,708.9522857000002,,n,712.5996998,712.5996998,712.5996998,712.5996998,712.5996998,712.5996998,712.5996998,712.5996998,None,None,None,,,2.7620429999999487,,708.9522857000002,,,,,,,,,,,,,,,,,,1,001,2024-05-24_13h55.46.357,robot_nback_sign,2022.2.5,60.01514782331876,
L_Torso_Z_Back,False,3,robot,1,False,False,robot_stimuli\L_Torso_Z_Back.mp4,1,0,0,0,0,0,46,46,46,,,,,,,,,,,,,712.5996998,712.5996998,None,,712.5996998,713.6836400000002,,713.6836400000002,713.6836400000002,713.6836400000002,,n,717.3267221000001,717.3267221000001,717.3267221000001,717.3267221000001,717.3267221000001,717.3267221000001,717.3267221000001,717.3267221000001,None,None,None,712.5996998,712.5996998,1.0783171999999013,,713.6836400000002,,,,,,,,,,,,,,,,,,1,001,2024-05-24_13h55.46.357,robot_nback_sign,2022.2.5,60.01514782331876,
R_Torso_Z_Back,False,3,robot,1,False,False,robot_stimuli\R_Torso_Z_Back.mp4,1,0,0,0,0,0,47,47,47,,,,,,,,,,,,,717.3267221000001,717.3267221000001,None,,717.3267221000001,718.4161764,,718.4161764,718.4161764,718.4161764,,n,722.0686134000002,722.0686134000002,722.0686134000002,722.0686134000002,722.0686134000002,722.0686134000002,722.0686134000002,722.0686134000002,None,None,None,717.3267221000001,717.3267221000001,2.2407768000000488,,718.4161764,,,,,,,,,,,,,,,,,,1,001,2024-05-24_13h55.46.357,robot_nback_sign,2022.2.5,60.01514782331876,
R_Base_Y_For,True,3,robot,1,False,False,robot_stimuli\R_Base_Y_For.mp4,1,0,0,0,0,0,48,48,48,,,,,,,,,,,,,722.0686134000002,722.0686134000002,None,,722.0686134000002,,,723.1785066000002,723.1785066000002,723.1785066000002,,c,726.8124523000001,726.8124523000001,726.8124523000001,726.8124523000001,726.8124523000001,726.8124523000001,726.8124523000001,726.8124523000001,None,None,None,722.0686134000002,722.0686134000002,1.5514709000001403,,723.1785066000002,,,,,,,,,,,,,,,,,,1,001,2024-05-24_13h55.46.357,robot_nback_sign,2022.2.5,60.01514782331876,
R_Arm_Z_Back,False,3,robot,1,False,False,robot_stimuli\R_Arm_Z_Back.mp4,1,0,0,0,0,0,49,49,49,,,,,,,,,,,,,726.8124523000001,726.8124523000001,None,,726.8124523000001,727.9104995000002,,727.9104995000002,727.9104995000002,727.9104995000002,,n,731.5515805,731.5515805,731.5515805,731.5515805,731.5515805,731.5515805,731.5515805,731.5515805,None,None,None,726.8124523000001,726.8124523000001,1.3710352000000512,,727.9104995000002,,,,,,,,,,,,,,,,,,1,001,2024-05-24_13h55.46.357,robot_nback_sign,2022.2.5,60.01514782331876,
L_Base_Y_Back,False,3,robot,1,False,False,robot_stimuli\L_Base_Y_Back.mp4,1,0,0,0,0,0,50,50,50,,,,,,,,,,,,,731.5515805,731.5515805,None,,731.5515805,,,732.6489193000002,732.6489193000002,732.6489193000002,,n,736.3328323000001,736.3328323000001,736.3328323000001,736.3328323000001,736.3328323000001,736.3328323000001,736.3328323000001,736.3328323000001,None,None,None,731.5515805,731.5515805,2.73700679999979,,732.6489193000002,,,,,,,,,,,,,,,,,,1,001,2024-05-24_13h55.46.357,robot_nback_sign,2022.2.5,60.01514782331876,
L_Arm_Y_For,False,3,robot,1,False,False,robot_stimuli\L_Arm_Y_For.mp4,1,0,0,0,0,0,51,51,51,,,,,,,,,,,,,736.3328323000001,736.3328323000001,None,,736.3328323000001,737.4156714999999,,737.4156714999999,737.4156714999999,737.4156714999999,,n,741.0662063999998,741.0662063999998,741.0662063999998,741.0662063999998,741.0662063999998,741.0662063999998,741.0662063999998,741.0662063999998,None,None,None,736.3328323000001,736.3328323000001,2.1461753999999473,,737.4156714999999,,,,,,,,,,,,,,,,,,1,001,2024-05-24_13h55.46.357,robot_nback_sign,2022.2.5,60.01514782331876,
R_Arm_Z_Back,True,3,robot,1,False,False,robot_stimuli\R_Arm_Z_Back.mp4,1,0,0,0,0,0,52,52,52,,,,,,,,,,,,,741.0662063999998,741.0662063999998,None,,741.0662063999998,742.1476728000002,,742.1476728000002,742.1476728000002,742.1476728000002,,n,745.7996662,745.7996662,745.7996662,745.7996662,745.7996662,745.7996662,745.7996662,745.7996662,None,None,None,741.0662063999998,741.0662063999998,3.0539479999999912,,742.1476728000002,,,,,,,,,,,,,,,,,,1,001,2024-05-24_13h55.46.357,robot_nback_sign,2022.2.5,60.01514782331876,
L_Base_Y_Back,True,3,robot,1,False,True,robot_stimuli\L_Base_Y_Back.mp4,1,0,0,0,0,0,53,53,53,,,,,,,,,,,,,745.7996662,745.7996662,None,,745.7996662,746.8852115,,746.8852115,746.8852115,746.8852115,,c,750.5971038000002,753.6087450999999,750.5971038000002,753.6087450999999,750.5971038000002,753.6087450999999,750.5971038000002,753.6087450999999,51.75925925925927,1.8757424999998875,space,745.7996662,745.7996662,1.9808486999997967,2.939809599999762,746.8852115,,,,,,,,,,,,,,,,,,1,001,2024-05-24_13h55.46.357,robot_nback_sign,2022.2.5,60.01514782331876,
,,,,,,,,,0,0,0,0,,,,,,,,,,,,,,,,,,,,,,,,,,,,,,,,,,,,,,,,,,,,,753.6087450999999,753.6087450999999,753.6087450999999,c,2.039995399999725,,,,,,,,,,,,,1,001,2024-05-24_13h55.46.357,robot_nback_sign,2022.2.5,60.01514782331876,
L_Arm_Y_Back,False,3,robot,1,True,False,robot_stimuli\L_Arm_Y_Back.mp4,1,,,,,,,,,0,0,0,0,,,,,,,,,,,,,760.1336727000003,761.2184184000002,,,,,,,764.8665310000001,764.8665310000001,764.8665310000001,764.8665310000001,764.8665310000001,764.8665310000001,764.8665310000001,764.8665310000001,None,None,None,,,,,,,,,,,755.7165880000002,755.7165880000002,space,4.389311300000145,761.2184184000002,761.2184184000002,n,1.5580010999999558,,,,,1,001,2024-05-24_13h55.46.357,robot_nback_sign,2022.2.5,60.01514782331876,
R_Arm_Z_For,False,3,robot,1,False,False,robot_stimuli\R_Arm_Z_For.mp4,1,,,,,,,,,0,1,1,1,,,,,,,,,,,,,764.8665310000001,765.9488385,,,,,,,769.5982958,769.5982958,769.5982958,769.5982958,769.5982958,769.5982958,769.5982958,769.5982958,None,None,None,,,,,,,,,,,764.8665310000001,764.8665310000001,None,,765.9488385,765.9488385,n,1.6363963999999669,764.8665310000001,764.8665310000001,,,1,001,2024-05-24_13h55.46.357,robot_nback_sign,2022.2.5,60.01514782331876,
R_Torso_X_For,False,3,robot,1,False,False,robot_stimuli\R_Torso_X_For.mp4,1,,,,,,,,,0,2,2,2,,,,,,,,,,,,,769.5982958,770.6769807999999,,,,,,,774.3186583000002,774.3186583000002,774.3186583000002,774.3186583000002,774.3186583000002,774.3186583000002,774.3186583000002,774.3186583000002,None,None,None,,,,,,,,,,,769.5982958,769.5982958,None,,770.6769807999999,770.6769807999999,n,1.7635704000001624,769.5982958,769.5982958,,,1,001,2024-05-24_13h55.46.357,robot_nback_sign,2022.2.5,60.01514782331876,
L_Base_X_Back,False,3,robot,1,False,False,robot_stimuli\L_Base_X_Back.mp4,1,,,,,,,,,0,3,3,3,,,,,,,,,,,,,774.3186583000002,,,,,,,,779.0708205999999,779.0708205999999,779.0708205999999,779.0708205999999,779.0708205999999,779.0708205999999,779.0708205999999,779.0708205999999,None,None,None,,,,,,,,,,,774.3186583000002,774.3186583000002,None,,775.4154705000001,775.4154705000001,n,1.5615801999999803,774.3186583000002,774.3186583000002,,,1,001,2024-05-24_13h55.46.357,robot_nback_sign,2022.2.5,60.01514782331876,
R_Arm_Z_For,True,3,robot,1,False,False,robot_stimuli\R_Arm_Z_For.mp4,1,,,,,,,,,0,4,4,4,,,,,,,,,,,,,779.0708205999999,780.1760690000001,,,,,,,783.8162487,783.8162487,783.8162487,783.8162487,783.8162487,783.8162487,783.8162487,783.8162487,None,None,None,,,,,,,,,,,779.0708205999999,779.0708205999999,None,,780.1760690000001,780.1760690000001,c,1.8898630999999568,779.0708205999999,779.0708205999999,,,1,001,2024-05-24_13h55.46.357,robot_nback_sign,2022.2.5,60.01514782331876,
R_Torso_X_For,True,3,robot,1,False,False,robot_stimuli\R_Torso_X_For.mp4,1,,,,,,,,,0,5,5,5,,,,,,,,,,,,,783.8162487,784.9006451,,,,,,,788.5426213000001,788.5426213000001,788.5426213000001,788.5426213000001,788.5426213000001,788.5426213000001,788.5426213000001,788.5426213000001,None,None,None,,,,,,,,,,,783.8162487,783.8162487,None,,784.9006451,784.9006451,c,2.5170246000000134,783.8162487,783.8162487,,,1,001,2024-05-24_13h55.46.357,robot_nback_sign,2022.2.5,60.01514782331876,
L_Torso_Y_Back,False,3,robot,1,False,False,robot_stimuli\L_Torso_Y_Back.mp4,1,,,,,,,,,0,6,6,6,,,,,,,,,,,,,788.5426213000001,789.6288967999999,,,,,,,793.2790788000002,793.2790788000002,793.2790788000002,793.2790788000002,793.2790788000002,793.2790788000002,793.2790788000002,793.2790788000002,None,None,None,,,,,,,,,,,788.5426213000001,788.5426213000001,None,,789.6288967999999,789.6288967999999,n,2.357081100000187,788.5426213000001,788.5426213000001,,,1,001,2024-05-24_13h55.46.357,robot_nback_sign,2022.2.5,60.01514782331876,
L_Torso_Y_Back,False,3,robot,1,False,False,robot_stimuli\L_Torso_Y_Back.mp4,1,,,,,,,,,0,7,7,7,,,,,,,,,,,,,793.2790788000002,794.3582993,,,,,,,797.9985557,797.9985557,797.9985557,797.9985557,797.9985557,797.9985557,797.9985557,797.9985557,None,None,None,,,,,,,,,,,793.2790788000002,793.2790788000002,None,,794.3582993,794.3582993,n,1.9301465000000917,793.2790788000002,793.2790788000002,,,1,001,2024-05-24_13h55.46.357,robot_nback_sign,2022.2.5,60.01514782331876,
L_Head_Z_For,False,3,robot,1,False,False,robot_stimuli\L_Head_Z_For.mp4,1,,,,,,,,,0,8,8,8,,,,,,,,,,,,,797.9985557,799.0845478000001,,,,,,,802.7262578999998,802.7262578999998,802.7262578999998,802.7262578999998,802.7262578999998,802.7262578999998,802.7262578999998,802.7262578999998,None,None,None,,,,,,,,,,,797.9985557,797.9985557,None,,799.0845478000001,799.0845478000001,n,1.8054435999999896,797.9985557,797.9985557,,,1,001,2024-05-24_13h55.46.357,robot_nback_sign,2022.2.5,60.01514782331876,
L_Arm_Y_For,False,3,robot,1,False,False,robot_stimuli\L_Arm_Y_For.mp4,1,,,,,,,,,0,9,9,9,,,,,,,,,,,,,802.7262578999998,803.8113896,,,,,,,807.4430923,807.4430923,807.4430923,807.4430923,807.4430923,807.4430923,807.4430923,807.4430923,None,None,None,,,,,,,,,,,802.7262578999998,802.7262578999998,None,,803.8113896,803.8113896,n,1.4212512999999944,802.7262578999998,802.7262578999998,,,1,001,2024-05-24_13h55.46.357,robot_nback_sign,2022.2.5,60.01514782331876,
L_Torso_Y_Back,True,3,robot,1,False,False,robot_stimuli\L_Torso_Y_Back.mp4,1,,,,,,,,,0,10,10,10,,,,,,,,,,,,,807.4430923,808.5283205000001,,,,,,,812.1792485000001,812.1792485000001,812.1792485000001,812.1792485000001,812.1792485000001,812.1792485000001,812.1792485000001,812.1792485000001,None,None,None,,,,,,,,,,,807.4430923,807.4430923,None,,808.5283205000001,808.5283205000001,c,2.472796199999948,807.4430923,807.4430923,,,1,001,2024-05-24_13h55.46.357,robot_nback_sign,2022.2.5,60.01514782331876,
R_Base_X_Back,False,3,robot,1,False,False,robot_stimuli\R_Base_X_Back.mp4,1,,,,,,,,,0,11,11,11,,,,,,,,,,,,,812.1792485000001,813.2615147000001,,,,,,,816.912198,816.912198,816.912198,816.912198,816.912198,816.912198,816.912198,816.912198,None,None,None,,,,,,,,,,,812.1792485000001,812.1792485000001,None,,813.2615147000001,813.2615147000001,n,2.4363394999998036,812.1792485000001,812.1792485000001,,,1,001,2024-05-24_13h55.46.357,robot_nback_sign,2022.2.5,60.01514782331876,
L_Arm_Z_Back,False,3,robot,1,False,False,robot_stimuli\L_Arm_Z_Back.mp4,1,,,,,,,,,0,12,12,12,,,,,,,,,,,,,816.912198,817.9942813000002,,,,,,,821.6274861000002,821.6274861000002,821.6274861000002,821.6274861000002,821.6274861000002,821.6274861000002,821.6274861000002,821.6274861000002,None,None,None,,,,,,,,,,,816.912198,816.912198,None,,817.9942813000002,817.9942813000002,n,2.335695199999691,816.912198,816.912198,,,1,001,2024-05-24_13h55.46.357,robot_nback_sign,2022.2.5,60.01514782331876,
L_Torso_Y_Back,True,3,robot,1,False,False,robot_stimuli\L_Torso_Y_Back.mp4,1,,,,,,,,,0,13,13,13,,,,,,,,,,,,,821.6274861000002,822.7116114,,,,,,,826.3614785999998,826.3614785999998,826.3614785999998,826.3614785999998,826.3614785999998,826.3614785999998,826.3614785999998,826.3614785999998,None,None,None,,,,,,,,,,,821.6274861000002,821.6274861000002,None,,822.7116114,822.7116114,n,2.505787299999838,821.6274861000002,821.6274861000002,,,1,001,2024-05-24_13h55.46.357,robot_nback_sign,2022.2.5,60.01514782331876,
L_Head_Z_Back,False,3,robot,1,False,False,robot_stimuli\L_Head_Z_Back.mp4,1,,,,,,,,,0,14,14,14,,,,,,,,,,,,,826.3614785999998,827.4439768000002,,,,,,,831.0790087999999,831.0790087999999,831.0790087999999,831.0790087999999,831.0790087999999,831.0790087999999,831.0790087999999,831.0790087999999,None,None,None,,,,,,,,,,,826.3614785999998,826.3614785999998,None,,827.4439768000002,827.4439768000002,n,2.7408876999995755,826.3614785999998,826.3614785999998,,,1,001,2024-05-24_13h55.46.357,robot_nback_sign,2022.2.5,60.01514782331876,
L_Arm_Z_Back,True,3,robot,1,False,False,robot_stimuli\L_Arm_Z_Back.mp4,1,,,,,,,,,0,15,15,15,,,,,,,,,,,,,831.0790087999999,832.1758279999999,,,,,,,835.8154454999999,835.8154454999999,835.8154454999999,835.8154454999999,835.8154454999999,835.8154454999999,835.8154454999999,835.8154454999999,None,None,None,,,,,,,,,,,831.0790087999999,831.0790087999999,None,,832.1758279999999,832.1758279999999,c,2.1770183999999517,831.0790087999999,831.0790087999999,,,1,001,2024-05-24_13h55.46.357,robot_nback_sign,2022.2.5,60.01514782331876,
R_Base_Y_Back,False,3,robot,1,False,False,robot_stimuli\R_Base_Y_Back.mp4,1,,,,,,,,,0,16,16,16,,,,,,,,,,,,,835.8154454999999,836.8990153999998,,,,,,,840.5493428999998,840.5493428999998,840.5493428999998,840.5493428999998,840.5493428999998,840.5493428999998,840.5493428999998,840.5493428999998,None,None,None,,,,,,,,,,,835.8154454999999,835.8154454999999,None,,836.8990153999998,836.8990153999998,n,2.2216424000000643,835.8154454999999,835.8154454999999,,,1,001,2024-05-24_13h55.46.357,robot_nback_sign,2022.2.5,60.01514782331876,
R_Arm_Y_Back,False,3,robot,1,False,False,robot_stimuli\R_Arm_Y_Back.mp4,1,,,,,,,,,0,17,17,17,,,,,,,,,,,,,840.5493428999998,841.6265656999999,,,,,,,845.2650819,845.2650819,845.2650819,845.2650819,845.2650819,845.2650819,845.2650819,845.2650819,None,None,None,,,,,,,,,,,840.5493428999998,840.5493428999998,None,,841.6265656999999,841.6265656999999,n,2.759421500000144,840.5493428999998,840.5493428999998,,,1,001,2024-05-24_13h55.46.357,robot_nback_sign,2022.2.5,60.01514782331876,
R_Base_Z_For,False,3,robot,1,False,False,robot_stimuli\R_Base_Z_For.mp4,1,,,,,,,,,0,18,18,18,,,,,,,,,,,,,845.2650819,846.3453109000002,,,,,,,849.9965631,849.9965631,849.9965631,849.9965631,849.9965631,849.9965631,849.9965631,849.9965631,None,None,None,,,,,,,,,,,845.2650819,845.2650819,None,,846.3453109000002,846.3453109000002,n,3.352345500000183,845.2650819,845.2650819,,,1,001,2024-05-24_13h55.46.357,robot_nback_sign,2022.2.5,60.01514782331876,
R_Base_Z_Back,False,3,robot,1,False,False,robot_stimuli\R_Base_Z_Back.mp4,1,,,,,,,,,0,19,19,19,,,,,,,,,,,,,849.9965631,851.0794823000001,,,,,,,854.7278641000003,854.7278641000003,854.7278641000003,854.7278641000003,854.7278641000003,854.7278641000003,854.7278641000003,854.7278641000003,None,None,None,,,,,,,,,,,849.9965631,849.9965631,None,,851.0794823000001,851.0794823000001,n,2.6261745999997856,849.9965631,849.9965631,,,1,001,2024-05-24_13h55.46.357,robot_nback_sign,2022.2.5,60.01514782331876,
R_Torso_Y_For,False,3,robot,1,False,False,robot_stimuli\R_Torso_Y_For.mp4,1,,,,,,,,,0,20,20,20,,,,,,,,,,,,,854.7278641000003,855.8122668999999,,,,,,,859.4634446,859.4634446,859.4634446,859.4634446,859.4634446,859.4634446,859.4634446,859.4634446,None,None,None,,,,,,,,,,,854.7278641000003,854.7278641000003,None,,855.8122668999999,855.8122668999999,n,2.524036699999897,854.7278641000003,854.7278641000003,,,1,001,2024-05-24_13h55.46.357,robot_nback_sign,2022.2.5,60.01514782331876,
R_Head_X_For,False,3,robot,1,False,False,robot_stimuli\R_Head_X_For.mp4,1,,,,,,,,,0,21,21,21,,,,,,,,,,,,,859.4634446,860.5456168000001,,,,,,,864.1993283000002,864.1993283000002,864.1993283000002,864.1993283000002,864.1993283000002,864.1993283000002,864.1993283000002,864.1993283000002,None,None,None,,,,,,,,,,,859.4634446,859.4634446,None,,860.5456168000001,860.5456168000001,n,1.6727196999997886,859.4634446,859.4634446,,,1,001,2024-05-24_13h55.46.357,robot_nback_sign,2022.2.5,60.01514782331876,
L_Head_Y_Back,False,3,robot,1,False,False,robot_stimuli\L_Head_Y_Back.mp4,1,,,,,,,,,0,22,22,22,,,,,,,,,,,,,864.1993283000002,865.2779731999999,,,,,,,868.9279538999999,868.9279538999999,868.9279538999999,868.9279538999999,868.9279538999999,868.9279538999999,868.9279538999999,868.9279538999999,None,None,None,,,,,,,,,,,864.1993283000002,864.1993283000002,None,,865.2779731999999,865.2779731999999,n,2.0119156999996903,864.1993283000002,864.1993283000002,,,1,001,2024-05-24_13h55.46.357,robot_nback_sign,2022.2.5,60.01514782331876,
R_Torso_Y_For,True,3,robot,1,False,False,robot_stimuli\R_Torso_Y_For.mp4,1,,,,,,,,,0,23,23,23,,,,,,,,,,,,,868.9279538999999,870.0116809000001,,,,,,,873.6428123999999,873.6428123999999,873.6428123999999,873.6428123999999,873.6428123999999,873.6428123999999,873.6428123999999,873.6428123999999,None,None,None,,,,,,,,,,,868.9279538999999,868.9279538999999,None,,870.0116809000001,870.0116809000001,n,2.7419282999996994,868.9279538999999,868.9279538999999,,,1,001,2024-05-24_13h55.46.357,robot_nback_sign,2022.2.5,60.01514782331876,
R_Arm_Z_Back,False,3,robot,1,False,False,robot_stimuli\R_Arm_Z_Back.mp4,1,,,,,,,,,0,24,24,24,,,,,,,,,,,,,873.6428123999999,874.7282359000001,,,,,,,878.3591477,878.3591477,878.3591477,878.3591477,878.3591477,878.3591477,878.3591477,878.3591477,None,None,None,,,,,,,,,,,873.6428123999999,873.6428123999999,None,,874.7282359000001,874.7282359000001,n,1.3854088999999021,873.6428123999999,873.6428123999999,,,1,001,2024-05-24_13h55.46.357,robot_nback_sign,2022.2.5,60.01514782331876,
L_Torso_Z_Back,False,3,robot,1,False,False,robot_stimuli\L_Torso_Z_Back.mp4,1,,,,,,,,,0,25,25,25,,,,,,,,,,,,,878.3591477,879.4452999999999,,,,,,,883.0962312000001,883.0962312000001,883.0962312000001,883.0962312000001,883.0962312000001,883.0962312000001,883.0962312000001,883.0962312000001,None,None,None,,,,,,,,,,,878.3591477,878.3591477,None,,879.4452999999999,879.4452999999999,n,1.5567726000001585,878.3591477,878.3591477,,,1,001,2024-05-24_13h55.46.357,robot_nback_sign,2022.2.5,60.01514782331876,
R_Arm_X_Back,False,3,robot,1,False,False,robot_stimuli\R_Arm_X_Back.mp4,1,,,,,,,,,0,26,26,26,,,,,,,,,,,,,883.0962312000001,884.1779634,,,,,,,887.8125386000002,887.8125386000002,887.8125386000002,887.8125386000002,887.8125386000002,887.8125386000002,887.8125386000002,887.8125386000002,None,None,None,,,,,,,,,,,883.0962312000001,883.0962312000001,None,,884.1779634,884.1779634,n,2.838866100000132,883.0962312000001,883.0962312000001,,,1,001,2024-05-24_13h55.46.357,robot_nback_sign,2022.2.5,60.01514782331876,
R_Arm_Z_Back,True,3,robot,1,False,False,robot_stimuli\R_Arm_Z_Back.mp4,1,,,,,,,,,0,27,27,27,,,,,,,,,,,,,887.8125386000002,888.9097422999998,,,,,,,892.5408685000002,892.5408685000002,892.5408685000002,892.5408685000002,892.5408685000002,892.5408685000002,892.5408685000002,892.5408685000002,None,None,None,,,,,,,,,,,887.8125386000002,887.8125386000002,None,,888.9097422999998,888.9097422999998,c,2.0667504000000463,887.8125386000002,887.8125386000002,,,1,001,2024-05-24_13h55.46.357,robot_nback_sign,2022.2.5,60.01514782331876,
R_Arm_Z_For,False,3,robot,1,False,False,robot_stimuli\R_Arm_Z_For.mp4,1,,,,,,,,,0,28,28,28,,,,,,,,,,,,,892.5408685000002,893.6275429000002,,,,,,,897.2588727000002,897.2588727000002,897.2588727000002,897.2588727000002,897.2588727000002,897.2588727000002,897.2588727000002,897.2588727000002,None,None,None,,,,,,,,,,,892.5408685000002,892.5408685000002,None,,893.6275429000002,893.6275429000002,n,2.374155799999926,892.5408685000002,892.5408685000002,,,1,001,2024-05-24_13h55.46.357,robot_nback_sign,2022.2.5,60.01514782331876,
R_Torso_X_Back,False,3,robot,1,False,False,robot_stimuli\R_Torso_X_Back.mp4,1,,,,,,,,,0,29,29,29,,,,,,,,,,,,,897.2588727000002,898.3458979000002,,,,,,,901.9993564000001,901.9993564000001,901.9993564000001,901.9993564000001,901.9993564000001,901.9993564000001,901.9993564000001,901.9993564000001,None,None,None,,,,,,,,,,,897.2588727000002,897.2588727000002,None,,898.3458979000002,898.3458979000002,n,2.800510499999973,897.2588727000002,897.2588727000002,,,1,001,2024-05-24_13h55.46.357,robot_nback_sign,2022.2.5,60.01514782331876,
L_Base_Z_Back,False,3,robot,1,False,False,robot_stimuli\L_Base_Z_Back.mp4,1,,,,,,,,,0,30,30,30,,,,,,,,,,,,,901.9993564000001,903.0967406999998,,,,,,,906.7463791999999,906.7463791999999,906.7463791999999,906.7463791999999,906.7463791999999,906.7463791999999,906.7463791999999,906.7463791999999,None,None,None,,,,,,,,,,,901.9993564000001,901.9993564000001,None,,903.0967406999998,903.0967406999998,n,2.4656831999998303,901.9993564000001,901.9993564000001,,,1,001,2024-05-24_13h55.46.357,robot_nback_sign,2022.2.5,60.01514782331876,
R_Torso_X_Back,False,3,robot,1,False,False,robot_stimuli\R_Torso_X_Back.mp4,1,,,,,,,,,0,31,31,31,,,,,,,,,,,,,906.7463791999999,907.8286469,,,,,,,911.4791945000002,911.4791945000002,911.4791945000002,911.4791945000002,911.4791945000002,911.4791945000002,911.4791945000002,911.4791945000002,None,None,None,,,,,,,,,,,906.7463791999999,906.7463791999999,None,,907.8286469,907.8286469,n,2.404672899999923,906.7463791999999,906.7463791999999,,,1,001,2024-05-24_13h55.46.357,robot_nback_sign,2022.2.5,60.01514782331876,
R_Head_Z_Back,False,3,robot,1,False,False,robot_stimuli\R_Head_Z_Back.mp4,1,,,,,,,,,0,32,32,32,,,,,,,,,,,,,911.4791945000002,912.5619952000002,,,,,,,916.2114219,916.2114219,916.2114219,916.2114219,916.2114219,916.2114219,916.2114219,916.2114219,None,None,None,,,,,,,,,,,911.4791945000002,911.4791945000002,None,,912.5619952000002,912.5619952000002,n,1.6873347999996895,911.4791945000002,911.4791945000002,,,1,001,2024-05-24_13h55.46.357,robot_nback_sign,2022.2.5,60.01514782331876,
L_Base_Z_Back,True,3,robot,1,False,False,robot_stimuli\L_Base_Z_Back.mp4,1,,,,,,,,,0,33,33,33,,,,,,,,,,,,,916.2114219,917.2936333000002,,,,,,,920.9343431000002,920.9343431000002,920.9343431000002,920.9343431000002,920.9343431000002,920.9343431000002,920.9343431000002,920.9343431000002,None,None,None,,,,,,,,,,,916.2114219,916.2114219,None,,917.2936333000002,917.2936333000002,c,2.1881597999997666,916.2114219,916.2114219,,,1,001,2024-05-24_13h55.46.357,robot_nback_sign,2022.2.5,60.01514782331876,
R_Base_Z_For,False,3,robot,1,False,False,robot_stimuli\R_Base_Z_For.mp4,1,,,,,,,,,0,34,34,34,,,,,,,,,,,,,920.9343431000002,922.0109563999999,,,,,,,925.6416985999999,925.6416985999999,925.6416985999999,925.6416985999999,925.6416985999999,925.6416985999999,925.6416985999999,925.6416985999999,None,None,None,,,,,,,,,,,920.9343431000002,920.9343431000002,None,,922.0109563999999,922.0109563999999,c,2.893577399999913,920.9343431000002,920.9343431000002,,,1,001,2024-05-24_13h55.46.357,robot_nback_sign,2022.2.5,60.01514782331876,
L_Arm_X_Back,False,3,robot,1,False,False,robot_stimuli\L_Arm_X_Back.mp4,1,,,,,,,,,0,35,35,35,,,,,,,,,,,,,925.6416985999999,926.7279653999999,,,,,,,930.3592161000001,930.3592161000001,930.3592161000001,930.3592161000001,930.3592161000001,930.3592161000001,930.3592161000001,930.3592161000001,None,None,None,,,,,,,,,,,925.6416985999999,925.6416985999999,None,,926.7279653999999,926.7279653999999,n,1.986485600000151,925.6416985999999,925.6416985999999,,,1,001,2024-05-24_13h55.46.357,robot_nback_sign,2022.2.5,60.01514782331876,
R_Base_Z_Back,False,3,robot,1,False,False,robot_stimuli\R_Base_Z_Back.mp4,1,,,,,,,,,0,36,36,36,,,,,,,,,,,,,930.3592161000001,931.4455069,,,,,,,935.100109,935.100109,935.100109,935.100109,935.100109,935.100109,935.100109,935.100109,None,None,None,,,,,,,,,,,930.3592161000001,930.3592161000001,None,,931.4455069,931.4455069,n,2.667827999999872,930.3592161000001,930.3592161000001,,,1,001,2024-05-24_13h55.46.357,robot_nback_sign,2022.2.5,60.01514782331876,
L_Head_Y_Back,False,3,robot,1,False,False,robot_stimuli\L_Head_Y_Back.mp4,1,,,,,,,,,0,37,37,37,,,,,,,,,,,,,935.100109,936.1943805000001,,,,,,,939.8341620000001,939.8341620000001,939.8341620000001,939.8341620000001,939.8341620000001,939.8341620000001,939.8341620000001,939.8341620000001,None,None,None,,,,,,,,,,,935.100109,935.100109,None,,936.1943805000001,936.1943805000001,n,1.7822176999995918,935.100109,935.100109,,,1,001,2024-05-24_13h55.46.357,robot_nback_sign,2022.2.5,60.01514782331876,
R_Head_X_For,False,3,robot,1,False,False,robot_stimuli\R_Head_X_For.mp4,1,,,,,,,,,0,38,38,38,,,,,,,,,,,,,939.8341620000001,940.9108850000002,,,,,,,944.5452445999999,944.5452445999999,944.5452445999999,944.5452445999999,944.5452445999999,944.5452445999999,944.5452445999999,944.5452445999999,None,None,None,,,,,,,,,,,939.8341620000001,939.8341620000001,None,,940.9108850000002,940.9108850000002,n,1.7381653999998434,939.8341620000001,939.8341620000001,,,1,001,2024-05-24_13h55.46.357,robot_nback_sign,2022.2.5,60.01514782331876,
L_Base_Y_For,False,3,robot,1,False,False,robot_stimuli\L_Base_Y_For.mp4,1,,,,,,,,,0,39,39,39,,,,,,,,,,,,,944.5452445999999,945.6438148000002,,,,,,,949.2888332000002,949.2888332000002,949.2888332000002,949.2888332000002,949.2888332000002,949.2888332000002,949.2888332000002,949.2888332000002,None,None,None,,,,,,,,,,,944.5452445999999,944.5452445999999,None,,945.6438148000002,945.6438148000002,n,3.0140618999996605,944.5452445999999,944.5452445999999,,,1,001,2024-05-24_13h55.46.357,robot_nback_sign,2022.2.5,60.01514782331876,
R_Arm_Z_For,False,3,robot,1,False,False,robot_stimuli\R_Arm_Z_For.mp4,1,,,,,,,,,0,40,40,40,,,,,,,,,,,,,949.2888332000002,950.3940780000003,,,,,,,954.033394,954.033394,954.033394,954.033394,954.033394,954.033394,954.033394,954.033394,None,None,None,,,,,,,,,,,949.2888332000002,949.2888332000002,None,,950.3940780000003,950.3940780000003,n,2.926555899999812,949.2888332000002,949.2888332000002,,,1,001,2024-05-24_13h55.46.357,robot_nback_sign,2022.2.5,60.01514782331876,
R_Head_X_For,True,3,robot,1,False,False,robot_stimuli\R_Head_X_For.mp4,1,,,,,,,,,0,41,41,41,,,,,,,,,,,,,954.033394,955.1115468000003,,,,,,,958.7505345,958.7505345,958.7505345,958.7505345,958.7505345,958.7505345,958.7505345,958.7505345,None,None,None,,,,,,,,,,,954.033394,954.033394,None,,955.1115468000003,955.1115468000003,n,1.778612700000167,954.033394,954.033394,,,1,001,2024-05-24_13h55.46.357,robot_nback_sign,2022.2.5,60.01514782331876,
L_Base_Y_For,True,3,robot,1,False,False,robot_stimuli\L_Base_Y_For.mp4,1,,,,,,,,,0,42,42,42,,,,,,,,,,,,,958.7505345,959.8276964000001,,,,,,,963.4668115,963.4668115,963.4668115,963.4668115,963.4668115,963.4668115,963.4668115,963.4668115,None,None,None,,,,,,,,,,,958.7505345,958.7505345,None,,959.8276964000001,959.8276964000001,n,2.2861781999997675,958.7505345,958.7505345,,,1,001,2024-05-24_13h55.46.357,robot_nback_sign,2022.2.5,60.01514782331876,
R_Arm_Z_For,True,3,robot,1,False,False,robot_stimuli\R_Arm_Z_For.mp4,1,,,,,,,,,0,43,43,43,,,,,,,,,,,,,963.4668115,964.5455898999999,,,,,,,968.1980689000002,968.1980689000002,968.1980689000002,968.1980689000002,968.1980689000002,968.1980689000002,968.1980689000002,968.1980689000002,None,None,None,,,,,,,,,,,963.4668115,963.4668115,None,,964.5455898999999,964.5455898999999,n,3.0968138000000636,963.4668115,963.4668115,,,1,001,2024-05-24_13h55.46.357,robot_nback_sign,2022.2.5,60.01514782331876,
R_Arm_X_Back,False,3,robot,1,False,False,robot_stimuli\R_Arm_X_Back.mp4,1,,,,,,,,,0,44,44,44,,,,,,,,,,,,,968.1980689000002,969.2792699000001,,,,,,,972.9290021000002,972.9290021000002,972.9290021000002,972.9290021000002,972.9290021000002,972.9290021000002,972.9290021000002,972.9290021000002,None,None,None,,,,,,,,,,,968.1980689000002,968.1980689000002,None,,969.2792699000001,969.2792699000001,n,1.906530800000155,968.1980689000002,968.1980689000002,,,1,001,2024-05-24_13h55.46.357,robot_nback_sign,2022.2.5,60.01514782331876,
R_Arm_Z_Back,False,3,robot,1,False,False,robot_stimuli\R_Arm_Z_Back.mp4,1,,,,,,,,,0,45,45,45,,,,,,,,,,,,,972.9290021000002,974.01217,,,,,,,977.6638154000002,977.6638154000002,977.6638154000002,977.6638154000002,977.6638154000002,977.6638154000002,977.6638154000002,977.6638154000002,None,None,None,,,,,,,,,,,972.9290021000002,972.9290021000002,None,,974.01217,974.01217,n,2.933414899999889,972.9290021000002,972.9290021000002,,,1,001,2024-05-24_13h55.46.357,robot_nback_sign,2022.2.5,60.01514782331876,
L_Arm_Z_Back,False,3,robot,1,False,False,robot_stimuli\L_Arm_Z_Back.mp4,1,,,,,,,,,0,46,46,46,,,,,,,,,,,,,977.6638154000002,978.7443235999999,,,,,,,982.3746040000001,982.3746040000001,982.3746040000001,982.3746040000001,982.3746040000001,982.3746040000001,982.3746040000001,982.3746040000001,None,None,None,,,,,,,,,,,977.6638154000002,977.6638154000002,None,,978.7443235999999,978.7443235999999,n,1.7362018000001171,977.6638154000002,977.6638154000002,,,1,001,2024-05-24_13h55.46.357,robot_nback_sign,2022.2.5,60.01514782331876,
R_Base_Z_For,False,3,robot,1,False,False,robot_stimuli\R_Base_Z_For.mp4,1,,,,,,,,,0,47,47,47,,,,,,,,,,,,,982.3746040000001,983.4612001999999,,,,,,,987.1001503000002,987.1001503000002,987.1001503000002,987.1001503000002,987.1001503000002,987.1001503000002,987.1001503000002,987.1001503000002,None,None,None,,,,,,,,,,,982.3746040000001,982.3746040000001,None,,983.4612001999999,983.4612001999999,n,2.1794746999996732,982.3746040000001,982.3746040000001,,,1,001,2024-05-24_13h55.46.357,robot_nback_sign,2022.2.5,60.01514782331876,
R_Head_Z_Back,False,3,robot,1,False,False,robot_stimuli\R_Head_Z_Back.mp4,1,,,,,,,,,0,48,48,48,,,,,,,,,,,,,987.1001503000002,988.1786572000001,,,,,,,991.8279158,991.8279158,991.8279158,991.8279158,991.8279158,991.8279158,991.8279158,991.8279158,None,None,None,,,,,,,,,,,987.1001503000002,987.1001503000002,None,,988.1786572000001,988.1786572000001,n,2.0311049999997977,987.1001503000002,987.1001503000002,,,1,001,2024-05-24_13h55.46.357,robot_nback_sign,2022.2.5,60.01514782331876,
L_Base_Z_Back,False,3,robot,1,False,False,robot_stimuli\L_Base_Z_Back.mp4,1,,,,,,,,,0,49,49,49,,,,,,,,,,,,,991.8279158,992.9127085999999,,,,,,,996.563028,996.563028,996.563028,996.563028,996.563028,996.563028,996.563028,996.563028,None,None,None,,,,,,,,,,,991.8279158,991.8279158,None,,992.9127085999999,992.9127085999999,c,1.9050477999996929,991.8279158,991.8279158,,,1,001,2024-05-24_13h55.46.357,robot_nback_sign,2022.2.5,60.01514782331876,
R_Base_Z_For,True,3,robot,1,False,False,robot_stimuli\R_Base_Z_For.mp4,1,,,,,,,,,0,50,50,50,,,,,,,,,,,,,996.563028,997.6443973,,,,,,,1001.2846342000003,1001.2846342000003,1001.2846342000003,1001.2846342000003,1001.2846342000003,1001.2846342000003,1001.2846342000003,1001.2846342000003,None,None,None,,,,,,,,,,,996.563028,996.563028,None,,997.6443973,997.6443973,n,2.091996699999754,996.563028,996.563028,,,1,001,2024-05-24_13h55.46.357,robot_nback_sign,2022.2.5,60.01514782331876,
L_Arm_Y_Back,False,3,robot,1,False,False,robot_stimuli\L_Arm_Y_Back.mp4,1,,,,,,,,,0,51,51,51,,,,,,,,,,,,,1001.2846342000003,1002.3610738000002,,,,,,,1006.0001878000003,1006.0001878000003,1006.0001878000003,1006.0001878000003,1006.0001878000003,1006.0001878000003,1006.0001878000003,1006.0001878000003,None,None,None,,,,,,,,,,,1001.2846342000003,1001.2846342000003,None,,1002.3610738000002,1002.3610738000002,n,1.1051702000002024,1001.2846342000003,1001.2846342000003,,,1,001,2024-05-24_13h55.46.357,robot_nback_sign,2022.2.5,60.01514782331876,
L_Arm_Y_Back,False,3,robot,1,False,False,robot_stimuli\L_Arm_Y_Back.mp4,1,,,,,,,,,0,52,52,52,,,,,,,,,,,,,1006.0001878000003,1007.0761031000002,,,,,,,1010.7192045000002,1010.7192045000002,1010.7192045000002,1010.7192045000002,1010.7192045000002,1010.7192045000002,1010.7192045000002,1010.7192045000002,None,None,None,,,,,,,,,,,1006.0001878000003,1006.0001878000003,None,,1007.0761031000002,1007.0761031000002,n,1.638373499999716,1006.0001878000003,1006.0001878000003,,,1,001,2024-05-24_13h55.46.357,robot_nback_sign,2022.2.5,60.01514782331876,
R_Base_X_For,False,3,robot,1,False,False,robot_stimuli\R_Base_X_For.mp4,1,,,,,,,,,0,53,53,53,,,,,,,,,,,,,1010.7192045000002,,,,,,,,1015.4662208999998,1015.4662208999998,1015.4662208999998,1015.4662208999998,1015.4662208999998,1015.4662208999998,1015.4662208999998,1015.4662208999998,None,None,None,,,,,,,,,,,1010.7192045000002,1010.7192045000002,None,,1011.8252676000002,1011.8252676000002,c,2.6885469000001194,1010.7192045000002,1010.7192045000002,,,1,001,2024-05-24_13h55.46.357,robot_nback_sign,2022.2.5,60.01514782331876,
R_Torso_Y_Back,False,3,robot,1,False,False,robot_stimuli\R_Torso_Y_Back.mp4,1,,,,,,,,,0,54,54,54,,,,,,,,,,,,,1015.4662208999998,1016.5449063000001,,,,,,,1020.1753475999999,1020.1753475999999,1020.1753475999999,1020.1753475999999,1020.1753475999999,1020.1753475999999,1020.1753475999999,1020.1753475999999,None,None,None,,,,,,,,,,,1015.4662208999998,1015.4662208999998,None,,1016.5449063000001,1016.5449063000001,n,1.2076915999998619,1015.4662208999998,1015.4662208999998,,,1,001,2024-05-24_13h55.46.357,robot_nback_sign,2022.2.5,60.01514782331876,
R_Head_X_For,False,3,robot,1,False,False,robot_stimuli\R_Head_X_For.mp4,1,,,,,,,,,0,55,55,55,,,,,,,,,,,,,1020.1753475999999,1021.2623581000003,,,,,,,1024.9116609000002,1024.9116609000002,1024.9116609000002,1024.9116609000002,1024.9116609000002,1024.9116609000002,1024.9116609000002,1024.9116609000002,None,None,None,,,,,,,,,,,1020.1753475999999,1020.1753475999999,None,,1021.2623581000003,1021.2623581000003,n,1.6434815000000071,1020.1753475999999,1020.1753475999999,,,1,001,2024-05-24_13h55.46.357,robot_nback_sign,2022.2.5,60.01514782331876,
R_Torso_X_Back,False,3,robot,1,False,False,robot_stimuli\R_Torso_X_Back.mp4,1,,,,,,,,,0,56,56,56,,,,,,,,,,,,,1024.9116609000002,1025.9962902000002,,,,,,,1029.6457504999998,1029.6457504999998,1029.6457504999998,1029.6457504999998,1029.6457504999998,1029.6457504999998,1029.6457504999998,1029.6457504999998,None,None,None,,,,,,,,,,,1024.9116609000002,1024.9116609000002,None,,1025.9962902000002,1025.9962902000002,n,2.644266900000048,1024.9116609000002,1024.9116609000002,,,1,001,2024-05-24_13h55.46.357,robot_nback_sign,2022.2.5,60.01514782331876,
R_Base_Z_For,False,3,robot,1,False,False,robot_stimuli\R_Base_Z_For.mp4,1,,,,,,,,,0,57,57,57,,,,,,,,,,,,,1029.6457504999998,1030.7293289,,,,,,,1034.3574721999998,1034.3574721999998,1034.3574721999998,1034.3574721999998,1034.3574721999998,1034.3574721999998,1034.3574721999998,1034.3574721999998,None,None,None,,,,,,,,,,,1029.6457504999998,1029.6457504999998,None,,1030.7293289,1030.7293289,n,1.9446148999998059,1029.6457504999998,1029.6457504999998,,,1,001,2024-05-24_13h55.46.357,robot_nback_sign,2022.2.5,60.01514782331876,
R_Arm_Z_Back,False,3,robot,1,False,False,robot_stimuli\R_Arm_Z_Back.mp4,1,,,,,,,,,0,58,58,58,,,,,,,,,,,,,1034.3574721999998,1035.4461652999998,,,,,,,1039.0975743,1039.0975743,1039.0975743,1039.0975743,1039.0975743,1039.0975743,1039.0975743,1039.0975743,None,None,None,,,,,,,,,,,1034.3574721999998,1034.3574721999998,None,,1035.4461652999998,1035.4461652999998,n,1.483880199999703,1034.3574721999998,1034.3574721999998,,,1,001,2024-05-24_13h55.46.357,robot_nback_sign,2022.2.5,60.01514782331876,
L_Base_Z_For,False,3,robot,1,False,False,robot_stimuli\L_Base_Z_For.mp4,1,,,,,,,,,0,59,59,59,,,,,,,,,,,,,1039.0975743,1040.1774818,,,,,,,1043.8178943000003,1043.8178943000003,1043.8178943000003,1043.8178943000003,1043.8178943000003,1043.8178943000003,1043.8178943000003,1043.8178943000003,None,None,None,,,,,,,,,,,1039.0975743,1039.0975743,None,,1040.1774818,1040.1774818,n,2.399153399999932,1039.0975743,1039.0975743,,,1,001,2024-05-24_13h55.46.357,robot_nback_sign,2022.2.5,60.01514782331876,
L_Torso_Z_For,False,3,robot,1,False,False,robot_stimuli\L_Torso_Z_For.mp4,1,,,,,,,,,0,60,60,60,,,,,,,,,,,,,1043.8178943000003,1044.8956414,,,,,,,1048.5253797,1048.5253797,1048.5253797,1048.5253797,1048.5253797,1048.5253797,1048.5253797,1048.5253797,None,None,None,,,,,,,,,,,1043.8178943000003,1043.8178943000003,None,,1044.8956414,1044.8956414,n,2.3856623999997737,1043.8178943000003,1043.8178943000003,,,1,001,2024-05-24_13h55.46.357,robot_nback_sign,2022.2.5,60.01514782331876,
L_Torso_Y_For,False,3,robot,1,False,False,robot_stimuli\L_Torso_Y_For.mp4,1,,,,,,,,,0,61,61,61,,,,,,,,,,,,,1048.5253797,1049.6119287000001,,,,,,,1053.2655793,1053.2655793,1053.2655793,1053.2655793,1053.2655793,1053.2655793,1053.2655793,1053.2655793,None,None,None,,,,,,,,,,,1048.5253797,1048.5253797,None,,1049.6119287000001,1049.6119287000001,n,2.053752900000063,1048.5253797,1048.5253797,,,1,001,2024-05-24_13h55.46.357,robot_nback_sign,2022.2.5,60.01514782331876,
L_Base_Z_For,True,3,robot,1,False,False,robot_stimuli\L_Base_Z_For.mp4,1,,,,,,,,,0,62,62,62,,,,,,,,,,,,,1053.2655793,1054.3459000000003,,,,,,,1057.9956812,1057.9956812,1057.9956812,1057.9956812,1057.9956812,1057.9956812,1057.9956812,1057.9956812,None,None,None,,,,,,,,,,,1053.2655793,1053.2655793,None,,1054.3459000000003,1054.3459000000003,n,3.0398563000001104,1053.2655793,1053.2655793,,,1,001,2024-05-24_13h55.46.357,robot_nback_sign,2022.2.5,60.01514782331876,
L_Torso_Y_Back,False,3,robot,1,False,False,robot_stimuli\L_Torso_Y_Back.mp4,1,,,,,,,,,0,63,63,63,,,,,,,,,,,,,1057.9956812,1059.0796297000002,,,,,,,1062.7348934000001,1062.7348934000001,1062.7348934000001,1062.7348934000001,1062.7348934000001,1062.7348934000001,1062.7348934000001,1062.7348934000001,None,None,None,,,,,,,,,,,1057.9956812,1057.9956812,None,,1059.0796297000002,1059.0796297000002,c,3.3299309999999878,1057.9956812,1057.9956812,,,1,001,2024-05-24_13h55.46.357,robot_nback_sign,2022.2.5,60.01514782331876,
L_Arm_Y_For,False,3,robot,1,False,False,robot_stimuli\L_Arm_Y_For.mp4,1,,,,,,,,,0,64,64,64,,,,,,,,,,,,,1062.7348934000001,,,,,,,,1067.4821621,1067.4821621,1067.4821621,1067.4821621,1067.4821621,1067.4821621,1067.4821621,1067.4821621,None,None,None,,,,,,,,,,,1062.7348934000001,1062.7348934000001,None,,1063.8421644,1063.8421644,n,3.303677099999504,1062.7348934000001,1062.7348934000001,,,1,001,2024-05-24_13h55.46.357,robot_nback_sign,2022.2.5,60.01514782331876,
L_Base_Z_For,True,3,robot,1,False,False,robot_stimuli\L_Base_Z_For.mp4,1,,,,,,,,,0,65,65,65,,,,,,,,,,,,,1067.4821621,1068.5632346000002,,,,,,,1072.2172872,1072.2172872,1072.2172872,1072.2172872,1072.2172872,1072.2172872,1072.2172872,1072.2172872,None,None,None,,,,,,,,,,,1067.4821621,1067.4821621,None,,1068.5632346000002,1068.5632346000002,n,1.9103368999997201,1067.4821621,1067.4821621,,,1,001,2024-05-24_13h55.46.357,robot_nback_sign,2022.2.5,60.01514782331876,
L_Torso_Y_Back,True,3,robot,1,False,False,robot_stimuli\L_Torso_Y_Back.mp4,1,,,,,,,,,0,66,66,66,,,,,,,,,,,,,1072.2172872,1073.3098413000002,,,,,,,1076.9507921,1076.9507921,1076.9507921,1076.9507921,1076.9507921,1076.9507921,1076.9507921,1076.9507921,None,None,None,,,,,,,,,,,1072.2172872,1072.2172872,None,,1073.3098413000002,1073.3098413000002,None,,1072.2172872,1072.2172872,,,1,001,2024-05-24_13h55.46.357,robot_nback_sign,2022.2.5,60.01514782331876,
L_Arm_Y_Back,False,3,robot,1,False,False,robot_stimuli\L_Arm_Y_Back.mp4,1,,,,,,,,,0,67,67,67,,,,,,,,,,,,,1076.9507921,1078.028217,,,,,,,1081.6668384,1081.6668384,1081.6668384,1081.6668384,1081.6668384,1081.6668384,1081.6668384,1081.6668384,None,None,None,,,,,,,,,,,1076.9507921,1076.9507921,None,,1078.028217,1078.028217,n,2.5249160999999276,1076.9507921,1076.9507921,,,1,001,2024-05-24_13h55.46.357,robot_nback_sign,2022.2.5,60.01514782331876,
R_Torso_X_Back,False,3,robot,1,False,False,robot_stimuli\R_Torso_X_Back.mp4,1,,,,,,,,,0,68,68,68,,,,,,,,,,,,,1081.6668384,1082.7450337,,,,,,,1086.3845124,1086.3845124,1086.3845124,1086.3845124,1086.3845124,1086.3845124,1086.3845124,1086.3845124,None,None,None,,,,,,,,,,,1081.6668384,1081.6668384,None,,1082.7450337,1082.7450337,c,2.527478100000053,1081.6668384,1081.6668384,,,1,001,2024-05-24_13h55.46.357,robot_nback_sign,2022.2.5,60.01514782331876,
L_Torso_Y_Back,True,3,robot,1,False,False,robot_stimuli\L_Torso_Y_Back.mp4,1,,,,,,,,,0,69,69,69,,,,,,,,,,,,,1086.3845124,1087.4616807000002,,,,,,,1091.092158,1091.092158,1091.092158,1091.092158,1091.092158,1091.092158,1091.092158,1091.092158,None,None,None,,,,,,,,,,,1086.3845124,1086.3845124,None,,1087.4616807000002,1087.4616807000002,n,2.1393243999998504,1086.3845124,1086.3845124,,,1,001,2024-05-24_13h55.46.357,robot_nback_sign,2022.2.5,60.01514782331876,
L_Base_Z_Back,False,3,robot,1,False,False,robot_stimuli\L_Base_Z_Back.mp4,1,,,,,,,,,0,70,70,70,,,,,,,,,,,,,1091.092158,1092.1781916,,,,,,,1095.8093496000001,1095.8093496000001,1095.8093496000001,1095.8093496000001,1095.8093496000001,1095.8093496000001,1095.8093496000001,1095.8093496000001,None,None,None,,,,,,,,,,,1091.092158,1091.092158,None,,1092.1781916,1092.1781916,n,1.3511058000001412,1091.092158,1091.092158,,,1,001,2024-05-24_13h55.46.357,robot_nback_sign,2022.2.5,60.01514782331876,
R_Base_Y_For,False,3,robot,1,False,False,robot_stimuli\R_Base_Y_For.mp4,1,,,,,,,,,0,71,71,71,,,,,,,,,,,,,1095.8093496000001,1096.8965336,,,,,,,1100.5268458,1100.5268458,1100.5268458,1100.5268458,1100.5268458,1100.5268458,1100.5268458,1100.5268458,None,None,None,,,,,,,,,,,1095.8093496000001,1095.8093496000001,None,,1096.8965336,1096.8965336,c,1.9769039000000248,1095.8093496000001,1095.8093496000001,,,1,001,2024-05-24_13h55.46.357,robot_nback_sign,2022.2.5,60.01514782331876,
L_Head_Y_For,False,3,robot,1,False,False,robot_stimuli\L_Head_Y_For.mp4,1,,,,,,,,,0,72,72,72,,,,,,,,,,,,,1100.5268458,1101.6123257,,,,,,,1105.2612958,1105.2612958,1105.2612958,1105.2612958,1105.2612958,1105.2612958,1105.2612958,1105.2612958,None,None,None,,,,,,,,,,,1100.5268458,1100.5268458,None,,1101.6123257,1101.6123257,n,1.5329326999997193,1100.5268458,1100.5268458,,,1,001,2024-05-24_13h55.46.357,robot_nback_sign,2022.2.5,60.01514782331876,
L_Base_Z_Back,True,3,robot,1,False,False,robot_stimuli\L_Base_Z_Back.mp4,1,,,,,,,,,0,73,73,73,,,,,,,,,,,,,1105.2612958,1106.3449077,,,,,,,1109.9763103,1109.9763103,1109.9763103,1109.9763103,1109.9763103,1109.9763103,1109.9763103,1109.9763103,None,None,None,,,,,,,,,,,1105.2612958,1105.2612958,None,,1106.3449077,1106.3449077,n,1.8335663999998815,1105.2612958,1105.2612958,,,1,001,2024-05-24_13h55.46.357,robot_nback_sign,2022.2.5,60.01514782331876,
R_Head_Y_Back,False,3,robot,1,False,False,robot_stimuli\R_Head_Y_Back.mp4,1,,,,,,,,,0,74,74,74,,,,,,,,,,,,,1109.9763103,1111.0629162,,,,,,,1114.7125896000002,1114.7125896000002,1114.7125896000002,1114.7125896000002,1114.7125896000002,1114.7125896000002,1114.7125896000002,1114.7125896000002,None,None,None,,,,,,,,,,,1109.9763103,1109.9763103,None,,1111.0629162,1111.0629162,n,1.1554972000001271,1109.9763103,1109.9763103,,,1,001,2024-05-24_13h55.46.357,robot_nback_sign,2022.2.5,60.01514782331876,
L_Base_Z_For,False,3,robot,1,False,False,robot_stimuli\L_Base_Z_For.mp4,1,,,,,,,,,0,75,75,75,,,,,,,,,,,,,1114.7125896000002,1115.7957497000002,,,,,,,1119.4505046,1119.4505046,1119.4505046,1119.4505046,1119.4505046,1119.4505046,1119.4505046,1119.4505046,None,None,None,,,,,,,,,,,1114.7125896000002,1114.7125896000002,None,,1115.7957497000002,1115.7957497000002,n,1.1098481999999876,1114.7125896000002,1114.7125896000002,,,1,001,2024-05-24_13h55.46.357,robot_nback_sign,2022.2.5,60.01514782331876,
L_Arm_Y_Back,False,3,robot,1,False,False,robot_stimuli\L_Arm_Y_Back.mp4,1,,,,,,,,,0,76,76,76,,,,,,,,,,,,,1119.4505046,1120.5424892,,,,,,,1124.1834199,1124.1834199,1124.1834199,1124.1834199,1124.1834199,1124.1834199,1124.1834199,1124.1834199,None,None,None,,,,,,,,,,,1119.4505046,1119.4505046,None,,1120.5424892,1120.5424892,n,1.2757751000001463,1119.4505046,1119.4505046,,,1,001,2024-05-24_13h55.46.357,robot_nback_sign,2022.2.5,60.01514782331876,
L_Arm_Y_For,False,3,robot,1,False,False,robot_stimuli\L_Arm_Y_For.mp4,1,,,,,,,,,0,77,77,77,,,,,,,,,,,,,1124.1834199,1125.268129,,,,,,,1128.9089603000002,1128.9089603000002,1128.9089603000002,1128.9089603000002,1128.9089603000002,1128.9089603000002,1128.9089603000002,1128.9089603000002,None,None,None,,,,,,,,,,,1124.1834199,1124.1834199,None,,1125.268129,1125.268129,n,1.2296394000002238,1124.1834199,1124.1834199,,,1,001,2024-05-24_13h55.46.357,robot_nback_sign,2022.2.5,60.01514782331876,
R_Head_X_Back,False,3,robot,1,False,False,robot_stimuli\R_Head_X_Back.mp4,1,,,,,,,,,0,78,78,78,,,,,,,,,,,,,1128.9089603000002,1129.9953524000002,,,,,,,1133.6472073,1133.6472073,1133.6472073,1133.6472073,1133.6472073,1133.6472073,1133.6472073,1133.6472073,None,None,None,,,,,,,,,,,1128.9089603000002,1128.9089603000002,None,,1129.9953524000002,1129.9953524000002,n,1.5505584999998518,1128.9089603000002,1128.9089603000002,,,1,001,2024-05-24_13h55.46.357,robot_nback_sign,2022.2.5,60.01514782331876,
L_Arm_Y_Back,True,3,robot,1,False,False,robot_stimuli\L_Arm_Y_Back.mp4,1,,,,,,,,,0,79,79,79,,,,,,,,,,,,,1133.6472073,1134.7290881,,,,,,,1138.3804628000003,1138.3804628000003,1138.3804628000003,1138.3804628000003,1138.3804628000003,1138.3804628000003,1138.3804628000003,1138.3804628000003,None,None,None,,,,,,,,,,,1133.6472073,1133.6472073,None,,1134.7290881,1134.7290881,n,2.9599589000001743,1133.6472073,1133.6472073,,,1,001,2024-05-24_13h55.46.357,robot_nback_sign,2022.2.5,60.01514782331876,
L_Arm_Z_Back,False,3,robot,1,False,False,robot_stimuli\L_Arm_Z_Back.mp4,1,,,,,,,,,0,80,80,80,,,,,,,,,,,,,1138.3804628000003,1139.4606869,,,,,,,1143.1003568,1143.1003568,1143.1003568,1143.1003568,1143.1003568,1143.1003568,1143.1003568,1143.1003568,None,None,None,,,,,,,,,,,1138.3804628000003,1138.3804628000003,None,,1139.4606869,1139.4606869,n,1.171840299999758,1138.3804628000003,1138.3804628000003,,,1,001,2024-05-24_13h55.46.357,robot_nback_sign,2022.2.5,60.01514782331876,
R_Base_X_For,False,3,robot,1,False,False,robot_stimuli\R_Base_X_For.mp4,1,,,,,,,,,0,81,81,81,,,,,,,,,,,,,1143.1003568,1144.1805583,,,,,,,1147.8296054000002,1147.8296054000002,1147.8296054000002,1147.8296054000002,1147.8296054000002,1147.8296054000002,1147.8296054000002,1147.8296054000002,None,None,None,,,,,,,,,,,1143.1003568,1143.1003568,None,,1144.1805583,1144.1805583,n,2.4373855999999705,1143.1003568,1143.1003568,,,1,001,2024-05-24_13h55.46.357,robot_nback_sign,2022.2.5,60.01514782331876,
L_Arm_Y_Back,True,3,robot,1,False,False,robot_stimuli\L_Arm_Y_Back.mp4,1,,,,,,,,,0,82,82,82,,,,,,,,,,,,,1147.8296054000002,1148.9108812,,,,,,,1152.5496177,1152.5496177,1152.5496177,1152.5496177,1152.5496177,1152.5496177,1152.5496177,1152.5496177,None,None,None,,,,,,,,,,,1147.8296054000002,1147.8296054000002,None,,1148.9108812,1148.9108812,n,0.6990447999999105,1147.8296054000002,1147.8296054000002,,,1,001,2024-05-24_13h55.46.357,robot_nback_sign,2022.2.5,60.01514782331876,
R_Arm_X_For,False,3,robot,1,False,False,robot_stimuli\R_Arm_X_For.mp4,1,,,,,,,,,0,83,83,83,,,,,,,,,,,,,1152.5496177,1153.6300462,,,,,,,1157.2808682999998,1157.2808682999998,1157.2808682999998,1157.2808682999998,1157.2808682999998,1157.2808682999998,1157.2808682999998,1157.2808682999998,None,None,None,,,,,,,,,,,1152.5496177,1152.5496177,None,,1153.6300462,1153.6300462,n,2.5146350000002258,1152.5496177,1152.5496177,,,1,001,2024-05-24_13h55.46.357,robot_nback_sign,2022.2.5,60.01514782331876,
R_Head_X_For,False,3,robot,1,False,False,robot_stimuli\R_Head_X_For.mp4,1,,,,,,,,,0,84,84,84,,,,,,,,,,,,,1157.2808682999998,1158.3631089,,,,,,,1162.015703,1162.015703,1162.015703,1162.015703,1162.015703,1162.015703,1162.015703,1162.015703,None,None,None,,,,,,,,,,,1157.2808682999998,1157.2808682999998,None,,1158.3631089,1158.3631089,n,1.6221124000001055,1157.2808682999998,1157.2808682999998,,,1,001,2024-05-24_13h55.46.357,robot_nback_sign,2022.2.5,60.01514782331876,
L_Arm_Y_Back,True,3,robot,1,False,False,robot_stimuli\L_Arm_Y_Back.mp4,1,,,,,,,,,0,85,85,85,,,,,,,,,,,,,1162.015703,1163.0953381,,,,,,,1166.7253420000002,1166.7253420000002,1166.7253420000002,1166.7253420000002,1166.7253420000002,1166.7253420000002,1166.7253420000002,1166.7253420000002,None,None,None,,,,,,,,,,,1162.015703,1162.015703,None,,1163.0953381,1163.0953381,n,1.4908552999997937,1162.015703,1162.015703,,,1,001,2024-05-24_13h55.46.357,robot_nback_sign,2022.2.5,60.01514782331876,
L_Arm_Z_Back,False,3,robot,1,False,False,robot_stimuli\L_Arm_Z_Back.mp4,1,,,,,,,,,0,86,86,86,,,,,,,,,,,,,1166.7253420000002,1167.8118242,,,,,,,1171.4511776,1171.4511776,1171.4511776,1171.4511776,1171.4511776,1171.4511776,1171.4511776,1171.4511776,None,None,None,,,,,,,,,,,1166.7253420000002,1166.7253420000002,None,,1167.8118242,1167.8118242,n,2.1186810000001515,1166.7253420000002,1166.7253420000002,,,1,001,2024-05-24_13h55.46.357,robot_nback_sign,2022.2.5,60.01514782331876,
R_Torso_X_Back,False,3,robot,1,False,False,robot_stimuli\R_Torso_X_Back.mp4,1,,,,,,,,,0,87,87,87,,,,,,,,,,,,,1171.4511776,1172.5305915,,,,,,,1176.1811911999998,1176.1811911999998,1176.1811911999998,1176.1811911999998,1176.1811911999998,1176.1811911999998,1176.1811911999998,1176.1811911999998,None,None,None,,,,,,,,,,,1171.4511776,1171.4511776,None,,1172.5305915,1172.5305915,n,1.3105762000002414,1171.4511776,1171.4511776,,,1,001,2024-05-24_13h55.46.357,robot_nback_sign,2022.2.5,60.01514782331876,
L_Base_Z_For,False,3,robot,1,False,False,robot_stimuli\L_Base_Z_For.mp4,1,,,,,,,,,0,88,88,88,,,,,,,,,,,,,1176.1811911999998,1177.2646398000002,,,,,,,1180.9146452999998,1180.9146452999998,1180.9146452999998,1180.9146452999998,1180.9146452999998,1180.9146452999998,1180.9146452999998,1180.9146452999998,None,None,None,,,,,,,,,,,1176.1811911999998,1176.1811911999998,None,,1177.2646398000002,1177.2646398000002,n,1.688787700000148,1176.1811911999998,1176.1811911999998,,,1,001,2024-05-24_13h55.46.357,robot_nback_sign,2022.2.5,60.01514782331876,
L_Head_Y_Back,False,3,robot,1,False,False,robot_stimuli\L_Head_Y_Back.mp4,1,,,,,,,,,0,89,89,89,,,,,,,,,,,,,1180.9146452999998,1181.9963723,,,,,,,1185.6462966,1185.6462966,1185.6462966,1185.6462966,1185.6462966,1185.6462966,1185.6462966,1185.6462966,None,None,None,,,,,,,,,,,1180.9146452999998,1180.9146452999998,None,,1181.9963723,1181.9963723,n,0.9896716000000652,1180.9146452999998,1180.9146452999998,,,1,001,2024-05-24_13h55.46.357,robot_nback_sign,2022.2.5,60.01514782331876,
L_Arm_Y_Back,False,3,robot,1,False,False,robot_stimuli\L_Arm_Y_Back.mp4,1,,,,,,,,,0,90,90,90,,,,,,,,,,,,,1185.6462966,1186.7354529,,,,,,,1190.3762786000002,1190.3762786000002,1190.3762786000002,1190.3762786000002,1190.3762786000002,1190.3762786000002,1190.3762786000002,1190.3762786000002,None,None,None,,,,,,,,,,,1185.6462966,1185.6462966,None,,1186.7354529,1186.7354529,n,2.4176069999996344,1185.6462966,1185.6462966,,,1,001,2024-05-24_13h55.46.357,robot_nback_sign,2022.2.5,60.01514782331876,
R_Head_X_Back,False,3,robot,1,False,False,robot_stimuli\R_Head_X_Back.mp4,1,,,,,,,,,0,91,91,91,,,,,,,,,,,,,1190.3762786000002,1191.4631290000002,,,,,,,1195.1138314999998,1195.1138314999998,1195.1138314999998,1195.1138314999998,1195.1138314999998,1195.1138314999998,1195.1138314999998,1195.1138314999998,None,None,None,,,,,,,,,,,1190.3762786000002,1190.3762786000002,None,,1191.4631290000002,1191.4631290000002,c,2.46714709999992,1190.3762786000002,1190.3762786000002,,,1,001,2024-05-24_13h55.46.357,robot_nback_sign,2022.2.5,60.01514782331876,
L_Head_X_For,False,3,robot,1,False,False,robot_stimuli\L_Head_X_For.mp4,1,,,,,,,,,0,92,92,92,,,,,,,,,,,,,1195.1138314999998,1196.1963328000002,,,,,,,1199.8798043000002,1199.8798043000002,1199.8798043000002,1199.8798043000002,1199.8798043000002,1199.8798043000002,1199.8798043000002,1199.8798043000002,None,None,None,,,,,,,,,,,1195.1138314999998,1195.1138314999998,None,,1196.1963328000002,1196.1963328000002,n,2.8853286000000935,1195.1138314999998,1195.1138314999998,,,1,001,2024-05-24_13h55.46.357,robot_nback_sign,2022.2.5,60.01514782331876,
R_Torso_Y_Back,False,3,robot,1,False,False,robot_stimuli\R_Torso_Y_Back.mp4,1,,,,,,,,,0,93,93,93,,,,,,,,,,,,,1199.8798043000002,1200.9621739,,,,,,,1204.6136741,1204.6136741,1204.6136741,1204.6136741,1204.6136741,1204.6136741,1204.6136741,1204.6136741,None,None,None,,,,,,,,,,,1199.8798043000002,1199.8798043000002,None,,1200.9621739,1200.9621739,n,2.687780099999827,1199.8798043000002,1199.8798043000002,,,1,001,2024-05-24_13h55.46.357,robot_nback_sign,2022.2.5,60.01514782331876,
R_Arm_Y_Back,False,3,robot,1,False,False,robot_stimuli\R_Arm_Y_Back.mp4,1,,,,,,,,,0,94,94,94,,,,,,,,,,,,,1204.6136741,1205.6965395000002,,,,,,,1209.3466997,1209.3466997,1209.3466997,1209.3466997,1209.3466997,1209.3466997,1209.3466997,1209.3466997,None,None,None,,,,,,,,,,,1204.6136741,1204.6136741,None,,1205.6965395000002,1205.6965395000002,n,1.9598748999999316,1204.6136741,1204.6136741,,,1,001,2024-05-24_13h55.46.357,robot_nback_sign,2022.2.5,60.01514782331876,
L_Torso_X_For,False,3,robot,1,False,False,robot_stimuli\L_Torso_X_For.mp4,1,,,,,,,,,0,95,95,95,,,,,,,,,,,,,1209.3466997,1210.4349305,,,,,,,1214.0783067000002,1214.0783067000002,1214.0783067000002,1214.0783067000002,1214.0783067000002,1214.0783067000002,1214.0783067000002,1214.0783067000002,None,None,None,,,,,,,,,,,1209.3466997,1209.3466997,None,,1210.4349305,1210.4349305,n,2.5816661999995176,1209.3466997,1209.3466997,,,1,001,2024-05-24_13h55.46.357,robot_nback_sign,2022.2.5,60.01514782331876,
L_Base_Y_For,False,3,robot,1,False,False,robot_stimuli\L_Base_Y_For.mp4,1,,,,,,,,,0,96,96,96,,,,,,,,,,,,,1214.0783067000002,1215.1622029999999,,,,,,,1218.8004517,1218.8004517,1218.8004517,1218.8004517,1218.8004517,1218.8004517,1218.8004517,1218.8004517,None,None,None,,,,,,,,,,,1214.0783067000002,1214.0783067000002,None,,1215.1622029999999,1215.1622029999999,n,1.7427024999999503,1214.0783067000002,1214.0783067000002,,,1,001,2024-05-24_13h55.46.357,robot_nback_sign,2022.2.5,60.01514782331876,
L_Base_Z_Back,False,3,robot,1,False,False,robot_stimuli\L_Base_Z_Back.mp4,1,,,,,,,,,0,97,97,97,,,,,,,,,,,,,1218.8004517,1219.8785450999999,,,,,,,1223.5299390999999,1223.5299390999999,1223.5299390999999,1223.5299390999999,1223.5299390999999,1223.5299390999999,1223.5299390999999,1223.5299390999999,None,None,None,,,,,,,,,,,1218.8004517,1218.8004517,None,,1219.8785450999999,1219.8785450999999,n,1.8506613999995807,1218.8004517,1218.8004517,,,1,001,2024-05-24_13h55.46.357,robot_nback_sign,2022.2.5,60.01514782331876,
L_Base_X_For,False,3,robot,1,False,False,robot_stimuli\L_Base_X_For.mp4,1,,,,,,,,,0,98,98,98,,,,,,,,,,,,,1223.5299390999999,1224.6113610000002,,,,,,,1228.1749233,1228.1749233,1228.1749233,1228.1749233,1228.1749233,1228.1749233,1228.1749233,1228.1749233,None,None,None,,,,,,,,,,,1223.5299390999999,1223.5299390999999,None,,1224.6113610000002,1224.6113610000002,n,2.2291376000000582,1223.5299390999999,1223.5299390999999,,,1,001,2024-05-24_13h55.46.357,robot_nback_sign,2022.2.5,60.01514782331876,
R_Torso_Z_For,False,3,robot,1,False,True,robot_stimuli\R_Torso_Z_For.mp4,1,,,,,,,,,0,99,99,99,,,,,,,,,,,,,1228.1749233,1229.2695423999999,,,,,,,1232.9481021000001,1237.735229,1232.9481021000001,1237.735229,1232.9481021000001,1237.735229,1232.9481021000001,1237.735229,94.50617283950616,3.1974355000002106,space,,,,4.732568199999832,,,,,,,1228.1749233,1228.1749233,None,,1229.2695423999999,1229.2695423999999,n,2.2679593000000295,1228.1749233,1228.1749233,,,1,001,2024-05-24_13h55.46.357,robot_nback_sign,2022.2.5,60.01514782331876,
R_Torso_X_Back,False,1,robot,1,True,False,robot_stimuli\R_Torso_X_Back.mp4,1,,,,,,,,,0,100,100,100,,,,,,,,,,,,,1239.3509039,1240.4286195,,,,,,,1244.0786619,1244.0786619,1244.0786619,1244.0786619,1244.0786619,1244.0786619,1244.0786619,1244.0786619,None,None,None,,,,,,,,,,,1237.735229,1237.735229,space,1.5941019999997934,1240.4286195,1240.4286195,None,,,,,,1,001,2024-05-24_13h55.46.357,robot_nback_sign,2022.2.5,60.01514782331876,
L_Arm_Y_Back,False,1,robot,1,False,False,robot_stimuli\L_Arm_Y_Back.mp4,1,,,,,,,,,0,101,101,101,,,,,,,,,,,,,1244.0786619,1245.1635848,,,,,,,1248.7933286000002,1248.7933286000002,1248.7933286000002,1248.7933286000002,1248.7933286000002,1248.7933286000002,1248.7933286000002,1248.7933286000002,None,None,None,,,,,,,,,,,1244.0786619,1244.0786619,None,,1245.1635848,1245.1635848,n,1.0295368999998118,1244.0786619,1244.0786619,,,1,001,2024-05-24_13h55.46.357,robot_nback_sign,2022.2.5,60.01514782331876,
R_Base_X_Back,False,1,robot,1,False,False,robot_stimuli\R_Base_X_Back.mp4,1,,,,,,,,,0,102,102,102,,,,,,,,,,,,,1248.7933286000002,1249.8807965,,,,,,,1253.5293153000002,1253.5293153000002,1253.5293153000002,1253.5293153000002,1253.5293153000002,1253.5293153000002,1253.5293153000002,1253.5293153000002,None,None,None,,,,,,,,,,,1248.7933286000002,1248.7933286000002,None,,1249.8807965,1249.8807965,n,1.4407200999996803,1248.7933286000002,1248.7933286000002,,,1,001,2024-05-24_13h55.46.357,robot_nback_sign,2022.2.5,60.01514782331876,
L_Torso_Z_Back,False,1,robot,1,False,False,robot_stimuli\L_Torso_Z_Back.mp4,1,,,,,,,,,0,103,103,103,,,,,,,,,,,,,1253.5293153000002,1254.6121951,,,,,,,1258.2426184,1258.2426184,1258.2426184,1258.2426184,1258.2426184,1258.2426184,1258.2426184,1258.2426184,None,None,None,,,,,,,,,,,1253.5293153000002,1253.5293153000002,None,,1254.6121951,1254.6121951,n,0.9419550999998592,1253.5293153000002,1253.5293153000002,,,1,001,2024-05-24_13h55.46.357,robot_nback_sign,2022.2.5,60.01514782331876,
R_Base_Y_Back,False,1,robot,1,False,False,robot_stimuli\R_Base_Y_Back.mp4,1,,,,,,,,,0,104,104,104,,,,,,,,,,,,,1258.2426184,1259.3287707,,,,,,,1262.9590160000002,1262.9590160000002,1262.9590160000002,1262.9590160000002,1262.9590160000002,1262.9590160000002,1262.9590160000002,1262.9590160000002,None,None,None,,,,,,,,,,,1258.2426184,1258.2426184,None,,1259.3287707,1259.3287707,n,1.1038652999998249,1258.2426184,1258.2426184,,,1,001,2024-05-24_13h55.46.357,robot_nback_sign,2022.2.5,60.01514782331876,
R_Arm_Y_For,False,1,robot,1,False,False,robot_stimuli\R_Arm_Y_For.mp4,1,,,,,,,,,0,105,105,105,,,,,,,,,,,,,1262.9590160000002,1264.0448691000001,,,,,,,1267.6516141000002,1267.6516141000002,1267.6516141000002,1267.6516141000002,1267.6516141000002,1267.6516141000002,1267.6516141000002,1267.6516141000002,None,None,None,,,,,,,,,,,1262.9590160000002,1262.9590160000002,None,,1264.0448691000001,1264.0448691000001,n,1.0045981999999185,1262.9590160000002,1262.9590160000002,,,1,001,2024-05-24_13h55.46.357,robot_nback_sign,2022.2.5,60.01514782331876,
R_Torso_Y_For,False,1,robot,1,False,False,robot_stimuli\R_Torso_Y_For.mp4,1,,,,,,,,,0,106,106,106,,,,,,,,,,,,,1267.6516141000002,1268.7279955,,,,,,,1272.3681331000003,1272.3681331000003,1272.3681331000003,1272.3681331000003,1272.3681331000003,1272.3681331000003,1272.3681331000003,1272.3681331000003,None,None,None,,,,,,,,,,,1267.6516141000002,1267.6516141000002,None,,1268.7279955,1268.7279955,n,1.3284395999996832,1267.6516141000002,1267.6516141000002,,,1,001,2024-05-24_13h55.46.357,robot_nback_sign,2022.2.5,60.01514782331876,
R_Base_Z_For,False,1,robot,1,False,False,robot_stimuli\R_Base_Z_For.mp4,1,,,,,,,,,0,107,107,107,,,,,,,,,,,,,1272.3681331000003,1273.4458601000001,,,,,,,1277.0955512,1277.0955512,1277.0955512,1277.0955512,1277.0955512,1277.0955512,1277.0955512,1277.0955512,None,None,None,,,,,,,,,,,1272.3681331000003,1272.3681331000003,None,,1273.4458601000001,1273.4458601000001,n,1.2682105999999749,1272.3681331000003,1272.3681331000003,,,1,001,2024-05-24_13h55.46.357,robot_nback_sign,2022.2.5,60.01514782331876,
R_Base_Z_For,True,1,robot,1,False,False,robot_stimuli\R_Base_Z_For.mp4,1,,,,,,,,,0,108,108,108,,,,,,,,,,,,,1277.0955512,1278.1757977000002,,,,,,,1281.8166244,1281.8166244,1281.8166244,1281.8166244,1281.8166244,1281.8166244,1281.8166244,1281.8166244,None,None,None,,,,,,,,,,,1277.0955512,1277.0955512,None,,1278.1757977000002,1278.1757977000002,c,1.8409865000000991,1277.0955512,1277.0955512,,,1,001,2024-05-24_13h55.46.357,robot_nback_sign,2022.2.5,60.01514782331876,
R_Arm_Y_Back,False,1,robot,1,False,False,robot_stimuli\R_Arm_Y_Back.mp4,1,,,,,,,,,0,109,109,109,,,,,,,,,,,,,1281.8166244,1282.8950046,,,,,,,1286.53415,1286.53415,1286.53415,1286.53415,1286.53415,1286.53415,1286.53415,1286.53415,None,None,None,,,,,,,,,,,1281.8166244,1281.8166244,None,,1282.8950046,1282.8950046,n,1.2508163999998487,1281.8166244,1281.8166244,,,1,001,2024-05-24_13h55.46.357,robot_nback_sign,2022.2.5,60.01514782331876,
L_Torso_Y_For,False,1,robot,1,False,False,robot_stimuli\L_Torso_Y_For.mp4,1,,,,,,,,,0,110,110,110,,,,,,,,,,,,,1286.53415,1287.6176928,,,,,,,1291.2682914000002,1291.2682914000002,1291.2682914000002,1291.2682914000002,1291.2682914000002,1291.2682914000002,1291.2682914000002,1291.2682914000002,None,None,None,,,,,,,,,,,1286.53415,1286.53415,None,,1287.6176928,1287.6176928,n,1.910944999999856,1286.53415,1286.53415,,,1,001,2024-05-24_13h55.46.357,robot_nback_sign,2022.2.5,60.01514782331876,
R_Base_Y_For,False,1,robot,1,False,False,robot_stimuli\R_Base_Y_For.mp4,1,,,,,,,,,0,111,111,111,,,,,,,,,,,,,1291.2682914000002,,,,,,,,1295.991576,1295.991576,1295.991576,1295.991576,1295.991576,1295.991576,1295.991576,1295.991576,None,None,None,,,,,,,,,,,1291.2682914000002,1291.2682914000002,None,,1292.3612842000002,1292.3612842000002,n,1.017064199999595,1291.2682914000002,1291.2682914000002,,,1,001,2024-05-24_13h55.46.357,robot_nback_sign,2022.2.5,60.01514782331876,
R_Base_Y_For,True,1,robot,1,False,False,robot_stimuli\R_Base_Y_For.mp4,1,,,,,,,,,0,112,112,112,,,,,,,,,,,,,1295.991576,1297.0747738999999,,,,,,,1300.7146602000003,1300.7146602000003,1300.7146602000003,1300.7146602000003,1300.7146602000003,1300.7146602000003,1300.7146602000003,1300.7146602000003,None,None,None,,,,,,,,,,,1295.991576,1295.991576,None,,1297.0747738999999,1297.0747738999999,c,1.9831173999998555,1295.991576,1295.991576,,,1,001,2024-05-24_13h55.46.357,robot_nback_sign,2022.2.5,60.01514782331876,
L_Torso_Y_Back,False,1,robot,1,False,False,robot_stimuli\L_Torso_Y_Back.mp4,1,,,,,,,,,0,113,113,113,,,,,,,,,,,,,1300.7146602000003,1301.7963847,,,,,,,1305.4481581999999,1305.4481581999999,1305.4481581999999,1305.4481581999999,1305.4481581999999,1305.4481581999999,1305.4481581999999,1305.4481581999999,None,None,None,,,,,,,,,,,1300.7146602000003,1300.7146602000003,None,,1301.7963847,1301.7963847,n,1.084271899999976,1300.7146602000003,1300.7146602000003,,,1,001,2024-05-24_13h55.46.357,robot_nback_sign,2022.2.5,60.01514782331876,
R_Torso_Y_For,False,1,robot,1,False,False,robot_stimuli\R_Torso_Y_For.mp4,1,,,,,,,,,0,114,114,114,,,,,,,,,,,,,1305.4481581999999,1306.5291455000001,,,,,,,1310.1785449,1310.1785449,1310.1785449,1310.1785449,1310.1785449,1310.1785449,1310.1785449,1310.1785449,None,None,None,,,,,,,,,,,1305.4481581999999,1305.4481581999999,None,,1306.5291455000001,1306.5291455000001,n,1.6408047999996143,1305.4481581999999,1305.4481581999999,,,1,001,2024-05-24_13h55.46.357,robot_nback_sign,2022.2.5,60.01514782331876,
L_Arm_Z_Back,False,1,robot,1,False,False,robot_stimuli\L_Arm_Z_Back.mp4,1,,,,,,,,,0,115,115,115,,,,,,,,,,,,,1310.1785449,1311.262024,,,,,,,1314.8967103,1314.8967103,1314.8967103,1314.8967103,1314.8967103,1314.8967103,1314.8967103,1314.8967103,None,None,None,,,,,,,,,,,1310.1785449,1310.1785449,None,,1311.262024,1311.262024,n,1.1241637000000537,1310.1785449,1310.1785449,,,1,001,2024-05-24_13h55.46.357,robot_nback_sign,2022.2.5,60.01514782331876,
R_Head_Z_For,False,1,robot,1,False,False,robot_stimuli\R_Head_Z_For.mp4,1,,,,,,,,,0,116,116,116,,,,,,,,,,,,,1314.8967103,1315.9931892,,,,,,,1319.6330139000002,1319.6330139000002,1319.6330139000002,1319.6330139000002,1319.6330139000002,1319.6330139000002,1319.6330139000002,1319.6330139000002,None,None,None,,,,,,,,,,,1314.8967103,1314.8967103,None,,1315.9931892,1315.9931892,n,0.992477199999712,1314.8967103,1314.8967103,,,1,001,2024-05-24_13h55.46.357,robot_nback_sign,2022.2.5,60.01514782331876,
L_Torso_Y_Back,False,1,robot,1,False,False,robot_stimuli\L_Torso_Y_Back.mp4,1,,,,,,,,,0,117,117,117,,,,,,,,,,,,,1319.6330139000002,1320.7127572,,,,,,,1324.3618332,1324.3618332,1324.3618332,1324.3618332,1324.3618332,1324.3618332,1324.3618332,1324.3618332,None,None,None,,,,,,,,,,,1319.6330139000002,1319.6330139000002,None,,1320.7127572,1320.7127572,n,2.088160399999879,1319.6330139000002,1319.6330139000002,,,1,001,2024-05-24_13h55.46.357,robot_nback_sign,2022.2.5,60.01514782331876,
L_Arm_X_For,False,1,robot,1,False,False,robot_stimuli\L_Arm_X_For.mp4,1,,,,,,,,,0,118,118,118,,,,,,,,,,,,,1324.3618332,1325.4457413999999,,,,,,,1329.076532,1329.076532,1329.076532,1329.076532,1329.076532,1329.076532,1329.076532,1329.076532,None,None,None,,,,,,,,,,,1324.3618332,1324.3618332,None,,1325.4457413999999,1325.4457413999999,n,2.7067303999999694,1324.3618332,1324.3618332,,,1,001,2024-05-24_13h55.46.357,robot_nback_sign,2022.2.5,60.01514782331876,
L_Arm_X_For,True,1,robot,1,False,False,robot_stimuli\L_Arm_X_For.mp4,1,,,,,,,,,0,119,119,119,,,,,,,,,,,,,1329.076532,1330.1606631,,,,,,,1333.8002365000002,1333.8002365000002,1333.8002365000002,1333.8002365000002,1333.8002365000002,1333.8002365000002,1333.8002365000002,1333.8002365000002,None,None,None,,,,,,,,,,,1329.076532,1329.076532,None,,1330.1606631,1330.1606631,n,2.472790600000053,1329.076532,1329.076532,,,1,001,2024-05-24_13h55.46.357,robot_nback_sign,2022.2.5,60.01514782331876,
L_Arm_X_For,True,1,robot,1,False,False,robot_stimuli\L_Arm_X_For.mp4,1,,,,,,,,,0,120,120,120,,,,,,,,,,,,,1333.8002365000002,1334.880937,,,,,,,1338.532009,1338.532009,1338.532009,1338.532009,1338.532009,1338.532009,1338.532009,1338.532009,None,None,None,,,,,,,,,,,1333.8002365000002,1333.8002365000002,None,,1334.880937,1334.880937,n,2.0885962999998355,1333.8002365000002,1333.8002365000002,,,1,001,2024-05-24_13h55.46.357,robot_nback_sign,2022.2.5,60.01514782331876,
L_Arm_Z_For,False,1,robot,1,False,False,robot_stimuli\L_Arm_Z_For.mp4,1,,,,,,,,,0,121,121,121,,,,,,,,,,,,,1338.532009,1339.6125657000002,,,,,,,1343.2670838,1343.2670838,1343.2670838,1343.2670838,1343.2670838,1343.2670838,1343.2670838,1343.2670838,None,None,None,,,,,,,,,,,1338.532009,1338.532009,None,,1339.6125657000002,1339.6125657000002,n,1.084808099999691,1338.532009,1338.532009,,,1,001,2024-05-24_13h55.46.357,robot_nback_sign,2022.2.5,60.01514782331876,
L_Head_X_Back,False,1,robot,1,False,False,robot_stimuli\L_Head_X_Back.mp4,1,,,,,,,,,0,122,122,122,,,,,,,,,,,,,1343.2670838,1344.3622117,,,,,,,1347.9927628,1347.9927628,1347.9927628,1347.9927628,1347.9927628,1347.9927628,1347.9927628,1347.9927628,None,None,None,,,,,,,,,,,1343.2670838,1343.2670838,None,,1344.3622117,1344.3622117,n,1.0549094999998943,1343.2670838,1343.2670838,,,1,001,2024-05-24_13h55.46.357,robot_nback_sign,2022.2.5,60.01514782331876,
R_Torso_X_Back,False,1,robot,1,False,False,robot_stimuli\R_Torso_X_Back.mp4,1,,,,,,,,,0,123,123,123,,,,,,,,,,,,,1347.9927628,1349.0788923,,,,,,,1352.7326901000001,1352.7326901000001,1352.7326901000001,1352.7326901000001,1352.7326901000001,1352.7326901000001,1352.7326901000001,1352.7326901000001,None,None,None,,,,,,,,,,,1347.9927628,1347.9927628,None,,1349.0788923,1349.0788923,n,0.4353009999997539,1347.9927628,1347.9927628,,,1,001,2024-05-24_13h55.46.357,robot_nback_sign,2022.2.5,60.01514782331876,
L_Base_X_Back,False,1,robot,1,False,False,robot_stimuli\L_Base_X_Back.mp4,1,,,,,,,,,0,124,124,124,,,,,,,,,,,,,1352.7326901000001,1353.8151073,,,,,,,1357.4657133,1357.4657133,1357.4657133,1357.4657133,1357.4657133,1357.4657133,1357.4657133,1357.4657133,None,None,None,,,,,,,,,,,1352.7326901000001,1352.7326901000001,None,,1353.8151073,1353.8151073,n,0.4254859000000124,1352.7326901000001,1352.7326901000001,,,1,001,2024-05-24_13h55.46.357,robot_nback_sign,2022.2.5,60.01514782331876,
R_Arm_Z_Back,False,1,robot,1,False,False,robot_stimuli\R_Arm_Z_Back.mp4,1,,,,,,,,,0,125,125,125,,,,,,,,,,,,,1357.4657133,1358.5441449,,,,,,,1362.1851682000001,1362.1851682000001,1362.1851682000001,1362.1851682000001,1362.1851682000001,1362.1851682000001,1362.1851682000001,1362.1851682000001,None,None,None,,,,,,,,,,,1357.4657133,1357.4657133,None,,1358.5441449,1358.5441449,n,0.896999299999834,1357.4657133,1357.4657133,,,1,001,2024-05-24_13h55.46.357,robot_nback_sign,2022.2.5,60.01514782331876,
L_Torso_Z_For,False,1,robot,1,False,False,robot_stimuli\L_Torso_Z_For.mp4,1,,,,,,,,,0,126,126,126,,,,,,,,,,,,,1362.1851682000001,1363.2623493,,,,,,,1366.9016084999998,1366.9016084999998,1366.9016084999998,1366.9016084999998,1366.9016084999998,1366.9016084999998,1366.9016084999998,1366.9016084999998,None,None,None,,,,,,,,,,,1362.1851682000001,1362.1851682000001,None,,1363.2623493,1363.2623493,n,0.9155156999997871,1362.1851682000001,1362.1851682000001,,,1,001,2024-05-24_13h55.46.357,robot_nback_sign,2022.2.5,60.01514782331876,
L_Head_Y_Back,False,1,robot,1,False,False,robot_stimuli\L_Head_Y_Back.mp4,1,,,,,,,,,0,127,127,127,,,,,,,,,,,,,1366.9016084999998,1367.9778876,,,,,,,1371.6222400000001,1371.6222400000001,1371.6222400000001,1371.6222400000001,1371.6222400000001,1371.6222400000001,1371.6222400000001,1371.6222400000001,None,None,None,,,,,,,,,,,1366.9016084999998,1366.9016084999998,None,,1367.9778876,1367.9778876,n,2.110892299999932,1366.9016084999998,1366.9016084999998,,,1,001,2024-05-24_13h55.46.357,robot_nback_sign,2022.2.5,60.01514782331876,
R_Torso_Z_For,False,1,robot,1,False,False,robot_stimuli\R_Torso_Z_For.mp4,1,,,,,,,,,0,128,128,128,,,,,,,,,,,,,1371.6222400000001,1372.7263957999999,,,,,,,1376.3671319999999,1376.3671319999999,1376.3671319999999,1376.3671319999999,1376.3671319999999,1376.3671319999999,1376.3671319999999,1376.3671319999999,None,None,None,,,,,,,,,,,1371.6222400000001,1371.6222400000001,None,,1372.7263957999999,1372.7263957999999,n,2.307002799999964,1371.6222400000001,1371.6222400000001,,,1,001,2024-05-24_13h55.46.357,robot_nback_sign,2022.2.5,60.01514782331876,
L_Base_Z_For,False,1,robot,1,False,False,robot_stimuli\L_Base_Z_For.mp4,1,,,,,,,,,0,129,129,129,,,,,,,,,,,,,1376.3671319999999,1377.4454033000002,,,,,,,1381.076043,1381.076043,1381.076043,1381.076043,1381.076043,1381.076043,1381.076043,1381.076043,None,None,None,,,,,,,,,,,1376.3671319999999,1376.3671319999999,None,,1377.4454033000002,1377.4454033000002,n,1.939163199999939,1376.3671319999999,1376.3671319999999,,,1,001,2024-05-24_13h55.46.357,robot_nback_sign,2022.2.5,60.01514782331876,
R_Head_X_For,False,1,robot,1,False,False,robot_stimuli\R_Head_X_For.mp4,1,,,,,,,,,0,130,130,130,,,,,,,,,,,,,1381.076043,1382.1612644000002,,,,,,,1385.8002404,1385.8002404,1385.8002404,1385.8002404,1385.8002404,1385.8002404,1385.8002404,1385.8002404,None,None,None,,,,,,,,,,,1381.076043,1381.076043,None,,1382.1612644000002,1382.1612644000002,n,0.9041347999998379,1381.076043,1381.076043,,,1,001,2024-05-24_13h55.46.357,robot_nback_sign,2022.2.5,60.01514782331876,
R_Head_X_For,True,1,robot,1,False,False,robot_stimuli\R_Head_X_For.mp4,1,,,,,,,,,0,131,131,131,,,,,,,,,,,,,1385.8002404,1386.8759773000002,,,,,,,1390.5171764000002,1390.5171764000002,1390.5171764000002,1390.5171764000002,1390.5171764000002,1390.5171764000002,1390.5171764000002,1390.5171764000002,None,None,None,,,,,,,,,,,1385.8002404,1385.8002404,None,,1386.8759773000002,1386.8759773000002,n,3.0779487999996036,1385.8002404,1385.8002404,,,1,001,2024-05-24_13h55.46.357,robot_nback_sign,2022.2.5,60.01514782331876,
R_Head_Z_For,False,1,robot,1,False,False,robot_stimuli\R_Head_Z_For.mp4,1,,,,,,,,,0,132,132,132,,,,,,,,,,,,,1390.5171764000002,1391.5963930000003,,,,,,,1395.2470492000002,1395.2470492000002,1395.2470492000002,1395.2470492000002,1395.2470492000002,1395.2470492000002,1395.2470492000002,1395.2470492000002,None,None,None,,,,,,,,,,,1390.5171764000002,1390.5171764000002,None,,1391.5963930000003,1391.5963930000003,None,,1390.5171764000002,1390.5171764000002,,,1,001,2024-05-24_13h55.46.357,robot_nback_sign,2022.2.5,60.01514782331876,
R_Head_X_Back,False,1,robot,1,False,False,robot_stimuli\R_Head_X_Back.mp4,1,,,,,,,,,0,133,133,133,,,,,,,,,,,,,1395.2470492000002,1396.327895,,,,,,,1399.9689445,1399.9689445,1399.9689445,1399.9689445,1399.9689445,1399.9689445,1399.9689445,1399.9689445,None,None,None,,,,,,,,,,,1395.2470492000002,1395.2470492000002,None,,1396.327895,1396.327895,n,2.5458821999998236,1395.2470492000002,1395.2470492000002,,,1,001,2024-05-24_13h55.46.357,robot_nback_sign,2022.2.5,60.01514782331876,
R_Head_X_Back,True,1,robot,1,False,False,robot_stimuli\R_Head_X_Back.mp4,1,,,,,,,,,0,134,134,134,,,,,,,,,,,,,1399.9689445,,,,,,,,1404.6981719,1404.6981719,1404.6981719,1404.6981719,1404.6981719,1404.6981719,1404.6981719,1404.6981719,None,None,None,,,,,,,,,,,1399.9689445,1399.9689445,None,,1401.0581519000002,1401.0581519000002,n,2.5758100999998987,1399.9689445,1399.9689445,,,1,001,2024-05-24_13h55.46.357,robot_nback_sign,2022.2.5,60.01514782331876,
L_Arm_Y_For,False,1,robot,1,False,False,robot_stimuli\L_Arm_Y_For.mp4,1,,,,,,,,,0,135,135,135,,,,,,,,,,,,,1404.6981719,1405.7784510000001,,,,,,,1409.4184530000002,1409.4184530000002,1409.4184530000002,1409.4184530000002,1409.4184530000002,1409.4184530000002,1409.4184530000002,1409.4184530000002,None,None,None,,,,,,,,,,,1404.6981719,1404.6981719,None,,1405.7784510000001,1405.7784510000001,n,1.720152999999982,1404.6981719,1404.6981719,,,1,001,2024-05-24_13h55.46.357,robot_nback_sign,2022.2.5,60.01514782331876,
R_Head_Z_For,False,1,robot,1,False,False,robot_stimuli\R_Head_Z_For.mp4,1,,,,,,,,,0,136,136,136,,,,,,,,,,,,,1409.4184530000002,1410.4961985999998,,,,,,,1414.1265948999999,1414.1265948999999,1414.1265948999999,1414.1265948999999,1414.1265948999999,1414.1265948999999,1414.1265948999999,1414.1265948999999,None,None,None,,,,,,,,,,,1409.4184530000002,1409.4184530000002,None,,1410.4961985999998,1410.4961985999998,n,2.769296700000041,1409.4184530000002,1409.4184530000002,,,1,001,2024-05-24_13h55.46.357,robot_nback_sign,2022.2.5,60.01514782331876,
L_Head_Y_For,False,1,robot,1,False,False,robot_stimuli\L_Head_Y_For.mp4,1,,,,,,,,,0,137,137,137,,,,,,,,,,,,,1414.1265948999999,1415.2129337000001,,,,,,,1418.863385,1418.863385,1418.863385,1418.863385,1418.863385,1418.863385,1418.863385,1418.863385,None,None,None,,,,,,,,,,,1414.1265948999999,1414.1265948999999,None,,1415.2129337000001,1415.2129337000001,n,0.8370496999998522,1414.1265948999999,1414.1265948999999,,,1,001,2024-05-24_13h55.46.357,robot_nback_sign,2022.2.5,60.01514782331876,
