sequence,is_true,target,condition,stimuli,block,is_block_beginning,is_block_ending,sequence_fnames,target_fname,subject,retraining.thisRepN,retraining.thisTrialN,retraining.thisN,retraining.thisIndex,training.thisRepN,training.thisTrialN,training.thisN,training.thisIndex,training_sequence_loop.thisRepN,training_sequence_loop.thisTrialN,training_sequence_loop.thisN,training_sequence_loop.thisIndex,trials.thisRepN,trials.thisTrialN,trials.thisN,trials.thisIndex,sequence_loop.thisRepN,sequence_loop.thisTrialN,sequence_loop.thisN,sequence_loop.thisIndex,langage_text.started,langage_key.started,langage_key.keys,langage_key.rt,intro_text.started,intro_key.started,intro_key.keys,intro_key.rt,training_intro_text.started,training_intro_key.started,training_intro_key.keys,training_intro_key.rt,polygon.started,polygon.stopped,training_presentation_letter.started,training_presentation_letter.stopped,training_recall_letter.started,training_recall_key.started,training_recall_question.started,training_recall_answer.started,training_recall_key.keys,training_recall_key.rt,RSME_labels.started,RSME_labels.stopped,RSME_ticks.started,RSME_ticks.stopped,RSME_text.started,RSME_text.stopped,RSME_key.started,RSME_key.stopped,RSME_ticks.response,RSME_ticks.rt,RSME_key.keys,training_intro_text.stopped,training_intro_key.stopped,RSME_key.rt,training_presentation_movie.started,training_recall_movie.started,experiment_beginning_text.started,experiment_beginning_keys.started,experiment_beginning_key.started,experiment_beginning_key.keys,experiment_beginning_key.rt,block_intro_text.started,block_intro_key.started,block_intro_key.keys,block_intro_key.rt,presentation_movie.started,recall_movie.started,recall_key.started,recall_question.started,recall_answer.started,recall_key.keys,recall_key.rt,block_intro_text.stopped,block_intro_key.stopped,presentation_letter.started,presentation_letter.stopped,recall_letter.started,participant,session,date,expName,psychopyVersion,frameRate,
,,,,,,,,,,,,,,,,,,,,,,,,,,,,,,,22.729251400000066,22.729251400000066,f,2.612731100000019,,,,,,,,,,,,,,,,,,,,,,,,,,,,,,,,,,,,,,,,,,,,,,,,,,,,,,,,5,001,2024-06-27_15h21.44.231,robot_sternberg_sign,2022.2.5,60.03406332755389,
,,,,,,,,,,,,,,,,,,,,,,,,,,,,,,,,,,,25.40197249999983,25.40197249999983,space,93.02125840000099,,,,,,,,,,,,,,,,,,,,,,,,,,,,,,,,,,,,,,,,,,,,,,,,,,,,5,001,2024-06-27_15h21.44.231,robot_sternberg_sign,2022.2.5,60.03406332755389,
"['T', 'Z']",False,G,2,letter,2,True,False,"['robot_stimuli\\\\filler.mp4', 'robot_stimuli\\\\filler.mp4']",robot_stimuli\\filler.mp4,5,0,0,0,0,0,0,0,0,,,,,,,,,,,,,,,,,,,,,118.46492660000058,118.46492660000058,space,6.252987399999256,130.58857380000063,126.07844819999991,128.3759417000001,130.58857380000063,131.69507900000008,131.69507900000008,131.69507900000008,131.69507900000008,n,6.256386600000042,138.20043739999983,138.20043739999983,138.20043739999983,138.20043739999983,138.20043739999983,138.20043739999983,138.20043739999983,138.20043739999983,None,None,None,,,,,,,,,,,,,,,,,,,,,,,,,,,5,001,2024-06-27_15h21.44.231,robot_sternberg_sign,2022.2.5,60.03406332755389,
"['B', 'R']",True,B,2,letter,2,False,False,"['robot_stimuli\\\\filler.mp4', 'robot_stimuli\\\\filler.mp4']",robot_stimuli\\filler.mp4,5,0,0,0,0,0,1,1,1,,,,,,,,,,,,,,,,,,,,,138.20043739999983,138.20043739999983,None,,143.59369349999997,144.66667909999978,141.37671709999995,143.59369349999997,144.66667909999978,144.66667909999978,144.66667909999978,144.66667909999978,c,0.8358511000005819,145.6968594,145.6968594,145.6968594,145.6968594,145.6968594,145.6968594,145.6968594,145.6968594,None,None,None,138.20043739999983,138.20043739999983,,,,,,,,,,,,,,,,,,,,,,,,,5,001,2024-06-27_15h21.44.231,robot_sternberg_sign,2022.2.5,60.03406332755389,
"['Z', 'V']",True,Z,2,letter,2,False,True,"['robot_stimuli\\\\filler.mp4', 'robot_stimuli\\\\filler.mp4']",robot_stimuli\\filler.mp4,5,0,0,0,0,0,2,2,2,,,,,,,,,,,,,,,,,,,,,145.6968594,145.6968594,None,,151.09301930000038,152.16740840000057,148.8712759,151.09301930000038,152.16740840000057,152.16740840000057,152.16740840000057,152.16740840000057,c,0.7511762000003728,153.05864819999988,162.81889409999985,153.05864819999988,162.81889409999985,153.05864819999988,162.81889409999985,153.05864819999988,162.81889409999985,3.7654320987654284,8.392928700000084,space,145.6968594,145.6968594,9.691164699999717,,,,,,,,,,,,,,,,,,,,,,,,5,001,2024-06-27_15h21.44.231,robot_sternberg_sign,2022.2.5,60.03406332755389,
"['H', 'P', 'J', 'S']",True,J,4,letter,2,True,False,"['robot_stimuli\\\\filler.mp4', 'robot_stimuli\\\\filler.mp4', 'robot_stimuli\\\\filler.mp4', 'robot_stimuli\\\\filler.mp4']",robot_stimuli\\filler.mp4,5,0,0,0,0,0,3,3,3,,,,,,,,,,,,,,,,,,,,,162.81889409999985,162.81889409999985,space,4.276239099999657,177.10310730000037,178.1663225000002,174.8875109999999,177.10310730000037,178.1663225000002,178.1663225000002,178.1663225000002,178.1663225000002,c,0.9041417999997066,179.19924040000024,179.19924040000024,179.19924040000024,179.19924040000024,179.19924040000024,179.19924040000024,179.19924040000024,179.19924040000024,None,None,None,,,,,,,,,,,,,,,,,,,,,,,,,,,5,001,2024-06-27_15h21.44.231,robot_sternberg_sign,2022.2.5,60.03406332755389,
"['S', 'T', 'Z', 'J']",False,K,4,letter,2,False,False,"['robot_stimuli\\\\filler.mp4', 'robot_stimuli\\\\filler.mp4', 'robot_stimuli\\\\filler.mp4', 'robot_stimuli\\\\filler.mp4']",robot_stimuli\\filler.mp4,5,0,0,0,0,0,4,4,4,,,,,,,,,,,,,,,,,,,,,179.19924040000024,179.19924040000024,None,,188.99492420000024,190.07481760000064,186.77021010000044,188.99492420000024,190.07481760000064,190.07481760000064,190.07481760000064,190.07481760000064,n,0.4672915999999532,190.7015468999998,190.7015468999998,190.7015468999998,190.7015468999998,190.7015468999998,190.7015468999998,190.7015468999998,190.7015468999998,None,None,None,179.19924040000024,179.19924040000024,,,,,,,,,,,,,,,,,,,,,,,,,5,001,2024-06-27_15h21.44.231,robot_sternberg_sign,2022.2.5,60.03406332755389,
"['X', 'N', 'R', 'F']",True,X,4,letter,2,False,True,"['robot_stimuli\\\\filler.mp4', 'robot_stimuli\\\\filler.mp4', 'robot_stimuli\\\\filler.mp4', 'robot_stimuli\\\\filler.mp4']",robot_stimuli\\filler.mp4,5,0,0,0,0,0,5,5,5,,,,,,,,,,,,,,,,,,,,,190.7015468999998,190.7015468999998,None,,200.48471830000017,201.54946350000046,198.4670143000003,200.48471830000017,201.54946350000046,201.54946350000046,201.54946350000046,201.54946350000046,c,0.7206835000006322,202.40601270000025,205.66102760000012,202.40601270000025,205.66102760000012,202.40601270000025,205.66102760000012,202.40601270000025,205.66102760000012,5.462962962962956,2.5519156000000294,space,190.7015468999998,190.7015468999998,3.20776079999996,,,,,,,,,,,,,,,,,,,,,,,,5,001,2024-06-27_15h21.44.231,robot_sternberg_sign,2022.2.5,60.03406332755389,
"['Z', 'W', 'S', 'B', 'Q', 'D']",True,D,6,letter,2,True,False,"['robot_stimuli\\\\filler.mp4', 'robot_stimuli\\\\filler.mp4', 'robot_stimuli\\\\filler.mp4', 'robot_stimuli\\\\filler.mp4', 'robot_stimuli\\\\filler.mp4', 'robot_stimuli\\\\filler.mp4']",robot_stimuli\\filler.mp4,5,0,0,0,0,0,6,6,6,,,,,,,,,,,,,,,,,,,,,205.66102760000012,205.66102760000012,space,1.2501683000000412,221.12225649999982,208.00351580000006,218.90344350000032,221.12225649999982,222.19879850000052,222.19879850000052,222.19879850000052,222.19879850000052,c,0.814942300000439,223.22937530000036,223.22937530000036,223.22937530000036,223.22937530000036,223.22937530000036,223.22937530000036,223.22937530000036,223.22937530000036,None,None,None,,,,,,,,,,,,,,,,,,,,,,,,,,,5,001,2024-06-27_15h21.44.231,robot_sternberg_sign,2022.2.5,60.03406332755389,
"['J', 'Q', 'W', 'D', 'R', 'Z']",False,N,6,letter,2,False,False,"['robot_stimuli\\\\filler.mp4', 'robot_stimuli\\\\filler.mp4', 'robot_stimuli\\\\filler.mp4', 'robot_stimuli\\\\filler.mp4', 'robot_stimuli\\\\filler.mp4', 'robot_stimuli\\\\filler.mp4']",robot_stimuli\\filler.mp4,5,0,0,0,0,0,7,7,7,,,,,,,,,,,,,,,,,,,,,223.22937530000036,223.22937530000036,None,,237.1561754000004,238.2239338999998,235.13590250000016,237.1561754000004,238.2239338999998,238.2239338999998,238.2239338999998,238.2239338999998,n,0.7977457000006325,239.2468613000001,239.2468613000001,239.2468613000001,239.2468613000001,239.2468613000001,239.2468613000001,239.2468613000001,239.2468613000001,None,None,None,223.22937530000036,223.22937530000036,,,,,,,,,,,,,,,,,,,,,,,,,5,001,2024-06-27_15h21.44.231,robot_sternberg_sign,2022.2.5,60.03406332755389,
"['C', 'N', 'T', 'M', 'Z', 'H']",True,N,6,letter,2,False,True,"['robot_stimuli\\\\filler.mp4', 'robot_stimuli\\\\filler.mp4', 'robot_stimuli\\\\filler.mp4', 'robot_stimuli\\\\filler.mp4', 'robot_stimuli\\\\filler.mp4', 'robot_stimuli\\\\filler.mp4']",robot_stimuli\\filler.mp4,5,0,0,0,0,0,8,8,8,,,,,,,,,,,,,,,,,,,,,239.2468613000001,239.2468613000001,None,,253.20345309999993,254.2651863000001,251.18161830000008,253.20345309999993,254.2651863000001,254.2651863000001,254.2651863000001,254.2651863000001,c,5.598261600000114,260.1285699,263.45387220000066,260.1285699,263.45387220000066,260.1285699,263.45387220000066,260.1285699,263.45387220000066,7.314814814814808,2.5570999000001393,space,239.2468613000001,239.2468613000001,3.261042900000575,,,,,,,,,,,,,,,,,,,,,,,,5,001,2024-06-27_15h21.44.231,robot_sternberg_sign,2022.2.5,60.03406332755389,
"['L_Arm_X_Back', 'R_Base_Z_Back']",False,L_Base_Z_For,2,robot,1,True,False,"['robot_stimuli\\L_Arm_X_Back.mp4', 'robot_stimuli\\R_Base_Z_Back.mp4']",robot_stimuli\L_Base_Z_For.mp4,5,0,0,0,0,0,9,9,9,,,,,,,,,,,,,,,,,,,,,263.45387220000066,263.45387220000066,space,2.009031600000526,273.8522001000001,274.9352316000004,,,,274.9352316000004,274.9352316000004,274.9352316000004,n,5.759077499999876,280.73018050000064,280.73018050000064,280.73018050000064,280.73018050000064,280.73018050000064,280.73018050000064,280.73018050000064,280.73018050000064,None,None,None,,,,270.3212172000003,274.9352316000004,,,,,,,,,,,,,,,,,,,,,,5,001,2024-06-27_15h21.44.231,robot_sternberg_sign,2022.2.5,60.03406332755389,
"['L_Torso_Z_Back', 'R_Arm_X_For']",True,L_Torso_Z_Back,2,robot,1,False,False,"['robot_stimuli\\L_Torso_Z_Back.mp4', 'robot_stimuli\\R_Arm_X_For.mp4']",robot_stimuli\L_Torso_Z_Back.mp4,5,0,0,0,0,0,10,10,10,,,,,,,,,,,,,,,,,,,,,280.73018050000064,280.73018050000064,None,,289.0521349999999,290.13570020000043,,,,290.13570020000043,290.13570020000043,290.13570020000043,c,1.3739514999997482,293.6524287000002,293.6524287000002,293.6524287000002,293.6524287000002,293.6524287000002,293.6524287000002,293.6524287000002,293.6524287000002,None,None,None,280.73018050000064,280.73018050000064,,285.43198500000017,290.13570020000043,,,,,,,,,,,,,,,,,,,,,,5,001,2024-06-27_15h21.44.231,robot_sternberg_sign,2022.2.5,60.03406332755389,
"['L_Head_X_Back', 'L_Base_Z_For']",True,L_Base_Z_For,2,robot,1,False,True,"['robot_stimuli\\L_Head_X_Back.mp4', 'robot_stimuli\\L_Base_Z_For.mp4']",robot_stimuli\L_Base_Z_For.mp4,5,0,0,0,0,0,11,11,11,,,,,,,,,,,,,,,,,,,,,293.6524287000002,293.6524287000002,None,,302.11106610000024,303.1937515999998,,,,303.1937515999998,303.1937515999998,303.1937515999998,c,3.6286072000002605,306.8735181000002,314.84482389999994,306.8735181000002,314.84482389999994,306.8735181000002,314.84482389999994,306.8735181000002,314.84482389999994,18.580246913580243,6.0132769000001645,space,293.6524287000002,293.6524287000002,7.908180900000843,298.4702726000005,303.1937515999998,,,,,,,,,,,,,,,,,,,,,,5,001,2024-06-27_15h21.44.231,robot_sternberg_sign,2022.2.5,60.03406332755389,
"['L_Torso_Z_For', 'L_Torso_X_For', 'R_Head_Z_For', 'L_Head_Z_Back']",False,L_Arm_Z_For,4,robot,1,True,False,"['robot_stimuli\\L_Torso_Z_For.mp4', 'robot_stimuli\\L_Torso_X_For.mp4', 'robot_stimuli\\R_Head_Z_For.mp4', 'robot_stimuli\\L_Head_Z_Back.mp4']",robot_stimuli\L_Arm_Z_For.mp4,5,0,0,0,0,0,12,12,12,,,,,,,,,,,,,,,,,,,,,314.84482389999994,314.84482389999994,space,2.026270000000295,332.8094551000004,333.8979186000006,,,,333.8979186000006,333.8979186000006,333.8979186000006,n,4.14065759999994,338.07931629999985,338.07931629999985,338.07931629999985,338.07931629999985,338.07931629999985,338.07931629999985,338.07931629999985,338.07931629999985,None,None,None,,,,329.1664873999998,333.8979186000006,,,,,,,,,,,,,,,,,,,,,,5,001,2024-06-27_15h21.44.231,robot_sternberg_sign,2022.2.5,60.03406332755389,
"['L_Arm_Y_Back', 'L_Torso_Y_For', 'R_Arm_Y_Back', 'R_Head_Y_For']",True,R_Arm_Y_Back,4,robot,1,False,False,"['robot_stimuli\\L_Arm_Y_Back.mp4', 'robot_stimuli\\L_Torso_Y_For.mp4', 'robot_stimuli\\R_Arm_Y_Back.mp4', 'robot_stimuli\\R_Head_Y_For.mp4']",robot_stimuli\R_Arm_Y_Back.mp4,5,0,0,0,0,0,13,13,13,,,,,,,,,,,,,,,,,,,,,338.07931629999985,338.07931629999985,None,,354.00650810000025,355.09888560000036,,,,355.09888560000036,355.09888560000036,355.09888560000036,c,5.300035600000228,360.4260212999998,360.4260212999998,360.4260212999998,360.4260212999998,360.4260212999998,360.4260212999998,360.4260212999998,360.4260212999998,None,None,None,338.07931629999985,338.07931629999985,,350.36308590000044,355.09888560000036,,,,,,,,,,,,,,,,,,,,,,5,001,2024-06-27_15h21.44.231,robot_sternberg_sign,2022.2.5,60.03406332755389,
"['L_Head_Z_For', 'R_Base_Y_For', 'L_Torso_Y_For', 'L_Base_Z_For']",True,L_Head_Z_For,4,robot,1,False,True,"['robot_stimuli\\L_Head_Z_For.mp4', 'robot_stimuli\\R_Base_Y_For.mp4', 'robot_stimuli\\L_Torso_Y_For.mp4', 'robot_stimuli\\L_Base_Z_For.mp4']",robot_stimuli\L_Head_Z_For.mp4,5,0,0,0,0,0,14,14,14,,,,,,,,,,,,,,,,,,,,,360.4260212999998,360.4260212999998,None,,376.34135349999997,377.43323130000044,,,,377.43323130000044,377.43323130000044,377.43323130000044,c,4.405511599999954,381.9052171000003,385.36603430000014,381.9052171000003,385.36603430000014,381.9052171000003,385.36603430000014,381.9052171000003,385.36603430000014,36.79012345679013,2.978982999999971,space,360.4260212999998,360.4260212999998,3.4207531000001836,372.70653180000045,377.43323130000044,,,,,,,,,,,,,,,,,,,,,,5,001,2024-06-27_15h21.44.231,robot_sternberg_sign,2022.2.5,60.03406332755389,
"['L_Base_Z_Back', 'L_Torso_X_For', 'L_Arm_Z_For', 'L_Torso_Z_For', 'R_Base_Z_Back', 'L_Torso_Y_For']",True,L_Arm_Z_For,6,robot,1,True,False,"['robot_stimuli\\L_Base_Z_Back.mp4', 'robot_stimuli\\L_Torso_X_For.mp4', 'robot_stimuli\\L_Arm_Z_For.mp4', 'robot_stimuli\\L_Torso_Z_For.mp4', 'robot_stimuli\\R_Base_Z_Back.mp4', 'robot_stimuli\\L_Torso_Y_For.mp4']",robot_stimuli\L_Arm_Z_For.mp4,5,0,0,0,0,0,15,15,15,,,,,,,,,,,,,,,,,,,,,385.36603430000014,385.36603430000014,space,1.001219900000251,409.62254910000047,410.70961440000065,,,,410.70961440000065,410.70961440000065,410.70961440000065,n,5.480598500000269,416.22817699999996,416.22817699999996,416.22817699999996,416.22817699999996,416.22817699999996,416.22817699999996,416.22817699999996,416.22817699999996,None,None,None,,,,405.9889466000004,410.70961440000065,,,,,,,,,,,,,,,,,,,,,,5,001,2024-06-27_15h21.44.231,robot_sternberg_sign,2022.2.5,60.03406332755389,
"['R_Torso_Z_For', 'R_Torso_Y_Back', 'R_Base_Y_For', 'L_Arm_X_Back', 'L_Arm_Z_Back', 'R_Arm_Y_For']",False,L_Arm_Y_Back,6,robot,1,False,False,"['robot_stimuli\\R_Torso_Z_For.mp4', 'robot_stimuli\\R_Torso_Y_Back.mp4', 'robot_stimuli\\R_Base_Y_For.mp4', 'robot_stimuli\\L_Arm_X_Back.mp4', 'robot_stimuli\\L_Arm_Z_Back.mp4', 'robot_stimuli\\R_Arm_Y_For.mp4']",robot_stimuli\L_Arm_Y_Back.mp4,5,0,0,0,0,0,16,16,16,,,,,,,,,,,,,,,,,,,,,416.22817699999996,416.22817699999996,None,,439.4269261999998,440.5148946999998,,,,440.5148946999998,440.5148946999998,440.5148946999998,n,6.939007399999355,447.48487600000044,447.48487600000044,447.48487600000044,447.48487600000044,447.48487600000044,447.48487600000044,447.48487600000044,447.48487600000044,None,None,None,416.22817699999996,416.22817699999996,,435.9269494,440.5148946999998,,,,,,,,,,,,,,,,,,,,,,5,001,2024-06-27_15h21.44.231,robot_sternberg_sign,2022.2.5,60.03406332755389,
"['R_Arm_X_For', 'L_Head_Z_For', 'L_Base_Z_Back', 'L_Head_Z_Back', 'R_Base_Y_For', 'R_Head_Z_For']",True,L_Head_Z_Back,6,robot,1,False,True,"['robot_stimuli\\R_Arm_X_For.mp4', 'robot_stimuli\\L_Head_Z_For.mp4', 'robot_stimuli\\L_Base_Z_Back.mp4', 'robot_stimuli\\L_Head_Z_Back.mp4', 'robot_stimuli\\R_Base_Y_For.mp4', 'robot_stimuli\\R_Head_Z_For.mp4']",robot_stimuli\L_Head_Z_Back.mp4,5,0,0,0,0,0,17,17,17,,,,,,,,,,,,,,,,,,,,,447.48487600000044,447.48487600000044,None,,470.78565640000033,471.85922260000007,,,,471.85922260000007,471.85922260000007,471.85922260000007,c,3.0508209999998144,475.53315699999985,479.5091616999998,475.53315699999985,479.5091616999998,475.53315699999985,479.5091616999998,475.53315699999985,479.5091616999998,49.907407407407405,2.81378820000009,space,447.48487600000044,447.48487600000044,3.928626100000656,467.1630810000006,471.85922260000007,,,,,,,,,,,,,,,,,,,,,,5,001,2024-06-27_15h21.44.231,robot_sternberg_sign,2022.2.5,60.03406332755389,
,,,,,,,,,,,0,0,0,0,,,,,,,,,,,,,,,,,,,,,,,,,,,,,,,,,,,,,,,,,,,,,,,,,,,,,,,479.5091616999998,479.5091616999998,479.5091616999998,c,2.105470599999535,,,,,,,,,,,,,,,,,5,001,2024-06-27_15h21.44.231,robot_sternberg_sign,2022.2.5,60.03406332755389,
"['R_Arm_Z_Back', 'R_Base_Z_Back', 'R_Base_Z_For', 'L_Torso_Y_For']",True,R_Base_Z_For,4,robot,1,True,False,"['robot_stimuli\\R_Arm_Z_Back.mp4', 'robot_stimuli\\R_Base_Z_Back.mp4', 'robot_stimuli\\R_Base_Z_For.mp4', 'robot_stimuli\\L_Torso_Y_For.mp4']",robot_stimuli\R_Base_Z_For.mp4,5,,,,,,,,,,,,,0,0,0,0,,,,,,,,,,,,,,,,,499.2420665999998,500.3323524000007,,,,,,,,,503.98172740000064,503.98172740000064,503.98172740000064,503.98172740000064,503.98172740000064,503.98172740000064,503.98172740000064,503.98172740000064,None,None,None,,,,,,,,,,,481.6498406999999,481.6498406999999,space,1.7881647000003795,495.61150570000063,500.3323524000007,500.3323524000007,500.3323524000007,500.3323524000007,c,3.53011190000052,,,,,,5,001,2024-06-27_15h21.44.231,robot_sternberg_sign,2022.2.5,60.03406332755389,
"['R_Head_Z_For', 'L_Torso_X_For', 'R_Base_Y_For', 'R_Torso_X_For']",False,R_Head_Z_Back,4,robot,1,False,False,"['robot_stimuli\\R_Head_Z_For.mp4', 'robot_stimuli\\L_Torso_X_For.mp4', 'robot_stimuli\\R_Base_Y_For.mp4', 'robot_stimuli\\R_Torso_X_For.mp4']",robot_stimuli\R_Head_Z_Back.mp4,5,,,,,,,,,,,,,0,1,1,1,,,,,,,,,,,,,,,,,519.8737937000005,520.9654550000005,,,,,,,,,524.6174541,524.6174541,524.6174541,524.6174541,524.6174541,524.6174541,524.6174541,524.6174541,None,None,None,,,,,,,,,,,503.98172740000064,503.98172740000064,None,,516.2312771000006,520.9654550000005,520.9654550000005,520.9654550000005,520.9654550000005,c,2.648752699999932,503.98172740000064,503.98172740000064,,,,5,001,2024-06-27_15h21.44.231,robot_sternberg_sign,2022.2.5,60.03406332755389,
"['R_Arm_Y_For', 'L_Base_Z_Back', 'R_Head_Y_Back', 'R_Base_X_Back']",False,R_Base_Y_Back,4,robot,1,False,False,"['robot_stimuli\\R_Arm_Y_For.mp4', 'robot_stimuli\\L_Base_Z_Back.mp4', 'robot_stimuli\\R_Head_Y_Back.mp4', 'robot_stimuli\\R_Base_X_Back.mp4']",robot_stimuli\R_Base_Y_Back.mp4,5,,,,,,,,,,,,,0,2,2,2,,,,,,,,,,,,,,,,,540.3599844999999,541.4470863000006,,,,,,,,,545.0755073999999,545.0755073999999,545.0755073999999,545.0755073999999,545.0755073999999,545.0755073999999,545.0755073999999,545.0755073999999,None,None,None,,,,,,,,,,,524.6174541,524.6174541,None,,536.7290653999999,541.4470863000006,541.4470863000006,541.4470863000006,541.4470863000006,n,2.9914245999998457,524.6174541,524.6174541,,,,5,001,2024-06-27_15h21.44.231,robot_sternberg_sign,2022.2.5,60.03406332755389,
"['L_Torso_Y_For', 'L_Arm_Y_Back', 'L_Arm_X_Back', 'R_Arm_Z_For']",True,L_Arm_Y_Back,4,robot,1,False,False,"['robot_stimuli\\L_Torso_Y_For.mp4', 'robot_stimuli\\L_Arm_Y_Back.mp4', 'robot_stimuli\\L_Arm_X_Back.mp4', 'robot_stimuli\\R_Arm_Z_For.mp4']",robot_stimuli\L_Arm_Y_Back.mp4,5,,,,,,,,,,,,,0,3,3,3,,,,,,,,,,,,,,,,,560.9721527000002,546.1613237000001,,,,,,,,,565.6921563000005,565.6921563000005,565.6921563000005,565.6921563000005,565.6921563000005,565.6921563000005,565.6921563000005,565.6921563000005,None,None,None,,,,,,,,,,,545.0755073999999,545.0755073999999,None,,557.3301439000006,562.0637758000003,562.0637758000003,562.0637758000003,562.0637758000003,c,3.3656166000000667,545.0755073999999,545.0755073999999,,,,5,001,2024-06-27_15h21.44.231,robot_sternberg_sign,2022.2.5,60.03406332755389,
"['R_Base_Z_For', 'L_Base_Y_For', 'L_Torso_X_For', 'L_Base_Y_Back']",True,L_Base_Y_For,4,robot,1,False,False,"['robot_stimuli\\R_Base_Z_For.mp4', 'robot_stimuli\\L_Base_Y_For.mp4', 'robot_stimuli\\L_Torso_X_For.mp4', 'robot_stimuli\\L_Base_Y_Back.mp4']",robot_stimuli\L_Base_Y_For.mp4,5,,,,,,,,,,,,,0,4,4,4,,,,,,,,,,,,,,,,,581.4087156000005,582.4969494000006,,,,,,,,,586.0264123000006,586.0264123000006,586.0264123000006,586.0264123000006,586.0264123000006,586.0264123000006,586.0264123000006,586.0264123000006,None,None,None,,,,,,,,,,,565.6921563000005,565.6921563000005,None,,577.8446251000005,582.4969494000006,582.4969494000006,582.4969494000006,582.4969494000006,c,2.6049418000002333,565.6921563000005,565.6921563000005,,,,5,001,2024-06-27_15h21.44.231,robot_sternberg_sign,2022.2.5,60.03406332755389,
"['L_Torso_X_Back', 'L_Head_Z_Back', 'L_Torso_Y_For', 'R_Base_Y_Back']",False,R_Base_Y_For,4,robot,1,False,False,"['robot_stimuli\\L_Torso_X_Back.mp4', 'robot_stimuli\\L_Head_Z_Back.mp4', 'robot_stimuli\\L_Torso_Y_For.mp4', 'robot_stimuli\\R_Base_Y_Back.mp4']",robot_stimuli\R_Base_Y_For.mp4,5,,,,,,,,,,,,,0,5,5,5,,,,,,,,,,,,,,,,,601.8878341999998,587.110291,,,,,,,,,606.7647420000003,606.7647420000003,606.7647420000003,606.7647420000003,606.7647420000003,606.7647420000003,606.7647420000003,606.7647420000003,None,None,None,,,,,,,,,,,586.0264123000006,586.0264123000006,None,,598.2545193000005,602.9791525999999,602.9791525999999,602.9791525999999,602.9791525999999,n,3.755605600000308,586.0264123000006,586.0264123000006,,,,5,001,2024-06-27_15h21.44.231,robot_sternberg_sign,2022.2.5,60.03406332755389,
"['L_Arm_Y_For', 'L_Arm_X_For', 'R_Torso_Y_For', 'R_Head_Z_For']",True,R_Torso_Y_For,4,robot,1,False,False,"['robot_stimuli\\L_Arm_Y_For.mp4', 'robot_stimuli\\L_Arm_X_For.mp4', 'robot_stimuli\\R_Torso_Y_For.mp4', 'robot_stimuli\\R_Head_Z_For.mp4']",robot_stimuli\R_Torso_Y_For.mp4,5,,,,,,,,,,,,,0,6,6,6,,,,,,,,,,,,,,,,,622.6244087000005,623.714653,,,,,,,,,627.4816025,627.4816025,627.4816025,627.4816025,627.4816025,627.4816025,627.4816025,627.4816025,None,None,None,,,,,,,,,,,606.7647420000003,606.7647420000003,None,,618.9924977999999,623.714653,623.714653,623.714653,623.714653,c,3.7317533000004914,606.7647420000003,606.7647420000003,,,,5,001,2024-06-27_15h21.44.231,robot_sternberg_sign,2022.2.5,60.03406332755389,
"['L_Base_Y_For', 'L_Base_Z_For', 'L_Head_Y_For', 'R_Arm_Z_For']",False,R_Base_X_Back,4,robot,1,False,False,"['robot_stimuli\\L_Base_Y_For.mp4', 'robot_stimuli\\L_Base_Z_For.mp4', 'robot_stimuli\\L_Head_Y_For.mp4', 'robot_stimuli\\R_Arm_Z_For.mp4']",robot_stimuli\R_Base_X_Back.mp4,5,,,,,,,,,,,,,0,7,7,7,,,,,,,,,,,,,,,,,643.2596454000004,644.3471886000007,,,,,,,,,647.9801732000005,647.9801732000005,647.9801732000005,647.9801732000005,647.9801732000005,647.9801732000005,647.9801732000005,647.9801732000005,None,None,None,,,,,,,,,,,627.4816025,627.4816025,None,,639.6283522000003,644.3471886000007,644.3471886000007,644.3471886000007,644.3471886000007,n,3.5473719999999958,627.4816025,627.4816025,,,,5,001,2024-06-27_15h21.44.231,robot_sternberg_sign,2022.2.5,60.03406332755389,
"['R_Base_Y_Back', 'R_Arm_X_Back', 'L_Torso_Y_For', 'R_Arm_Z_For']",False,R_Torso_X_Back,4,robot,1,False,False,"['robot_stimuli\\R_Base_Y_Back.mp4', 'robot_stimuli\\R_Arm_X_Back.mp4', 'robot_stimuli\\L_Torso_Y_For.mp4', 'robot_stimuli\\R_Arm_Z_For.mp4']",robot_stimuli\R_Torso_X_Back.mp4,5,,,,,,,,,,,,,0,8,8,8,,,,,,,,,,,,,,,,,663.8740508999999,664.9640328000005,,,,,,,,,668.6021314999998,668.6021314999998,668.6021314999998,668.6021314999998,668.6021314999998,668.6021314999998,668.6021314999998,668.6021314999998,None,None,None,,,,,,,,,,,647.9801732000005,647.9801732000005,None,,660.2426134000007,664.9640328000005,664.9640328000005,664.9640328000005,664.9640328000005,c,3.137595500000316,647.9801732000005,647.9801732000005,,,,5,001,2024-06-27_15h21.44.231,robot_sternberg_sign,2022.2.5,60.03406332755389,
"['R_Head_X_For', 'L_Head_Z_Back', 'L_Head_Y_Back', 'L_Torso_X_For']",True,R_Head_X_For,4,robot,1,False,True,"['robot_stimuli\\R_Head_X_For.mp4', 'robot_stimuli\\L_Head_Z_Back.mp4', 'robot_stimuli\\L_Head_Y_Back.mp4', 'robot_stimuli\\L_Torso_X_For.mp4']",robot_stimuli\R_Head_X_For.mp4,5,,,,,,,,,,,,,0,9,9,9,,,,,,,,,,,,,,,,,684.5423070000006,685.6457286000004,,,,,,,,,689.3100903000004,692.8925666000005,689.3100903000004,692.8925666000005,689.3100903000004,692.8925666000005,689.3100903000004,692.8925666000005,59.629629629629626,2.688560300000063,space,,,3.527465199999824,,,,,,,,668.6021314999998,668.6021314999998,None,,680.8970537000005,685.6457286000004,685.6457286000004,685.6457286000004,685.6457286000004,c,2.6556891999998697,668.6021314999998,668.6021314999998,,,,5,001,2024-06-27_15h21.44.231,robot_sternberg_sign,2022.2.5,60.03406332755389,
"['L_Head_X_Back', 'L_Arm_Y_Back']",True,L_Head_X_Back,2,robot,1,True,False,"['robot_stimuli\\L_Head_X_Back.mp4', 'robot_stimuli\\L_Arm_Y_Back.mp4']",robot_stimuli\L_Head_X_Back.mp4,5,,,,,,,,,,,,,0,10,10,10,,,,,,,,,,,,,,,,,703.2573032999999,704.3467430999999,,,,,,,,,707.9751068000005,707.9751068000005,707.9751068000005,707.9751068000005,707.9751068000005,707.9751068000005,707.9751068000005,707.9751068000005,None,None,None,,,,,,,,,,,692.8925666000005,692.8925666000005,space,1.898013400000309,699.6177120000002,704.3467430999999,704.3467430999999,704.3467430999999,704.3467430999999,c,2.394484200000079,,,,,,5,001,2024-06-27_15h21.44.231,robot_sternberg_sign,2022.2.5,60.03406332755389,
"['R_Head_Z_For', 'L_Head_Z_Back']",True,R_Head_Z_For,2,robot,1,False,False,"['robot_stimuli\\R_Head_Z_For.mp4', 'robot_stimuli\\L_Head_Z_Back.mp4']",robot_stimuli\R_Head_Z_For.mp4,5,,,,,,,,,,,,,0,11,11,11,,,,,,,,,,,,,,,,,716.4100660000004,717.4973061999999,,,,,,,,,721.1467284,721.1467284,721.1467284,721.1467284,721.1467284,721.1467284,721.1467284,721.1467284,None,None,None,,,,,,,,,,,707.9751068000005,707.9751068000005,None,,712.7806287000003,717.4973061999999,717.4973061999999,717.4973061999999,717.4973061999999,c,2.9246422000005623,707.9751068000005,707.9751068000005,,,,5,001,2024-06-27_15h21.44.231,robot_sternberg_sign,2022.2.5,60.03406332755389,
"['L_Base_Z_Back', 'R_Base_Z_For']",True,L_Base_Z_Back,2,robot,1,False,False,"['robot_stimuli\\L_Base_Z_Back.mp4', 'robot_stimuli\\R_Base_Z_For.mp4']",robot_stimuli\L_Base_Z_Back.mp4,5,,,,,,,,,,,,,0,12,12,12,,,,,,,,,,,,,,,,,729.5891117000001,722.2264285000001,,,,,,,,,734.3197147000001,734.3197147000001,734.3197147000001,734.3197147000001,734.3197147000001,734.3197147000001,734.3197147000001,734.3197147000001,None,None,None,,,,,,,,,,,721.1467284,721.1467284,None,,725.9498543999998,730.6802904000006,730.6802904000006,730.6802904000006,730.6802904000006,c,2.998153800000182,721.1467284,721.1467284,,,,5,001,2024-06-27_15h21.44.231,robot_sternberg_sign,2022.2.5,60.03406332755389,
"['L_Arm_X_Back', 'L_Head_Z_Back']",True,L_Head_Z_Back,2,robot,1,False,False,"['robot_stimuli\\L_Arm_X_Back.mp4', 'robot_stimuli\\L_Head_Z_Back.mp4']",robot_stimuli\L_Head_Z_Back.mp4,5,,,,,,,,,,,,,0,13,13,13,,,,,,,,,,,,,,,,,742.7425121000006,743.8315834000005,,,,,,,,,747.4802022000003,747.4802022000003,747.4802022000003,747.4802022000003,747.4802022000003,747.4802022000003,747.4802022000003,747.4802022000003,None,None,None,,,,,,,,,,,734.3197147000001,734.3197147000001,None,,739.1110470000003,743.8315834000005,743.8315834000005,743.8315834000005,743.8315834000005,c,3.4939682000003813,734.3197147000001,734.3197147000001,,,,5,001,2024-06-27_15h21.44.231,robot_sternberg_sign,2022.2.5,60.03406332755389,
"['R_Torso_Z_Back', 'R_Base_Z_For']",True,R_Base_Z_For,2,robot,1,False,False,"['robot_stimuli\\R_Torso_Z_Back.mp4', 'robot_stimuli\\R_Base_Z_For.mp4']",robot_stimuli\R_Base_Z_For.mp4,5,,,,,,,,,,,,,0,14,14,14,,,,,,,,,,,,,,,,,755.9023809,756.9806173000006,,,,,,,,,760.6098011000004,760.6098011000004,760.6098011000004,760.6098011000004,760.6098011000004,760.6098011000004,760.6098011000004,760.6098011000004,None,None,None,,,,,,,,,,,747.4802022000003,747.4802022000003,None,,752.2818913000001,756.9806173000006,756.9806173000006,756.9806173000006,756.9806173000006,c,3.273035200000777,747.4802022000003,747.4802022000003,,,,5,001,2024-06-27_15h21.44.231,robot_sternberg_sign,2022.2.5,60.03406332755389,
"['L_Torso_Y_Back', 'L_Base_Y_For']",False,L_Torso_Z_For,2,robot,1,False,False,"['robot_stimuli\\L_Torso_Y_Back.mp4', 'robot_stimuli\\L_Base_Y_For.mp4']",robot_stimuli\L_Torso_Z_For.mp4,5,,,,,,,,,,,,,0,15,15,15,,,,,,,,,,,,,,,,,768.8106888000002,769.8980662000004,,,,,,,,,773.5350923000005,773.5350923000005,773.5350923000005,773.5350923000005,773.5350923000005,773.5350923000005,773.5350923000005,773.5350923000005,None,None,None,,,,,,,,,,,760.6098011000004,760.6098011000004,None,,765.2819076000005,769.8980662000004,769.8980662000004,769.8980662000004,769.8980662000004,n,3.4208035999999993,760.6098011000004,760.6098011000004,,,,5,001,2024-06-27_15h21.44.231,robot_sternberg_sign,2022.2.5,60.03406332755389,
"['R_Head_Z_Back', 'L_Torso_X_For']",False,R_Head_Z_For,2,robot,1,False,False,"['robot_stimuli\\R_Head_Z_Back.mp4', 'robot_stimuli\\L_Torso_X_For.mp4']",robot_stimuli\R_Head_Z_For.mp4,5,,,,,,,,,,,,,0,16,16,16,,,,,,,,,,,,,,,,,781.9717766000003,774.6103302000001,,,,,,,,,786.6929371000006,786.6929371000006,786.6929371000006,786.6929371000006,786.6929371000006,786.6929371000006,786.6929371000006,786.6929371000006,None,None,None,,,,,,,,,,,773.5350923000005,773.5350923000005,None,,778.3362173000005,783.0633330999999,783.0633330999999,783.0633330999999,783.0633330999999,n,2.662228199999845,773.5350923000005,773.5350923000005,,,,5,001,2024-06-27_15h21.44.231,robot_sternberg_sign,2022.2.5,60.03406332755389,
"['R_Torso_Z_Back', 'L_Torso_Z_Back']",False,L_Base_Z_Back,2,robot,1,False,False,"['robot_stimuli\\R_Torso_Z_Back.mp4', 'robot_stimuli\\L_Torso_Z_Back.mp4']",robot_stimuli\L_Base_Z_Back.mp4,5,,,,,,,,,,,,,0,17,17,17,,,,,,,,,,,,,,,,,795.0066912000002,796.0934194000001,,,,,,,,,799.7293760000002,799.7293760000002,799.7293760000002,799.7293760000002,799.7293760000002,799.7293760000002,799.7293760000002,799.7293760000002,None,None,None,,,,,,,,,,,786.6929371000006,786.6929371000006,None,,791.5008440000001,796.0934194000001,796.0934194000001,796.0934194000001,796.0934194000001,n,3.176843100000042,786.6929371000006,786.6929371000006,,,,5,001,2024-06-27_15h21.44.231,robot_sternberg_sign,2022.2.5,60.03406332755389,
"['L_Torso_Y_For', 'R_Base_Z_Back']",False,L_Head_Z_Back,2,robot,1,False,False,"['robot_stimuli\\L_Torso_Y_For.mp4', 'robot_stimuli\\R_Base_Z_Back.mp4']",robot_stimuli\L_Head_Z_Back.mp4,5,,,,,,,,,,,,,0,18,18,18,,,,,,,,,,,,,,,,,808.0759603000006,809.1636697000004,,,,,,,,,812.7935263999998,812.7935263999998,812.7935263999998,812.7935263999998,812.7935263999998,812.7935263999998,812.7935263999998,812.7935263999998,None,None,None,,,,,,,,,,,799.7293760000002,799.7293760000002,None,,804.5462869000003,809.1636697000004,809.1636697000004,809.1636697000004,809.1636697000004,n,2.6094166000002588,799.7293760000002,799.7293760000002,,,,5,001,2024-06-27_15h21.44.231,robot_sternberg_sign,2022.2.5,60.03406332755389,
"['L_Head_X_Back', 'R_Torso_Z_Back']",False,L_Head_X_For,2,robot,1,False,True,"['robot_stimuli\\L_Head_X_Back.mp4', 'robot_stimuli\\R_Torso_Z_Back.mp4']",robot_stimuli\L_Head_X_For.mp4,5,,,,,,,,,,,,,0,19,19,19,,,,,,,,,,,,,,,,,821.225391,822.3127668000006,,,,,,,,,825.9155236000006,829.4997029000006,825.9155236000006,829.4997029000006,825.9155236000006,829.4997029000006,825.9155236000006,829.4997029000006,34.32098765432099,2.834879799999726,space,,,3.5293481000007887,,,,,,,,812.7935263999998,812.7935263999998,None,,817.5941969000005,822.3127668000006,822.3127668000006,822.3127668000006,822.3127668000006,c,2.774114499999996,812.7935263999998,812.7935263999998,,,,5,001,2024-06-27_15h21.44.231,robot_sternberg_sign,2022.2.5,60.03406332755389,
"['L_Base_X_For', 'L_Arm_Y_For', 'L_Head_Y_For', 'R_Arm_Y_For', 'R_Head_Y_Back', 'R_Base_X_For']",False,R_Arm_Z_Back,6,robot,1,True,False,"['robot_stimuli\\L_Base_X_For.mp4', 'robot_stimuli\\L_Arm_Y_For.mp4', 'robot_stimuli\\L_Head_Y_For.mp4', 'robot_stimuli\\R_Arm_Y_For.mp4', 'robot_stimuli\\R_Head_Y_Back.mp4', 'robot_stimuli\\R_Base_X_For.mp4']",robot_stimuli\R_Arm_Z_Back.mp4,5,,,,,,,,,,,,,0,20,20,20,,,,,,,,,,,,,,,,,854.3893353000003,855.4805686,,,,,,,,,859.1298701000005,859.1298701000005,859.1298701000005,859.1298701000005,859.1298701000005,859.1298701000005,859.1298701000005,859.1298701000005,None,None,None,,,,,,,,,,,829.4997029000006,829.4997029000006,space,1.8433359000000564,850.8593873999998,855.4805686,855.4805686,855.4805686,855.4805686,n,2.8925303000005442,,,,,,5,001,2024-06-27_15h21.44.231,robot_sternberg_sign,2022.2.5,60.03406332755389,
"['L_Arm_X_Back', 'R_Head_X_Back', 'R_Arm_Y_For', 'L_Torso_Y_For', 'L_Head_Z_For', 'L_Torso_X_Back']",False,R_Arm_X_For,6,robot,1,False,False,"['robot_stimuli\\L_Arm_X_Back.mp4', 'robot_stimuli\\R_Head_X_Back.mp4', 'robot_stimuli\\R_Arm_Y_For.mp4', 'robot_stimuli\\L_Torso_Y_For.mp4', 'robot_stimuli\\L_Head_Z_For.mp4', 'robot_stimuli\\L_Torso_X_Back.mp4']",robot_stimuli\R_Arm_X_For.mp4,5,,,,,,,,,,,,,0,21,21,21,,,,,,,,,,,,,,,,,882.3410914000006,883.4292543000001,,,,,,,,,887.0583238999998,887.0583238999998,887.0583238999998,887.0583238999998,887.0583238999998,887.0583238999998,887.0583238999998,887.0583238999998,None,None,None,,,,,,,,,,,859.1298701000005,859.1298701000005,None,,878.6972814000001,883.4292543000001,883.4292543000001,883.4292543000001,883.4292543000001,n,3.463807799999813,859.1298701000005,859.1298701000005,,,,5,001,2024-06-27_15h21.44.231,robot_sternberg_sign,2022.2.5,60.03406332755389,
"['R_Base_Y_For', 'L_Arm_Z_For', 'R_Base_X_Back', 'R_Head_Z_Back', 'R_Arm_X_For', 'L_Arm_Y_Back']",True,L_Arm_Z_For,6,robot,1,False,False,"['robot_stimuli\\R_Base_Y_For.mp4', 'robot_stimuli\\L_Arm_Z_For.mp4', 'robot_stimuli\\R_Base_X_Back.mp4', 'robot_stimuli\\R_Head_Z_Back.mp4', 'robot_stimuli\\R_Arm_X_For.mp4', 'robot_stimuli\\L_Arm_Y_Back.mp4']",robot_stimuli\L_Arm_Z_For.mp4,5,,,,,,,,,,,,,0,22,22,22,,,,,,,,,,,,,,,,,910.3887106000002,888.1425060000001,,,,,,,,,917.3828515000005,917.3828515000005,917.3828515000005,917.3828515000005,917.3828515000005,917.3828515000005,917.3828515000005,917.3828515000005,None,None,None,,,,,,,,,,,887.0583238999998,887.0583238999998,None,,906.7631310000006,911.4958668999998,911.4958668999998,911.4958668999998,911.4958668999998,n,5.8544504000001325,887.0583238999998,887.0583238999998,,,,5,001,2024-06-27_15h21.44.231,robot_sternberg_sign,2022.2.5,60.03406332755389,
"['R_Torso_Y_Back', 'L_Torso_Z_Back', 'L_Base_Z_For', 'L_Arm_X_Back', 'L_Arm_Y_For', 'L_Arm_Y_Back']",False,L_Head_Y_For,6,robot,1,False,False,"['robot_stimuli\\R_Torso_Y_Back.mp4', 'robot_stimuli\\L_Torso_Z_Back.mp4', 'robot_stimuli\\L_Base_Z_For.mp4', 'robot_stimuli\\L_Arm_X_Back.mp4', 'robot_stimuli\\L_Arm_Y_For.mp4', 'robot_stimuli\\L_Arm_Y_Back.mp4']",robot_stimuli\L_Head_Y_For.mp4,5,,,,,,,,,,,,,0,23,23,23,,,,,,,,,,,,,,,,,940.5524820999999,941.6319354000007,,,,,,,,,951.3475526000002,951.3475526000002,951.3475526000002,951.3475526000002,951.3475526000002,951.3475526000002,951.3475526000002,951.3475526000002,None,None,None,,,,,,,,,,,917.3828515000005,917.3828515000005,None,,936.9295184000002,941.6319354000007,941.6319354000007,941.6319354000007,941.6319354000007,n,9.686004500000308,917.3828515000005,917.3828515000005,,,,5,001,2024-06-27_15h21.44.231,robot_sternberg_sign,2022.2.5,60.03406332755389,
"['L_Arm_Z_Back', 'R_Base_Y_Back', 'L_Torso_Z_Back', 'L_Base_Y_Back', 'R_Arm_Y_For', 'L_Arm_Y_For']",True,R_Base_Y_Back,6,robot,1,False,False,"['robot_stimuli\\L_Arm_Z_Back.mp4', 'robot_stimuli\\R_Base_Y_Back.mp4', 'robot_stimuli\\L_Torso_Z_Back.mp4', 'robot_stimuli\\L_Base_Y_Back.mp4', 'robot_stimuli\\R_Arm_Y_For.mp4', 'robot_stimuli\\L_Arm_Y_For.mp4']",robot_stimuli\R_Base_Y_Back.mp4,5,,,,,,,,,,,,,0,24,24,24,,,,,,,,,,,,,,,,,974.3593680000004,975.4484892,,,,,,,,,979.9142111000001,979.9142111000001,979.9142111000001,979.9142111000001,979.9142111000001,979.9142111000001,979.9142111000001,979.9142111000001,None,None,None,,,,,,,,,,,951.3475526000002,951.3475526000002,None,,970.7297285000004,975.4484892,975.4484892,975.4484892,975.4484892,c,4.438208999999915,951.3475526000002,951.3475526000002,,,,5,001,2024-06-27_15h21.44.231,robot_sternberg_sign,2022.2.5,60.03406332755389,
"['R_Arm_Z_Back', 'L_Torso_X_Back', 'R_Base_Y_Back', 'L_Arm_Z_Back', 'R_Base_Z_For', 'R_Torso_X_Back']",True,L_Arm_Z_Back,6,robot,1,False,False,"['robot_stimuli\\R_Arm_Z_Back.mp4', 'robot_stimuli\\L_Torso_X_Back.mp4', 'robot_stimuli\\R_Base_Y_Back.mp4', 'robot_stimuli\\L_Arm_Z_Back.mp4', 'robot_stimuli\\R_Base_Z_For.mp4', 'robot_stimuli\\R_Torso_X_Back.mp4']",robot_stimuli\L_Arm_Z_Back.mp4,5,,,,,,,,,,,,,0,25,25,25,,,,,,,,,,,,,,,,,1003.2395258000006,1004.3300544000003,,,,,,,,,1008.2104620999999,1008.2104620999999,1008.2104620999999,1008.2104620999999,1008.2104620999999,1008.2104620999999,1008.2104620999999,1008.2104620999999,None,None,None,,,,,,,,,,,979.9142111000001,979.9142111000001,None,,999.6098295000002,1004.3300544000003,1004.3300544000003,1004.3300544000003,1004.3300544000003,c,3.8524516999996194,979.9142111000001,979.9142111000001,,,,5,001,2024-06-27_15h21.44.231,robot_sternberg_sign,2022.2.5,60.03406332755389,
"['L_Torso_Y_For', 'R_Torso_Z_For', 'L_Arm_Y_For', 'R_Base_X_For', 'L_Base_Z_Back', 'R_Base_X_Back']",False,L_Torso_Z_For,6,robot,1,False,False,"['robot_stimuli\\L_Torso_Y_For.mp4', 'robot_stimuli\\R_Torso_Z_For.mp4', 'robot_stimuli\\L_Arm_Y_For.mp4', 'robot_stimuli\\R_Base_X_For.mp4', 'robot_stimuli\\L_Base_Z_Back.mp4', 'robot_stimuli\\R_Base_X_Back.mp4']",robot_stimuli\L_Torso_Z_For.mp4,5,,,,,,,,,,,,,0,26,26,26,,,,,,,,,,,,,,,,,1031.4265967000001,1032.5153359000005,,,,,,,,,1036.1648570000007,1036.1648570000007,1036.1648570000007,1036.1648570000007,1036.1648570000007,1036.1648570000007,1036.1648570000007,1036.1648570000007,None,None,None,,,,,,,,,,,1008.2104620999999,1008.2104620999999,None,,1027.7938540000005,1032.5153359000005,1032.5153359000005,1032.5153359000005,1032.5153359000005,c,2.9224637000006624,1008.2104620999999,1008.2104620999999,,,,5,001,2024-06-27_15h21.44.231,robot_sternberg_sign,2022.2.5,60.03406332755389,
"['R_Torso_Z_For', 'L_Base_Y_For', 'R_Torso_X_Back', 'R_Torso_Z_Back', 'R_Head_Y_Back', 'L_Torso_Y_Back']",True,R_Torso_X_Back,6,robot,1,False,False,"['robot_stimuli\\R_Torso_Z_For.mp4', 'robot_stimuli\\L_Base_Y_For.mp4', 'robot_stimuli\\R_Torso_X_Back.mp4', 'robot_stimuli\\R_Torso_Z_Back.mp4', 'robot_stimuli\\R_Head_Y_Back.mp4', 'robot_stimuli\\L_Torso_Y_Back.mp4']",robot_stimuli\R_Torso_X_Back.mp4,5,,,,,,,,,,,,,0,27,27,27,,,,,,,,,,,,,,,,,1059.3072104000003,1060.3977326000004,,,,,,,,,1065.1922487000002,1065.1922487000002,1065.1922487000002,1065.1922487000002,1065.1922487000002,1065.1922487000002,1065.1922487000002,1065.1922487000002,None,None,None,,,,,,,,,,,1036.1648570000007,1036.1648570000007,None,,1055.7982115000004,1060.3977326000004,1060.3977326000004,1060.3977326000004,1060.3977326000004,n,4.768145400000321,1036.1648570000007,1036.1648570000007,,,,5,001,2024-06-27_15h21.44.231,robot_sternberg_sign,2022.2.5,60.03406332755389,
"['L_Torso_Y_Back', 'L_Torso_Z_For', 'L_Head_Z_For', 'L_Base_X_For', 'R_Arm_Y_For', 'L_Torso_X_Back']",True,L_Torso_Y_Back,6,robot,1,False,False,"['robot_stimuli\\L_Torso_Y_Back.mp4', 'robot_stimuli\\L_Torso_Z_For.mp4', 'robot_stimuli\\L_Head_Z_For.mp4', 'robot_stimuli\\L_Base_X_For.mp4', 'robot_stimuli\\R_Arm_Y_For.mp4', 'robot_stimuli\\L_Torso_X_Back.mp4']",robot_stimuli\L_Torso_Y_Back.mp4,5,,,,,,,,,,,,,0,28,28,28,,,,,,,,,,,,,,,,,1088.1607309,1089.2497455000002,,,,,,,,,1096.2642107000001,1096.2642107000001,1096.2642107000001,1096.2642107000001,1096.2642107000001,1096.2642107000001,1096.2642107000001,1096.2642107000001,None,None,None,,,,,,,,,,,1065.1922487000002,1065.1922487000002,None,,1084.5296428000001,1089.2497455000002,1089.2497455000002,1089.2497455000002,1089.2497455000002,c,6.987865600000077,1065.1922487000002,1065.1922487000002,,,,5,001,2024-06-27_15h21.44.231,robot_sternberg_sign,2022.2.5,60.03406332755389,
"['R_Head_Z_Back', 'R_Base_Y_Back', 'R_Torso_X_For', 'L_Arm_Y_Back', 'R_Base_X_For', 'L_Arm_Z_For']",False,R_Torso_Z_Back,6,robot,1,False,True,"['robot_stimuli\\R_Head_Z_Back.mp4', 'robot_stimuli\\R_Base_Y_Back.mp4', 'robot_stimuli\\R_Torso_X_For.mp4', 'robot_stimuli\\L_Arm_Y_Back.mp4', 'robot_stimuli\\R_Base_X_For.mp4', 'robot_stimuli\\L_Arm_Z_For.mp4']",robot_stimuli\R_Torso_Z_Back.mp4,5,,,,,,,,,,,,,0,29,29,29,,,,,,,,,,,,,,,,,1119.4892386000001,1097.3449280000004,,,,,,,,,1124.2510364999998,1129.3750066000002,1124.2510364999998,1129.3750066000002,1124.2510364999998,1129.3750066000002,1124.2510364999998,1129.3750066000002,55.15432098765432,4.315873700000338,space,,,5.081891000000724,,,,,,,,1096.2642107000001,1096.2642107000001,None,,1115.8428248,1120.5799080000006,1120.5799080000006,1120.5799080000006,1120.5799080000006,c,2.8900487999999314,1096.2642107000001,1096.2642107000001,,,,5,001,2024-06-27_15h21.44.231,robot_sternberg_sign,2022.2.5,60.03406332755389,
"['D', 'M', 'K', 'V']",True,K,4,letter,2,True,False,"['robot_stimuli\\\\filler.mp4', 'robot_stimuli\\\\filler.mp4', 'robot_stimuli\\\\filler.mp4', 'robot_stimuli\\\\filler.mp4']",robot_stimuli\\filler.mp4,5,,,,,,,,,,,,,0,30,30,30,,,,,,,,,,,,,,,,,1144.3579349000001,1145.4236091000002,,,,,,,,,1146.6465317000002,1146.6465317000002,1146.6465317000002,1146.6465317000002,1146.6465317000002,1146.6465317000002,1146.6465317000002,1146.6465317000002,None,None,None,,,,,,,,,,,1129.3750066000002,1129.3750066000002,space,4.798911799999587,,,1145.4236091000002,1145.4236091000002,1145.4236091000002,c,1.1026542999998128,,,1142.1465683000006,1144.3579349000001,1145.4236091000002,5,001,2024-06-27_15h21.44.231,robot_sternberg_sign,2022.2.5,60.03406332755389,
"['C', 'W', 'D', 'F']",True,W,4,letter,2,False,False,"['robot_stimuli\\\\filler.mp4', 'robot_stimuli\\\\filler.mp4', 'robot_stimuli\\\\filler.mp4', 'robot_stimuli\\\\filler.mp4']",robot_stimuli\\filler.mp4,5,,,,,,,,,,,,,0,31,31,31,,,,,,,,,,,,,,,,,1155.9917882999998,1157.0585110000002,,,,,,,,,1159.0866526999998,1159.0866526999998,1159.0866526999998,1159.0866526999998,1159.0866526999998,1159.0866526999998,1159.0866526999998,1159.0866526999998,None,None,None,,,,,,,,,,,1146.6465317000002,1146.6465317000002,None,,,,1157.0585110000002,1157.0585110000002,1157.0585110000002,c,1.8907466999999087,1146.6465317000002,1146.6465317000002,1153.9739951000001,1155.9917882999998,1157.0585110000002,5,001,2024-06-27_15h21.44.231,robot_sternberg_sign,2022.2.5,60.03406332755389,
"['K', 'P', 'Q', 'H']",False,V,4,letter,2,False,False,"['robot_stimuli\\\\filler.mp4', 'robot_stimuli\\\\filler.mp4', 'robot_stimuli\\\\filler.mp4', 'robot_stimuli\\\\filler.mp4']",robot_stimuli\\filler.mp4,5,,,,,,,,,,,,,0,32,32,32,,,,,,,,,,,,,,,,,1168.6249756000007,1169.6884896000001,,,,,,,,,1171.3122701000002,1171.3122701000002,1171.3122701000002,1171.3122701000002,1171.3122701000002,1171.3122701000002,1171.3122701000002,1171.3122701000002,None,None,None,,,,,,,,,,,1159.0866526999998,1159.0866526999998,None,,,,1169.6884896000001,1169.6884896000001,1169.6884896000001,n,1.516850500000146,1159.0866526999998,1159.0866526999998,1166.4129160000002,1168.6249756000007,1169.6884896000001,5,001,2024-06-27_15h21.44.231,robot_sternberg_sign,2022.2.5,60.03406332755389,
"['V', 'R', 'M', 'H']",False,N,4,letter,2,False,False,"['robot_stimuli\\\\filler.mp4', 'robot_stimuli\\\\filler.mp4', 'robot_stimuli\\\\filler.mp4', 'robot_stimuli\\\\filler.mp4']",robot_stimuli\\filler.mp4,5,,,,,,,,,,,,,0,33,33,33,,,,,,,,,,,,,,,,,1180.8493998000004,1181.9053484000005,,,,,,,,,1183.3349765000003,1183.3349765000003,1183.3349765000003,1183.3349765000003,1183.3349765000003,1183.3349765000003,1183.3349765000003,1183.3349765000003,None,None,None,,,,,,,,,,,1171.3122701000002,1171.3122701000002,None,,,,1181.9053484000005,1181.9053484000005,1181.9053484000005,n,1.2928742000003695,1171.3122701000002,1171.3122701000002,1178.8323752000006,1180.8493998000004,1181.9053484000005,5,001,2024-06-27_15h21.44.231,robot_sternberg_sign,2022.2.5,60.03406332755389,
"['L', 'R', 'X', 'H']",False,D,4,letter,2,False,False,"['robot_stimuli\\\\filler.mp4', 'robot_stimuli\\\\filler.mp4', 'robot_stimuli\\\\filler.mp4', 'robot_stimuli\\\\filler.mp4']",robot_stimuli\\filler.mp4,5,,,,,,,,,,,,,0,34,34,34,,,,,,,,,,,,,,,,,1192.8627456000004,1193.9241478000004,,,,,,,,,1195.3459440000006,1195.3459440000006,1195.3459440000006,1195.3459440000006,1195.3459440000006,1195.3459440000006,1195.3459440000006,1195.3459440000006,None,None,None,,,,,,,,,,,1183.3349765000003,1183.3349765000003,None,,,,1193.9241478000004,1193.9241478000004,1193.9241478000004,n,1.3135729000005085,1183.3349765000003,1183.3349765000003,1190.8448646000006,1192.8627456000004,1193.9241478000004,5,001,2024-06-27_15h21.44.231,robot_sternberg_sign,2022.2.5,60.03406332755389,
"['Z', 'X', 'B', 'R']",False,V,4,letter,2,False,False,"['robot_stimuli\\\\filler.mp4', 'robot_stimuli\\\\filler.mp4', 'robot_stimuli\\\\filler.mp4', 'robot_stimuli\\\\filler.mp4']",robot_stimuli\\filler.mp4,5,,,,,,,,,,,,,0,35,35,35,,,,,,,,,,,,,,,,,1204.8797068000003,1205.9393025999998,,,,,,,,,1207.367983,1207.367983,1207.367983,1207.367983,1207.367983,1207.367983,1207.367983,1207.367983,None,None,None,,,,,,,,,,,1195.3459440000006,1195.3459440000006,None,,,,1205.9393025999998,1205.9393025999998,1205.9393025999998,n,1.274512500000128,1195.3459440000006,1195.3459440000006,1202.8655943000003,1204.8797068000003,1205.9393025999998,5,001,2024-06-27_15h21.44.231,robot_sternberg_sign,2022.2.5,60.03406332755389,
"['G', 'J', 'K', 'B']",True,J,4,letter,2,False,False,"['robot_stimuli\\\\filler.mp4', 'robot_stimuli\\\\filler.mp4', 'robot_stimuli\\\\filler.mp4', 'robot_stimuli\\\\filler.mp4']",robot_stimuli\\filler.mp4,5,,,,,,,,,,,,,0,36,36,36,,,,,,,,,,,,,,,,,1217.0920833999999,1218.1562777999998,,,,,,,,,1219.3846110000004,1219.3846110000004,1219.3846110000004,1219.3846110000004,1219.3846110000004,1219.3846110000004,1219.3846110000004,1219.3846110000004,None,None,None,,,,,,,,,,,1207.367983,1207.367983,None,,,,1218.1562777999998,1218.1562777999998,1218.1562777999998,c,1.049289100000351,1207.367983,1207.367983,1214.8713855000005,1217.0920833999999,1218.1562777999998,5,001,2024-06-27_15h21.44.231,robot_sternberg_sign,2022.2.5,60.03406332755389,
"['Q', 'M', 'J', 'V']",True,Q,4,letter,2,False,False,"['robot_stimuli\\\\filler.mp4', 'robot_stimuli\\\\filler.mp4', 'robot_stimuli\\\\filler.mp4', 'robot_stimuli\\\\filler.mp4']",robot_stimuli\\filler.mp4,5,,,,,,,,,,,,,0,37,37,37,,,,,,,,,,,,,,,,,1229.11247,1230.1747352000002,,,,,,,,,1231.3970710000003,1231.3970710000003,1231.3970710000003,1231.3970710000003,1231.3970710000003,1231.3970710000003,1231.3970710000003,1231.3970710000003,None,None,None,,,,,,,,,,,1219.3846110000004,1219.3846110000004,None,,,,1230.1747352000002,1230.1747352000002,1230.1747352000002,c,1.150991100000283,1219.3846110000004,1219.3846110000004,1226.8903220000002,1229.11247,1230.1747352000002,5,001,2024-06-27_15h21.44.231,robot_sternberg_sign,2022.2.5,60.03406332755389,
"['Z', 'X', 'R', 'W']",True,R,4,letter,2,False,False,"['robot_stimuli\\\\filler.mp4', 'robot_stimuli\\\\filler.mp4', 'robot_stimuli\\\\filler.mp4', 'robot_stimuli\\\\filler.mp4']",robot_stimuli\\filler.mp4,5,,,,,,,,,,,,,0,38,38,38,,,,,,,,,,,,,,,,,1241.1247905999999,1242.2041714000006,,,,,,,,,1244.0355614,1244.0355614,1244.0355614,1244.0355614,1244.0355614,1244.0355614,1244.0355614,1244.0355614,None,None,None,,,,,,,,,,,1231.3970710000003,1231.3970710000003,None,,,,1242.2041714000006,1242.2041714000006,1242.2041714000006,c,1.593988800000261,1231.3970710000003,1231.3970710000003,1239.1126167000002,1241.1247905999999,1242.2041714000006,5,001,2024-06-27_15h21.44.231,robot_sternberg_sign,2022.2.5,60.03406332755389,
"['B', 'Q', 'F', 'M']",False,T,4,letter,2,False,True,"['robot_stimuli\\\\filler.mp4', 'robot_stimuli\\\\filler.mp4', 'robot_stimuli\\\\filler.mp4', 'robot_stimuli\\\\filler.mp4']",robot_stimuli\\filler.mp4,5,,,,,,,,,,,,,0,39,39,39,,,,,,,,,,,,,,,,,1253.5696292000002,1254.6238658000002,,,,,,,,,1256.0848473000005,1259.7333331999998,1256.0848473000005,1259.7333331999998,1256.0848473000005,1259.7333331999998,1256.0848473000005,1259.7333331999998,23.364197530864192,2.626901199999338,space,,,3.5918570000003456,,,,,,,,1244.0355614,1244.0355614,None,,,,1254.6238658000002,1254.6238658000002,1254.6238658000002,n,1.3741558000001532,1244.0355614,1244.0355614,1251.5458878,1253.5696292000002,1254.6238658000002,5,001,2024-06-27_15h21.44.231,robot_sternberg_sign,2022.2.5,60.03406332755389,
"['S', 'Q']",False,M,2,letter,2,True,False,"['robot_stimuli\\\\filler.mp4', 'robot_stimuli\\\\filler.mp4']",robot_stimuli\\filler.mp4,5,,,,,,,,,,,,,0,40,40,40,,,,,,,,,,,,,,,,,1266.2720112000006,1261.7793769,,,,,,,,,1268.1673009000006,1268.1673009000006,1268.1673009000006,1268.1673009000006,1268.1673009000006,1268.1673009000006,1268.1673009000006,1268.1673009000006,None,None,None,,,,,,,,,,,1259.7333331999998,1259.7333331999998,space,0.960778399999981,,,1267.3400071000005,1267.3400071000005,1267.3400071000005,n,0.6894396999996388,,,1264.0644622999998,1266.2720112000006,1267.3400071000005,5,001,2024-06-27_15h21.44.231,robot_sternberg_sign,2022.2.5,60.03406332755389,
"['T', 'F']",True,F,2,letter,2,False,False,"['robot_stimuli\\\\filler.mp4', 'robot_stimuli\\\\filler.mp4']",robot_stimuli\\filler.mp4,5,,,,,,,,,,,,,0,41,41,41,,,,,,,,,,,,,,,,,1273.5336115,1274.5897037000004,,,,,,,,,1275.6109133999998,1275.6109133999998,1275.6109133999998,1275.6109133999998,1275.6109133999998,1275.6109133999998,1275.6109133999998,1275.6109133999998,None,None,None,,,,,,,,,,,1268.1673009000006,1268.1673009000006,None,,,,1274.5897037000004,1274.5897037000004,1274.5897037000004,c,0.8478412000004028,1268.1673009000006,1268.1673009000006,1271.5119162,1273.5336115,1274.5897037000004,5,001,2024-06-27_15h21.44.231,robot_sternberg_sign,2022.2.5,60.03406332755389,
"['J', 'P']",True,P,2,letter,2,False,False,"['robot_stimuli\\\\filler.mp4', 'robot_stimuli\\\\filler.mp4']",robot_stimuli\\filler.mp4,5,,,,,,,,,,,,,0,42,42,42,,,,,,,,,,,,,,,,,1280.9827034,1282.0402189000006,,,,,,,,,1283.0620829,1283.0620829,1283.0620829,1283.0620829,1283.0620829,1283.0620829,1283.0620829,1283.0620829,None,None,None,,,,,,,,,,,1275.6109133999998,1275.6109133999998,None,,,,1282.0402189000006,1282.0402189000006,1282.0402189000006,c,0.8285610000002634,1275.6109133999998,1275.6109133999998,1278.9605028000005,1280.9827034,1282.0402189000006,5,001,2024-06-27_15h21.44.231,robot_sternberg_sign,2022.2.5,60.03406332755389,
"['X', 'S']",False,G,2,letter,2,False,False,"['robot_stimuli\\\\filler.mp4', 'robot_stimuli\\\\filler.mp4']",robot_stimuli\\filler.mp4,5,,,,,,,,,,,,,0,43,43,43,,,,,,,,,,,,,,,,,1288.4279160000006,1289.4917753999998,,,,,,,,,1290.1131216000003,1290.1131216000003,1290.1131216000003,1290.1131216000003,1290.1131216000003,1290.1131216000003,1290.1131216000003,1290.1131216000003,None,None,None,,,,,,,,,,,1283.0620829,1283.0620829,None,,,,1289.4917753999998,1289.4917753999998,1289.4917753999998,n,0.5533136000003651,1283.0620829,1283.0620829,1286.4126385,1288.4279160000006,1289.4917753999998,5,001,2024-06-27_15h21.44.231,robot_sternberg_sign,2022.2.5,60.03406332755389,
"['K', 'G']",False,L,2,letter,2,False,False,"['robot_stimuli\\\\filler.mp4', 'robot_stimuli\\\\filler.mp4']",robot_stimuli\\filler.mp4,5,,,,,,,,,,,,,0,44,44,44,,,,,,,,,,,,,,,,,1295.4879909,1291.1732124,,,,,,,,,1297.3844024,1297.3844024,1297.3844024,1297.3844024,1297.3844024,1297.3844024,1297.3844024,1297.3844024,None,None,None,,,,,,,,,,,1290.1131216000003,1290.1131216000003,None,,,,1296.5558048000003,1296.5558048000003,1296.5558048000003,n,0.7623318999994808,1290.1131216000003,1290.1131216000003,1293.4641493,1295.4879909,1296.5558048000003,5,001,2024-06-27_15h21.44.231,robot_sternberg_sign,2022.2.5,60.03406332755389,
"['V', 'R']",False,T,2,letter,2,False,False,"['robot_stimuli\\\\filler.mp4', 'robot_stimuli\\\\filler.mp4']",robot_stimuli\\filler.mp4,5,,,,,,,,,,,,,0,45,45,45,,,,,,,,,,,,,,,,,1302.9420831000007,1304.0058112000006,,,,,,,,,1305.0345449000006,1305.0345449000006,1305.0345449000006,1305.0345449000006,1305.0345449000006,1305.0345449000006,1305.0345449000006,1305.0345449000006,None,None,None,,,,,,,,,,,1297.3844024,1297.3844024,None,,,,1304.0058112000006,1304.0058112000006,1304.0058112000006,n,0.823793200000182,1297.3844024,1297.3844024,1300.7245285,1302.9420831000007,1304.0058112000006,5,001,2024-06-27_15h21.44.231,robot_sternberg_sign,2022.2.5,60.03406332755389,
"['F', 'R']",False,V,2,letter,2,False,False,"['robot_stimuli\\\\filler.mp4', 'robot_stimuli\\\\filler.mp4']",robot_stimuli\\filler.mp4,5,,,,,,,,,,,,,0,46,46,46,,,,,,,,,,,,,,,,,1310.4008589000005,1311.4571538999999,,,,,,,,,1312.6764240000002,1312.6764240000002,1312.6764240000002,1312.6764240000002,1312.6764240000002,1312.6764240000002,1312.6764240000002,1312.6764240000002,None,None,None,,,,,,,,,,,1305.0345449000006,1305.0345449000006,None,,,,1311.4571538999999,1311.4571538999999,1311.4571538999999,n,0.9964921999999206,1305.0345449000006,1305.0345449000006,1308.3809656000003,1310.4008589000005,1311.4571538999999,5,001,2024-06-27_15h21.44.231,robot_sternberg_sign,2022.2.5,60.03406332755389,
"['W', 'M']",True,W,2,letter,2,False,False,"['robot_stimuli\\\\filler.mp4', 'robot_stimuli\\\\filler.mp4']",robot_stimuli\\filler.mp4,5,,,,,,,,,,,,,0,47,47,47,,,,,,,,,,,,,,,,,1318.2569187999998,1319.3221597000002,,,,,,,,,1320.5509413,1320.5509413,1320.5509413,1320.5509413,1320.5509413,1320.5509413,1320.5509413,1320.5509413,None,None,None,,,,,,,,,,,1312.6764240000002,1312.6764240000002,None,,,,1319.3221597000002,1319.3221597000002,1319.3221597000002,c,1.1148721999998088,1312.6764240000002,1312.6764240000002,1316.0391979000005,1318.2569187999998,1319.3221597000002,5,001,2024-06-27_15h21.44.231,robot_sternberg_sign,2022.2.5,60.03406332755389,
"['L', 'B']",True,B,2,letter,2,False,False,"['robot_stimuli\\\\filler.mp4', 'robot_stimuli\\\\filler.mp4']",robot_stimuli\\filler.mp4,5,,,,,,,,,,,,,0,48,48,48,,,,,,,,,,,,,,,,,1326.1135249,1327.1727799999999,,,,,,,,,1328.0022568000004,1328.0022568000004,1328.0022568000004,1328.0022568000004,1328.0022568000004,1328.0022568000004,1328.0022568000004,1328.0022568000004,None,None,None,,,,,,,,,,,1320.5509413,1320.5509413,None,,,,1327.1727799999999,1327.1727799999999,1327.1727799999999,c,0.7365325000000666,1320.5509413,1320.5509413,1323.8909555,1326.1135249,1327.1727799999999,5,001,2024-06-27_15h21.44.231,robot_sternberg_sign,2022.2.5,60.03406332755389,
"['G', 'B']",True,B,2,letter,2,False,True,"['robot_stimuli\\\\filler.mp4', 'robot_stimuli\\\\filler.mp4']",robot_stimuli\\filler.mp4,5,,,,,,,,,,,,,0,49,49,49,,,,,,,,,,,,,,,,,1333.5531359000006,1334.6046599000001,,,,,,,,,1335.4633371999998,1339.705239,1335.4633371999998,1339.705239,1335.4633371999998,1339.705239,1335.4633371999998,1339.705239,17.962962962962962,3.244178500000089,space,,,4.197487100000217,,,,,,,,1328.0022568000004,1328.0022568000004,None,,,,1334.6046599000001,1334.6046599000001,1334.6046599000001,c,0.6730648000002475,1328.0022568000004,1328.0022568000004,1331.3378018000003,1333.5531359000006,1334.6046599000001,5,001,2024-06-27_15h21.44.231,robot_sternberg_sign,2022.2.5,60.03406332755389,
"['Q', 'K', 'N', 'H', 'G', 'B']",False,M,6,letter,2,True,False,"['robot_stimuli\\\\filler.mp4', 'robot_stimuli\\\\filler.mp4', 'robot_stimuli\\\\filler.mp4', 'robot_stimuli\\\\filler.mp4', 'robot_stimuli\\\\filler.mp4', 'robot_stimuli\\\\filler.mp4']",robot_stimuli\\filler.mp4,5,,,,,,,,,,,,,0,50,50,50,,,,,,,,,,,,,,,,,1355.3961723000002,1356.4558328000003,,,,,,,,,1357.4822383,1357.4822383,1357.4822383,1357.4822383,1357.4822383,1357.4822383,1357.4822383,1357.4822383,None,None,None,,,,,,,,,,,1339.705239,1339.705239,space,1.9639675999997053,,,1356.4558328000003,1356.4558328000003,1356.4558328000003,n,0.8060845999998492,,,1353.3758673000002,1355.3961723000002,1356.4558328000003,5,001,2024-06-27_15h21.44.231,robot_sternberg_sign,2022.2.5,60.03406332755389,
"['B', 'W', 'N', 'L', 'K', 'C']",True,W,6,letter,2,False,False,"['robot_stimuli\\\\filler.mp4', 'robot_stimuli\\\\filler.mp4', 'robot_stimuli\\\\filler.mp4', 'robot_stimuli\\\\filler.mp4', 'robot_stimuli\\\\filler.mp4', 'robot_stimuli\\\\filler.mp4']",robot_stimuli\\filler.mp4,5,,,,,,,,,,,,,0,51,51,51,,,,,,,,,,,,,,,,,1371.3857531000003,1372.4423232,,,,,,,,,1373.6711081000003,1373.6711081000003,1373.6711081000003,1373.6711081000003,1373.6711081000003,1373.6711081000003,1373.6711081000003,1373.6711081000003,None,None,None,,,,,,,,,,,1357.4822383,1357.4822383,None,,,,1372.4423232,1372.4423232,1372.4423232,c,1.0587742999996408,1357.4822383,1357.4822383,1369.3664630000003,1371.3857531000003,1372.4423232,5,001,2024-06-27_15h21.44.231,robot_sternberg_sign,2022.2.5,60.03406332755389,
"['T', 'D', 'W', 'S', 'G', 'R']",False,N,6,letter,2,False,False,"['robot_stimuli\\\\filler.mp4', 'robot_stimuli\\\\filler.mp4', 'robot_stimuli\\\\filler.mp4', 'robot_stimuli\\\\filler.mp4', 'robot_stimuli\\\\filler.mp4', 'robot_stimuli\\\\filler.mp4']",robot_stimuli\\filler.mp4,5,,,,,,,,,,,,,0,52,52,52,,,,,,,,,,,,,,,,,1388.0133517000004,1389.0726848000004,,,,,,,,,1391.1019264000006,1391.1019264000006,1391.1019264000006,1391.1019264000006,1391.1019264000006,1391.1019264000006,1391.1019264000006,1391.1019264000006,None,None,None,,,,,,,,,,,1373.6711081000003,1373.6711081000003,None,,,,1389.0726848000004,1389.0726848000004,1389.0726848000004,n,1.9652841000006447,1373.6711081000003,1373.6711081000003,1385.9925589000004,1388.0133517000004,1389.0726848000004,5,001,2024-06-27_15h21.44.231,robot_sternberg_sign,2022.2.5,60.03406332755389,
"['S', 'N', 'H', 'C', 'P', 'T']",False,X,6,letter,2,False,False,"['robot_stimuli\\\\filler.mp4', 'robot_stimuli\\\\filler.mp4', 'robot_stimuli\\\\filler.mp4', 'robot_stimuli\\\\filler.mp4', 'robot_stimuli\\\\filler.mp4', 'robot_stimuli\\\\filler.mp4']",robot_stimuli\\filler.mp4,5,,,,,,,,,,,,,0,53,53,53,,,,,,,,,,,,,,,,,1404.8024489999998,1405.8560019000006,,,,,,,,,1406.6880935999998,1406.6880935999998,1406.6880935999998,1406.6880935999998,1406.6880935999998,1406.6880935999998,1406.6880935999998,1406.6880935999998,None,None,None,,,,,,,,,,,1391.1019264000006,1391.1019264000006,None,,,,1405.8560019000006,1405.8560019000006,1405.8560019000006,n,0.5977970000003552,1391.1019264000006,1391.1019264000006,1402.7832987000002,1404.8024489999998,1405.8560019000006,5,001,2024-06-27_15h21.44.231,robot_sternberg_sign,2022.2.5,60.03406332755389,
"['W', 'H', 'Q', 'R', 'T', 'G']",True,H,6,letter,2,False,False,"['robot_stimuli\\\\filler.mp4', 'robot_stimuli\\\\filler.mp4', 'robot_stimuli\\\\filler.mp4', 'robot_stimuli\\\\filler.mp4', 'robot_stimuli\\\\filler.mp4', 'robot_stimuli\\\\filler.mp4']",robot_stimuli\\filler.mp4,5,,,,,,,,,,,,,0,54,54,54,,,,,,,,,,,,,,,,,1420.4082572000007,1421.4738139,,,,,,,,,1422.7000358000005,1422.7000358000005,1422.7000358000005,1422.7000358000005,1422.7000358000005,1422.7000358000005,1422.7000358000005,1422.7000358000005,None,None,None,,,,,,,,,,,1406.6880935999998,1406.6880935999998,None,,,,1421.4738139,1421.4738139,1421.4738139,c,1.0827431000006982,1406.6880935999998,1406.6880935999998,1418.1880808000005,1420.4082572000007,1421.4738139,5,001,2024-06-27_15h21.44.231,robot_sternberg_sign,2022.2.5,60.03406332755389,
"['V', 'H', 'K', 'N', 'J', 'B']",True,N,6,letter,2,False,False,"['robot_stimuli\\\\filler.mp4', 'robot_stimuli\\\\filler.mp4', 'robot_stimuli\\\\filler.mp4', 'robot_stimuli\\\\filler.mp4', 'robot_stimuli\\\\filler.mp4', 'robot_stimuli\\\\filler.mp4']",robot_stimuli\\filler.mp4,5,,,,,,,,,,,,,0,55,55,55,,,,,,,,,,,,,,,,,1436.4105163000004,1437.4728110000005,,,,,,,,,1439.0956848000005,1439.0956848000005,1439.0956848000005,1439.0956848000005,1439.0956848000005,1439.0956848000005,1439.0956848000005,1439.0956848000005,None,None,None,,,,,,,,,,,1422.7000358000005,1422.7000358000005,None,,,,1437.4728110000005,1437.4728110000005,1437.4728110000005,c,1.3889050000007046,1422.7000358000005,1422.7000358000005,1434.4005944,1436.4105163000004,1437.4728110000005,5,001,2024-06-27_15h21.44.231,robot_sternberg_sign,2022.2.5,60.03406332755389,
"['J', 'R', 'P', 'K', 'G', 'M']",True,K,6,letter,2,False,False,"['robot_stimuli\\\\filler.mp4', 'robot_stimuli\\\\filler.mp4', 'robot_stimuli\\\\filler.mp4', 'robot_stimuli\\\\filler.mp4', 'robot_stimuli\\\\filler.mp4', 'robot_stimuli\\\\filler.mp4']",robot_stimuli\\filler.mp4,5,,,,,,,,,,,,,0,56,56,56,,,,,,,,,,,,,,,,,1453.1918731000005,1454.2575821,,,,,,,,,1455.4854086000005,1455.4854086000005,1455.4854086000005,1455.4854086000005,1455.4854086000005,1455.4854086000005,1455.4854086000005,1455.4854086000005,None,None,None,,,,,,,,,,,1439.0956848000005,1439.0956848000005,None,,,,1454.2575821,1454.2575821,1454.2575821,c,1.1001322000001892,1439.0956848000005,1439.0956848000005,1450.9712721000005,1453.1918731000005,1454.2575821,5,001,2024-06-27_15h21.44.231,robot_sternberg_sign,2022.2.5,60.03406332755389,
"['V', 'M', 'T', 'P', 'R', 'X']",True,X,6,letter,2,False,False,"['robot_stimuli\\\\filler.mp4', 'robot_stimuli\\\\filler.mp4', 'robot_stimuli\\\\filler.mp4', 'robot_stimuli\\\\filler.mp4', 'robot_stimuli\\\\filler.mp4', 'robot_stimuli\\\\filler.mp4']",robot_stimuli\\filler.mp4,5,,,,,,,,,,,,,0,57,57,57,,,,,,,,,,,,,,,,,1468.9890818000003,1456.5403719000005,,,,,,,,,1471.4829729000003,1471.4829729000003,1471.4829729000003,1471.4829729000003,1471.4829729000003,1471.4829729000003,1471.4829729000003,1471.4829729000003,None,None,None,,,,,,,,,,,1455.4854086000005,1455.4854086000005,None,,,,1470.0569679999999,1470.0569679999999,1470.0569679999999,c,1.2443387000002986,1455.4854086000005,1455.4854086000005,1466.9751340000003,1468.9890818000003,1470.0569679999999,5,001,2024-06-27_15h21.44.231,robot_sternberg_sign,2022.2.5,60.03406332755389,
"['Z', 'L', 'K', 'Q', 'M', 'B']",False,T,6,letter,2,False,False,"['robot_stimuli\\\\filler.mp4', 'robot_stimuli\\\\filler.mp4', 'robot_stimuli\\\\filler.mp4', 'robot_stimuli\\\\filler.mp4', 'robot_stimuli\\\\filler.mp4', 'robot_stimuli\\\\filler.mp4']",robot_stimuli\\filler.mp4,5,,,,,,,,,,,,,0,58,58,58,,,,,,,,,,,,,,,,,1485.1921559000002,1486.2564106999998,,,,,,,,,1487.6793715000003,1487.6793715000003,1487.6793715000003,1487.6793715000003,1487.6793715000003,1487.6793715000003,1487.6793715000003,1487.6793715000003,None,None,None,,,,,,,,,,,1471.4829729000003,1471.4829729000003,None,,,,1486.2564106999998,1486.2564106999998,1486.2564106999998,n,1.2599787999997716,1471.4829729000003,1471.4829729000003,1482.9741023000006,1485.1921559000002,1486.2564106999998,5,001,2024-06-27_15h21.44.231,robot_sternberg_sign,2022.2.5,60.03406332755389,
"['M', 'C', 'N', 'L', 'J', 'T']",False,R,6,letter,2,False,True,"['robot_stimuli\\\\filler.mp4', 'robot_stimuli\\\\filler.mp4', 'robot_stimuli\\\\filler.mp4', 'robot_stimuli\\\\filler.mp4', 'robot_stimuli\\\\filler.mp4', 'robot_stimuli\\\\filler.mp4']",robot_stimuli\\filler.mp4,5,,,,,,,,,,,,,0,59,59,59,,,,,,,,,,,,,,,,,1501.4079612000005,1502.472764,,,,,,,,,1503.7435305,1508.5382288,1503.7435305,1508.5382288,1503.7435305,1508.5382288,1503.7435305,1508.5382288,36.48148148148148,3.849764600000526,space,,,4.724786100000529,,,,,,,,1487.6793715000003,1487.6793715000003,None,,,,1502.472764,1502.472764,1502.472764,n,1.173103500000252,1487.6793715000003,1487.6793715000003,1499.3952475000006,1501.4079612000005,1502.472764,5,001,2024-06-27_15h21.44.231,robot_sternberg_sign,2022.2.5,60.03406332755389,
"['R_Head_Y_Back', 'R_Torso_Z_Back']",False,L_Head_Y_Back,2,robot,3,True,False,"['robot_stimuli\\R_Head_Y_Back.mp4', 'robot_stimuli\\R_Torso_Z_Back.mp4']",robot_stimuli\L_Head_Y_Back.mp4,5,,,,,,,,,,,,,0,60,60,60,,,,,,,,,,,,,,,,,1541.5072950000003,1542.6137868000005,,,,,,,,,1546.2426833999998,1546.2426833999998,1546.2426833999998,1546.2426833999998,1546.2426833999998,1546.2426833999998,1546.2426833999998,1546.2426833999998,None,None,None,,,,,,,,,,,1508.5382288,1508.5382288,space,24.498780299999453,1537.8730323999998,1542.6137868000005,1542.6137868000005,1542.6137868000005,1542.6137868000005,n,1.720109500000035,,,,,,5,001,2024-06-27_15h21.44.231,robot_sternberg_sign,2022.2.5,60.03406332755389,
"['L_Arm_Z_For', 'L_Torso_Z_Back']",False,L_Arm_X_For,2,robot,3,False,False,"['robot_stimuli\\L_Arm_Z_For.mp4', 'robot_stimuli\\L_Torso_Z_Back.mp4']",robot_stimuli\L_Arm_X_For.mp4,5,,,,,,,,,,,,,0,61,61,61,,,,,,,,,,,,,,,,,1554.5544613000002,1547.3281320000006,,,,,,,,,1559.2824053000004,1559.2824053000004,1559.2824053000004,1559.2824053000004,1559.2824053000004,1559.2824053000004,1559.2824053000004,1559.2824053000004,None,None,None,,,,,,,,,,,1546.2426833999998,1546.2426833999998,None,,1551.0497010999998,1555.6462734000006,1555.6462734000006,1555.6462734000006,1555.6462734000006,c,2.7110978000000614,1546.2426833999998,1546.2426833999998,,,,5,001,2024-06-27_15h21.44.231,robot_sternberg_sign,2022.2.5,60.03406332755389,
"['R_Base_Z_Back', 'R_Torso_Z_For']",True,R_Torso_Z_For,2,robot,3,False,False,"['robot_stimuli\\R_Base_Z_Back.mp4', 'robot_stimuli\\R_Torso_Z_For.mp4']",robot_stimuli\R_Torso_Z_For.mp4,5,,,,,,,,,,,,,0,62,62,62,,,,,,,,,,,,,,,,,1567.6093918000006,1568.6974408000005,,,,,,,,,1572.3253565000005,1572.3253565000005,1572.3253565000005,1572.3253565000005,1572.3253565000005,1572.3253565000005,1572.3253565000005,1572.3253565000005,None,None,None,,,,,,,,,,,1559.2824053000004,1559.2824053000004,None,,1563.9805554000004,1568.6974408000005,1568.6974408000005,1568.6974408000005,1568.6974408000005,c,2.0122854000010193,1559.2824053000004,1559.2824053000004,,,,5,001,2024-06-27_15h21.44.231,robot_sternberg_sign,2022.2.5,60.03406332755389,
"['R_Base_Z_Back', 'R_Head_Y_Back']",True,R_Base_Z_Back,2,robot,3,False,False,"['robot_stimuli\\R_Base_Z_Back.mp4', 'robot_stimuli\\R_Head_Y_Back.mp4']",robot_stimuli\R_Base_Z_Back.mp4,5,,,,,,,,,,,,,0,63,63,63,,,,,,,,,,,,,,,,,1580.6725486000005,1573.4118346000005,,,,,,,,,1585.3020684000003,1585.3020684000003,1585.3020684000003,1585.3020684000003,1585.3020684000003,1585.3020684000003,1585.3020684000003,1585.3020684000003,None,None,None,,,,,,,,,,,1572.3253565000005,1572.3253565000005,None,,1577.0323337,1581.7637436000005,1581.7637436000005,1581.7637436000005,1581.7637436000005,c,2.385810499999934,1572.3253565000005,1572.3253565000005,,,,5,001,2024-06-27_15h21.44.231,robot_sternberg_sign,2022.2.5,60.03406332755389,
"['R_Head_Z_Back', 'R_Head_X_For']",False,R_Torso_Z_For,2,robot,3,False,False,"['robot_stimuli\\R_Head_Z_Back.mp4', 'robot_stimuli\\R_Head_X_For.mp4']",robot_stimuli\R_Torso_Z_For.mp4,5,,,,,,,,,,,,,0,64,64,64,,,,,,,,,,,,,,,,,1593.7400917000004,1594.8268128,,,,,,,,,1598.4593614000005,1598.4593614000005,1598.4593614000005,1598.4593614000005,1598.4593614000005,1598.4593614000005,1598.4593614000005,1598.4593614000005,None,None,None,,,,,,,,,,,1585.3020684000003,1585.3020684000003,None,,1590.0987261,1594.8268128,1594.8268128,1594.8268128,1594.8268128,n,2.2574098000004597,1585.3020684000003,1585.3020684000003,,,,5,001,2024-06-27_15h21.44.231,robot_sternberg_sign,2022.2.5,60.03406332755389,
"['L_Head_Y_For', 'R_Head_Z_Back']",False,L_Arm_Z_Back,2,robot,3,False,False,"['robot_stimuli\\L_Head_Y_For.mp4', 'robot_stimuli\\R_Head_Z_Back.mp4']",robot_stimuli\L_Arm_Z_Back.mp4,5,,,,,,,,,,,,,0,65,65,65,,,,,,,,,,,,,,,,,1606.9058698,1607.9968522,,,,,,,,,1611.6336112,1611.6336112,1611.6336112,1611.6336112,1611.6336112,1611.6336112,1611.6336112,1611.6336112,None,None,None,,,,,,,,,,,1598.4593614000005,1598.4593614000005,None,,1603.2668242,1607.9968522,1607.9968522,1607.9968522,1607.9968522,n,1.8958984000000783,1598.4593614000005,1598.4593614000005,,,,5,001,2024-06-27_15h21.44.231,robot_sternberg_sign,2022.2.5,60.03406332755389,
"['L_Arm_X_For', 'R_Torso_Z_Back']",True,L_Arm_X_For,2,robot,3,False,False,"['robot_stimuli\\L_Arm_X_For.mp4', 'robot_stimuli\\R_Torso_Z_Back.mp4']",robot_stimuli\L_Arm_X_For.mp4,5,,,,,,,,,,,,,0,66,66,66,,,,,,,,,,,,,,,,,1620.0729620000002,1621.1632160999998,,,,,,,,,1624.8006863,1624.8006863,1624.8006863,1624.8006863,1624.8006863,1624.8006863,1624.8006863,1624.8006863,None,None,None,,,,,,,,,,,1611.6336112,1611.6336112,None,,1616.4336871000005,1621.1632160999998,1621.1632160999998,1621.1632160999998,1621.1632160999998,c,2.76157559999956,1611.6336112,1611.6336112,,,,5,001,2024-06-27_15h21.44.231,robot_sternberg_sign,2022.2.5,60.03406332755389,
"['R_Torso_X_For', 'R_Head_Y_Back']",False,R_Torso_Z_Back,2,robot,3,False,False,"['robot_stimuli\\R_Torso_X_For.mp4', 'robot_stimuli\\R_Head_Y_Back.mp4']",robot_stimuli\R_Torso_Z_Back.mp4,5,,,,,,,,,,,,,0,67,67,67,,,,,,,,,,,,,,,,,1633.2422163,1634.3323879,,,,,,,,,1645.5340148000005,1645.5340148000005,1645.5340148000005,1645.5340148000005,1645.5340148000005,1645.5340148000005,1645.5340148000005,1645.5340148000005,None,None,None,,,,,,,,,,,1624.8006863,1624.8006863,None,,1629.6036766000007,1634.3323879,1634.3323879,1634.3323879,1634.3323879,n,11.160548600000766,1624.8006863,1624.8006863,,,,5,001,2024-06-27_15h21.44.231,robot_sternberg_sign,2022.2.5,60.03406332755389,
"['R_Arm_Z_Back', 'R_Head_Z_For']",True,R_Arm_Z_Back,2,robot,3,False,False,"['robot_stimuli\\R_Arm_Z_Back.mp4', 'robot_stimuli\\R_Head_Z_For.mp4']",robot_stimuli\R_Arm_Z_Back.mp4,5,,,,,,,,,,,,,0,68,68,68,,,,,,,,,,,,,,,,,1653.9726037,1646.6116427000006,,,,,,,,,1658.6998357000002,1658.6998357000002,1658.6998357000002,1658.6998357000002,1658.6998357000002,1658.6998357000002,1658.6998357000002,1658.6998357000002,None,None,None,,,,,,,,,,,1645.5340148000005,1645.5340148000005,None,,1650.3327434000003,1655.0626942,1655.0626942,1655.0626942,1655.0626942,c,2.989606399999502,1645.5340148000005,1645.5340148000005,,,,5,001,2024-06-27_15h21.44.231,robot_sternberg_sign,2022.2.5,60.03406332755389,
"['R_Torso_Y_Back', 'R_Torso_Z_For']",True,R_Torso_Z_For,2,robot,3,False,True,"['robot_stimuli\\R_Torso_Y_Back.mp4', 'robot_stimuli\\R_Torso_Z_For.mp4']",robot_stimuli\R_Torso_Z_For.mp4,5,,,,,,,,,,,,,0,69,69,69,,,,,,,,,,,,,,,,,1667.1380726000007,1659.7776262000007,,,,,,,,,1671.8909769000002,1675.1611920000005,1671.8909769000002,1675.1611920000005,1671.8909769000002,1675.1611920000005,1671.8909769000002,1675.1611920000005,40.18518518518519,2.3673714999995354,space,,,3.2091984999997294,,,,,,,,1658.6998357000002,1658.6998357000002,None,,1663.4988537999998,1668.2303628,1668.2303628,1668.2303628,1668.2303628,c,2.919427099999666,1658.6998357000002,1658.6998357000002,,,,5,001,2024-06-27_15h21.44.231,robot_sternberg_sign,2022.2.5,60.03406332755389,
"['R_Base_X_For', 'R_Arm_X_Back', 'R_Arm_Z_Back', 'R_Arm_Y_Back']",True,R_Arm_Z_Back,4,robot,3,True,False,"['robot_stimuli\\R_Base_X_For.mp4', 'robot_stimuli\\R_Arm_X_Back.mp4', 'robot_stimuli\\R_Arm_Z_Back.mp4', 'robot_stimuli\\R_Arm_Y_Back.mp4']",robot_stimuli\R_Arm_Z_Back.mp4,5,,,,,,,,,,,,,0,70,70,70,,,,,,,,,,,,,,,,,1692.5255179000005,1693.6130868,,,,,,,,,1697.5597609000006,1697.5597609000006,1697.5597609000006,1697.5597609000006,1697.5597609000006,1697.5597609000006,1697.5597609000006,1697.5597609000006,None,None,None,,,,,,,,,,,1675.1611920000005,1675.1611920000005,space,1.5728030000000217,1688.8947134999999,1693.6130868,1693.6130868,1693.6130868,1693.6130868,c,3.911841099999947,,,,,,5,001,2024-06-27_15h21.44.231,robot_sternberg_sign,2022.2.5,60.03406332755389,
"['R_Arm_X_Back', 'L_Head_Z_For', 'R_Head_X_Back', 'R_Base_Z_For']",False,L_Arm_Y_Back,4,robot,3,False,False,"['robot_stimuli\\R_Arm_X_Back.mp4', 'robot_stimuli\\L_Head_Z_For.mp4', 'robot_stimuli\\R_Head_X_Back.mp4', 'robot_stimuli\\R_Base_Z_For.mp4']",robot_stimuli\L_Arm_Y_Back.mp4,5,,,,,,,,,,,,,0,71,71,71,,,,,,,,,,,,,,,,,1713.4388399,1698.6413787000001,,,,,,,,,1718.1820367,1718.1820367,1718.1820367,1718.1820367,1718.1820367,1718.1820367,1718.1820367,1718.1820367,None,None,None,,,,,,,,,,,1697.5597609000006,1697.5597609000006,None,,1709.7985696000005,1714.5317902000006,1714.5317902000006,1714.5317902000006,1714.5317902000006,n,2.801546800000324,1697.5597609000006,1697.5597609000006,,,,5,001,2024-06-27_15h21.44.231,robot_sternberg_sign,2022.2.5,60.03406332755389,
"['L_Base_Y_Back', 'R_Torso_Y_For', 'R_Base_Z_For', 'L_Head_Y_Back']",False,L_Base_Z_For,4,robot,3,False,False,"['robot_stimuli\\L_Base_Y_Back.mp4', 'robot_stimuli\\R_Torso_Y_For.mp4', 'robot_stimuli\\R_Base_Z_For.mp4', 'robot_stimuli\\L_Head_Y_Back.mp4']",robot_stimuli\L_Base_Z_For.mp4,5,,,,,,,,,,,,,0,72,72,72,,,,,,,,,,,,,,,,,1733.9937529,1735.0809565,,,,,,,,,1738.8791594000004,1738.8791594000004,1738.8791594000004,1738.8791594000004,1738.8791594000004,1738.8791594000004,1738.8791594000004,1738.8791594000004,None,None,None,,,,,,,,,,,1718.1820367,1718.1820367,None,,1730.3615751000007,1735.0809565,1735.0809565,1735.0809565,1735.0809565,n,3.772173400000611,1718.1820367,1718.1820367,,,,5,001,2024-06-27_15h21.44.231,robot_sternberg_sign,2022.2.5,60.03406332755389,
"['L_Torso_Z_For', 'R_Torso_Z_Back', 'R_Arm_Y_Back', 'R_Arm_Z_Back']",True,R_Torso_Z_Back,4,robot,3,False,False,"['robot_stimuli\\L_Torso_Z_For.mp4', 'robot_stimuli\\R_Torso_Z_Back.mp4', 'robot_stimuli\\R_Arm_Y_Back.mp4', 'robot_stimuli\\R_Arm_Z_Back.mp4']",robot_stimuli\R_Torso_Z_Back.mp4,5,,,,,,,,,,,,,0,73,73,73,,,,,,,,,,,,,,,,,1754.7580407000005,1755.8473897000003,,,,,,,,,1759.4753136,1759.4753136,1759.4753136,1759.4753136,1759.4753136,1759.4753136,1759.4753136,1759.4753136,None,None,None,,,,,,,,,,,1738.8791594000004,1738.8791594000004,None,,1751.1277962000004,1755.8473897000003,1755.8473897000003,1755.8473897000003,1755.8473897000003,c,3.5579078999999183,1738.8791594000004,1738.8791594000004,,,,5,001,2024-06-27_15h21.44.231,robot_sternberg_sign,2022.2.5,60.03406332755389,
"['L_Torso_Y_Back', 'L_Head_Z_Back', 'R_Arm_Y_Back', 'L_Arm_Z_Back']",False,L_Arm_Y_Back,4,robot,3,False,False,"['robot_stimuli\\L_Torso_Y_Back.mp4', 'robot_stimuli\\L_Head_Z_Back.mp4', 'robot_stimuli\\R_Arm_Y_Back.mp4', 'robot_stimuli\\L_Arm_Z_Back.mp4']",robot_stimuli\L_Arm_Y_Back.mp4,5,,,,,,,,,,,,,0,74,74,74,,,,,,,,,,,,,,,,,1775.2578629999998,1776.3441137999998,,,,,,,,,1779.9851814000003,1779.9851814000003,1779.9851814000003,1779.9851814000003,1779.9851814000003,1779.9851814000003,1779.9851814000003,1779.9851814000003,None,None,None,,,,,,,,,,,1759.4753136,1759.4753136,None,,1771.6192122000002,1776.3441137999998,1776.3441137999998,1776.3441137999998,1776.3441137999998,c,2.9015073000000484,1759.4753136,1759.4753136,,,,5,001,2024-06-27_15h21.44.231,robot_sternberg_sign,2022.2.5,60.03406332755389,
"['R_Arm_Y_Back', 'R_Base_Y_For', 'L_Arm_X_For', 'R_Arm_Z_Back']",False,R_Base_X_For,4,robot,3,False,False,"['robot_stimuli\\R_Arm_Y_Back.mp4', 'robot_stimuli\\R_Base_Y_For.mp4', 'robot_stimuli\\L_Arm_X_For.mp4', 'robot_stimuli\\R_Arm_Z_Back.mp4']",robot_stimuli\R_Base_X_For.mp4,5,,,,,,,,,,,,,0,75,75,75,,,,,,,,,,,,,,,,,1795.8597283999998,1796.9520481999998,,,,,,,,,1800.4988245000004,1800.4988245000004,1800.4988245000004,1800.4988245000004,1800.4988245000004,1800.4988245000004,1800.4988245000004,1800.4988245000004,None,None,None,,,,,,,,,,,1779.9851814000003,1779.9851814000003,None,,1792.2276522000002,1796.9520481999998,1796.9520481999998,1796.9520481999998,1796.9520481999998,n,2.9885958000004393,1779.9851814000003,1779.9851814000003,,,,5,001,2024-06-27_15h21.44.231,robot_sternberg_sign,2022.2.5,60.03406332755389,
"['L_Head_Y_Back', 'R_Arm_Z_For', 'L_Arm_Z_For', 'R_Base_Z_For']",True,L_Head_Y_Back,4,robot,3,False,False,"['robot_stimuli\\L_Head_Y_Back.mp4', 'robot_stimuli\\R_Arm_Z_For.mp4', 'robot_stimuli\\L_Arm_Z_For.mp4', 'robot_stimuli\\R_Base_Z_For.mp4']",robot_stimuli\L_Head_Y_Back.mp4,5,,,,,,,,,,,,,0,76,76,76,,,,,,,,,,,,,,,,,1816.3758195,1817.4642611999998,,,,,,,,,1821.1023185000004,1821.1023185000004,1821.1023185000004,1821.1023185000004,1821.1023185000004,1821.1023185000004,1821.1023185000004,1821.1023185000004,None,None,None,,,,,,,,,,,1800.4988245000004,1800.4988245000004,None,,1812.7304509000005,1817.4642611999998,1817.4642611999998,1817.4642611999998,1817.4642611999998,n,2.995947100000194,1800.4988245000004,1800.4988245000004,,,,5,001,2024-06-27_15h21.44.231,robot_sternberg_sign,2022.2.5,60.03406332755389,
"['L_Base_Z_Back', 'R_Arm_Z_Back', 'L_Torso_Z_Back', 'L_Torso_Y_For']",True,L_Torso_Z_Back,4,robot,3,False,False,"['robot_stimuli\\L_Base_Z_Back.mp4', 'robot_stimuli\\R_Arm_Z_Back.mp4', 'robot_stimuli\\L_Torso_Z_Back.mp4', 'robot_stimuli\\L_Torso_Y_For.mp4']",robot_stimuli\L_Torso_Z_Back.mp4,5,,,,,,,,,,,,,0,77,77,77,,,,,,,,,,,,,,,,,1836.8255667000003,1837.9134236999998,,,,,,,,,1841.4095312,1841.4095312,1841.4095312,1841.4095312,1841.4095312,1841.4095312,1841.4095312,1841.4095312,None,None,None,,,,,,,,,,,1821.1023185000004,1821.1023185000004,None,,1833.1949565000004,1837.9134236999998,1837.9134236999998,1837.9134236999998,1837.9134236999998,c,2.563506899999993,1821.1023185000004,1821.1023185000004,,,,5,001,2024-06-27_15h21.44.231,robot_sternberg_sign,2022.2.5,60.03406332755389,
"['R_Torso_X_For', 'L_Head_Y_For', 'R_Base_X_Back', 'L_Arm_Z_For']",False,L_Torso_X_For,4,robot,3,False,False,"['robot_stimuli\\R_Torso_X_For.mp4', 'robot_stimuli\\L_Head_Y_For.mp4', 'robot_stimuli\\R_Base_X_Back.mp4', 'robot_stimuli\\L_Arm_Z_For.mp4']",robot_stimuli\L_Torso_X_For.mp4,5,,,,,,,,,,,,,0,78,78,78,,,,,,,,,,,,,,,,,1857.2905908000002,1858.3818004000004,,,,,,,,,1863.7701078999999,1863.7701078999999,1863.7701078999999,1863.7701078999999,1863.7701078999999,1863.7701078999999,1863.7701078999999,1863.7701078999999,None,None,None,,,,,,,,,,,1841.4095312,1841.4095312,None,,1853.6581855000004,1858.3818004000004,1858.3818004000004,1858.3818004000004,1858.3818004000004,n,5.34227809999993,1841.4095312,1841.4095312,,,,5,001,2024-06-27_15h21.44.231,robot_sternberg_sign,2022.2.5,60.03406332755389,
"['L_Head_Y_For', 'R_Arm_X_Back', 'L_Arm_X_Back', 'R_Base_Z_Back']",True,L_Head_Y_For,4,robot,3,False,True,"['robot_stimuli\\L_Head_Y_For.mp4', 'robot_stimuli\\R_Arm_X_Back.mp4', 'robot_stimuli\\L_Arm_X_Back.mp4', 'robot_stimuli\\R_Base_Z_Back.mp4']",robot_stimuli\L_Head_Y_For.mp4,5,,,,,,,,,,,,,0,79,79,79,,,,,,,,,,,,,,,,,1879.5561641000004,1880.6490783,,,,,,,,,1884.3309461,1888.7852189000005,1884.3309461,1888.7852189000005,1884.3309461,1888.7852189000005,1884.3309461,1888.7852189000005,61.79012345679012,3.427737099999831,space,,,4.393496499999856,,,,,,,,1863.7701078999999,1863.7701078999999,None,,1876.0146034999998,1880.6490783,1880.6490783,1880.6490783,1880.6490783,c,3.5392625000004045,1863.7701078999999,1863.7701078999999,,,,5,001,2024-06-27_15h21.44.231,robot_sternberg_sign,2022.2.5,60.03406332755389,
"['L_Head_X_Back', 'R_Arm_X_Back', 'R_Arm_Y_Back', 'L_Head_Z_For', 'R_Arm_X_For', 'L_Base_Y_For']",True,R_Arm_Y_Back,6,robot,3,True,False,"['robot_stimuli\\L_Head_X_Back.mp4', 'robot_stimuli\\R_Arm_X_Back.mp4', 'robot_stimuli\\R_Arm_Y_Back.mp4', 'robot_stimuli\\L_Head_Z_For.mp4', 'robot_stimuli\\R_Arm_X_For.mp4', 'robot_stimuli\\L_Base_Y_For.mp4']",robot_stimuli\R_Arm_Y_Back.mp4,5,,,,,,,,,,,,,0,80,80,80,,,,,,,,,,,,,,,,,1923.192384,1924.2856435000003,,,,,,,,,1927.9330967000005,1927.9330967000005,1927.9330967000005,1927.9330967000005,1927.9330967000005,1927.9330967000005,1927.9330967000005,1927.9330967000005,None,None,None,,,,,,,,,,,1888.7852189000005,1888.7852189000005,space,11.16358289999971,1919.6615529,1924.2856435000003,1924.2856435000003,1924.2856435000003,1924.2856435000003,c,3.1423670000003767,,,,,,5,001,2024-06-27_15h21.44.231,robot_sternberg_sign,2022.2.5,60.03406332755389,
"['R_Torso_X_For', 'R_Base_X_For', 'L_Torso_Y_Back', 'R_Base_Z_For', 'L_Base_Z_Back', 'R_Head_Z_For']",True,L_Base_Z_Back,6,robot,3,False,False,"['robot_stimuli\\R_Torso_X_For.mp4', 'robot_stimuli\\R_Base_X_For.mp4', 'robot_stimuli\\L_Torso_Y_Back.mp4', 'robot_stimuli\\R_Base_Z_For.mp4', 'robot_stimuli\\L_Base_Z_Back.mp4', 'robot_stimuli\\R_Head_Z_For.mp4']",robot_stimuli\L_Base_Z_Back.mp4,5,,,,,,,,,,,,,0,81,81,81,,,,,,,,,,,,,,,,,1951.0100624000006,1952.0994133000004,,,,,,,,,1955.7464408000005,1955.7464408000005,1955.7464408000005,1955.7464408000005,1955.7464408000005,1955.7464408000005,1955.7464408000005,1955.7464408000005,None,None,None,,,,,,,,,,,1927.9330967000005,1927.9330967000005,None,,1947.3794509,1952.0994133000004,1952.0994133000004,1952.0994133000004,1952.0994133000004,n,3.2253067999999985,1927.9330967000005,1927.9330967000005,,,,5,001,2024-06-27_15h21.44.231,robot_sternberg_sign,2022.2.5,60.03406332755389,
"['L_Head_Y_For', 'L_Torso_X_Back', 'R_Torso_X_For', 'R_Torso_Y_For', 'L_Torso_Z_For', 'L_Base_Z_For']",True,R_Torso_Y_For,6,robot,3,False,False,"['robot_stimuli\\L_Head_Y_For.mp4', 'robot_stimuli\\L_Torso_X_Back.mp4', 'robot_stimuli\\R_Torso_X_For.mp4', 'robot_stimuli\\R_Torso_Y_For.mp4', 'robot_stimuli\\L_Torso_Z_For.mp4', 'robot_stimuli\\L_Base_Z_For.mp4']",robot_stimuli\R_Torso_Y_For.mp4,5,,,,,,,,,,,,,0,82,82,82,,,,,,,,,,,,,,,,,1979.0481930000005,1980.1457897,,,,,,,,,1987.4845272000002,1987.4845272000002,1987.4845272000002,1987.4845272000002,1987.4845272000002,1987.4845272000002,1987.4845272000002,1987.4845272000002,None,None,None,,,,,,,,,,,1955.7464408000005,1955.7464408000005,None,,1975.4133373000004,1980.1457897,1980.1457897,1980.1457897,1980.1457897,c,7.306587999999465,1955.7464408000005,1955.7464408000005,,,,5,001,2024-06-27_15h21.44.231,robot_sternberg_sign,2022.2.5,60.03406332755389,
"['L_Arm_Z_Back', 'R_Torso_Z_For', 'R_Torso_X_Back', 'L_Torso_X_For', 'R_Torso_Y_Back', 'L_Torso_Z_Back']",False,L_Arm_Z_For,6,robot,3,False,False,"['robot_stimuli\\L_Arm_Z_Back.mp4', 'robot_stimuli\\R_Torso_Z_For.mp4', 'robot_stimuli\\R_Torso_X_Back.mp4', 'robot_stimuli\\L_Torso_X_For.mp4', 'robot_stimuli\\R_Torso_Y_Back.mp4', 'robot_stimuli\\L_Torso_Z_Back.mp4']",robot_stimuli\L_Arm_Z_For.mp4,5,,,,,,,,,,,,,0,83,83,83,,,,,,,,,,,,,,,,,2010.6766474000005,2011.7647888000001,,,,,,,,,2015.3964440999998,2015.3964440999998,2015.3964440999998,2015.3964440999998,2015.3964440999998,2015.3964440999998,2015.3964440999998,2015.3964440999998,None,None,None,,,,,,,,,,,1987.4845272000002,1987.4845272000002,None,,2007.1777836,2011.7647888000001,2011.7647888000001,2011.7647888000001,2011.7647888000001,n,2.4325848999997106,1987.4845272000002,1987.4845272000002,,,,5,001,2024-06-27_15h21.44.231,robot_sternberg_sign,2022.2.5,60.03406332755389,
"['L_Torso_Z_For', 'L_Arm_X_For', 'R_Base_Z_Back', 'R_Base_X_For', 'R_Head_Z_For', 'L_Arm_X_Back']",True,L_Torso_Z_For,6,robot,3,False,False,"['robot_stimuli\\L_Torso_Z_For.mp4', 'robot_stimuli\\L_Arm_X_For.mp4', 'robot_stimuli\\R_Base_Z_Back.mp4', 'robot_stimuli\\R_Base_X_For.mp4', 'robot_stimuli\\R_Head_Z_For.mp4', 'robot_stimuli\\L_Arm_X_Back.mp4']",robot_stimuli\L_Torso_Z_For.mp4,5,,,,,,,,,,,,,0,84,84,84,,,,,,,,,,,,,,,,,2038.5585987000004,2039.6468958000005,,,,,,,,,2044.3964212,2044.3964212,2044.3964212,2044.3964212,2044.3964212,2044.3964212,2044.3964212,2044.3964212,None,None,None,,,,,,,,,,,2015.3964440999998,2015.3964440999998,None,,2034.9289481000005,2039.6468958000005,2039.6468958000005,2039.6468958000005,2039.6468958000005,n,4.709664300000441,2015.3964440999998,2015.3964440999998,,,,5,001,2024-06-27_15h21.44.231,robot_sternberg_sign,2022.2.5,60.03406332755389,
"['L_Torso_Z_For', 'L_Torso_Y_Back', 'R_Head_Z_Back', 'R_Head_Y_For', 'L_Head_X_Back', 'L_Arm_Z_For']",True,L_Head_X_Back,6,robot,3,False,False,"['robot_stimuli\\L_Torso_Z_For.mp4', 'robot_stimuli\\L_Torso_Y_Back.mp4', 'robot_stimuli\\R_Head_Z_Back.mp4', 'robot_stimuli\\R_Head_Y_For.mp4', 'robot_stimuli\\L_Head_X_Back.mp4', 'robot_stimuli\\L_Arm_Z_For.mp4']",robot_stimuli\L_Head_X_Back.mp4,5,,,,,,,,,,,,,0,85,85,85,,,,,,,,,,,,,,,,,2067.5769935,2068.6650222,,,,,,,,,2072.3147305,2072.3147305,2072.3147305,2072.3147305,2072.3147305,2072.3147305,2072.3147305,2072.3147305,None,None,None,,,,,,,,,,,2044.3964212,2044.3964212,None,,2063.9446807000004,2068.6650222,2068.6650222,2068.6650222,2068.6650222,c,2.859324299999571,2044.3964212,2044.3964212,,,,5,001,2024-06-27_15h21.44.231,robot_sternberg_sign,2022.2.5,60.03406332755389,
"['L_Head_Z_Back', 'L_Torso_X_Back', 'R_Torso_Z_For', 'R_Head_Y_For', 'L_Torso_Z_For', 'R_Head_X_For']",False,R_Arm_Y_Back,6,robot,3,False,False,"['robot_stimuli\\L_Head_Z_Back.mp4', 'robot_stimuli\\L_Torso_X_Back.mp4', 'robot_stimuli\\R_Torso_Z_For.mp4', 'robot_stimuli\\R_Head_Y_For.mp4', 'robot_stimuli\\L_Torso_Z_For.mp4', 'robot_stimuli\\R_Head_X_For.mp4']",robot_stimuli\R_Arm_Y_Back.mp4,5,,,,,,,,,,,,,0,86,86,86,,,,,,,,,,,,,,,,,2095.6414251000006,2096.7316667000005,,,,,,,,,2100.3817742,2100.3817742,2100.3817742,2100.3817742,2100.3817742,2100.3817742,2100.3817742,2100.3817742,None,None,None,,,,,,,,,,,2072.3147305,2072.3147305,None,,2092.0096425,2096.7316667000005,2096.7316667000005,2096.7316667000005,2096.7316667000005,n,2.9135716000000684,2072.3147305,2072.3147305,,,,5,001,2024-06-27_15h21.44.231,robot_sternberg_sign,2022.2.5,60.03406332755389,
"['R_Torso_Z_Back', 'R_Torso_X_For', 'R_Arm_Y_Back', 'L_Arm_X_For', 'L_Arm_Y_For', 'L_Base_Y_For']",False,L_Torso_Y_Back,6,robot,3,False,False,"['robot_stimuli\\R_Torso_Z_Back.mp4', 'robot_stimuli\\R_Torso_X_For.mp4', 'robot_stimuli\\R_Arm_Y_Back.mp4', 'robot_stimuli\\L_Arm_X_For.mp4', 'robot_stimuli\\L_Arm_Y_For.mp4', 'robot_stimuli\\L_Base_Y_For.mp4']",robot_stimuli\L_Torso_Y_Back.mp4,5,,,,,,,,,,,,,0,87,87,87,,,,,,,,,,,,,,,,,2123.5903064000004,2124.6810863,,,,,,,,,2128.1961799,2128.1961799,2128.1961799,2128.1961799,2128.1961799,2128.1961799,2128.1961799,2128.1961799,None,None,None,,,,,,,,,,,2100.3817742,2100.3817742,None,,2120.0594101000006,2124.6810863,2124.6810863,2124.6810863,2124.6810863,c,3.1466528000000835,2100.3817742,2100.3817742,,,,5,001,2024-06-27_15h21.44.231,robot_sternberg_sign,2022.2.5,60.03406332755389,
"['R_Arm_Z_Back', 'L_Head_Y_For', 'R_Base_X_For', 'R_Arm_Y_Back', 'R_Head_Y_Back', 'L_Torso_X_For']",False,R_Head_Z_For,6,robot,3,False,False,"['robot_stimuli\\R_Arm_Z_Back.mp4', 'robot_stimuli\\L_Head_Y_For.mp4', 'robot_stimuli\\R_Base_X_For.mp4', 'robot_stimuli\\R_Arm_Y_Back.mp4', 'robot_stimuli\\R_Head_Y_Back.mp4', 'robot_stimuli\\L_Torso_X_For.mp4']",robot_stimuli\R_Head_Z_For.mp4,5,,,,,,,,,,,,,0,88,88,88,,,,,,,,,,,,,,,,,2151.4244086,2152.5151462000003,,,,,,,,,2156.1645813000005,2156.1645813000005,2156.1645813000005,2156.1645813000005,2156.1645813000005,2156.1645813000005,2156.1645813000005,2156.1645813000005,None,None,None,,,,,,,,,,,2128.1961799,2128.1961799,None,,2147.7951519,2152.5151462000003,2152.5151462000003,2152.5151462000003,2152.5151462000003,c,2.9221317000001363,2128.1961799,2128.1961799,,,,5,001,2024-06-27_15h21.44.231,robot_sternberg_sign,2022.2.5,60.03406332755389,
"['L_Head_Z_For', 'R_Arm_Z_For', 'R_Arm_Y_For', 'L_Head_Y_For', 'L_Arm_Y_For', 'L_Torso_X_For']",False,L_Arm_Y_Back,6,robot,3,False,True,"['robot_stimuli\\L_Head_Z_For.mp4', 'robot_stimuli\\R_Arm_Z_For.mp4', 'robot_stimuli\\R_Arm_Y_For.mp4', 'robot_stimuli\\L_Head_Y_For.mp4', 'robot_stimuli\\L_Arm_Y_For.mp4', 'robot_stimuli\\L_Torso_X_For.mp4']",robot_stimuli\L_Arm_Y_Back.mp4,5,,,,,,,,,,,,,0,89,89,89,,,,,,,,,,,,,,,,,2179.3444551000002,2180.4294782000006,,,,,,,,,2186.9699357,2192.0002824000003,2186.9699357,2192.0002824000003,2186.9699357,2192.0002824000003,2186.9699357,2192.0002824000003,69.96913580246914,4.173968400000376,space,,,4.986187100000279,,,,,,,,2156.1645813000005,2156.1645813000005,None,,2175.7091372000004,2180.4294782000006,2180.4294782000006,2180.4294782000006,2180.4294782000006,n,6.4703334999994695,2156.1645813000005,2156.1645813000005,,,,5,001,2024-06-27_15h21.44.231,robot_sternberg_sign,2022.2.5,60.03406332755389,
"['P', 'S', 'Z', 'H', 'C', 'V']",True,P,6,letter,4,True,False,"['robot_stimuli\\\\filler.mp4', 'robot_stimuli\\\\filler.mp4', 'robot_stimuli\\\\filler.mp4', 'robot_stimuli\\\\filler.mp4', 'robot_stimuli\\\\filler.mp4', 'robot_stimuli\\\\filler.mp4']",robot_stimuli\\filler.mp4,5,,,,,,,,,,,,,0,90,90,90,,,,,,,,,,,,,,,,,2208.5832637000003,2209.6404704000006,,,,,,,,,2210.8654432000003,2210.8654432000003,2210.8654432000003,2210.8654432000003,2210.8654432000003,2210.8654432000003,2210.8654432000003,2210.8654432000003,None,None,None,,,,,,,,,,,2192.0002824000003,2192.0002824000003,space,2.4683390999998664,,,2209.6404704000006,2209.6404704000006,2209.6404704000006,c,1.1471245000002455,,,2206.3721484,2208.5832637000003,2209.6404704000006,5,001,2024-06-27_15h21.44.231,robot_sternberg_sign,2022.2.5,60.03406332755389,
"['J', 'Z', 'C', 'F', 'H', 'V']",True,H,6,letter,4,False,False,"['robot_stimuli\\\\filler.mp4', 'robot_stimuli\\\\filler.mp4', 'robot_stimuli\\\\filler.mp4', 'robot_stimuli\\\\filler.mp4', 'robot_stimuli\\\\filler.mp4', 'robot_stimuli\\\\filler.mp4']",robot_stimuli\\filler.mp4,5,,,,,,,,,,,,,0,91,91,91,,,,,,,,,,,,,,,,,2225.0017016,2226.0654646000003,,,,,,,,,2227.2956306000005,2227.2956306000005,2227.2956306000005,2227.2956306000005,2227.2956306000005,2227.2956306000005,2227.2956306000005,2227.2956306000005,None,None,None,,,,,,,,,,,2210.8654432000003,2210.8654432000003,None,,,,2226.0654646000003,2226.0654646000003,2226.0654646000003,c,1.1388932000008936,2210.8654432000003,2210.8654432000003,2222.9766976,2225.0017016,2226.0654646000003,5,001,2024-06-27_15h21.44.231,robot_sternberg_sign,2022.2.5,60.03406332755389,
"['G', 'H', 'L', 'M', 'B', 'R']",True,M,6,letter,4,False,False,"['robot_stimuli\\\\filler.mp4', 'robot_stimuli\\\\filler.mp4', 'robot_stimuli\\\\filler.mp4', 'robot_stimuli\\\\filler.mp4', 'robot_stimuli\\\\filler.mp4', 'robot_stimuli\\\\filler.mp4']",robot_stimuli\\filler.mp4,5,,,,,,,,,,,,,0,92,92,92,,,,,,,,,,,,,,,,,2241.6102613000003,2242.6729276000005,,,,,,,,,2243.9038487,2243.9038487,2243.9038487,2243.9038487,2243.9038487,2243.9038487,2243.9038487,2243.9038487,None,None,None,,,,,,,,,,,2227.2956306000005,2227.2956306000005,None,,,,2242.6729276000005,2242.6729276000005,2242.6729276000005,c,1.0683931000003213,2227.2956306000005,2227.2956306000005,2239.3913259,2241.6102613000003,2242.6729276000005,5,001,2024-06-27_15h21.44.231,robot_sternberg_sign,2022.2.5,60.03406332755389,
"['F', 'H', 'W', 'Q', 'B', 'P']",False,M,6,letter,4,False,False,"['robot_stimuli\\\\filler.mp4', 'robot_stimuli\\\\filler.mp4', 'robot_stimuli\\\\filler.mp4', 'robot_stimuli\\\\filler.mp4', 'robot_stimuli\\\\filler.mp4', 'robot_stimuli\\\\filler.mp4']",robot_stimuli\\filler.mp4,5,,,,,,,,,,,,,0,93,93,93,,,,,,,,,,,,,,,,,2257.6023758,2258.6544458,,,,,,,,,2260.2797223,2260.2797223,2260.2797223,2260.2797223,2260.2797223,2260.2797223,2260.2797223,2260.2797223,None,None,None,,,,,,,,,,,2243.9038487,2243.9038487,None,,,,2258.6544458,2258.6544458,2258.6544458,n,1.5496433000007528,2243.9038487,2243.9038487,2255.5861473000004,2257.6023758,2258.6544458,5,001,2024-06-27_15h21.44.231,robot_sternberg_sign,2022.2.5,60.03406332755389,
"['K', 'C', 'R', 'X', 'Z', 'J']",True,K,6,letter,4,False,False,"['robot_stimuli\\\\filler.mp4', 'robot_stimuli\\\\filler.mp4', 'robot_stimuli\\\\filler.mp4', 'robot_stimuli\\\\filler.mp4', 'robot_stimuli\\\\filler.mp4', 'robot_stimuli\\\\filler.mp4']",robot_stimuli\\filler.mp4,5,,,,,,,,,,,,,0,94,94,94,,,,,,,,,,,,,,,,,2273.9985755,2275.0561420000004,,,,,,,,,2276.4856796000004,2276.4856796000004,2276.4856796000004,2276.4856796000004,2276.4856796000004,2276.4856796000004,2276.4856796000004,2276.4856796000004,None,None,None,,,,,,,,,,,2260.2797223,2260.2797223,None,,,,2275.0561420000004,2275.0561420000004,2275.0561420000004,c,1.1811476000002585,2260.2797223,2260.2797223,2271.9840209000004,2273.9985755,2275.0561420000004,5,001,2024-06-27_15h21.44.231,robot_sternberg_sign,2022.2.5,60.03406332755389,
"['K', 'L', 'N', 'M', 'R', 'H']",True,H,6,letter,4,False,False,"['robot_stimuli\\\\filler.mp4', 'robot_stimuli\\\\filler.mp4', 'robot_stimuli\\\\filler.mp4', 'robot_stimuli\\\\filler.mp4', 'robot_stimuli\\\\filler.mp4', 'robot_stimuli\\\\filler.mp4']",robot_stimuli\\filler.mp4,5,,,,,,,,,,,,,0,95,95,95,,,,,,,,,,,,,,,,,2290.5985846000003,2291.6584694000003,,,,,,,,,2293.2788097000002,2293.2788097000002,2293.2788097000002,2293.2788097000002,2293.2788097000002,2293.2788097000002,2293.2788097000002,2293.2788097000002,None,None,None,,,,,,,,,,,2276.4856796000004,2276.4856796000004,None,,,,2291.6584694000003,2291.6584694000003,2291.6584694000003,c,1.4029731000000538,2276.4856796000004,2276.4856796000004,2288.5820030000004,2290.5985846000003,2291.6584694000003,5,001,2024-06-27_15h21.44.231,robot_sternberg_sign,2022.2.5,60.03406332755389,
"['L', 'S', 'C', 'G', 'Z', 'R']",False,X,6,letter,4,False,False,"['robot_stimuli\\\\filler.mp4', 'robot_stimuli\\\\filler.mp4', 'robot_stimuli\\\\filler.mp4', 'robot_stimuli\\\\filler.mp4', 'robot_stimuli\\\\filler.mp4', 'robot_stimuli\\\\filler.mp4']",robot_stimuli\\filler.mp4,5,,,,,,,,,,,,,0,96,96,96,,,,,,,,,,,,,,,,,2307.2051922,2294.3385419000006,,,,,,,,,2309.7055992000005,2309.7055992000005,2309.7055992000005,2309.7055992000005,2309.7055992000005,2309.7055992000005,2309.7055992000005,2309.7055992000005,None,None,None,,,,,,,,,,,2293.2788097000002,2293.2788097000002,None,,,,2308.2740449000003,2308.2740449000003,2308.2740449000003,n,1.2748997000007876,2293.2788097000002,2293.2788097000002,2305.1871364,2307.2051922,2308.2740449000003,5,001,2024-06-27_15h21.44.231,robot_sternberg_sign,2022.2.5,60.03406332755389,
"['J', 'P', 'M', 'S', 'H', 'X']",False,Z,6,letter,4,False,False,"['robot_stimuli\\\\filler.mp4', 'robot_stimuli\\\\filler.mp4', 'robot_stimuli\\\\filler.mp4', 'robot_stimuli\\\\filler.mp4', 'robot_stimuli\\\\filler.mp4', 'robot_stimuli\\\\filler.mp4']",robot_stimuli\\filler.mp4,5,,,,,,,,,,,,,0,97,97,97,,,,,,,,,,,,,,,,,2323.6349069,2324.6898325,,,,,,,,,2325.9190525000004,2325.9190525000004,2325.9190525000004,2325.9190525000004,2325.9190525000004,2325.9190525000004,2325.9190525000004,2325.9190525000004,None,None,None,,,,,,,,,,,2309.7055992000005,2309.7055992000005,None,,,,2324.6898325,2324.6898325,2324.6898325,n,1.1792453999996724,2309.7055992000005,2309.7055992000005,2321.4233834000006,2323.6349069,2324.6898325,5,001,2024-06-27_15h21.44.231,robot_sternberg_sign,2022.2.5,60.03406332755389,
"['D', 'W', 'Q', 'Z', 'N', 'P']",False,S,6,letter,4,False,False,"['robot_stimuli\\\\filler.mp4', 'robot_stimuli\\\\filler.mp4', 'robot_stimuli\\\\filler.mp4', 'robot_stimuli\\\\filler.mp4', 'robot_stimuli\\\\filler.mp4', 'robot_stimuli\\\\filler.mp4']",robot_stimuli\\filler.mp4,5,,,,,,,,,,,,,0,98,98,98,,,,,,,,,,,,,,,,,2339.8475069000006,2340.9061651,,,,,,,,,2342.3337520000005,2342.3337520000005,2342.3337520000005,2342.3337520000005,2342.3337520000005,2342.3337520000005,2342.3337520000005,2342.3337520000005,None,None,None,,,,,,,,,,,2325.9190525000004,2325.9190525000004,None,,,,2340.9061651,2340.9061651,2340.9061651,n,1.2272089000007327,2325.9190525000004,2325.9190525000004,2337.8322110999998,2339.8475069000006,2340.9061651,5,001,2024-06-27_15h21.44.231,robot_sternberg_sign,2022.2.5,60.03406332755389,
"['W', 'J', 'P', 'F', 'R', 'T']",False,V,6,letter,4,False,True,"['robot_stimuli\\\\filler.mp4', 'robot_stimuli\\\\filler.mp4', 'robot_stimuli\\\\filler.mp4', 'robot_stimuli\\\\filler.mp4', 'robot_stimuli\\\\filler.mp4', 'robot_stimuli\\\\filler.mp4']",robot_stimuli\\filler.mp4,5,,,,,,,,,,,,,0,99,99,99,,,,,,,,,,,,,,,,,2356.0598155,2357.1214077000004,,,,,,,,,2358.3769644000004,2361.4913476,2358.3769644000004,2361.4913476,2358.3769644000004,2361.4913476,2358.3769644000004,2361.4913476,53.91975308641976,2.648231300000589,space,,,3.050930299999891,,,,,,,,2342.3337520000005,2342.3337520000005,None,,,,2357.1214077000004,2357.1214077000004,2357.1214077000004,c,0.995201900000211,2342.3337520000005,2342.3337520000005,2354.0509021,2356.0598155,2357.1214077000004,5,001,2024-06-27_15h21.44.231,robot_sternberg_sign,2022.2.5,60.03406332755389,
"['K', 'X']",True,K,2,letter,4,True,False,"['robot_stimuli\\\\filler.mp4', 'robot_stimuli\\\\filler.mp4']",robot_stimuli\\filler.mp4,5,,,,,,,,,,,,,0,100,100,100,,,,,,,,,,,,,,,,,2368.1569311000003,2369.2227401,,,,,,,,,2369.8534244,2369.8534244,2369.8534244,2369.8534244,2369.8534244,2369.8534244,2369.8534244,2369.8534244,None,None,None,,,,,,,,,,,2361.4913476,2361.4913476,space,1.0817219000000478,,,2369.2227401,2369.2227401,2369.2227401,c,0.5649710000006962,,,2365.9549745000004,2368.1569311000003,2369.2227401,5,001,2024-06-27_15h21.44.231,robot_sternberg_sign,2022.2.5,60.03406332755389,
"['G', 'M']",False,F,2,letter,4,False,False,"['robot_stimuli\\\\filler.mp4', 'robot_stimuli\\\\filler.mp4']",robot_stimuli\\filler.mp4,5,,,,,,,,,,,,,0,101,101,101,,,,,,,,,,,,,,,,,2375.0152652000006,2376.0737015000004,,,,,,,,,2377.2996639000003,2377.2996639000003,2377.2996639000003,2377.2996639000003,2377.2996639000003,2377.2996639000003,2377.2996639000003,2377.2996639000003,None,None,None,,,,,,,,,,,2369.8534244,2369.8534244,None,,,,2376.0737015000004,2376.0737015000004,2376.0737015000004,n,1.0584453999999823,2369.8534244,2369.8534244,2373.0019227000003,2375.0152652000006,2376.0737015000004,5,001,2024-06-27_15h21.44.231,robot_sternberg_sign,2022.2.5,60.03406332755389,
"['R', 'C']",False,F,2,letter,4,False,False,"['robot_stimuli\\\\filler.mp4', 'robot_stimuli\\\\filler.mp4']",robot_stimuli\\filler.mp4,5,,,,,,,,,,,,,0,102,102,102,,,,,,,,,,,,,,,,,2382.664638,2383.7235586000006,,,,,,,,,2384.7494744000005,2384.7494744000005,2384.7494744000005,2384.7494744000005,2384.7494744000005,2384.7494744000005,2384.7494744000005,2384.7494744000005,None,None,None,,,,,,,,,,,2377.2996639000003,2377.2996639000003,None,,,,2383.7235586000006,2383.7235586000006,2383.7235586000006,n,0.8254430999995748,2377.2996639000003,2377.2996639000003,2380.6480998000006,2382.664638,2383.7235586000006,5,001,2024-06-27_15h21.44.231,robot_sternberg_sign,2022.2.5,60.03406332755389,
"['L', 'K']",True,L,2,letter,4,False,False,"['robot_stimuli\\\\filler.mp4', 'robot_stimuli\\\\filler.mp4']",robot_stimuli\\filler.mp4,5,,,,,,,,,,,,,0,103,103,103,,,,,,,,,,,,,,,,,2390.3109091000006,2391.3735252000006,,,,,,,,,2392.6010278000003,2392.6010278000003,2392.6010278000003,2392.6010278000003,2392.6010278000003,2392.6010278000003,2392.6010278000003,2392.6010278000003,None,None,None,,,,,,,,,,,2384.7494744000005,2384.7494744000005,None,,,,2391.3735252000006,2391.3735252000006,2391.3735252000006,c,1.1035835000002407,2384.7494744000005,2384.7494744000005,2388.09346,2390.3109091000006,2391.3735252000006,5,001,2024-06-27_15h21.44.231,robot_sternberg_sign,2022.2.5,60.03406332755389,
"['Q', 'P']",False,B,2,letter,4,False,False,"['robot_stimuli\\\\filler.mp4', 'robot_stimuli\\\\filler.mp4']",robot_stimuli\\filler.mp4,5,,,,,,,,,,,,,0,104,104,104,,,,,,,,,,,,,,,,,2398.1598259,2399.2234333000006,,,,,,,,,2399.8516246,2399.8516246,2399.8516246,2399.8516246,2399.8516246,2399.8516246,2399.8516246,2399.8516246,None,None,None,,,,,,,,,,,2392.6010278000003,2392.6010278000003,None,,,,2399.2234333000006,2399.2234333000006,2399.2234333000006,n,0.5087744000002203,2392.6010278000003,2392.6010278000003,2395.9421368000003,2398.1598259,2399.2234333000006,5,001,2024-06-27_15h21.44.231,robot_sternberg_sign,2022.2.5,60.03406332755389,
"['X', 'Z']",False,D,2,letter,4,False,False,"['robot_stimuli\\\\filler.mp4', 'robot_stimuli\\\\filler.mp4']",robot_stimuli\\filler.mp4,5,,,,,,,,,,,,,0,105,105,105,,,,,,,,,,,,,,,,,2405.2106488,2406.2734103000003,,,,,,,,,2407.5014777000006,2407.5014777000006,2407.5014777000006,2407.5014777000006,2407.5014777000006,2407.5014777000006,2407.5014777000006,2407.5014777000006,None,None,None,,,,,,,,,,,2399.8516246,2399.8516246,None,,,,2406.2734103000003,2406.2734103000003,2406.2734103000003,n,1.0912171999998463,2399.8516246,2399.8516246,2403.1954922000004,2405.2106488,2406.2734103000003,5,001,2024-06-27_15h21.44.231,robot_sternberg_sign,2022.2.5,60.03406332755389,
