sequence,is_target,condition,stimuli,block,is_block_beginning,is_block_ending,fname,subject,retraining.thisRepN,retraining.thisTrialN,retraining.thisN,retraining.thisIndex,training.thisRepN,training.thisTrialN,training.thisN,training.thisIndex,trials.thisRepN,trials.thisTrialN,trials.thisN,trials.thisIndex,langage_text.started,langage_key.started,langage_key.keys,langage_key.rt,intro_text.started,intro_key.started,intro_key.keys,intro_key.rt,training_robot_intro_text.started,training_robot_intro_key.started,training_robot_intro_key.keys,training_robot_intro_key.rt,cross.started,cross.stopped,training_letter.started,training_robot_key.started,training_robot_question.started,training_robot_keys.started,training_letter.stopped,training_robot_key.keys,RSME_labels.started,RSME_labels.stopped,RSME_ticks.started,RSME_ticks.stopped,RSME_text.started,RSME_text.stopped,RSME_key.started,RSME_key.stopped,RSME_ticks.response,RSME_ticks.rt,RSME_key.keys,training_robot_intro_text.stopped,training_robot_intro_key.stopped,training_robot_key.rt,RSME_key.rt,training_robot_movie.started,experiment_beginning_text.started,experiment_beginning_keys.started,experiment_beginning_key.started,experiment_beginning_key.keys,experiment_beginning_key.rt,block_intro_text.started,block_intro_key.started,block_intro_key.keys,block_intro_key.rt,letter.started,key.started,letter.stopped,key.keys,block_intro_text.stopped,block_intro_key.stopped,key.rt,movie.started,participant,session,date,expName,psychopyVersion,frameRate,
,,,,,,,,,,,,,,,,,,,,,11.221457999999984,11.221457999999984,f,445.1426772000001,,,,,,,,,,,,,,,,,,,,,,,,,,,,,,,,,,,,,,,,,,,,,,,,,,4,001,2024-06-06_13h54.15.335,robot_nback_sign,2022.2.5,59.95139141183242,
,,,,,,,,,,,,,,,,,,,,,,,,,456.4342687000001,456.4342687000001,space,450.73738119999985,,,,,,,,,,,,,,,,,,,,,,,,,,,,,,,,,,,,,,,,,,,,,,4,001,2024-06-06_13h54.15.335,robot_nback_sign,2022.2.5,59.95139141183242,
H,False,1,letter,1,True,False,robot_stimuli\\filler.mp4,4,0,0,0,0,0,0,0,0,,,,,,,,,,,,,907.2248950999999,907.2248950999999,space,3.458919100000003,910.7130775,912.0313395000001,912.0313395000001,912.0313395000001,912.0313395000001,912.0313395000001,914.3613654000001,None,914.3613654000001,914.3613654000001,914.3613654000001,914.3613654000001,914.3613654000001,914.3613654000001,914.3613654000001,914.3613654000001,None,None,None,,,,,,,,,,,,,,,,,,,,,,,4,001,2024-06-06_13h54.15.335,robot_nback_sign,2022.2.5,59.95139141183242,
H,True,1,letter,1,False,False,robot_stimuli\\filler.mp4,4,0,0,0,0,0,1,1,1,,,,,,,,,,,,,914.3613654000001,914.3613654000001,None,,914.3613654000001,915.4268854,915.4268854,915.4268854,915.4268854,915.4268854,917.4595933,c,917.4595933,917.4595933,917.4595933,917.4595933,917.4595933,917.4595933,917.4595933,917.4595933,None,None,None,914.3613654000001,914.3613654000001,1.2483901000000515,,,,,,,,,,,,,,,,,,,,4,001,2024-06-06_13h54.15.335,robot_nback_sign,2022.2.5,59.95139141183242,
P,False,1,letter,1,False,False,robot_stimuli\\filler.mp4,4,0,0,0,0,0,2,2,2,,,,,,,,,,,,,917.4595933,917.4595933,None,,917.4595933,918.5365609,918.5365609,918.5365609,918.5365609,918.5365609,920.5720059,n,920.5720059,920.5720059,920.5720059,920.5720059,920.5720059,920.5720059,920.5720059,920.5720059,None,None,None,917.4595933,917.4595933,1.451405300000033,,,,,,,,,,,,,,,,,,,,4,001,2024-06-06_13h54.15.335,robot_nback_sign,2022.2.5,59.95139141183242,
L,False,1,letter,1,False,False,robot_stimuli\\filler.mp4,4,0,0,0,0,0,3,3,3,,,,,,,,,,,,,920.5720059,920.5720059,None,,920.5720059,921.6463816999999,921.6463816999999,921.6463816999999,921.6463816999999,921.6463816999999,923.6728023999999,n,923.6728023999999,923.6728023999999,923.6728023999999,923.6728023999999,923.6728023999999,923.6728023999999,923.6728023999999,923.6728023999999,None,None,None,920.5720059,920.5720059,1.2048055999998724,,,,,,,,,,,,,,,,,,,,4,001,2024-06-06_13h54.15.335,robot_nback_sign,2022.2.5,59.95139141183242,
Q,False,1,letter,1,False,False,robot_stimuli\\filler.mp4,4,0,0,0,0,0,4,4,4,,,,,,,,,,,,,923.6728023999999,923.6728023999999,None,,923.6728023999999,924.7470653999999,924.7470653999999,924.7470653999999,924.7470653999999,924.7470653999999,926.7781593,n,926.7781593,926.7781593,926.7781593,926.7781593,926.7781593,926.7781593,926.7781593,926.7781593,None,None,None,923.6728023999999,923.6728023999999,1.7294294000000718,,,,,,,,,,,,,,,,,,,,4,001,2024-06-06_13h54.15.335,robot_nback_sign,2022.2.5,59.95139141183242,
Q,True,1,letter,1,False,True,robot_stimuli\\filler.mp4,4,0,0,0,0,0,5,5,5,,,,,,,,,,,,,926.7781593,926.7781593,None,,926.7781593,927.8471539,927.8471539,927.8471539,927.8471539,927.8471539,929.9389939999999,c,929.9389939999999,939.2500878000001,929.9389939999999,939.2500878000001,929.9389939999999,939.2500878000001,929.9389939999999,939.2500878000001,20.123456790123452,7.754083600000058,space,926.7781593,926.7781593,1.2445213999999396,9.263464200000044,,,,,,,,,,,,,,,,,,,4,001,2024-06-06_13h54.15.335,robot_nback_sign,2022.2.5,59.95139141183242,
H,False,2,letter,1,True,False,robot_stimuli\\filler.mp4,4,0,0,0,0,0,6,6,6,,,,,,,,,,,,,939.2500878000001,939.2500878000001,space,2.681384999999864,941.963146,943.0373631,943.0373631,943.0373631,943.0373631,943.0373631,945.262477,n,945.262477,945.262477,945.262477,945.262477,945.262477,945.262477,945.262477,945.262477,None,None,None,,,1.4541877999999997,,,,,,,,,,,,,,,,,,,,4,001,2024-06-06_13h54.15.335,robot_nback_sign,2022.2.5,59.95139141183242,
L,False,2,letter,1,False,False,robot_stimuli\\filler.mp4,4,0,0,0,0,0,7,7,7,,,,,,,,,,,,,945.262477,945.262477,None,,945.262477,946.3291280000001,946.3291280000001,946.3291280000001,946.3291280000001,946.3291280000001,948.3556085,n,948.3556085,948.3556085,948.3556085,948.3556085,948.3556085,948.3556085,948.3556085,948.3556085,None,None,None,945.262477,945.262477,1.94670549999978,,,,,,,,,,,,,,,,,,,,4,001,2024-06-06_13h54.15.335,robot_nback_sign,2022.2.5,59.95139141183242,
N,False,2,letter,1,False,False,robot_stimuli\\filler.mp4,4,0,0,0,0,0,8,8,8,,,,,,,,,,,,,948.3556085,948.3556085,None,,948.3556085,949.4311516999999,949.4311516999999,949.4311516999999,949.4311516999999,949.4311516999999,951.6624070999999,n,951.6624070999999,951.6624070999999,951.6624070999999,951.6624070999999,951.6624070999999,951.6624070999999,951.6624070999999,951.6624070999999,None,None,None,948.3556085,948.3556085,1.660453299999972,,,,,,,,,,,,,,,,,,,,4,001,2024-06-06_13h54.15.335,robot_nback_sign,2022.2.5,59.95139141183242,
L,True,2,letter,1,False,False,robot_stimuli\\filler.mp4,4,0,0,0,0,0,9,9,9,,,,,,,,,,,,,951.6624070999999,951.6624070999999,None,,951.6624070999999,952.7279924,952.7279924,952.7279924,952.7279924,952.7279924,954.7561553999999,c,954.7561553999999,954.7561553999999,954.7561553999999,954.7561553999999,954.7561553999999,954.7561553999999,954.7561553999999,954.7561553999999,None,None,None,951.6624070999999,951.6624070999999,0.8265525000001617,,,,,,,,,,,,,,,,,,,,4,001,2024-06-06_13h54.15.335,robot_nback_sign,2022.2.5,59.95139141183242,
L,False,2,letter,1,False,False,robot_stimuli\\filler.mp4,4,0,0,0,0,0,10,10,10,,,,,,,,,,,,,954.7561553999999,954.7561553999999,None,,954.7561553999999,955.8271494,955.8271494,955.8271494,955.8271494,955.8271494,957.8518211,n,957.8518211,957.8518211,957.8518211,957.8518211,957.8518211,957.8518211,957.8518211,957.8518211,None,None,None,954.7561553999999,954.7561553999999,1.2011348999999427,,,,,,,,,,,,,,,,,,,,4,001,2024-06-06_13h54.15.335,robot_nback_sign,2022.2.5,59.95139141183242,
L,True,2,letter,1,False,True,robot_stimuli\\filler.mp4,4,0,0,0,0,0,11,11,11,,,,,,,,,,,,,957.8518211,957.8518211,None,,957.8518211,958.9311410999999,958.9311410999999,958.9311410999999,958.9311410999999,958.9311410999999,961.1868767999999,c,961.1868767999999,966.3889773000001,961.1868767999999,966.3889773000001,961.1868767999999,966.3889773000001,961.1868767999999,966.3889773000001,29.845679012345677,4.495472300000074,space,957.8518211,957.8518211,0.5995455000002039,5.151908299999832,,,,,,,,,,,,,,,,,,,4,001,2024-06-06_13h54.15.335,robot_nback_sign,2022.2.5,59.95139141183242,
L,False,3,letter,1,True,False,robot_stimuli\\filler.mp4,4,0,0,0,0,0,12,12,12,,,,,,,,,,,,,966.3889773000001,966.3889773000001,space,3.8702577000001384,970.2795643,971.3502192000001,971.3502192000001,971.3502192000001,971.3502192000001,971.3502192000001,973.5742498,n,973.5742498,973.5742498,973.5742498,973.5742498,973.5742498,973.5742498,973.5742498,973.5742498,None,None,None,,,1.3898801000000276,,,,,,,,,,,,,,,,,,,,4,001,2024-06-06_13h54.15.335,robot_nback_sign,2022.2.5,59.95139141183242,
K,False,3,letter,1,False,False,robot_stimuli\\filler.mp4,4,0,0,0,0,0,13,13,13,,,,,,,,,,,,,973.5742498,973.5742498,None,,973.5742498,974.6475422999999,974.6475422999999,974.6475422999999,974.6475422999999,974.6475422999999,976.6784382000001,n,976.6784382000001,976.6784382000001,976.6784382000001,976.6784382000001,976.6784382000001,976.6784382000001,976.6784382000001,976.6784382000001,None,None,None,973.5742498,973.5742498,0.5967057000000295,,,,,,,,,,,,,,,,,,,,4,001,2024-06-06_13h54.15.335,robot_nback_sign,2022.2.5,59.95139141183242,
G,False,3,letter,1,False,False,robot_stimuli\\filler.mp4,4,0,0,0,0,0,14,14,14,,,,,,,,,,,,,976.6784382000001,976.6784382000001,None,,976.6784382000001,977.7492037,977.7492037,977.7492037,977.7492037,977.7492037,979.9759597,n,979.9759597,979.9759597,979.9759597,979.9759597,979.9759597,979.9759597,979.9759597,979.9759597,None,None,None,976.6784382000001,976.6784382000001,0.6147452000000158,,,,,,,,,,,,,,,,,,,,4,001,2024-06-06_13h54.15.335,robot_nback_sign,2022.2.5,59.95139141183242,
L,True,3,letter,1,False,False,robot_stimuli\\filler.mp4,4,0,0,0,0,0,15,15,15,,,,,,,,,,,,,979.9759597,979.9759597,None,,979.9759597,981.0446502,981.0446502,981.0446502,981.0446502,981.0446502,983.0762468,c,983.0762468,983.0762468,983.0762468,983.0762468,983.0762468,983.0762468,983.0762468,983.0762468,None,None,None,979.9759597,979.9759597,0.950820799999974,,,,,,,,,,,,,,,,,,,,4,001,2024-06-06_13h54.15.335,robot_nback_sign,2022.2.5,59.95139141183242,
K,True,3,letter,1,False,False,robot_stimuli\\filler.mp4,4,0,0,0,0,0,16,16,16,,,,,,,,,,,,,983.0762468,983.0762468,None,,983.0762468,984.1448323,984.1448323,984.1448323,984.1448323,984.1448323,986.1710539999999,c,986.1710539999999,986.1710539999999,986.1710539999999,986.1710539999999,986.1710539999999,986.1710539999999,986.1710539999999,986.1710539999999,None,None,None,983.0762468,983.0762468,1.2903446999998778,,,,,,,,,,,,,,,,,,,,4,001,2024-06-06_13h54.15.335,robot_nback_sign,2022.2.5,59.95139141183242,
W,False,3,letter,1,False,True,robot_stimuli\\filler.mp4,4,0,0,0,0,0,17,17,17,,,,,,,,,,,,,986.1710539999999,986.1710539999999,None,,986.1710539999999,987.248979,987.248979,987.248979,987.248979,987.248979,989.5043727,n,989.5043727,992.9368282,989.5043727,992.9368282,989.5043727,992.9368282,989.5043727,992.9368282,47.43827160493827,3.1037630000000718,space,986.1710539999999,986.1710539999999,1.8903153000001112,3.370563700000048,,,,,,,,,,,,,,,,,,,4,001,2024-06-06_13h54.15.335,robot_nback_sign,2022.2.5,59.95139141183242,
R_Base_X_For,False,1,robot,2,True,False,robot_stimuli\R_Base_X_For.mp4,4,0,0,0,0,0,18,18,18,,,,,,,,,,,,,992.9368282,992.9368282,space,3.6906255999999757,996.6463337,997.7682015,,997.7682015,997.7682015,997.7682015,,None,1001.2927093999999,1001.2927093999999,1001.2927093999999,1001.2927093999999,1001.2927093999999,1001.2927093999999,1001.2927093999999,1001.2927093999999,None,None,None,,,,,997.7682015,,,,,,,,,,,,,,,,,,4,001,2024-06-06_13h54.15.335,robot_nback_sign,2022.2.5,59.95139141183242,
L_Arm_Y_For,False,1,robot,2,False,False,robot_stimuli\L_Arm_Y_For.mp4,4,0,0,0,0,0,19,19,19,,,,,,,,,,,,,1001.2927093999999,1001.2927093999999,None,,1001.2927093999999,1002.3934813000001,,1002.3934813000001,1002.3934813000001,1002.3934813000001,,n,1006.0475899,1006.0475899,1006.0475899,1006.0475899,1006.0475899,1006.0475899,1006.0475899,1006.0475899,None,None,None,1001.2927093999999,1001.2927093999999,1.7379856000000018,,1002.3934813000001,,,,,,,,,,,,,,,,,,4,001,2024-06-06_13h54.15.335,robot_nback_sign,2022.2.5,59.95139141183242,
R_Base_Z_For,False,1,robot,2,False,False,robot_stimuli\R_Base_Z_For.mp4,4,0,0,0,0,0,20,20,20,,,,,,,,,,,,,1006.0475899,1006.0475899,None,,1006.0475899,,,1007.1610507999999,1007.1610507999999,1007.1610507999999,,n,1010.8118996000001,1010.8118996000001,1010.8118996000001,1010.8118996000001,1010.8118996000001,1010.8118996000001,1010.8118996000001,1010.8118996000001,None,None,None,1006.0475899,1006.0475899,2.466446700000006,,1007.1610507999999,,,,,,,,,,,,,,,,,,4,001,2024-06-06_13h54.15.335,robot_nback_sign,2022.2.5,59.95139141183242,
L_Arm_Z_Back,False,1,robot,2,False,False,robot_stimuli\L_Arm_Z_Back.mp4,4,0,0,0,0,0,21,21,21,,,,,,,,,,,,,1010.8118996000001,1010.8118996000001,None,,1010.8118996000001,1011.9106606,,1011.9106606,1011.9106606,1011.9106606,,n,1015.5563539,1015.5563539,1015.5563539,1015.5563539,1015.5563539,1015.5563539,1015.5563539,1015.5563539,None,None,None,1010.8118996000001,1010.8118996000001,1.7566199999998844,,1011.9106606,,,,,,,,,,,,,,,,,,4,001,2024-06-06_13h54.15.335,robot_nback_sign,2022.2.5,59.95139141183242,
L_Arm_Z_Back,True,1,robot,2,False,False,robot_stimuli\L_Arm_Z_Back.mp4,4,0,0,0,0,0,22,22,22,,,,,,,,,,,,,1015.5563539,1015.5563539,None,,1015.5563539,1016.6544291999999,,1016.6544291999999,1016.6544291999999,1016.6544291999999,,c,1020.2960874999999,1020.2960874999999,1020.2960874999999,1020.2960874999999,1020.2960874999999,1020.2960874999999,1020.2960874999999,1020.2960874999999,None,None,None,1015.5563539,1015.5563539,3.1801576999998815,,1016.6544291999999,,,,,,,,,,,,,,,,,,4,001,2024-06-06_13h54.15.335,robot_nback_sign,2022.2.5,59.95139141183242,
L_Arm_Z_Back,True,1,robot,2,False,True,robot_stimuli\L_Arm_Z_Back.mp4,4,0,0,0,0,0,23,23,23,,,,,,,,,,,,,1020.2960874999999,1020.2960874999999,None,,1020.2960874999999,1021.3871457,,1021.3871457,1021.3871457,1021.3871457,,c,1025.060494,1028.1729159,1025.060494,1028.1729159,1025.060494,1028.1729159,1025.060494,1028.1729159,36.94444444444444,2.4437900000000354,space,1020.2960874999999,1020.2960874999999,3.105162199999995,3.0546827999999095,1021.3871457,,,,,,,,,,,,,,,,,,4,001,2024-06-06_13h54.15.335,robot_nback_sign,2022.2.5,59.95139141183242,
R_Head_X_Back,False,2,robot,2,True,False,robot_stimuli\R_Head_X_Back.mp4,4,0,0,0,0,0,24,24,24,,,,,,,,,,,,,1028.1729159,1028.1729159,space,2.6937187000000904,1030.8960141,1031.9959472,,1031.9959472,1031.9959472,1031.9959472,,None,1035.6421293,1035.6421293,1035.6421293,1035.6421293,1035.6421293,1035.6421293,1035.6421293,1035.6421293,None,None,None,,,,,1031.9959472,,,,,,,,,,,,,,,,,,4,001,2024-06-06_13h54.15.335,robot_nback_sign,2022.2.5,59.95139141183242,
R_Torso_X_Back,False,2,robot,2,False,False,robot_stimuli\R_Torso_X_Back.mp4,4,0,0,0,0,0,25,25,25,,,,,,,,,,,,,1035.6421293,1035.6421293,None,,1035.6421293,1036.74498,,1036.74498,1036.74498,1036.74498,,None,1040.4002137,1040.4002137,1040.4002137,1040.4002137,1040.4002137,1040.4002137,1040.4002137,1040.4002137,None,None,None,1035.6421293,1035.6421293,,,1036.74498,,,,,,,,,,,,,,,,,,4,001,2024-06-06_13h54.15.335,robot_nback_sign,2022.2.5,59.95139141183242,
R_Base_X_Back,False,2,robot,2,False,False,robot_stimuli\R_Base_X_Back.mp4,4,0,0,0,0,0,26,26,26,,,,,,,,,,,,,1040.4002137,1040.4002137,None,,1040.4002137,1041.5073712,,1041.5073712,1041.5073712,1041.5073712,,None,1045.1487637999999,1045.1487637999999,1045.1487637999999,1045.1487637999999,1045.1487637999999,1045.1487637999999,1045.1487637999999,1045.1487637999999,None,None,None,1040.4002137,1040.4002137,,,1041.5073712,,,,,,,,,,,,,,,,,,4,001,2024-06-06_13h54.15.335,robot_nback_sign,2022.2.5,59.95139141183242,
R_Torso_X_Back,True,2,robot,2,False,False,robot_stimuli\R_Torso_X_Back.mp4,4,0,0,0,0,0,27,27,27,,,,,,,,,,,,,1045.1487637999999,1045.1487637999999,None,,1045.1487637999999,,,1046.2555102,1046.2555102,1046.2555102,,n,1049.8999412,1049.8999412,1049.8999412,1049.8999412,1049.8999412,1049.8999412,1049.8999412,1049.8999412,None,None,None,1045.1487637999999,1045.1487637999999,3.0271382999999332,,1046.2555102,,,,,,,,,,,,,,,,,,4,001,2024-06-06_13h54.15.335,robot_nback_sign,2022.2.5,59.95139141183242,
R_Base_X_Back,True,2,robot,2,False,False,robot_stimuli\R_Base_X_Back.mp4,4,0,0,0,0,0,28,28,28,,,,,,,,,,,,,1049.8999412,1049.8999412,None,,1049.8999412,1051.0072758,,1051.0072758,1051.0072758,1051.0072758,,c,1054.6476829,1054.6476829,1054.6476829,1054.6476829,1054.6476829,1054.6476829,1054.6476829,1054.6476829,None,None,None,1049.8999412,1049.8999412,1.7162149000000682,,1051.0072758,,,,,,,,,,,,,,,,,,4,001,2024-06-06_13h54.15.335,robot_nback_sign,2022.2.5,59.95139141183242,
L_Torso_Z_For,False,2,robot,2,False,True,robot_stimuli\L_Torso_Z_For.mp4,4,0,0,0,0,0,29,29,29,,,,,,,,,,,,,1054.6476829,1054.6476829,None,,1054.6476829,,,1055.7471235,1055.7471235,1055.7471235,,n,1059.4202151,1062.3644874,1059.4202151,1062.3644874,1059.4202151,1062.3644874,1059.4202151,1062.3644874,19.351851851851848,2.495312399999875,space,1054.6476829,1054.6476829,2.1273075999999946,2.902044599999954,1055.7471235,,,,,,,,,,,,,,,,,,4,001,2024-06-06_13h54.15.335,robot_nback_sign,2022.2.5,59.95139141183242,
L_Arm_Y_Back,False,3,robot,2,True,False,robot_stimuli\L_Arm_Y_Back.mp4,4,0,0,0,0,0,30,30,30,,,,,,,,,,,,,1062.3644874,1062.3644874,space,1.1437885000000279,1063.5297756,1064.6124971,,1064.6124971,1064.6124971,1064.6124971,,n,1068.260786,1068.260786,1068.260786,1068.260786,1068.260786,1068.260786,1068.260786,1068.260786,None,None,None,,,2.295190600000069,,1064.6124971,,,,,,,,,,,,,,,,,,4,001,2024-06-06_13h54.15.335,robot_nback_sign,2022.2.5,59.95139141183242,
R_Arm_Y_Back,False,3,robot,2,False,False,robot_stimuli\R_Arm_Y_Back.mp4,4,0,0,0,0,0,31,31,31,,,,,,,,,,,,,1068.260786,1068.260786,None,,1068.260786,1069.3461224999999,,1069.3461224999999,1069.3461224999999,1069.3461224999999,,n,1072.9961197999999,1072.9961197999999,1072.9961197999999,1072.9961197999999,1072.9961197999999,1072.9961197999999,1072.9961197999999,1072.9961197999999,None,None,None,1068.260786,1068.260786,3.553361900000027,,1069.3461224999999,,,,,,,,,,,,,,,,,,4,001,2024-06-06_13h54.15.335,robot_nback_sign,2022.2.5,59.95139141183242,
R_Base_Y_Back,False,3,robot,2,False,False,robot_stimuli\R_Base_Y_Back.mp4,4,0,0,0,0,0,32,32,32,,,,,,,,,,,,,1072.9961197999999,1072.9961197999999,None,,1072.9961197999999,1074.0755323,,1074.0755323,1074.0755323,1074.0755323,,n,1077.7292548,1077.7292548,1077.7292548,1077.7292548,1077.7292548,1077.7292548,1077.7292548,1077.7292548,None,None,None,1072.9961197999999,1072.9961197999999,1.8798284000001786,,1074.0755323,,,,,,,,,,,,,,,,,,4,001,2024-06-06_13h54.15.335,robot_nback_sign,2022.2.5,59.95139141183242,
L_Arm_Y_Back,True,3,robot,2,False,False,robot_stimuli\L_Arm_Y_Back.mp4,4,0,0,0,0,0,33,33,33,,,,,,,,,,,,,1077.7292548,1077.7292548,None,,1077.7292548,1078.8226981,,1078.8226981,1078.8226981,1078.8226981,,n,1082.4622605,1082.4622605,1082.4622605,1082.4622605,1082.4622605,1082.4622605,1082.4622605,1082.4622605,None,None,None,1077.7292548,1077.7292548,1.62779230000001,,1078.8226981,,,,,,,,,,,,,,,,,,4,001,2024-06-06_13h54.15.335,robot_nback_sign,2022.2.5,59.95139141183242,
R_Arm_X_Back,False,3,robot,2,False,False,robot_stimuli\R_Arm_X_Back.mp4,4,0,0,0,0,0,34,34,34,,,,,,,,,,,,,1082.4622605,1082.4622605,None,,1082.4622605,1083.5434508,,1083.5434508,1083.5434508,1083.5434508,,n,1087.1976981,1087.1976981,1087.1976981,1087.1976981,1087.1976981,1087.1976981,1087.1976981,1087.1976981,None,None,None,1082.4622605,1082.4622605,2.3487208999999893,,1083.5434508,,,,,,,,,,,,,,,,,,4,001,2024-06-06_13h54.15.335,robot_nback_sign,2022.2.5,59.95139141183242,
R_Base_Y_Back,True,3,robot,2,False,True,robot_stimuli\R_Base_Y_Back.mp4,4,0,0,0,0,0,35,35,35,,,,,,,,,,,,,1087.1976981,1087.1976981,None,,1087.1976981,,,1088.3066538,1088.3066538,1088.3066538,,c,1091.9757159,1095.3190046,1091.9757159,1095.3190046,1091.9757159,1095.3190046,1091.9757159,1095.3190046,50.67901234567901,2.3762844000000314,space,1087.1976981,1087.1976981,1.8489017000001695,3.2831593999999313,1088.3066538,,,,,,,,,,,,,,,,,,4,001,2024-06-06_13h54.15.335,robot_nback_sign,2022.2.5,59.95139141183242,
,,,,,,,,,0,0,0,0,,,,,,,,,,,,,,,,,,,,,,,,,,,,,,,,,,,,,,,,,,,,,1095.3190046,1095.3190046,1095.3190046,c,4.043773099999953,,,,,,,,,,,,,4,001,2024-06-06_13h54.15.335,robot_nback_sign,2022.2.5,59.95139141183242,
P,False,3,letter,1,True,False,robot_stimuli\\filler.mp4,4,,,,,,,,,0,0,0,0,,,,,,,,,,,,,1104.6798399,1105.7370528,,,,,,,1107.7580613,1107.7580613,1107.7580613,1107.7580613,1107.7580613,1107.7580613,1107.7580613,1107.7580613,None,None,None,,,,,,,,,,,1099.4174322,1099.4174322,space,5.242131599999993,1105.7370528,1105.7370528,1107.7580613,None,,,,,4,001,2024-06-06_13h54.15.335,robot_nback_sign,2022.2.5,59.95139141183242,
L,False,3,letter,1,False,False,robot_stimuli\\filler.mp4,4,,,,,,,,,0,1,1,1,,,,,,,,,,,,,1107.7580613,1108.8167661,,,,,,,1111.0412428,1111.0412428,1111.0412428,1111.0412428,1111.0412428,1111.0412428,1111.0412428,1111.0412428,None,None,None,,,,,,,,,,,1107.7580613,1107.7580613,None,,1108.8167661,1108.8167661,1111.0412428,None,1107.7580613,1107.7580613,,,4,001,2024-06-06_13h54.15.335,robot_nback_sign,2022.2.5,59.95139141183242,
B,False,3,letter,1,False,False,robot_stimuli\\filler.mp4,4,,,,,,,,,0,2,2,2,,,,,,,,,,,,,1111.0412428,1112.1027451,,,,,,,1114.1253128,1114.1253128,1114.1253128,1114.1253128,1114.1253128,1114.1253128,1114.1253128,1114.1253128,None,None,None,,,,,,,,,,,1111.0412428,1111.0412428,None,,1112.1027451,1112.1027451,1114.1253128,None,1111.0412428,1111.0412428,,,4,001,2024-06-06_13h54.15.335,robot_nback_sign,2022.2.5,59.95139141183242,
P,True,3,letter,1,False,False,robot_stimuli\\filler.mp4,4,,,,,,,,,0,3,3,3,,,,,,,,,,,,,1114.1253128,1115.1842272,,,,,,,1117.2127019,1117.2127019,1117.2127019,1117.2127019,1117.2127019,1117.2127019,1117.2127019,1117.2127019,None,None,None,,,,,,,,,,,1114.1253128,1114.1253128,None,,1115.1842272,1115.1842272,1117.2127019,c,1114.1253128,1114.1253128,1.9874161000000186,,4,001,2024-06-06_13h54.15.335,robot_nback_sign,2022.2.5,59.95139141183242,
R,False,3,letter,1,False,False,robot_stimuli\\filler.mp4,4,,,,,,,,,0,4,4,4,,,,,,,,,,,,,1117.2127019,1118.2705306999999,,,,,,,1120.2935975,1120.2935975,1120.2935975,1120.2935975,1120.2935975,1120.2935975,1120.2935975,1120.2935975,None,None,None,,,,,,,,,,,1117.2127019,1117.2127019,None,,1118.2705306999999,1118.2705306999999,1120.2935975,n,1117.2127019,1117.2127019,0.8210532999999032,,4,001,2024-06-06_13h54.15.335,robot_nback_sign,2022.2.5,59.95139141183242,
P,False,3,letter,1,False,False,robot_stimuli\\filler.mp4,4,,,,,,,,,0,5,5,5,,,,,,,,,,,,,1120.2935975,1121.3506135,,,,,,,1123.5763938,1123.5763938,1123.5763938,1123.5763938,1123.5763938,1123.5763938,1123.5763938,1123.5763938,None,None,None,,,,,,,,,,,1120.2935975,1120.2935975,None,,1121.3506135,1121.3506135,1123.5763938,n,1120.2935975,1120.2935975,1.1487498999999843,,4,001,2024-06-06_13h54.15.335,robot_nback_sign,2022.2.5,59.95139141183242,
P,True,3,letter,1,False,False,robot_stimuli\\filler.mp4,4,,,,,,,,,0,6,6,6,,,,,,,,,,,,,1123.5763938,1124.6304956,,,,,,,1126.6542807,1126.6542807,1126.6542807,1126.6542807,1126.6542807,1126.6542807,1126.6542807,1126.6542807,None,None,None,,,,,,,,,,,1123.5763938,1123.5763938,None,,1124.6304956,1124.6304956,1126.6542807,c,1123.5763938,1123.5763938,1.6209900999999718,,4,001,2024-06-06_13h54.15.335,robot_nback_sign,2022.2.5,59.95139141183242,
P,False,3,letter,1,False,False,robot_stimuli\\filler.mp4,4,,,,,,,,,0,7,7,7,,,,,,,,,,,,,1126.6542807,1127.7264605999999,,,,,,,1129.7561316,1129.7561316,1129.7561316,1129.7561316,1129.7561316,1129.7561316,1129.7561316,1129.7561316,None,None,None,,,,,,,,,,,1126.6542807,1126.6542807,None,,1127.7264605999999,1127.7264605999999,1129.7561316,n,1126.6542807,1126.6542807,1.6448849000000791,,4,001,2024-06-06_13h54.15.335,robot_nback_sign,2022.2.5,59.95139141183242,
L,False,3,letter,1,False,False,robot_stimuli\\filler.mp4,4,,,,,,,,,0,8,8,8,,,,,,,,,,,,,1129.7561316,1130.8194667,,,,,,,1133.0408422,1133.0408422,1133.0408422,1133.0408422,1133.0408422,1133.0408422,1133.0408422,1133.0408422,None,None,None,,,,,,,,,,,1129.7561316,1129.7561316,None,,1130.8194667,1130.8194667,1133.0408422,n,1129.7561316,1129.7561316,0.9920018000000255,,4,001,2024-06-06_13h54.15.335,robot_nback_sign,2022.2.5,59.95139141183242,
P,True,3,letter,1,False,False,robot_stimuli\\filler.mp4,4,,,,,,,,,0,9,9,9,,,,,,,,,,,,,1133.0408422,1134.0998829999999,,,,,,,1136.1253606,1136.1253606,1136.1253606,1136.1253606,1136.1253606,1136.1253606,1136.1253606,1136.1253606,None,None,None,,,,,,,,,,,1133.0408422,1133.0408422,None,,1134.0998829999999,1134.0998829999999,1136.1253606,c,1133.0408422,1133.0408422,1.0879944999999225,,4,001,2024-06-06_13h54.15.335,robot_nback_sign,2022.2.5,59.95139141183242,
B,False,3,letter,1,False,False,robot_stimuli\\filler.mp4,4,,,,,,,,,0,10,10,10,,,,,,,,,,,,,1136.1253606,1137.1860824,,,,,,,1139.4099376,1139.4099376,1139.4099376,1139.4099376,1139.4099376,1139.4099376,1139.4099376,1139.4099376,None,None,None,,,,,,,,,,,1136.1253606,1136.1253606,None,,1137.1860824,1137.1860824,1139.4099376,n,1136.1253606,1136.1253606,1.112315399999943,,4,001,2024-06-06_13h54.15.335,robot_nback_sign,2022.2.5,59.95139141183242,
X,False,3,letter,1,False,False,robot_stimuli\\filler.mp4,4,,,,,,,,,0,11,11,11,,,,,,,,,,,,,1139.4099376,1140.4683459,,,,,,,1142.6960926,1142.6960926,1142.6960926,1142.6960926,1142.6960926,1142.6960926,1142.6960926,1142.6960926,None,None,None,,,,,,,,,,,1139.4099376,1139.4099376,None,,1140.4683459,1140.4683459,1142.6960926,n,1139.4099376,1139.4099376,0.9352331000000049,,4,001,2024-06-06_13h54.15.335,robot_nback_sign,2022.2.5,59.95139141183242,
D,False,3,letter,1,False,False,robot_stimuli\\filler.mp4,4,,,,,,,,,0,12,12,12,,,,,,,,,,,,,1142.6960926,1143.7544909,,,,,,,1145.7809199,1145.7809199,1145.7809199,1145.7809199,1145.7809199,1145.7809199,1145.7809199,1145.7809199,None,None,None,,,,,,,,,,,1142.6960926,1142.6960926,None,,1143.7544909,1143.7544909,1145.7809199,n,1142.6960926,1142.6960926,1.07270410000001,,4,001,2024-06-06_13h54.15.335,robot_nback_sign,2022.2.5,59.95139141183242,
B,True,3,letter,1,False,False,robot_stimuli\\filler.mp4,4,,,,,,,,,0,13,13,13,,,,,,,,,,,,,1145.7809199,,,,,,,,1148.8841826999999,1148.8841826999999,1148.8841826999999,1148.8841826999999,1148.8841826999999,1148.8841826999999,1148.8841826999999,1148.8841826999999,None,None,None,,,,,,,,,,,1145.7809199,1145.7809199,None,,1146.8611905,1146.8611905,1148.8841826999999,None,1145.7809199,1145.7809199,,,4,001,2024-06-06_13h54.15.335,robot_nback_sign,2022.2.5,59.95139141183242,
L,False,3,letter,1,False,False,robot_stimuli\\filler.mp4,4,,,,,,,,,0,14,14,14,,,,,,,,,,,,,1148.8841826999999,1149.952314,,,,,,,1152.1770752,1152.1770752,1152.1770752,1152.1770752,1152.1770752,1152.1770752,1152.1770752,1152.1770752,None,None,None,,,,,,,,,,,1148.8841826999999,1148.8841826999999,None,,1149.952314,1149.952314,1152.1770752,n,1148.8841826999999,1148.8841826999999,1.2587940999999319,,4,001,2024-06-06_13h54.15.335,robot_nback_sign,2022.2.5,59.95139141183242,
H,False,3,letter,1,False,False,robot_stimuli\\filler.mp4,4,,,,,,,,,0,15,15,15,,,,,,,,,,,,,1152.1770752,1153.2339481,,,,,,,1155.4571743,1155.4571743,1155.4571743,1155.4571743,1155.4571743,1155.4571743,1155.4571743,1155.4571743,None,None,None,,,,,,,,,,,1152.1770752,1152.1770752,None,,1153.2339481,1153.2339481,1155.4571743,n,1152.1770752,1152.1770752,1.072377299999971,,4,001,2024-06-06_13h54.15.335,robot_nback_sign,2022.2.5,59.95139141183242,
B,True,3,letter,1,False,False,robot_stimuli\\filler.mp4,4,,,,,,,,,0,16,16,16,,,,,,,,,,,,,1155.4571743,1156.5198685,,,,,,,1158.7431152,1158.7431152,1158.7431152,1158.7431152,1158.7431152,1158.7431152,1158.7431152,1158.7431152,None,None,None,,,,,,,,,,,1155.4571743,1155.4571743,None,,1156.5198685,1156.5198685,1158.7431152,c,1155.4571743,1155.4571743,1.3784032999999454,,4,001,2024-06-06_13h54.15.335,robot_nback_sign,2022.2.5,59.95139141183242,
F,False,3,letter,1,False,False,robot_stimuli\\filler.mp4,4,,,,,,,,,0,17,17,17,,,,,,,,,,,,,1158.7431152,1159.8001785,,,,,,,1162.0315279,1162.0315279,1162.0315279,1162.0315279,1162.0315279,1162.0315279,1162.0315279,1162.0315279,None,None,None,,,,,,,,,,,1158.7431152,1158.7431152,None,,1159.8001785,1159.8001785,1162.0315279,n,1158.7431152,1158.7431152,1.5234040000000277,,4,001,2024-06-06_13h54.15.335,robot_nback_sign,2022.2.5,59.95139141183242,
M,False,3,letter,1,False,False,robot_stimuli\\filler.mp4,4,,,,,,,,,0,18,18,18,,,,,,,,,,,,,1162.0315279,,,,,,,,1165.1305681,1165.1305681,1165.1305681,1165.1305681,1165.1305681,1165.1305681,1165.1305681,1165.1305681,None,None,None,,,,,,,,,,,1162.0315279,1162.0315279,None,,1163.1074506,1163.1074506,1165.1305681,n,1162.0315279,1162.0315279,1.4642206000000897,,4,001,2024-06-06_13h54.15.335,robot_nback_sign,2022.2.5,59.95139141183242,
B,True,3,letter,1,False,False,robot_stimuli\\filler.mp4,4,,,,,,,,,0,19,19,19,,,,,,,,,,,,,1165.1305681,1166.1832709,,,,,,,1168.2133655,1168.2133655,1168.2133655,1168.2133655,1168.2133655,1168.2133655,1168.2133655,1168.2133655,None,None,None,,,,,,,,,,,1165.1305681,1165.1305681,None,,1166.1832709,1166.1832709,1168.2133655,c,1165.1305681,1165.1305681,1.5954087000000072,,4,001,2024-06-06_13h54.15.335,robot_nback_sign,2022.2.5,59.95139141183242,
N,False,3,letter,1,False,False,robot_stimuli\\filler.mp4,4,,,,,,,,,0,20,20,20,,,,,,,,,,,,,1168.2133655,1169.2754009,,,,,,,1171.3008026,1171.3008026,1171.3008026,1171.3008026,1171.3008026,1171.3008026,1171.3008026,1171.3008026,None,None,None,,,,,,,,,,,1168.2133655,1168.2133655,None,,1169.2754009,1169.2754009,1171.3008026,n,1168.2133655,1168.2133655,1.1523471000000427,,4,001,2024-06-06_13h54.15.335,robot_nback_sign,2022.2.5,59.95139141183242,
V,False,3,letter,1,False,False,robot_stimuli\\filler.mp4,4,,,,,,,,,0,21,21,21,,,,,,,,,,,,,1171.3008026,1172.3672709,,,,,,,1174.3941181,1174.3941181,1174.3941181,1174.3941181,1174.3941181,1174.3941181,1174.3941181,1174.3941181,None,None,None,,,,,,,,,,,1171.3008026,1171.3008026,None,,1172.3672709,1172.3672709,1174.3941181,n,1171.3008026,1171.3008026,1.1080460999999104,,4,001,2024-06-06_13h54.15.335,robot_nback_sign,2022.2.5,59.95139141183242,
K,False,3,letter,1,False,False,robot_stimuli\\filler.mp4,4,,,,,,,,,0,22,22,22,,,,,,,,,,,,,1174.3941181,1175.4524319,,,,,,,1177.4851598,1177.4851598,1177.4851598,1177.4851598,1177.4851598,1177.4851598,1177.4851598,1177.4851598,None,None,None,,,,,,,,,,,1174.3941181,1174.3941181,None,,1175.4524319,1175.4524319,1177.4851598,n,1174.3941181,1174.3941181,0.710479899999882,,4,001,2024-06-06_13h54.15.335,robot_nback_sign,2022.2.5,59.95139141183242,
G,False,3,letter,1,False,False,robot_stimuli\\filler.mp4,4,,,,,,,,,0,23,23,23,,,,,,,,,,,,,1177.4851598,1178.5585604999999,,,,,,,1180.5909634,1180.5909634,1180.5909634,1180.5909634,1180.5909634,1180.5909634,1180.5909634,1180.5909634,None,None,None,,,,,,,,,,,1177.4851598,1177.4851598,None,,1178.5585604999999,1178.5585604999999,1180.5909634,n,1177.4851598,1177.4851598,1.0366725000001225,,4,001,2024-06-06_13h54.15.335,robot_nback_sign,2022.2.5,59.95139141183242,
P,False,3,letter,1,False,False,robot_stimuli\\filler.mp4,4,,,,,,,,,0,24,24,24,,,,,,,,,,,,,1180.5909634,1181.6505632,,,,,,,1183.6853399,1183.6853399,1183.6853399,1183.6853399,1183.6853399,1183.6853399,1183.6853399,1183.6853399,None,None,None,,,,,,,,,,,1180.5909634,1180.5909634,None,,1181.6505632,1181.6505632,1183.6853399,n,1180.5909634,1180.5909634,1.3689025999999558,,4,001,2024-06-06_13h54.15.335,robot_nback_sign,2022.2.5,59.95139141183242,
R,False,3,letter,1,False,False,robot_stimuli\\filler.mp4,4,,,,,,,,,0,25,25,25,,,,,,,,,,,,,1183.6853399,1184.7494744,,,,,,,1186.7822862,1186.7822862,1186.7822862,1186.7822862,1186.7822862,1186.7822862,1186.7822862,1186.7822862,None,None,None,,,,,,,,,,,1183.6853399,1183.6853399,None,,1184.7494744,1184.7494744,1186.7822862,n,1183.6853399,1183.6853399,0.9818766000000778,,4,001,2024-06-06_13h54.15.335,robot_nback_sign,2022.2.5,59.95139141183242,
G,True,3,letter,1,False,False,robot_stimuli\\filler.mp4,4,,,,,,,,,0,26,26,26,,,,,,,,,,,,,1186.7822862,,,,,,,,1189.8831265,1189.8831265,1189.8831265,1189.8831265,1189.8831265,1189.8831265,1189.8831265,1189.8831265,None,None,None,,,,,,,,,,,1186.7822862,1186.7822862,None,,1187.8491645,1187.8491645,1189.8831265,c,1186.7822862,1186.7822862,1.4811166999998022,,4,001,2024-06-06_13h54.15.335,robot_nback_sign,2022.2.5,59.95139141183242,
C,False,3,letter,1,False,False,robot_stimuli\\filler.mp4,4,,,,,,,,,0,27,27,27,,,,,,,,,,,,,1189.8831265,1190.9547762,,,,,,,1192.9858178,1192.9858178,1192.9858178,1192.9858178,1192.9858178,1192.9858178,1192.9858178,1192.9858178,None,None,None,,,,,,,,,,,1189.8831265,1189.8831265,None,,1190.9547762,1190.9547762,1192.9858178,None,1189.8831265,1189.8831265,,,4,001,2024-06-06_13h54.15.335,robot_nback_sign,2022.2.5,59.95139141183242,
B,False,3,letter,1,False,False,robot_stimuli\\filler.mp4,4,,,,,,,,,0,28,28,28,,,,,,,,,,,,,1192.9858178,1194.0501801,,,,,,,1196.2798179,1196.2798179,1196.2798179,1196.2798179,1196.2798179,1196.2798179,1196.2798179,1196.2798179,None,None,None,,,,,,,,,,,1192.9858178,1192.9858178,None,,1194.0501801,1194.0501801,1196.2798179,n,1192.9858178,1192.9858178,0.6571612999998706,,4,001,2024-06-06_13h54.15.335,robot_nback_sign,2022.2.5,59.95139141183242,
N,False,3,letter,1,False,False,robot_stimuli\\filler.mp4,4,,,,,,,,,0,29,29,29,,,,,,,,,,,,,1196.2798179,1197.343462,,,,,,,1199.3791985999999,1199.3791985999999,1199.3791985999999,1199.3791985999999,1199.3791985999999,1199.3791985999999,1199.3791985999999,1199.3791985999999,None,None,None,,,,,,,,,,,1196.2798179,1196.2798179,None,,1197.343462,1197.343462,1199.3791985999999,n,1196.2798179,1196.2798179,1.3547934999999143,,4,001,2024-06-06_13h54.15.335,robot_nback_sign,2022.2.5,59.95139141183242,
G,False,3,letter,1,False,False,robot_stimuli\\filler.mp4,4,,,,,,,,,0,30,30,30,,,,,,,,,,,,,1199.3791985999999,1200.4424913,,,,,,,1202.4688069,1202.4688069,1202.4688069,1202.4688069,1202.4688069,1202.4688069,1202.4688069,1202.4688069,None,None,None,,,,,,,,,,,1199.3791985999999,1199.3791985999999,None,,1200.4424913,1200.4424913,1202.4688069,n,1199.3791985999999,1199.3791985999999,1.7201177000001735,,4,001,2024-06-06_13h54.15.335,robot_nback_sign,2022.2.5,59.95139141183242,
H,False,3,letter,1,False,False,robot_stimuli\\filler.mp4,4,,,,,,,,,0,31,31,31,,,,,,,,,,,,,1202.4688069,1203.5333024,,,,,,,1205.5680585,1205.5680585,1205.5680585,1205.5680585,1205.5680585,1205.5680585,1205.5680585,1205.5680585,None,None,None,,,,,,,,,,,1202.4688069,1202.4688069,None,,1203.5333024,1203.5333024,1205.5680585,n,1202.4688069,1202.4688069,0.925954000000047,,4,001,2024-06-06_13h54.15.335,robot_nback_sign,2022.2.5,59.95139141183242,
M,False,3,letter,1,False,False,robot_stimuli\\filler.mp4,4,,,,,,,,,0,32,32,32,,,,,,,,,,,,,1205.5680585,1206.6419885999999,,,,,,,1208.6676476999999,1208.6676476999999,1208.6676476999999,1208.6676476999999,1208.6676476999999,1208.6676476999999,1208.6676476999999,1208.6676476999999,None,None,None,,,,,,,,,,,1205.5680585,1205.5680585,None,,1206.6419885999999,1206.6419885999999,1208.6676476999999,n,1205.5680585,1205.5680585,0.945549599999822,,4,001,2024-06-06_13h54.15.335,robot_nback_sign,2022.2.5,59.95139141183242,
S,False,3,letter,1,False,False,robot_stimuli\\filler.mp4,4,,,,,,,,,0,33,33,33,,,,,,,,,,,,,1208.6676476999999,1209.7369514,,,,,,,1211.7649555,1211.7649555,1211.7649555,1211.7649555,1211.7649555,1211.7649555,1211.7649555,1211.7649555,None,None,None,,,,,,,,,,,1208.6676476999999,1208.6676476999999,None,,1209.7369514,1209.7369514,1211.7649555,n,1208.6676476999999,1208.6676476999999,0.521246999999903,,4,001,2024-06-06_13h54.15.335,robot_nback_sign,2022.2.5,59.95139141183242,
P,False,3,letter,1,False,False,robot_stimuli\\filler.mp4,4,,,,,,,,,0,34,34,34,,,,,,,,,,,,,1211.7649555,,,,,,,,1215.0657395,1215.0657395,1215.0657395,1215.0657395,1215.0657395,1215.0657395,1215.0657395,1215.0657395,None,None,None,,,,,,,,,,,1211.7649555,1211.7649555,None,,1212.8326377,1212.8326377,1215.0657395,n,1211.7649555,1211.7649555,0.48195110000006025,,4,001,2024-06-06_13h54.15.335,robot_nback_sign,2022.2.5,59.95139141183242,
C,False,3,letter,1,False,False,robot_stimuli\\filler.mp4,4,,,,,,,,,0,35,35,35,,,,,,,,,,,,,1215.0657395,,,,,,,,1218.3565332,1218.3565332,1218.3565332,1218.3565332,1218.3565332,1218.3565332,1218.3565332,1218.3565332,None,None,None,,,,,,,,,,,1215.0657395,1215.0657395,None,,1216.1357627,1216.1357627,1218.3565332,n,1215.0657395,1215.0657395,0.8599598000000697,,4,001,2024-06-06_13h54.15.335,robot_nback_sign,2022.2.5,59.95139141183242,
F,False,3,letter,1,False,False,robot_stimuli\\filler.mp4,4,,,,,,,,,0,36,36,36,,,,,,,,,,,,,1218.3565332,1219.4156001,,,,,,,1221.6470021999999,1221.6470021999999,1221.6470021999999,1221.6470021999999,1221.6470021999999,1221.6470021999999,1221.6470021999999,1221.6470021999999,None,None,None,,,,,,,,,,,1218.3565332,1218.3565332,None,,1219.4156001,1219.4156001,1221.6470021999999,n,1218.3565332,1218.3565332,0.683563900000081,,4,001,2024-06-06_13h54.15.335,robot_nback_sign,2022.2.5,59.95139141183242,
J,False,3,letter,1,False,False,robot_stimuli\\filler.mp4,4,,,,,,,,,0,37,37,37,,,,,,,,,,,,,1221.6470021999999,1222.7043839,,,,,,,1224.7386898,1224.7386898,1224.7386898,1224.7386898,1224.7386898,1224.7386898,1224.7386898,1224.7386898,None,None,None,,,,,,,,,,,1221.6470021999999,1221.6470021999999,None,,1222.7043839,1222.7043839,1224.7386898,n,1221.6470021999999,1221.6470021999999,0.4993007000000489,,4,001,2024-06-06_13h54.15.335,robot_nback_sign,2022.2.5,59.95139141183242,
C,True,3,letter,1,False,False,robot_stimuli\\filler.mp4,4,,,,,,,,,0,38,38,38,,,,,,,,,,,,,1224.7386898,1225.8019151,,,,,,,1227.835415,1227.835415,1227.835415,1227.835415,1227.835415,1227.835415,1227.835415,1227.835415,None,None,None,,,,,,,,,,,1224.7386898,1224.7386898,None,,1225.8019151,1225.8019151,1227.835415,c,1224.7386898,1224.7386898,1.520940200000041,,4,001,2024-06-06_13h54.15.335,robot_nback_sign,2022.2.5,59.95139141183242,
Z,False,3,letter,1,False,False,robot_stimuli\\filler.mp4,4,,,,,,,,,0,39,39,39,,,,,,,,,,,,,1227.835415,1228.9046677,,,,,,,1230.9247894,1230.9247894,1230.9247894,1230.9247894,1230.9247894,1230.9247894,1230.9247894,1230.9247894,None,None,None,,,,,,,,,,,1227.835415,1227.835415,None,,1228.9046677,1228.9046677,1230.9247894,n,1227.835415,1227.835415,0.594537100000025,,4,001,2024-06-06_13h54.15.335,robot_nback_sign,2022.2.5,59.95139141183242,
J,True,3,letter,1,False,False,robot_stimuli\\filler.mp4,4,,,,,,,,,0,40,40,40,,,,,,,,,,,,,1230.9247894,1231.9826337,,,,,,,1234.2105338,1234.2105338,1234.2105338,1234.2105338,1234.2105338,1234.2105338,1234.2105338,1234.2105338,None,None,None,,,,,,,,,,,1230.9247894,1230.9247894,None,,1231.9826337,1231.9826337,1234.2105338,c,1230.9247894,1230.9247894,1.0211321999997836,,4,001,2024-06-06_13h54.15.335,robot_nback_sign,2022.2.5,59.95139141183242,
C,True,3,letter,1,False,False,robot_stimuli\\filler.mp4,4,,,,,,,,,0,41,41,41,,,,,,,,,,,,,1234.2105338,1235.2693291,,,,,,,1237.4897558999999,1237.4897558999999,1237.4897558999999,1237.4897558999999,1237.4897558999999,1237.4897558999999,1237.4897558999999,1237.4897558999999,None,None,None,,,,,,,,,,,1234.2105338,1234.2105338,None,,1235.2693291,1235.2693291,1237.4897558999999,n,1234.2105338,1234.2105338,1.8853265000000192,,4,001,2024-06-06_13h54.15.335,robot_nback_sign,2022.2.5,59.95139141183242,
W,False,3,letter,1,False,False,robot_stimuli\\filler.mp4,4,,,,,,,,,0,42,42,42,,,,,,,,,,,,,1237.4897558999999,1238.5497261,,,,,,,1240.7827507,1240.7827507,1240.7827507,1240.7827507,1240.7827507,1240.7827507,1240.7827507,1240.7827507,None,None,None,,,,,,,,,,,1237.4897558999999,1237.4897558999999,None,,1238.5497261,1238.5497261,1240.7827507,None,1237.4897558999999,1237.4897558999999,,,4,001,2024-06-06_13h54.15.335,robot_nback_sign,2022.2.5,59.95139141183242,
K,False,3,letter,1,False,False,robot_stimuli\\filler.mp4,4,,,,,,,,,0,43,43,43,,,,,,,,,,,,,1240.7827507,,,,,,,,1244.0801654,1244.0801654,1244.0801654,1244.0801654,1244.0801654,1244.0801654,1244.0801654,1244.0801654,None,None,None,,,,,,,,,,,1240.7827507,1240.7827507,None,,1241.8495532,1241.8495532,1244.0801654,n,1240.7827507,1240.7827507,0.6181471999998394,,4,001,2024-06-06_13h54.15.335,robot_nback_sign,2022.2.5,59.95139141183242,
Q,False,3,letter,1,False,False,robot_stimuli\\filler.mp4,4,,,,,,,,,0,44,44,44,,,,,,,,,,,,,1244.0801654,1245.1351386,,,,,,,1247.1610725,1247.1610725,1247.1610725,1247.1610725,1247.1610725,1247.1610725,1247.1610725,1247.1610725,None,None,None,,,,,,,,,,,1244.0801654,1244.0801654,None,,1245.1351386,1245.1351386,1247.1610725,n,1244.0801654,1244.0801654,0.9551546999998664,,4,001,2024-06-06_13h54.15.335,robot_nback_sign,2022.2.5,59.95139141183242,
S,False,3,letter,1,False,False,robot_stimuli\\filler.mp4,4,,,,,,,,,0,45,45,45,,,,,,,,,,,,,1247.1610725,1248.2171647,,,,,,,1250.2469643,1250.2469643,1250.2469643,1250.2469643,1250.2469643,1250.2469643,1250.2469643,1250.2469643,None,None,None,,,,,,,,,,,1247.1610725,1247.1610725,None,,1248.2171647,1248.2171647,1250.2469643,n,1247.1610725,1247.1610725,0.5785977999998977,,4,001,2024-06-06_13h54.15.335,robot_nback_sign,2022.2.5,59.95139141183242,
X,False,3,letter,1,False,False,robot_stimuli\\filler.mp4,4,,,,,,,,,0,46,46,46,,,,,,,,,,,,,1250.2469643,1251.3013599,,,,,,,1253.3259152,1253.3259152,1253.3259152,1253.3259152,1253.3259152,1253.3259152,1253.3259152,1253.3259152,None,None,None,,,,,,,,,,,1250.2469643,1250.2469643,None,,1251.3013599,1251.3013599,1253.3259152,n,1250.2469643,1250.2469643,0.8374624000000495,,4,001,2024-06-06_13h54.15.335,robot_nback_sign,2022.2.5,59.95139141183242,
X,False,3,letter,1,False,False,robot_stimuli\\filler.mp4,4,,,,,,,,,0,47,47,47,,,,,,,,,,,,,1253.3259152,1254.382401,,,,,,,1256.6116991,1256.6116991,1256.6116991,1256.6116991,1256.6116991,1256.6116991,1256.6116991,1256.6116991,None,None,None,,,,,,,,,,,1253.3259152,1253.3259152,None,,1254.382401,1254.382401,1256.6116991,n,1253.3259152,1253.3259152,1.0531166000000667,,4,001,2024-06-06_13h54.15.335,robot_nback_sign,2022.2.5,59.95139141183242,
F,False,3,letter,1,False,False,robot_stimuli\\filler.mp4,4,,,,,,,,,0,48,48,48,,,,,,,,,,,,,1256.6116991,1257.6679915,,,,,,,1259.8979722,1259.8979722,1259.8979722,1259.8979722,1259.8979722,1259.8979722,1259.8979722,1259.8979722,None,None,None,,,,,,,,,,,1256.6116991,1256.6116991,None,,1257.6679915,1257.6679915,1259.8979722,n,1256.6116991,1256.6116991,1.063360399999965,,4,001,2024-06-06_13h54.15.335,robot_nback_sign,2022.2.5,59.95139141183242,
C,False,3,letter,1,False,True,robot_stimuli\\filler.mp4,4,,,,,,,,,0,49,49,49,,,,,,,,,,,,,1259.8979722,,,,,,,,1263.0340792,1268.5824175999999,1263.0340792,1268.5824175999999,1263.0340792,1268.5824175999999,1263.0340792,1268.5824175999999,46.358024691358025,4.832731299999978,space,,,,5.488523299999997,,,,,,,1259.8979722,1259.8979722,None,,1260.9668229,1260.9668229,1263.0340792,n,1259.8979722,1259.8979722,1.011371199999985,,4,001,2024-06-06_13h54.15.335,robot_nback_sign,2022.2.5,59.95139141183242,
R,False,1,letter,1,True,False,robot_stimuli\\filler.mp4,4,,,,,,,,,0,50,50,50,,,,,,,,,,,,,1271.1629470999999,1272.2310919,,,,,,,1274.4547272,1274.4547272,1274.4547272,1274.4547272,1274.4547272,1274.4547272,1274.4547272,1274.4547272,None,None,None,,,,,,,,,,,1268.5824175999999,1268.5824175999999,space,2.5485545999999886,1272.2310919,1272.2310919,1274.4547272,n,,,1.0128455999999915,,4,001,2024-06-06_13h54.15.335,robot_nback_sign,2022.2.5,59.95139141183242,
B,False,1,letter,1,False,False,robot_stimuli\\filler.mp4,4,,,,,,,,,0,51,51,51,,,,,,,,,,,,,1274.4547272,1275.5173846,,,,,,,1277.5525872,1277.5525872,1277.5525872,1277.5525872,1277.5525872,1277.5525872,1277.5525872,1277.5525872,None,None,None,,,,,,,,,,,1274.4547272,1274.4547272,None,,1275.5173846,1275.5173846,1277.5525872,n,1274.4547272,1274.4547272,1.0372551999998905,,4,001,2024-06-06_13h54.15.335,robot_nback_sign,2022.2.5,59.95139141183242,
B,True,1,letter,1,False,False,robot_stimuli\\filler.mp4,4,,,,,,,,,0,52,52,52,,,,,,,,,,,,,1277.5525872,1278.6138762,,,,,,,1280.6492719999999,1280.6492719999999,1280.6492719999999,1280.6492719999999,1280.6492719999999,1280.6492719999999,1280.6492719999999,1280.6492719999999,None,None,None,,,,,,,,,,,1277.5525872,1277.5525872,None,,1278.6138762,1278.6138762,1280.6492719999999,c,1277.5525872,1277.5525872,0.6536773000000267,,4,001,2024-06-06_13h54.15.335,robot_nback_sign,2022.2.5,59.95139141183242,
Z,False,1,letter,1,False,False,robot_stimuli\\filler.mp4,4,,,,,,,,,0,53,53,53,,,,,,,,,,,,,1280.6492719999999,,,,,,,,1283.9409569,1283.9409569,1283.9409569,1283.9409569,1283.9409569,1283.9409569,1283.9409569,1283.9409569,None,None,None,,,,,,,,,,,1280.6492719999999,1280.6492719999999,None,,1281.7167287,1281.7167287,1283.9409569,n,1280.6492719999999,1280.6492719999999,0.51739120000002,,4,001,2024-06-06_13h54.15.335,robot_nback_sign,2022.2.5,59.95139141183242,
F,False,1,letter,1,False,False,robot_stimuli\\filler.mp4,4,,,,,,,,,0,54,54,54,,,,,,,,,,,,,1283.9409569,1284.9991479999999,,,,,,,1287.2264547,1287.2264547,1287.2264547,1287.2264547,1287.2264547,1287.2264547,1287.2264547,1287.2264547,None,None,None,,,,,,,,,,,1283.9409569,1283.9409569,None,,1284.9991479999999,1284.9991479999999,1287.2264547,n,1283.9409569,1283.9409569,0.468203499999845,,4,001,2024-06-06_13h54.15.335,robot_nback_sign,2022.2.5,59.95139141183242,
F,True,1,letter,1,False,False,robot_stimuli\\filler.mp4,4,,,,,,,,,0,55,55,55,,,,,,,,,,,,,1287.2264547,1288.2829574,,,,,,,1290.5122093,1290.5122093,1290.5122093,1290.5122093,1290.5122093,1290.5122093,1290.5122093,1290.5122093,None,None,None,,,,,,,,,,,1287.2264547,1287.2264547,None,,1288.2829574,1288.2829574,1290.5122093,c,1287.2264547,1287.2264547,0.36032060000002275,,4,001,2024-06-06_13h54.15.335,robot_nback_sign,2022.2.5,59.95139141183242,
Q,False,1,letter,1,False,False,robot_stimuli\\filler.mp4,4,,,,,,,,,0,56,56,56,,,,,,,,,,,,,1290.5122093,1291.5670415,,,,,,,1293.790641,1293.790641,1293.790641,1293.790641,1293.790641,1293.790641,1293.790641,1293.790641,None,None,None,,,,,,,,,,,1290.5122093,1290.5122093,None,,1291.5670415,1291.5670415,1293.790641,n,1290.5122093,1290.5122093,0.36338769999997567,,4,001,2024-06-06_13h54.15.335,robot_nback_sign,2022.2.5,59.95139141183242,
F,False,1,letter,1,False,False,robot_stimuli\\filler.mp4,4,,,,,,,,,0,57,57,57,,,,,,,,,,,,,1293.790641,1294.8493004,,,,,,,1297.080001,1297.080001,1297.080001,1297.080001,1297.080001,1297.080001,1297.080001,1297.080001,None,None,None,,,,,,,,,,,1293.790641,1293.790641,None,,1294.8493004,1294.8493004,1297.080001,n,1293.790641,1293.790641,0.41809409999996205,,4,001,2024-06-06_13h54.15.335,robot_nback_sign,2022.2.5,59.95139141183242,
G,False,1,letter,1,False,False,robot_stimuli\\filler.mp4,4,,,,,,,,,0,58,58,58,,,,,,,,,,,,,1297.080001,1298.1326440999999,,,,,,,1300.1605084999999,1300.1605084999999,1300.1605084999999,1300.1605084999999,1300.1605084999999,1300.1605084999999,1300.1605084999999,1300.1605084999999,None,None,None,,,,,,,,,,,1297.080001,1297.080001,None,,1298.1326440999999,1298.1326440999999,1300.1605084999999,n,1297.080001,1297.080001,0.6948423000001185,,4,001,2024-06-06_13h54.15.335,robot_nback_sign,2022.2.5,59.95139141183242,
G,True,1,letter,1,False,False,robot_stimuli\\filler.mp4,4,,,,,,,,,0,59,59,59,,,,,,,,,,,,,1300.1605084999999,1301.2157536,,,,,,,1303.4416577,1303.4416577,1303.4416577,1303.4416577,1303.4416577,1303.4416577,1303.4416577,1303.4416577,None,None,None,,,,,,,,,,,1300.1605084999999,1300.1605084999999,None,,1301.2157536,1301.2157536,1303.4416577,c,1300.1605084999999,1300.1605084999999,0.5238228999999137,,4,001,2024-06-06_13h54.15.335,robot_nback_sign,2022.2.5,59.95139141183242,
G,True,1,letter,1,False,False,robot_stimuli\\filler.mp4,4,,,,,,,,,0,60,60,60,,,,,,,,,,,,,1303.4416577,1304.4985592,,,,,,,1306.7318561,1306.7318561,1306.7318561,1306.7318561,1306.7318561,1306.7318561,1306.7318561,1306.7318561,None,None,None,,,,,,,,,,,1303.4416577,1303.4416577,None,,1304.4985592,1304.4985592,1306.7318561,c,1303.4416577,1303.4416577,0.8154340999999476,,4,001,2024-06-06_13h54.15.335,robot_nback_sign,2022.2.5,59.95139141183242,
J,False,1,letter,1,False,False,robot_stimuli\\filler.mp4,4,,,,,,,,,0,61,61,61,,,,,,,,,,,,,1306.7318561,,,,,,,,1310.0258154,1310.0258154,1310.0258154,1310.0258154,1310.0258154,1310.0258154,1310.0258154,1310.0258154,None,None,None,,,,,,,,,,,1306.7318561,1306.7318561,None,,1307.7990456,1307.7990456,1310.0258154,n,1306.7318561,1306.7318561,0.5960152999998627,,4,001,2024-06-06_13h54.15.335,robot_nback_sign,2022.2.5,59.95139141183242,
Q,False,1,letter,1,False,False,robot_stimuli\\filler.mp4,4,,,,,,,,,0,62,62,62,,,,,,,,,,,,,1310.0258154,1311.0833892,,,,,,,1313.1136092,1313.1136092,1313.1136092,1313.1136092,1313.1136092,1313.1136092,1313.1136092,1313.1136092,None,None,None,,,,,,,,,,,1310.0258154,1310.0258154,None,,1311.0833892,1311.0833892,1313.1136092,n,1310.0258154,1310.0258154,0.5512114999999085,,4,001,2024-06-06_13h54.15.335,robot_nback_sign,2022.2.5,59.95139141183242,
H,False,1,letter,1,False,False,robot_stimuli\\filler.mp4,4,,,,,,,,,0,63,63,63,,,,,,,,,,,,,1313.1136092,1314.1666183,,,,,,,1316.1955132,1316.1955132,1316.1955132,1316.1955132,1316.1955132,1316.1955132,1316.1955132,1316.1955132,None,None,None,,,,,,,,,,,1313.1136092,1313.1136092,None,,1314.1666183,1314.1666183,1316.1955132,n,1313.1136092,1313.1136092,0.40527560000009544,,4,001,2024-06-06_13h54.15.335,robot_nback_sign,2022.2.5,59.95139141183242,
L,False,1,letter,1,False,False,robot_stimuli\\filler.mp4,4,,,,,,,,,0,64,64,64,,,,,,,,,,,,,1316.1955132,1317.2497673,,,,,,,1319.276767,1319.276767,1319.276767,1319.276767,1319.276767,1319.276767,1319.276767,1319.276767,None,None,None,,,,,,,,,,,1316.1955132,1316.1955132,None,,1317.2497673,1317.2497673,1319.276767,n,1316.1955132,1316.1955132,0.4487570000001142,,4,001,2024-06-06_13h54.15.335,robot_nback_sign,2022.2.5,59.95139141183242,
W,False,1,letter,1,False,False,robot_stimuli\\filler.mp4,4,,,,,,,,,0,65,65,65,,,,,,,,,,,,,1319.276767,1320.3342978,,,,,,,1322.3604956,1322.3604956,1322.3604956,1322.3604956,1322.3604956,1322.3604956,1322.3604956,1322.3604956,None,None,None,,,,,,,,,,,1319.276767,1319.276767,None,,1320.3342978,1320.3342978,1322.3604956,n,1319.276767,1319.276767,0.4367417999999361,,4,001,2024-06-06_13h54.15.335,robot_nback_sign,2022.2.5,59.95139141183242,
J,False,1,letter,1,False,False,robot_stimuli\\filler.mp4,4,,,,,,,,,0,66,66,66,,,,,,,,,,,,,1322.3604956,1323.4177269,,,,,,,1325.4459149,1325.4459149,1325.4459149,1325.4459149,1325.4459149,1325.4459149,1325.4459149,1325.4459149,None,None,None,,,,,,,,,,,1322.3604956,1322.3604956,None,,1323.4177269,1323.4177269,1325.4459149,n,1322.3604956,1322.3604956,0.4575872000000345,,4,001,2024-06-06_13h54.15.335,robot_nback_sign,2022.2.5,59.95139141183242,
R,False,1,letter,1,False,False,robot_stimuli\\filler.mp4,4,,,,,,,,,0,67,67,67,,,,,,,,,,,,,1325.4459149,1326.5022471,,,,,,,1328.5272596,1328.5272596,1328.5272596,1328.5272596,1328.5272596,1328.5272596,1328.5272596,1328.5272596,None,None,None,,,,,,,,,,,1325.4459149,1325.4459149,None,,1326.5022471,1326.5022471,1328.5272596,n,1325.4459149,1325.4459149,0.5093065999999453,,4,001,2024-06-06_13h54.15.335,robot_nback_sign,2022.2.5,59.95139141183242,
N,False,1,letter,1,False,False,robot_stimuli\\filler.mp4,4,,,,,,,,,0,68,68,68,,,,,,,,,,,,,1328.5272596,1329.5839079,,,,,,,1331.6078983,1331.6078983,1331.6078983,1331.6078983,1331.6078983,1331.6078983,1331.6078983,1331.6078983,None,None,None,,,,,,,,,,,1328.5272596,1328.5272596,None,,1329.5839079,1329.5839079,1331.6078983,n,1328.5272596,1328.5272596,0.4981198000000404,,4,001,2024-06-06_13h54.15.335,robot_nback_sign,2022.2.5,59.95139141183242,
P,False,1,letter,1,False,False,robot_stimuli\\filler.mp4,4,,,,,,,,,0,69,69,69,,,,,,,,,,,,,1331.6078983,1332.6692277,,,,,,,1334.6976815,1334.6976815,1334.6976815,1334.6976815,1334.6976815,1334.6976815,1334.6976815,1334.6976815,None,None,None,,,,,,,,,,,1331.6078983,1331.6078983,None,,1332.6692277,1332.6692277,1334.6976815,n,1331.6078983,1331.6078983,0.50176979999992,,4,001,2024-06-06_13h54.15.335,robot_nback_sign,2022.2.5,59.95139141183242,
F,False,1,letter,1,False,False,robot_stimuli\\filler.mp4,4,,,,,,,,,0,70,70,70,,,,,,,,,,,,,1334.6976815,,,,,,,,1337.9991206,1337.9991206,1337.9991206,1337.9991206,1337.9991206,1337.9991206,1337.9991206,1337.9991206,None,None,None,,,,,,,,,,,1334.6976815,1334.6976815,None,,1335.7648067,1335.7648067,1337.9991206,n,1334.6976815,1334.6976815,0.42186100000003535,,4,001,2024-06-06_13h54.15.335,robot_nback_sign,2022.2.5,59.95139141183242,
X,False,1,letter,1,False,False,robot_stimuli\\filler.mp4,4,,,,,,,,,0,71,71,71,,,,,,,,,,,,,1337.9991206,,,,,,,,1341.2907598,1341.2907598,1341.2907598,1341.2907598,1341.2907598,1341.2907598,1341.2907598,1341.2907598,None,None,None,,,,,,,,,,,1337.9991206,1337.9991206,None,,1339.0659159,1339.0659159,1341.2907598,n,1337.9991206,1337.9991206,0.4249302999999145,,4,001,2024-06-06_13h54.15.335,robot_nback_sign,2022.2.5,59.95139141183242,
M,False,1,letter,1,False,False,robot_stimuli\\filler.mp4,4,,,,,,,,,0,72,72,72,,,,,,,,,,,,,1341.2907598,1342.3484561,,,,,,,1344.5829606,1344.5829606,1344.5829606,1344.5829606,1344.5829606,1344.5829606,1344.5829606,1344.5829606,None,None,None,,,,,,,,,,,1341.2907598,1341.2907598,None,,1342.3484561,1342.3484561,1344.5829606,n,1341.2907598,1341.2907598,0.4229448000000957,,4,001,2024-06-06_13h54.15.335,robot_nback_sign,2022.2.5,59.95139141183242,
S,False,1,letter,1,False,False,robot_stimuli\\filler.mp4,4,,,,,,,,,0,73,73,73,,,,,,,,,,,,,1344.5829606,,,,,,,,1347.6745775,1347.6745775,1347.6745775,1347.6745775,1347.6745775,1347.6745775,1347.6745775,1347.6745775,None,None,None,,,,,,,,,,,1344.5829606,1344.5829606,None,,1345.6502846,1345.6502846,1347.6745775,n,1344.5829606,1344.5829606,0.3775332000000162,,4,001,2024-06-06_13h54.15.335,robot_nback_sign,2022.2.5,59.95139141183242,
R,False,1,letter,1,False,False,robot_stimuli\\filler.mp4,4,,,,,,,,,0,74,74,74,,,,,,,,,,,,,1347.6745775,1348.7320605,,,,,,,1350.9630526,1350.9630526,1350.9630526,1350.9630526,1350.9630526,1350.9630526,1350.9630526,1350.9630526,None,None,None,,,,,,,,,,,1347.6745775,1347.6745775,None,,1348.7320605,1348.7320605,1350.9630526,n,1347.6745775,1347.6745775,0.366333799999893,,4,001,2024-06-06_13h54.15.335,robot_nback_sign,2022.2.5,59.95139141183242,
X,False,1,letter,1,False,False,robot_stimuli\\filler.mp4,4,,,,,,,,,0,75,75,75,,,,,,,,,,,,,1350.9630526,1352.0349335,,,,,,,1354.0611767,1354.0611767,1354.0611767,1354.0611767,1354.0611767,1354.0611767,1354.0611767,1354.0611767,None,None,None,,,,,,,,,,,1350.9630526,1350.9630526,None,,1352.0349335,1352.0349335,1354.0611767,n,1350.9630526,1350.9630526,0.6150171999997838,,4,001,2024-06-06_13h54.15.335,robot_nback_sign,2022.2.5,59.95139141183242,
T,False,1,letter,1,False,False,robot_stimuli\\filler.mp4,4,,,,,,,,,0,76,76,76,,,,,,,,,,,,,1354.0611767,1355.1161411,,,,,,,1357.3463858,1357.3463858,1357.3463858,1357.3463858,1357.3463858,1357.3463858,1357.3463858,1357.3463858,None,None,None,,,,,,,,,,,1354.0611767,1354.0611767,None,,1355.1161411,1355.1161411,1357.3463858,n,1354.0611767,1354.0611767,0.5658805000000484,,4,001,2024-06-06_13h54.15.335,robot_nback_sign,2022.2.5,59.95139141183242,
Q,False,1,letter,1,False,False,robot_stimuli\\filler.mp4,4,,,,,,,,,0,77,77,77,,,,,,,,,,,,,1357.3463858,1358.3996683999999,,,,,,,1360.6260166,1360.6260166,1360.6260166,1360.6260166,1360.6260166,1360.6260166,1360.6260166,1360.6260166,None,None,None,,,,,,,,,,,1357.3463858,1357.3463858,None,,1358.3996683999999,1358.3996683999999,1360.6260166,n,1357.3463858,1357.3463858,0.4041316000000279,,4,001,2024-06-06_13h54.15.335,robot_nback_sign,2022.2.5,59.95139141183242,
Q,True,1,letter,1,False,False,robot_stimuli\\filler.mp4,4,,,,,,,,,0,78,78,78,,,,,,,,,,,,,1360.6260166,1361.6806122,,,,,,,1363.7072531,1363.7072531,1363.7072531,1363.7072531,1363.7072531,1363.7072531,1363.7072531,1363.7072531,None,None,None,,,,,,,,,,,1360.6260166,1360.6260166,None,,1361.6806122,1361.6806122,1363.7072531,n,1360.6260166,1360.6260166,0.627326900000071,,4,001,2024-06-06_13h54.15.335,robot_nback_sign,2022.2.5,59.95139141183242,
X,False,1,letter,1,False,False,robot_stimuli\\filler.mp4,4,,,,,,,,,0,79,79,79,,,,,,,,,,,,,1363.7072531,1364.7684987,,,,,,,1366.9997994999999,1366.9997994999999,1366.9997994999999,1366.9997994999999,1366.9997994999999,1366.9997994999999,1366.9997994999999,1366.9997994999999,None,None,None,,,,,,,,,,,1363.7072531,1363.7072531,None,,1364.7684987,1364.7684987,1366.9997994999999,n,1363.7072531,1363.7072531,0.42676109999979417,,4,001,2024-06-06_13h54.15.335,robot_nback_sign,2022.2.5,59.95139141183242,
M,False,1,letter,1,False,False,robot_stimuli\\filler.mp4,4,,,,,,,,,0,80,80,80,,,,,,,,,,,,,1366.9997994999999,1368.0648405,,,,,,,1370.2926608999999,1370.2926608999999,1370.2926608999999,1370.2926608999999,1370.2926608999999,1370.2926608999999,1370.2926608999999,1370.2926608999999,None,None,None,,,,,,,,,,,1366.9997994999999,1366.9997994999999,None,,1368.0648405,1368.0648405,1370.2926608999999,n,1366.9997994999999,1366.9997994999999,0.4025133000000096,,4,001,2024-06-06_13h54.15.335,robot_nback_sign,2022.2.5,59.95139141183242,
K,False,1,letter,1,False,False,robot_stimuli\\filler.mp4,4,,,,,,,,,0,81,81,81,,,,,,,,,,,,,1370.2926608999999,1371.3593964,,,,,,,1373.3848974,1373.3848974,1373.3848974,1373.3848974,1373.3848974,1373.3848974,1373.3848974,1373.3848974,None,None,None,,,,,,,,,,,1370.2926608999999,1370.2926608999999,None,,1371.3593964,1371.3593964,1373.3848974,n,1370.2926608999999,1370.2926608999999,0.43604660000005424,,4,001,2024-06-06_13h54.15.335,robot_nback_sign,2022.2.5,59.95139141183242,
T,False,1,letter,1,False,False,robot_stimuli\\filler.mp4,4,,,,,,,,,0,82,82,82,,,,,,,,,,,,,1373.3848974,1374.4485904,,,,,,,1376.6761273,1376.6761273,1376.6761273,1376.6761273,1376.6761273,1376.6761273,1376.6761273,1376.6761273,None,None,None,,,,,,,,,,,1373.3848974,1373.3848974,None,,1374.4485904,1374.4485904,1376.6761273,n,1373.3848974,1373.3848974,0.4899664000001849,,4,001,2024-06-06_13h54.15.335,robot_nback_sign,2022.2.5,59.95139141183242,
Q,False,1,letter,1,False,False,robot_stimuli\\filler.mp4,4,,,,,,,,,0,83,83,83,,,,,,,,,,,,,1376.6761273,1377.7336671,,,,,,,1379.7655688,1379.7655688,1379.7655688,1379.7655688,1379.7655688,1379.7655688,1379.7655688,1379.7655688,None,None,None,,,,,,,,,,,1376.6761273,1376.6761273,None,,1377.7336671,1377.7336671,1379.7655688,n,1376.6761273,1376.6761273,0.4771245999997973,,4,001,2024-06-06_13h54.15.335,robot_nback_sign,2022.2.5,59.95139141183242,
X,False,1,letter,1,False,False,robot_stimuli\\filler.mp4,4,,,,,,,,,0,84,84,84,,,,,,,,,,,,,1379.7655688,,,,,,,,1383.066928,1383.066928,1383.066928,1383.066928,1383.066928,1383.066928,1383.066928,1383.066928,None,None,None,,,,,,,,,,,1379.7655688,1379.7655688,None,,1380.8338804,1380.8338804,1383.066928,n,1379.7655688,1379.7655688,0.5923927999999705,,4,001,2024-06-06_13h54.15.335,robot_nback_sign,2022.2.5,59.95139141183242,
N,False,1,letter,1,False,False,robot_stimuli\\filler.mp4,4,,,,,,,,,0,85,85,85,,,,,,,,,,,,,1383.066928,1384.1352783,,,,,,,1386.161402,1386.161402,1386.161402,1386.161402,1386.161402,1386.161402,1386.161402,1386.161402,None,None,None,,,,,,,,,,,1383.066928,1383.066928,None,,1384.1352783,1384.1352783,1386.161402,n,1383.066928,1383.066928,0.38738660000012715,,4,001,2024-06-06_13h54.15.335,robot_nback_sign,2022.2.5,59.95139141183242,
T,False,1,letter,1,False,False,robot_stimuli\\filler.mp4,4,,,,,,,,,0,86,86,86,,,,,,,,,,,,,1386.161402,1387.2176588,,,,,,,1389.4483622,1389.4483622,1389.4483622,1389.4483622,1389.4483622,1389.4483622,1389.4483622,1389.4483622,None,None,None,,,,,,,,,,,1386.161402,1386.161402,None,,1387.2176588,1387.2176588,1389.4483622,n,1386.161402,1386.161402,0.441348600000083,,4,001,2024-06-06_13h54.15.335,robot_nback_sign,2022.2.5,59.95139141183242,
T,True,1,letter,1,False,False,robot_stimuli\\filler.mp4,4,,,,,,,,,0,87,87,87,,,,,,,,,,,,,1389.4483622,,,,,,,,1392.7406976,1392.7406976,1392.7406976,1392.7406976,1392.7406976,1392.7406976,1392.7406976,1392.7406976,None,None,None,,,,,,,,,,,1389.4483622,1389.4483622,None,,1390.5153192999999,1390.5153192999999,1392.7406976,c,1389.4483622,1389.4483622,0.9604464999999891,,4,001,2024-06-06_13h54.15.335,robot_nback_sign,2022.2.5,59.95139141183242,
P,False,1,letter,1,False,False,robot_stimuli\\filler.mp4,4,,,,,,,,,0,88,88,88,,,,,,,,,,,,,1392.7406976,1393.8005913,,,,,,,1396.0236661,1396.0236661,1396.0236661,1396.0236661,1396.0236661,1396.0236661,1396.0236661,1396.0236661,None,None,None,,,,,,,,,,,1392.7406976,1392.7406976,None,,1393.8005913,1393.8005913,1396.0236661,n,1392.7406976,1392.7406976,0.5782659999999851,,4,001,2024-06-06_13h54.15.335,robot_nback_sign,2022.2.5,59.95139141183242,
P,True,1,letter,1,False,False,robot_stimuli\\filler.mp4,4,,,,,,,,,0,89,89,89,,,,,,,,,,,,,1396.0236661,1397.0811226,,,,,,,1399.113378,1399.113378,1399.113378,1399.113378,1399.113378,1399.113378,1399.113378,1399.113378,None,None,None,,,,,,,,,,,1396.0236661,1396.0236661,None,,1397.0811226,1397.0811226,1399.113378,c,1396.0236661,1396.0236661,0.5768245999997816,,4,001,2024-06-06_13h54.15.335,robot_nback_sign,2022.2.5,59.95139141183242,
P,True,1,letter,1,False,False,robot_stimuli\\filler.mp4,4,,,,,,,,,0,90,90,90,,,,,,,,,,,,,1399.113378,1400.1671311,,,,,,,1402.3980268,1402.3980268,1402.3980268,1402.3980268,1402.3980268,1402.3980268,1402.3980268,1402.3980268,None,None,None,,,,,,,,,,,1399.113378,1399.113378,None,,1400.1671311,1400.1671311,1402.3980268,c,1399.113378,1399.113378,0.5305640999999923,,4,001,2024-06-06_13h54.15.335,robot_nback_sign,2022.2.5,59.95139141183242,
C,False,1,letter,1,False,False,robot_stimuli\\filler.mp4,4,,,,,,,,,0,91,91,91,,,,,,,,,,,,,1402.3980268,,,,,,,,1405.6955763,1405.6955763,1405.6955763,1405.6955763,1405.6955763,1405.6955763,1405.6955763,1405.6955763,None,None,None,,,,,,,,,,,1402.3980268,1402.3980268,None,,1403.4652994,1403.4652994,1405.6955763,n,1402.3980268,1402.3980268,0.4490433999999368,,4,001,2024-06-06_13h54.15.335,robot_nback_sign,2022.2.5,59.95139141183242,
H,False,1,letter,1,False,False,robot_stimuli\\filler.mp4,4,,,,,,,,,0,92,92,92,,,,,,,,,,,,,1405.6955763,1406.7612466,,,,,,,1408.7877818,1408.7877818,1408.7877818,1408.7877818,1408.7877818,1408.7877818,1408.7877818,1408.7877818,None,None,None,,,,,,,,,,,1405.6955763,1405.6955763,None,,1406.7612466,1406.7612466,1408.7877818,n,1405.6955763,1405.6955763,0.4105162000000746,,4,001,2024-06-06_13h54.15.335,robot_nback_sign,2022.2.5,59.95139141183242,
X,False,1,letter,1,False,False,robot_stimuli\\filler.mp4,4,,,,,,,,,0,93,93,93,,,,,,,,,,,,,1408.7877818,1409.8491377999999,,,,,,,1412.0825746,1412.0825746,1412.0825746,1412.0825746,1412.0825746,1412.0825746,1412.0825746,1412.0825746,None,None,None,,,,,,,,,,,1408.7877818,1408.7877818,None,,1409.8491377999999,1409.8491377999999,1412.0825746,n,1408.7877818,1408.7877818,0.490695199999891,,4,001,2024-06-06_13h54.15.335,robot_nback_sign,2022.2.5,59.95139141183242,
B,False,1,letter,1,False,False,robot_stimuli\\filler.mp4,4,,,,,,,,,0,94,94,94,,,,,,,,,,,,,1412.0825746,,,,,,,,1415.3742049,1415.3742049,1415.3742049,1415.3742049,1415.3742049,1415.3742049,1415.3742049,1415.3742049,None,None,None,,,,,,,,,,,1412.0825746,1412.0825746,None,,1413.1499974,1413.1499974,1415.3742049,n,1412.0825746,1412.0825746,0.4759013000000323,,4,001,2024-06-06_13h54.15.335,robot_nback_sign,2022.2.5,59.95139141183242,
B,True,1,letter,1,False,False,robot_stimuli\\filler.mp4,4,,,,,,,,,0,95,95,95,,,,,,,,,,,,,1415.3742049,1416.4319666,,,,,,,1418.6663019,1418.6663019,1418.6663019,1418.6663019,1418.6663019,1418.6663019,1418.6663019,1418.6663019,None,None,None,,,,,,,,,,,1415.3742049,1415.3742049,None,,1416.4319666,1416.4319666,1418.6663019,c,1415.3742049,1415.3742049,0.5385329999999158,,4,001,2024-06-06_13h54.15.335,robot_nback_sign,2022.2.5,59.95139141183242,
S,False,1,letter,1,False,False,robot_stimuli\\filler.mp4,4,,,,,,,,,0,96,96,96,,,,,,,,,,,,,1418.6663019,1419.7362408,,,,,,,1421.9605751,1421.9605751,1421.9605751,1421.9605751,1421.9605751,1421.9605751,1421.9605751,1421.9605751,None,None,None,,,,,,,,,,,1418.6663019,1418.6663019,None,,1419.7362408,1419.7362408,1421.9605751,n,1418.6663019,1418.6663019,0.48308220000012625,,4,001,2024-06-06_13h54.15.335,robot_nback_sign,2022.2.5,59.95139141183242,
S,True,1,letter,1,False,False,robot_stimuli\\filler.mp4,4,,,,,,,,,0,97,97,97,,,,,,,,,,,,,1421.9605751,1423.0164141999999,,,,,,,1425.0491334,1425.0491334,1425.0491334,1425.0491334,1425.0491334,1425.0491334,1425.0491334,1425.0491334,None,None,None,,,,,,,,,,,1421.9605751,1421.9605751,None,,1423.0164141999999,1423.0164141999999,1425.0491334,c,1421.9605751,1421.9605751,0.6265439999999671,,4,001,2024-06-06_13h54.15.335,robot_nback_sign,2022.2.5,59.95139141183242,
J,False,1,letter,1,False,False,robot_stimuli\\filler.mp4,4,,,,,,,,,0,98,98,98,,,,,,,,,,,,,1425.0491334,,,,,,,,1428.3478041,1428.3478041,1428.3478041,1428.3478041,1428.3478041,1428.3478041,1428.3478041,1428.3478041,None,None,None,,,,,,,,,,,1425.0491334,1425.0491334,None,,1426.11724,1426.11724,1428.3478041,n,1425.0491334,1425.0491334,0.4130804999999782,,4,001,2024-06-06_13h54.15.335,robot_nback_sign,2022.2.5,59.95139141183242,
N,False,1,letter,1,False,True,robot_stimuli\\filler.mp4,4,,,,,,,,,0,99,99,99,,,,,,,,,,,,,1428.3478041,,,,,,,,1431.4757245,1434.8137715999999,1431.4757245,1434.8137715999999,1431.4757245,1434.8137715999999,1431.4757245,1434.8137715999999,3.6111111111111036,2.635620300000028,space,,,,3.2709873999999672,,,,,,,1428.3478041,1428.3478041,None,,1429.4232249,1429.4232249,1431.4757245,n,1428.3478041,1428.3478041,0.4999451000001045,,4,001,2024-06-06_13h54.15.335,robot_nback_sign,2022.2.5,59.95139141183242,
D,False,2,letter,1,True,False,robot_stimuli\\filler.mp4,4,,,,,,,,,0,100,100,100,,,,,,,,,,,,,1438.3795624,1439.4350611,,,,,,,1441.6649206,1441.6649206,1441.6649206,1441.6649206,1441.6649206,1441.6649206,1441.6649206,1441.6649206,None,None,None,,,,,,,,,,,1434.8137715999999,1434.8137715999999,space,3.5335776000001715,1439.4350611,1439.4350611,1441.6649206,n,,,1.7028874000000087,,4,001,2024-06-06_13h54.15.335,robot_nback_sign,2022.2.5,59.95139141183242,
J,False,2,letter,1,False,False,robot_stimuli\\filler.mp4,4,,,,,,,,,0,101,101,101,,,,,,,,,,,,,1441.6649206,,,,,,,,1444.9634569,1444.9634569,1444.9634569,1444.9634569,1444.9634569,1444.9634569,1444.9634569,1444.9634569,None,None,None,,,,,,,,,,,1441.6649206,1441.6649206,None,,1442.7344369,1442.7344369,1444.9634569,n,1441.6649206,1441.6649206,0.5474107000000004,,4,001,2024-06-06_13h54.15.335,robot_nback_sign,2022.2.5,59.95139141183242,
D,True,2,letter,1,False,False,robot_stimuli\\filler.mp4,4,,,,,,,,,0,102,102,102,,,,,,,,,,,,,1444.9634569,1446.0179528,,,,,,,1448.2448774000002,1448.2448774000002,1448.2448774000002,1448.2448774000002,1448.2448774000002,1448.2448774000002,1448.2448774000002,1448.2448774000002,None,None,None,,,,,,,,,,,1444.9634569,1444.9634569,None,,1446.0179528,1446.0179528,1448.2448774000002,c,1444.9634569,1444.9634569,0.7930892999997923,,4,001,2024-06-06_13h54.15.335,robot_nback_sign,2022.2.5,59.95139141183242,
B,False,2,letter,1,False,False,robot_stimuli\\filler.mp4,4,,,,,,,,,0,103,103,103,,,,,,,,,,,,,1448.2448774000002,1449.3002284000002,,,,,,,1451.5269909,1451.5269909,1451.5269909,1451.5269909,1451.5269909,1451.5269909,1451.5269909,1451.5269909,None,None,None,,,,,,,,,,,1448.2448774000002,1448.2448774000002,None,,1449.3002284000002,1449.3002284000002,1451.5269909,n,1448.2448774000002,1448.2448774000002,1.0951116000001093,,4,001,2024-06-06_13h54.15.335,robot_nback_sign,2022.2.5,59.95139141183242,
D,True,2,letter,1,False,False,robot_stimuli\\filler.mp4,4,,,,,,,,,0,104,104,104,,,,,,,,,,,,,1451.5269909,1452.5839635,,,,,,,1454.8125435999998,1454.8125435999998,1454.8125435999998,1454.8125435999998,1454.8125435999998,1454.8125435999998,1454.8125435999998,1454.8125435999998,None,None,None,,,,,,,,,,,1451.5269909,1451.5269909,None,,1452.5839635,1452.5839635,1454.8125435999998,c,1451.5269909,1451.5269909,0.8756044000001566,,4,001,2024-06-06_13h54.15.335,robot_nback_sign,2022.2.5,59.95139141183242,
S,False,2,letter,1,False,False,robot_stimuli\\filler.mp4,4,,,,,,,,,0,105,105,105,,,,,,,,,,,,,1454.8125435999998,1455.8678413,,,,,,,1458.0982738999999,1458.0982738999999,1458.0982738999999,1458.0982738999999,1458.0982738999999,1458.0982738999999,1458.0982738999999,1458.0982738999999,None,None,None,,,,,,,,,,,1454.8125435999998,1454.8125435999998,None,,1455.8678413,1455.8678413,1458.0982738999999,n,1454.8125435999998,1454.8125435999998,0.5900391999998646,,4,001,2024-06-06_13h54.15.335,robot_nback_sign,2022.2.5,59.95139141183242,
X,False,2,letter,1,False,False,robot_stimuli\\filler.mp4,4,,,,,,,,,0,106,106,106,,,,,,,,,,,,,1458.0982738999999,,,,,,,,1461.1961054,1461.1961054,1461.1961054,1461.1961054,1461.1961054,1461.1961054,1461.1961054,1461.1961054,None,None,None,,,,,,,,,,,1458.0982738999999,1458.0982738999999,None,,1459.1726593,1459.1726593,1461.1961054,n,1458.0982738999999,1458.0982738999999,0.6060265999999501,,4,001,2024-06-06_13h54.15.335,robot_nback_sign,2022.2.5,59.95139141183242,
N,False,2,letter,1,False,False,robot_stimuli\\filler.mp4,4,,,,,,,,,0,107,107,107,,,,,,,,,,,,,1461.1961054,1462.2499485,,,,,,,1464.4830694,1464.4830694,1464.4830694,1464.4830694,1464.4830694,1464.4830694,1464.4830694,1464.4830694,None,None,None,,,,,,,,,,,1461.1961054,1461.1961054,None,,1462.2499485,1462.2499485,1464.4830694,n,1461.1961054,1461.1961054,0.937255499999992,,4,001,2024-06-06_13h54.15.335,robot_nback_sign,2022.2.5,59.95139141183242,
G,False,2,letter,1,False,False,robot_stimuli\\filler.mp4,4,,,,,,,,,0,108,108,108,,,,,,,,,,,,,1464.4830694,1465.5499257999998,,,,,,,1467.7758476000001,1467.7758476000001,1467.7758476000001,1467.7758476000001,1467.7758476000001,1467.7758476000001,1467.7758476000001,1467.7758476000001,None,None,None,,,,,,,,,,,1464.4830694,1464.4830694,None,,1465.5499257999998,1465.5499257999998,1467.7758476000001,n,1464.4830694,1464.4830694,0.9333995000001778,,4,001,2024-06-06_13h54.15.335,robot_nback_sign,2022.2.5,59.95139141183242,
N,True,2,letter,1,False,False,robot_stimuli\\filler.mp4,4,,,,,,,,,0,109,109,109,,,,,,,,,,,,,1467.7758476000001,1468.8331802999999,,,,,,,1471.0620443999999,1471.0620443999999,1471.0620443999999,1471.0620443999999,1471.0620443999999,1471.0620443999999,1471.0620443999999,1471.0620443999999,None,None,None,,,,,,,,,,,1467.7758476000001,1467.7758476000001,None,,1468.8331802999999,1468.8331802999999,1471.0620443999999,c,1467.7758476000001,1467.7758476000001,0.8016192000000046,,4,001,2024-06-06_13h54.15.335,robot_nback_sign,2022.2.5,59.95139141183242,
G,True,2,letter,1,False,False,robot_stimuli\\filler.mp4,4,,,,,,,,,0,110,110,110,,,,,,,,,,,,,1471.0620443999999,1472.1177415,,,,,,,1474.1510157999999,1474.1510157999999,1474.1510157999999,1474.1510157999999,1474.1510157999999,1474.1510157999999,1474.1510157999999,1474.1510157999999,None,None,None,,,,,,,,,,,1471.0620443999999,1471.0620443999999,None,,1472.1177415,1472.1177415,1474.1510157999999,c,1471.0620443999999,1471.0620443999999,0.7802945000003092,,4,001,2024-06-06_13h54.15.335,robot_nback_sign,2022.2.5,59.95139141183242,
P,False,2,letter,1,False,False,robot_stimuli\\filler.mp4,4,,,,,,,,,0,111,111,111,,,,,,,,,,,,,1474.1510157999999,1475.2170743,,,,,,,1477.4466378999998,1477.4466378999998,1477.4466378999998,1477.4466378999998,1477.4466378999998,1477.4466378999998,1477.4466378999998,1477.4466378999998,None,None,None,,,,,,,,,,,1474.1510157999999,1474.1510157999999,None,,1475.2170743,1475.2170743,1477.4466378999998,n,1474.1510157999999,1474.1510157999999,0.5218964000000597,,4,001,2024-06-06_13h54.15.335,robot_nback_sign,2022.2.5,59.95139141183242,
S,False,2,letter,1,False,False,robot_stimuli\\filler.mp4,4,,,,,,,,,0,112,112,112,,,,,,,,,,,,,1477.4466378999998,1478.5005818000002,,,,,,,1480.7318253,1480.7318253,1480.7318253,1480.7318253,1480.7318253,1480.7318253,1480.7318253,1480.7318253,None,None,None,,,,,,,,,,,1477.4466378999998,1477.4466378999998,None,,1478.5005818000002,1478.5005818000002,1480.7318253,n,1477.4466378999998,1477.4466378999998,0.9975225999996837,,4,001,2024-06-06_13h54.15.335,robot_nback_sign,2022.2.5,59.95139141183242,
P,True,2,letter,1,False,False,robot_stimuli\\filler.mp4,4,,,,,,,,,0,113,113,113,,,,,,,,,,,,,1480.7318253,,,,,,,,1483.8343302,1483.8343302,1483.8343302,1483.8343302,1483.8343302,1483.8343302,1483.8343302,1483.8343302,None,None,None,,,,,,,,,,,1480.7318253,1480.7318253,None,,1481.8002817999998,1481.8002817999998,1483.8343302,c,1480.7318253,1480.7318253,0.8271462999996402,,4,001,2024-06-06_13h54.15.335,robot_nback_sign,2022.2.5,59.95139141183242,
S,True,2,letter,1,False,False,robot_stimuli\\filler.mp4,4,,,,,,,,,0,114,114,114,,,,,,,,,,,,,1483.8343302,1484.8990713,,,,,,,1486.9308585,1486.9308585,1486.9308585,1486.9308585,1486.9308585,1486.9308585,1486.9308585,1486.9308585,None,None,None,,,,,,,,,,,1483.8343302,1483.8343302,None,,1484.8990713,1484.8990713,1486.9308585,c,1483.8343302,1483.8343302,0.6720353999999134,,4,001,2024-06-06_13h54.15.335,robot_nback_sign,2022.2.5,59.95139141183242,
P,True,2,letter,1,False,False,robot_stimuli\\filler.mp4,4,,,,,,,,,0,115,115,115,,,,,,,,,,,,,1486.9308585,,,,,,,,1490.2254356,1490.2254356,1490.2254356,1490.2254356,1490.2254356,1490.2254356,1490.2254356,1490.2254356,None,None,None,,,,,,,,,,,1486.9308585,1486.9308585,None,,1487.9987912,1487.9987912,1490.2254356,c,1486.9308585,1486.9308585,0.5560852000003251,,4,001,2024-06-06_13h54.15.335,robot_nback_sign,2022.2.5,59.95139141183242,
M,False,2,letter,1,False,False,robot_stimuli\\filler.mp4,4,,,,,,,,,0,116,116,116,,,,,,,,,,,,,1490.2254356,1491.2830373999998,,,,,,,1493.3112537,1493.3112537,1493.3112537,1493.3112537,1493.3112537,1493.3112537,1493.3112537,1493.3112537,None,None,None,,,,,,,,,,,1490.2254356,1490.2254356,None,,1491.2830373999998,1491.2830373999998,1493.3112537,n,1490.2254356,1490.2254356,0.45598059999974794,,4,001,2024-06-06_13h54.15.335,robot_nback_sign,2022.2.5,59.95139141183242,
S,False,2,letter,1,False,False,robot_stimuli\\filler.mp4,4,,,,,,,,,0,117,117,117,,,,,,,,,,,,,1493.3112537,1494.3683113999998,,,,,,,1496.5935415000001,1496.5935415000001,1496.5935415000001,1496.5935415000001,1496.5935415000001,1496.5935415000001,1496.5935415000001,1496.5935415000001,None,None,None,,,,,,,,,,,1493.3112537,1493.3112537,None,,1494.3683113999998,1494.3683113999998,1496.5935415000001,c,1493.3112537,1493.3112537,1.1154057999997349,,4,001,2024-06-06_13h54.15.335,robot_nback_sign,2022.2.5,59.95139141183242,
T,False,2,letter,1,False,False,robot_stimuli\\filler.mp4,4,,,,,,,,,0,118,118,118,,,,,,,,,,,,,1496.5935415000001,1497.6489737999998,,,,,,,1499.6806027999999,1499.6806027999999,1499.6806027999999,1499.6806027999999,1499.6806027999999,1499.6806027999999,1499.6806027999999,1499.6806027999999,None,None,None,,,,,,,,,,,1496.5935415000001,1496.5935415000001,None,,1497.6489737999998,1497.6489737999998,1499.6806027999999,n,1496.5935415000001,1496.5935415000001,1.5449930999998287,,4,001,2024-06-06_13h54.15.335,robot_nback_sign,2022.2.5,59.95139141183242,
M,False,2,letter,1,False,False,robot_stimuli\\filler.mp4,4,,,,,,,,,0,119,119,119,,,,,,,,,,,,,1499.6806027999999,,,,,,,,1502.7821548,1502.7821548,1502.7821548,1502.7821548,1502.7821548,1502.7821548,1502.7821548,1502.7821548,None,None,None,,,,,,,,,,,1499.6806027999999,1499.6806027999999,None,,1500.7500859999998,1500.7500859999998,1502.7821548,c,1499.6806027999999,1499.6806027999999,0.8135812999998961,,4,001,2024-06-06_13h54.15.335,robot_nback_sign,2022.2.5,59.95139141183242,
N,False,2,letter,1,False,False,robot_stimuli\\filler.mp4,4,,,,,,,,,0,120,120,120,,,,,,,,,,,,,1502.7821548,,,,,,,,1506.0771988,1506.0771988,1506.0771988,1506.0771988,1506.0771988,1506.0771988,1506.0771988,1506.0771988,None,None,None,,,,,,,,,,,1502.7821548,1502.7821548,None,,1503.849203,1503.849203,1506.0771988,n,1502.7821548,1502.7821548,0.912873700000091,,4,001,2024-06-06_13h54.15.335,robot_nback_sign,2022.2.5,59.95139141183242,
Z,False,2,letter,1,False,False,robot_stimuli\\filler.mp4,4,,,,,,,,,0,121,121,121,,,,,,,,,,,,,1506.0771988,1507.1331263,,,,,,,1509.3646456999998,1509.3646456999998,1509.3646456999998,1509.3646456999998,1509.3646456999998,1509.3646456999998,1509.3646456999998,1509.3646456999998,None,None,None,,,,,,,,,,,1506.0771988,1506.0771988,None,,1507.1331263,1507.1331263,1509.3646456999998,n,1506.0771988,1506.0771988,0.854015100000197,,4,001,2024-06-06_13h54.15.335,robot_nback_sign,2022.2.5,59.95139141183242,
T,False,2,letter,1,False,False,robot_stimuli\\filler.mp4,4,,,,,,,,,0,122,122,122,,,,,,,,,,,,,1509.3646456999998,,,,,,,,1512.6611286999998,1512.6611286999998,1512.6611286999998,1512.6611286999998,1512.6611286999998,1512.6611286999998,1512.6611286999998,1512.6611286999998,None,None,None,,,,,,,,,,,1509.3646456999998,1509.3646456999998,None,,1510.4329586000001,1510.4329586000001,1512.6611286999998,n,1509.3646456999998,1509.3646456999998,1.0175075000001925,,4,001,2024-06-06_13h54.15.335,robot_nback_sign,2022.2.5,59.95139141183242,
H,False,2,letter,1,False,False,robot_stimuli\\filler.mp4,4,,,,,,,,,0,123,123,123,,,,,,,,,,,,,1512.6611286999998,1513.7281353,,,,,,,1515.7601152999998,1515.7601152999998,1515.7601152999998,1515.7601152999998,1515.7601152999998,1515.7601152999998,1515.7601152999998,1515.7601152999998,None,None,None,,,,,,,,,,,1512.6611286999998,1512.6611286999998,None,,1513.7281353,1513.7281353,1515.7601152999998,n,1512.6611286999998,1512.6611286999998,0.6033102999999755,,4,001,2024-06-06_13h54.15.335,robot_nback_sign,2022.2.5,59.95139141183242,
F,False,2,letter,1,False,False,robot_stimuli\\filler.mp4,4,,,,,,,,,0,124,124,124,,,,,,,,,,,,,1515.7601152999998,1516.8268139,,,,,,,1518.8522939000002,1518.8522939000002,1518.8522939000002,1518.8522939000002,1518.8522939000002,1518.8522939000002,1518.8522939000002,1518.8522939000002,None,None,None,,,,,,,,,,,1515.7601152999998,1515.7601152999998,None,,1516.8268139,1516.8268139,1518.8522939000002,n,1515.7601152999998,1515.7601152999998,0.9028686999999991,,4,001,2024-06-06_13h54.15.335,robot_nback_sign,2022.2.5,59.95139141183242,
P,False,2,letter,1,False,False,robot_stimuli\\filler.mp4,4,,,,,,,,,0,125,125,125,,,,,,,,,,,,,1518.8522939000002,1519.9184428,,,,,,,1521.9403750999998,1521.9403750999998,1521.9403750999998,1521.9403750999998,1521.9403750999998,1521.9403750999998,1521.9403750999998,1521.9403750999998,None,None,None,,,,,,,,,,,1518.8522939000002,1518.8522939000002,None,,1519.9184428,1519.9184428,1521.9403750999998,n,1518.8522939000002,1518.8522939000002,1.5567691999999624,,4,001,2024-06-06_13h54.15.335,robot_nback_sign,2022.2.5,59.95139141183242,
F,True,2,letter,1,False,False,robot_stimuli\\filler.mp4,4,,,,,,,,,0,126,126,126,,,,,,,,,,,,,1521.9403750999998,1522.999893,,,,,,,1525.0254567,1525.0254567,1525.0254567,1525.0254567,1525.0254567,1525.0254567,1525.0254567,1525.0254567,None,None,None,,,,,,,,,,,1521.9403750999998,1521.9403750999998,None,,1522.999893,1522.999893,1525.0254567,c,1521.9403750999998,1521.9403750999998,0.7790340000001379,,4,001,2024-06-06_13h54.15.335,robot_nback_sign,2022.2.5,59.95139141183242,
T,False,2,letter,1,False,False,robot_stimuli\\filler.mp4,4,,,,,,,,,0,127,127,127,,,,,,,,,,,,,1525.0254567,1526.0905298,,,,,,,1528.1181015,1528.1181015,1528.1181015,1528.1181015,1528.1181015,1528.1181015,1528.1181015,1528.1181015,None,None,None,,,,,,,,,,,1525.0254567,1525.0254567,None,,1526.0905298,1526.0905298,1528.1181015,n,1525.0254567,1525.0254567,0.6490846000001511,,4,001,2024-06-06_13h54.15.335,robot_nback_sign,2022.2.5,59.95139141183242,
M,False,2,letter,1,False,False,robot_stimuli\\filler.mp4,4,,,,,,,,,0,128,128,128,,,,,,,,,,,,,1528.1181015,1529.1830005999998,,,,,,,1531.4116538,1531.4116538,1531.4116538,1531.4116538,1531.4116538,1531.4116538,1531.4116538,1531.4116538,None,None,None,,,,,,,,,,,1528.1181015,1528.1181015,None,,1529.1830005999998,1529.1830005999998,1531.4116538,n,1528.1181015,1528.1181015,0.9787693000002946,,4,001,2024-06-06_13h54.15.335,robot_nback_sign,2022.2.5,59.95139141183242,
X,False,2,letter,1,False,False,robot_stimuli\\filler.mp4,4,,,,,,,,,0,129,129,129,,,,,,,,,,,,,1531.4116538,1532.4768956,,,,,,,1534.5067187000002,1534.5067187000002,1534.5067187000002,1534.5067187000002,1534.5067187000002,1534.5067187000002,1534.5067187000002,1534.5067187000002,None,None,None,,,,,,,,,,,1531.4116538,1531.4116538,None,,1532.4768956,1532.4768956,1534.5067187000002,n,1531.4116538,1531.4116538,1.2542470999997022,,4,001,2024-06-06_13h54.15.335,robot_nback_sign,2022.2.5,59.95139141183242,
N,False,2,letter,1,False,False,robot_stimuli\\filler.mp4,4,,,,,,,,,0,130,130,130,,,,,,,,,,,,,1534.5067187000002,1535.5668812000001,,,,,,,1537.7934039999998,1537.7934039999998,1537.7934039999998,1537.7934039999998,1537.7934039999998,1537.7934039999998,1537.7934039999998,1537.7934039999998,None,None,None,,,,,,,,,,,1534.5067187000002,1534.5067187000002,None,,1535.5668812000001,1535.5668812000001,1537.7934039999998,n,1534.5067187000002,1534.5067187000002,0.5868424999998751,,4,001,2024-06-06_13h54.15.335,robot_nback_sign,2022.2.5,59.95139141183242,
C,False,2,letter,1,False,False,robot_stimuli\\filler.mp4,4,,,,,,,,,0,131,131,131,,,,,,,,,,,,,1537.7934039999998,1538.8511204,,,,,,,1540.8795088999998,1540.8795088999998,1540.8795088999998,1540.8795088999998,1540.8795088999998,1540.8795088999998,1540.8795088999998,1540.8795088999998,None,None,None,,,,,,,,,,,1537.7934039999998,1537.7934039999998,None,,1538.8511204,1538.8511204,1540.8795088999998,n,1537.7934039999998,1537.7934039999998,0.5679967999999462,,4,001,2024-06-06_13h54.15.335,robot_nback_sign,2022.2.5,59.95139141183242,
F,False,2,letter,1,False,False,robot_stimuli\\filler.mp4,4,,,,,,,,,0,132,132,132,,,,,,,,,,,,,1540.8795088999998,1541.9349052999999,,,,,,,1543.9634518,1543.9634518,1543.9634518,1543.9634518,1543.9634518,1543.9634518,1543.9634518,1543.9634518,None,None,None,,,,,,,,,,,1540.8795088999998,1540.8795088999998,None,,1541.9349052999999,1541.9349052999999,1543.9634518,n,1540.8795088999998,1540.8795088999998,0.9636006999999154,,4,001,2024-06-06_13h54.15.335,robot_nback_sign,2022.2.5,59.95139141183242,
R,False,2,letter,1,False,False,robot_stimuli\\filler.mp4,4,,,,,,,,,0,133,133,133,,,,,,,,,,,,,1543.9634518,1545.0171262000001,,,,,,,1547.0405914,1547.0405914,1547.0405914,1547.0405914,1547.0405914,1547.0405914,1547.0405914,1547.0405914,None,None,None,,,,,,,,,,,1543.9634518,1543.9634518,None,,1545.0171262000001,1545.0171262000001,1547.0405914,n,1543.9634518,1543.9634518,0.6733421000003545,,4,001,2024-06-06_13h54.15.335,robot_nback_sign,2022.2.5,59.95139141183242,
L,False,2,letter,1,False,False,robot_stimuli\\filler.mp4,4,,,,,,,,,0,134,134,134,,,,,,,,,,,,,1547.0405914,1548.0989312999998,,,,,,,1550.328636,1550.328636,1550.328636,1550.328636,1550.328636,1550.328636,1550.328636,1550.328636,None,None,None,,,,,,,,,,,1547.0405914,1547.0405914,None,,1548.0989312999998,1548.0989312999998,1550.328636,n,1547.0405914,1547.0405914,0.6796477000002596,,4,001,2024-06-06_13h54.15.335,robot_nback_sign,2022.2.5,59.95139141183242,
N,False,2,letter,1,False,False,robot_stimuli\\filler.mp4,4,,,,,,,,,0,135,135,135,,,,,,,,,,,,,1550.328636,1551.3833447,,,,,,,1553.4154483,1553.4154483,1553.4154483,1553.4154483,1553.4154483,1553.4154483,1553.4154483,1553.4154483,None,None,None,,,,,,,,,,,1550.328636,1550.328636,None,,1551.3833447,1551.3833447,1553.4154483,n,1550.328636,1550.328636,1.1877979999999297,,4,001,2024-06-06_13h54.15.335,robot_nback_sign,2022.2.5,59.95139141183242,
K,False,2,letter,1,False,False,robot_stimuli\\filler.mp4,4,,,,,,,,,0,136,136,136,,,,,,,,,,,,,1553.4154483,,,,,,,,1556.5076528000002,1556.5076528000002,1556.5076528000002,1556.5076528000002,1556.5076528000002,1556.5076528000002,1556.5076528000002,1556.5076528000002,None,None,None,,,,,,,,,,,1553.4154483,1553.4154483,None,,1554.4830000999998,1554.4830000999998,1556.5076528000002,n,1553.4154483,1553.4154483,0.903862300000128,,4,001,2024-06-06_13h54.15.335,robot_nback_sign,2022.2.5,59.95139141183242,
R,False,2,letter,1,False,False,robot_stimuli\\filler.mp4,4,,,,,,,,,0,137,137,137,,,,,,,,,,,,,1556.5076528000002,1557.5673295,,,,,,,1559.7997358,1559.7997358,1559.7997358,1559.7997358,1559.7997358,1559.7997358,1559.7997358,1559.7997358,None,None,None,,,,,,,,,,,1556.5076528000002,1556.5076528000002,None,,1557.5673295,1557.5673295,1559.7997358,n,1556.5076528000002,1556.5076528000002,0.7641840000001139,,4,001,2024-06-06_13h54.15.335,robot_nback_sign,2022.2.5,59.95139141183242,
X,False,2,letter,1,False,False,robot_stimuli\\filler.mp4,4,,,,,,,,,0,138,138,138,,,,,,,,,,,,,1559.7997358,1560.8705622999998,,,,,,,1562.8950545,1562.8950545,1562.8950545,1562.8950545,1562.8950545,1562.8950545,1562.8950545,1562.8950545,None,None,None,,,,,,,,,,,1559.7997358,1559.7997358,None,,1560.8705622999998,1560.8705622999998,1562.8950545,n,1559.7997358,1559.7997358,0.6836547999996583,,4,001,2024-06-06_13h54.15.335,robot_nback_sign,2022.2.5,59.95139141183242,
P,False,2,letter,1,False,False,robot_stimuli\\filler.mp4,4,,,,,,,,,0,139,139,139,,,,,,,,,,,,,1562.8950545,1563.9498154999999,,,,,,,1566.1844416000001,1566.1844416000001,1566.1844416000001,1566.1844416000001,1566.1844416000001,1566.1844416000001,1566.1844416000001,1566.1844416000001,None,None,None,,,,,,,,,,,1562.8950545,1562.8950545,None,,1563.9498154999999,1563.9498154999999,1566.1844416000001,n,1562.8950545,1562.8950545,0.7160435999999208,,4,001,2024-06-06_13h54.15.335,robot_nback_sign,2022.2.5,59.95139141183242,
K,False,2,letter,1,False,False,robot_stimuli\\filler.mp4,4,,,,,,,,,0,140,140,140,,,,,,,,,,,,,1566.1844416000001,1567.2487196,,,,,,,1569.4826132,1569.4826132,1569.4826132,1569.4826132,1569.4826132,1569.4826132,1569.4826132,1569.4826132,None,None,None,,,,,,,,,,,1566.1844416000001,1566.1844416000001,None,,1567.2487196,1567.2487196,1569.4826132,n,1566.1844416000001,1566.1844416000001,0.905597299999954,,4,001,2024-06-06_13h54.15.335,robot_nback_sign,2022.2.5,59.95139141183242,
F,False,2,letter,1,False,False,robot_stimuli\\filler.mp4,4,,,,,,,,,0,141,141,141,,,,,,,,,,,,,1569.4826132,,,,,,,,1572.7727573,1572.7727573,1572.7727573,1572.7727573,1572.7727573,1572.7727573,1572.7727573,1572.7727573,None,None,None,,,,,,,,,,,1569.4826132,1569.4826132,None,,1570.5514805,1570.5514805,1572.7727573,n,1569.4826132,1569.4826132,0.43533730000035575,,4,001,2024-06-06_13h54.15.335,robot_nback_sign,2022.2.5,59.95139141183242,
S,False,2,letter,1,False,False,robot_stimuli\\filler.mp4,4,,,,,,,,,0,142,142,142,,,,,,,,,,,,,1572.7727573,1573.8342995,,,,,,,1576.0630153,1576.0630153,1576.0630153,1576.0630153,1576.0630153,1576.0630153,1576.0630153,1576.0630153,None,None,None,,,,,,,,,,,1572.7727573,1572.7727573,None,,1573.8342995,1573.8342995,1576.0630153,n,1572.7727573,1572.7727573,0.5355607999999847,,4,001,2024-06-06_13h54.15.335,robot_nback_sign,2022.2.5,59.95139141183242,
N,False,2,letter,1,False,False,robot_stimuli\\filler.mp4,4,,,,,,,,,0,143,143,143,,,,,,,,,,,,,1576.0630153,1577.1165539,,,,,,,1579.3409605,1579.3409605,1579.3409605,1579.3409605,1579.3409605,1579.3409605,1579.3409605,1579.3409605,None,None,None,,,,,,,,,,,1576.0630153,1576.0630153,None,,1577.1165539,1577.1165539,1579.3409605,n,1576.0630153,1576.0630153,0.5344243999998071,,4,001,2024-06-06_13h54.15.335,robot_nback_sign,2022.2.5,59.95139141183242,
X,False,2,letter,1,False,False,robot_stimuli\\filler.mp4,4,,,,,,,,,0,144,144,144,,,,,,,,,,,,,1579.3409605,1580.3988049000002,,,,,,,1582.6247347,1582.6247347,1582.6247347,1582.6247347,1582.6247347,1582.6247347,1582.6247347,1582.6247347,None,None,None,,,,,,,,,,,1579.3409605,1579.3409605,None,,1580.3988049000002,1580.3988049000002,1582.6247347,n,1579.3409605,1579.3409605,0.72414660000004,,4,001,2024-06-06_13h54.15.335,robot_nback_sign,2022.2.5,59.95139141183242,
N,True,2,letter,1,False,False,robot_stimuli\\filler.mp4,4,,,,,,,,,0,145,145,145,,,,,,,,,,,,,1582.6247347,1583.6853911,,,,,,,1585.9156276,1585.9156276,1585.9156276,1585.9156276,1585.9156276,1585.9156276,1585.9156276,1585.9156276,None,None,None,,,,,,,,,,,1582.6247347,1582.6247347,None,,1583.6853911,1583.6853911,1585.9156276,c,1582.6247347,1582.6247347,0.46993290000000343,,4,001,2024-06-06_13h54.15.335,robot_nback_sign,2022.2.5,59.95139141183242,
B,False,2,letter,1,False,False,robot_stimuli\\filler.mp4,4,,,,,,,,,0,146,146,146,,,,,,,,,,,,,1585.9156276,,,,,,,,1589.2116847999998,1589.2116847999998,1589.2116847999998,1589.2116847999998,1589.2116847999998,1589.2116847999998,1589.2116847999998,1589.2116847999998,None,None,None,,,,,,,,,,,1585.9156276,1585.9156276,None,,1586.9814377,1586.9814377,1589.2116847999998,n,1585.9156276,1585.9156276,0.6781337000002168,,4,001,2024-06-06_13h54.15.335,robot_nback_sign,2022.2.5,59.95139141183242,
P,False,2,letter,1,False,False,robot_stimuli\\filler.mp4,4,,,,,,,,,0,147,147,147,,,,,,,,,,,,,1589.2116847999998,1590.2675602000002,,,,,,,1592.2961506,1592.2961506,1592.2961506,1592.2961506,1592.2961506,1592.2961506,1592.2961506,1592.2961506,None,None,None,,,,,,,,,,,1589.2116847999998,1589.2116847999998,None,,1590.2675602000002,1590.2675602000002,1592.2961506,n,1589.2116847999998,1589.2116847999998,0.6230921999999737,,4,001,2024-06-06_13h54.15.335,robot_nback_sign,2022.2.5,59.95139141183242,
Z,False,2,letter,1,False,False,robot_stimuli\\filler.mp4,4,,,,,,,,,0,148,148,148,,,,,,,,,,,,,1592.2961506,1593.3493922,,,,,,,1595.5818673,1595.5818673,1595.5818673,1595.5818673,1595.5818673,1595.5818673,1595.5818673,1595.5818673,None,None,None,,,,,,,,,,,1592.2961506,1592.2961506,None,,1593.3493922,1593.3493922,1595.5818673,n,1592.2961506,1592.2961506,0.5889541000001373,,4,001,2024-06-06_13h54.15.335,robot_nback_sign,2022.2.5,59.95139141183242,
P,True,2,letter,1,False,True,robot_stimuli\\filler.mp4,4,,,,,,,,,0,149,149,149,,,,,,,,,,,,,1595.5818673,,,,,,,,1598.7026735000002,1602.9349799,1598.7026735000002,1602.9349799,1598.7026735000002,1602.9349799,1598.7026735000002,1602.9349799,15.648148148148136,2.781836099999964,space,,,,4.163987200000065,,,,,,,1595.5818673,1595.5818673,None,,1596.6520056000002,1596.6520056000002,1598.7026735000002,c,1595.5818673,1595.5818673,0.6945989000000736,,4,001,2024-06-06_13h54.15.335,robot_nback_sign,2022.2.5,59.95139141183242,
L_Arm_X_For,False,1,robot,2,True,False,robot_stimuli\L_Arm_X_For.mp4,4,,,,,,,,,0,150,150,150,,,,,,,,,,,,,1607.9295282,1609.0153785999998,,,,,,,1612.6665685,1612.6665685,1612.6665685,1612.6665685,1612.6665685,1612.6665685,1612.6665685,1612.6665685,None,None,None,,,,,,,,,,,1602.9349799,1602.9349799,space,4.971929600000294,,1609.0153785999998,,None,,,,1609.0153785999998,4,001,2024-06-06_13h54.15.335,robot_nback_sign,2022.2.5,59.95139141183242,
R_Torso_X_Back,False,1,robot,2,False,False,robot_stimuli\R_Torso_X_Back.mp4,4,,,,,,,,,0,151,151,151,,,,,,,,,,,,,1612.6665685,1613.7712321000001,,,,,,,1617.4096929,1617.4096929,1617.4096929,1617.4096929,1617.4096929,1617.4096929,1617.4096929,1617.4096929,None,None,None,,,,,,,,,,,1612.6665685,1612.6665685,None,,,1613.7712321000001,,n,1612.6665685,1612.6665685,1.503793300000325,1613.7712321000001,4,001,2024-06-06_13h54.15.335,robot_nback_sign,2022.2.5,59.95139141183242,
R_Torso_X_Back,True,1,robot,2,False,False,robot_stimuli\R_Torso_X_Back.mp4,4,,,,,,,,,0,152,152,152,,,,,,,,,,,,,1617.4096929,1618.4870788,,,,,,,1622.1264589,1622.1264589,1622.1264589,1622.1264589,1622.1264589,1622.1264589,1622.1264589,1622.1264589,None,None,None,,,,,,,,,,,1617.4096929,1617.4096929,None,,,1618.4870788,,None,1617.4096929,1617.4096929,,1618.4870788,4,001,2024-06-06_13h54.15.335,robot_nback_sign,2022.2.5,59.95139141183242,
L_Head_Y_For,False,1,robot,2,False,False,robot_stimuli\L_Head_Y_For.mp4,4,,,,,,,,,0,153,153,153,,,,,,,,,,,,,1622.1264589,1623.2151172000001,,,,,,,1626.8561086000002,1626.8561086000002,1626.8561086000002,1626.8561086000002,1626.8561086000002,1626.8561086000002,1626.8561086000002,1626.8561086000002,None,None,None,,,,,,,,,,,1622.1264589,1622.1264589,None,,,1623.2151172000001,,n,1622.1264589,1622.1264589,1.8275359000003846,1623.2151172000001,4,001,2024-06-06_13h54.15.335,robot_nback_sign,2022.2.5,59.95139141183242,
R_Base_Z_Back,False,1,robot,2,False,False,robot_stimuli\R_Base_Z_Back.mp4,4,,,,,,,,,0,154,154,154,,,,,,,,,,,,,1626.8561086000002,1627.9441206,,,,,,,1631.4950516000001,1631.4950516000001,1631.4950516000001,1631.4950516000001,1631.4950516000001,1631.4950516000001,1631.4950516000001,1631.4950516000001,None,None,None,,,,,,,,,,,1626.8561086000002,1626.8561086000002,None,,,1627.9441206,,n,1626.8561086000002,1626.8561086000002,1.346137500000168,1627.9441206,4,001,2024-06-06_13h54.15.335,robot_nback_sign,2022.2.5,59.95139141183242,
R_Torso_X_Back,False,1,robot,2,False,False,robot_stimuli\R_Torso_X_Back.mp4,4,,,,,,,,,0,155,155,155,,,,,,,,,,,,,1631.4950516000001,1632.5737958000002,,,,,,,1636.2026807999998,1636.2026807999998,1636.2026807999998,1636.2026807999998,1636.2026807999998,1636.2026807999998,1636.2026807999998,1636.2026807999998,None,None,None,,,,,,,,,,,1631.4950516000001,1631.4950516000001,None,,,1632.5737958000002,,n,1631.4950516000001,1631.4950516000001,2.117157099999986,1632.5737958000002,4,001,2024-06-06_13h54.15.335,robot_nback_sign,2022.2.5,59.95139141183242,
L_Base_Y_Back,False,1,robot,2,False,False,robot_stimuli\L_Base_Y_Back.mp4,4,,,,,,,,,0,156,156,156,,,,,,,,,,,,,1636.2026807999998,1637.29019,,,,,,,1640.8628216999998,1640.8628216999998,1640.8628216999998,1640.8628216999998,1640.8628216999998,1640.8628216999998,1640.8628216999998,1640.8628216999998,None,None,None,,,,,,,,,,,1636.2026807999998,1636.2026807999998,None,,,1637.29019,,n,1636.2026807999998,1636.2026807999998,1.4244981000001644,1637.29019,4,001,2024-06-06_13h54.15.335,robot_nback_sign,2022.2.5,59.95139141183242,
L_Base_Y_Back,True,1,robot,2,False,False,robot_stimuli\L_Base_Y_Back.mp4,4,,,,,,,,,0,157,157,157,,,,,,,,,,,,,1640.8628216999998,1641.9389764999999,,,,,,,1645.5124837,1645.5124837,1645.5124837,1645.5124837,1645.5124837,1645.5124837,1645.5124837,1645.5124837,None,None,None,,,,,,,,,,,1640.8628216999998,1640.8628216999998,None,,,1641.9389764999999,,c,1640.8628216999998,1640.8628216999998,1.8545939999999064,1641.9389764999999,4,001,2024-06-06_13h54.15.335,robot_nback_sign,2022.2.5,59.95139141183242,
R_Head_X_For,False,1,robot,2,False,False,robot_stimuli\R_Head_X_For.mp4,4,,,,,,,,,0,158,158,158,,,,,,,,,,,,,1645.5124837,1646.5924487,,,,,,,1650.2411676999998,1650.2411676999998,1650.2411676999998,1650.2411676999998,1650.2411676999998,1650.2411676999998,1650.2411676999998,1650.2411676999998,None,None,None,,,,,,,,,,,1645.5124837,1645.5124837,None,,,1646.5924487,,n,1645.5124837,1645.5124837,1.1693310999999085,1646.5924487,4,001,2024-06-06_13h54.15.335,robot_nback_sign,2022.2.5,59.95139141183242,
R_Head_X_For,True,1,robot,2,False,False,robot_stimuli\R_Head_X_For.mp4,4,,,,,,,,,0,159,159,159,,,,,,,,,,,,,1650.2411676999998,1651.3216667999998,,,,,,,1654.9605878,1654.9605878,1654.9605878,1654.9605878,1654.9605878,1654.9605878,1654.9605878,1654.9605878,None,None,None,,,,,,,,,,,1650.2411676999998,1650.2411676999998,None,,,1651.3216667999998,,c,1650.2411676999998,1650.2411676999998,1.5600201000002016,1651.3216667999998,4,001,2024-06-06_13h54.15.335,robot_nback_sign,2022.2.5,59.95139141183242,
R_Arm_Z_Back,False,1,robot,2,False,False,robot_stimuli\R_Arm_Z_Back.mp4,4,,,,,,,,,0,160,160,160,,,,,,,,,,,,,1654.9605878,1656.0421711000001,,,,,,,1659.6921442999999,1659.6921442999999,1659.6921442999999,1659.6921442999999,1659.6921442999999,1659.6921442999999,1659.6921442999999,1659.6921442999999,None,None,None,,,,,,,,,,,1654.9605878,1654.9605878,None,,,1656.0421711000001,,n,1654.9605878,1654.9605878,2.976147200000014,1656.0421711000001,4,001,2024-06-06_13h54.15.335,robot_nback_sign,2022.2.5,59.95139141183242,
R_Base_Z_For,False,1,robot,2,False,False,robot_stimuli\R_Base_Z_For.mp4,4,,,,,,,,,0,161,161,161,,,,,,,,,,,,,1659.6921442999999,1660.7755853,,,,,,,1664.4268015999999,1664.4268015999999,1664.4268015999999,1664.4268015999999,1664.4268015999999,1664.4268015999999,1664.4268015999999,1664.4268015999999,None,None,None,,,,,,,,,,,1659.6921442999999,1659.6921442999999,None,,,1660.7755853,,n,1659.6921442999999,1659.6921442999999,1.7226881999999932,1660.7755853,4,001,2024-06-06_13h54.15.335,robot_nback_sign,2022.2.5,59.95139141183242,
R_Arm_Y_Back,False,1,robot,2,False,False,robot_stimuli\R_Arm_Y_Back.mp4,4,,,,,,,,,0,162,162,162,,,,,,,,,,,,,1664.4268015999999,1665.5080216,,,,,,,1669.1584885999998,1669.1584885999998,1669.1584885999998,1669.1584885999998,1669.1584885999998,1669.1584885999998,1669.1584885999998,1669.1584885999998,None,None,None,,,,,,,,,,,1664.4268015999999,1664.4268015999999,None,,,1665.5080216,,n,1664.4268015999999,1664.4268015999999,1.6063650000000962,1665.5080216,4,001,2024-06-06_13h54.15.335,robot_nback_sign,2022.2.5,59.95139141183242,
L_Torso_Y_For,False,1,robot,2,False,False,robot_stimuli\L_Torso_Y_For.mp4,4,,,,,,,,,0,163,163,163,,,,,,,,,,,,,1669.1584885999998,1670.2458040999998,,,,,,,1673.8958303000002,1673.8958303000002,1673.8958303000002,1673.8958303000002,1673.8958303000002,1673.8958303000002,1673.8958303000002,1673.8958303000002,None,None,None,,,,,,,,,,,1669.1584885999998,1669.1584885999998,None,,,1670.2458040999998,,n,1669.1584885999998,1669.1584885999998,0.9319879999998193,1670.2458040999998,4,001,2024-06-06_13h54.15.335,robot_nback_sign,2022.2.5,59.95139141183242,
L_Base_Z_For,False,1,robot,2,False,False,robot_stimuli\L_Base_Z_For.mp4,4,,,,,,,,,0,164,164,164,,,,,,,,,,,,,1673.8958303000002,1674.9734363999999,,,,,,,1678.6121394999998,1678.6121394999998,1678.6121394999998,1678.6121394999998,1678.6121394999998,1678.6121394999998,1678.6121394999998,1678.6121394999998,None,None,None,,,,,,,,,,,1673.8958303000002,1673.8958303000002,None,,,1674.9734363999999,,n,1673.8958303000002,1673.8958303000002,1.060892099999819,1674.9734363999999,4,001,2024-06-06_13h54.15.335,robot_nback_sign,2022.2.5,59.95139141183242,
R_Head_X_Back,False,1,robot,2,False,False,robot_stimuli\R_Head_X_Back.mp4,4,,,,,,,,,0,165,165,165,,,,,,,,,,,,,1678.6121394999998,1679.6905134,,,,,,,1683.3438223,1683.3438223,1683.3438223,1683.3438223,1683.3438223,1683.3438223,1683.3438223,1683.3438223,None,None,None,,,,,,,,,,,1678.6121394999998,1678.6121394999998,None,,,1679.6905134,,n,1678.6121394999998,1678.6121394999998,1.0790657000002284,1679.6905134,4,001,2024-06-06_13h54.15.335,robot_nback_sign,2022.2.5,59.95139141183242,
L_Base_X_Back,False,1,robot,2,False,False,robot_stimuli\L_Base_X_Back.mp4,4,,,,,,,,,0,166,166,166,,,,,,,,,,,,,1683.3438223,1684.4241654,,,,,,,1688.0210439999998,1688.0210439999998,1688.0210439999998,1688.0210439999998,1688.0210439999998,1688.0210439999998,1688.0210439999998,1688.0210439999998,None,None,None,,,,,,,,,,,1683.3438223,1683.3438223,None,,,1684.4241654,,n,1683.3438223,1683.3438223,0.9938132000002042,1684.4241654,4,001,2024-06-06_13h54.15.335,robot_nback_sign,2022.2.5,59.95139141183242,
L_Base_X_Back,True,1,robot,2,False,False,robot_stimuli\L_Base_X_Back.mp4,4,,,,,,,,,0,167,167,167,,,,,,,,,,,,,1688.0210439999998,1689.103765,,,,,,,1692.7104696999997,1692.7104696999997,1692.7104696999997,1692.7104696999997,1692.7104696999997,1692.7104696999997,1692.7104696999997,1692.7104696999997,None,None,None,,,,,,,,,,,1688.0210439999998,1688.0210439999998,None,,,1689.103765,,c,1688.0210439999998,1688.0210439999998,2.499530500000219,1689.103765,4,001,2024-06-06_13h54.15.335,robot_nback_sign,2022.2.5,59.95139141183242,
R_Arm_Y_For,False,1,robot,2,False,False,robot_stimuli\R_Arm_Y_For.mp4,4,,,,,,,,,0,168,168,168,,,,,,,,,,,,,1692.7104696999997,1693.7951463000002,,,,,,,1697.314509,1697.314509,1697.314509,1697.314509,1697.314509,1697.314509,1697.314509,1697.314509,None,None,None,,,,,,,,,,,1692.7104696999997,1692.7104696999997,None,,,1693.7951463000002,,n,1692.7104696999997,1692.7104696999997,1.5920352000002822,1693.7951463000002,4,001,2024-06-06_13h54.15.335,robot_nback_sign,2022.2.5,59.95139141183242,
R_Arm_Z_For,False,1,robot,2,False,False,robot_stimuli\R_Arm_Z_For.mp4,4,,,,,,,,,0,169,169,169,,,,,,,,,,,,,1697.314509,,,,,,,,1702.0655768,1702.0655768,1702.0655768,1702.0655768,1702.0655768,1702.0655768,1702.0655768,1702.0655768,None,None,None,,,,,,,,,,,1697.314509,1697.314509,None,,,1698.4219928999999,,n,1697.314509,1697.314509,1.6521530999998504,1698.4219928999999,4,001,2024-06-06_13h54.15.335,robot_nback_sign,2022.2.5,59.95139141183242,
