sequence,odd_ones,parameter,choices,target,target_idx,condition,stimuli,block,is_block_beginning,is_block_ending,sequence_fnames,target_fname,subject,retraining.thisRepN,retraining.thisTrialN,retraining.thisN,retraining.thisIndex,training.thisRepN,training.thisTrialN,training.thisN,training.thisIndex,training_sequence_loop.thisRepN,training_sequence_loop.thisTrialN,training_sequence_loop.thisN,training_sequence_loop.thisIndex,trials.thisRepN,trials.thisTrialN,trials.thisN,trials.thisIndex,sequence_loop.thisRepN,sequence_loop.thisTrialN,sequence_loop.thisN,sequence_loop.thisIndex,langage_text.started,langage_key.started,langage_key.keys,langage_key.rt,intro_text.started,intro_key.started,intro_key.keys,intro_key.rt,training_intro_text.started,training_intro_key.started,training_intro_key.keys,training_intro_key.rt,polygon.started,cue_before_text.started,training_presentation_letter.started,training_presentation_letter.stopped,recall_key.started,recall_question.started,recall_answer.started,recall_key.keys,recall_key.rt,RSME_labels.started,RSME_labels.stopped,RSME_ticks.started,RSME_ticks.stopped,RSME_text.started,RSME_text.stopped,RSME_key.started,RSME_key.stopped,RSME_ticks.response,RSME_ticks.rt,RSME_key.keys,training_intro_text.stopped,training_intro_key.stopped,polygon.stopped,cue_before_text.stopped,RSME_key.rt,training_presentation_movie.started,experiment_beginning_text.started,experiment_beginning_keys.started,experiment_beginning_key.started,experiment_beginning_key.keys,experiment_beginning_key.rt,block_intro_text.started,block_intro_key.started,block_intro_key.keys,block_intro_key.rt,presentation_letter.started,presentation_letter.stopped,block_intro_text.stopped,block_intro_key.stopped,presentation_movie.started,participant,session,date,expName,psychopyVersion,frameRate,
,,,,,,,,,,,,,,,,,,,,,,,,,,,,,,,,,,10.638704600278288,10.638704600278288,e,2.9109328002668917,,,,,,,,,,,,,,,,,,,,,,,,,,,,,,,,,,,,,,,,,,,,,,,,,16,001,2024-09-10_10h33.36.515,robot_cogshifting_sign,2022.2.5,59.86324838550586,
,,,,,,,,,,,,,,,,,,,,,,,,,,,,,,,,,,,,,,13.610077599994838,13.610077599994838,space,14.85955459997058,,,,,,,,,,,,,,,,,,,,,,,,,,,,,,,,,,,,,,,,,,,,,16,001,2024-09-10_10h33.36.515,robot_cogshifting_sign,2022.2.5,59.86324838550586,
"['red_right_D_45', 'red_bottom_N_0', 'blue_bottom_M_45', 'red_bottom_F_45']","{'color': 'blue_bottom_M_45', 'position': 'red_right_D_45', 'orientation': 'red_bottom_N_0'}",color,['color'],blue_bottom_M_45,2,1,letter,1,True,False,"['robot_stimuli\\\\filler.mp4', 'robot_stimuli\\\\filler.mp4', 'robot_stimuli\\\\filler.mp4', 'robot_stimuli\\\\filler.mp4']",robot_stimuli\\filler.mp4,16,0,0,0,0,0,0,0,0,,,,,,,,,,,,,,,,,,,,,28.5060070999898,28.5060070999898,space,14.427971300203353,42.95109870005399,43.95310090016574,54.340223900042474,56.56124350009486,56.56124350009486,56.56124350009486,56.56124350009486,2,1.421026200056076,58.03075679996982,58.03075679996982,58.03075679996982,58.03075679996982,58.03075679996982,58.03075679996982,58.03075679996982,58.03075679996982,None,None,None,,,,,,,,,,,,,,,,,,,,,16,001,2024-09-10_10h33.36.515,robot_cogshifting_sign,2022.2.5,59.86324838550586,
"['red_right_L_45', 'red_bottom_Q_45', 'red_right_W_0', 'blue_right_J_45']","{'color': 'blue_right_J_45', 'position': 'red_bottom_Q_45', 'orientation': 'red_right_W_0'}",position,['position'],red_bottom_Q_45,1,1,letter,1,False,False,"['robot_stimuli\\\\filler.mp4', 'robot_stimuli\\\\filler.mp4', 'robot_stimuli\\\\filler.mp4', 'robot_stimuli\\\\filler.mp4']",robot_stimuli\\filler.mp4,16,0,0,0,0,0,1,1,1,,,,,,,,,,,,,,,,,,,,,58.03075679996982,58.03075679996982,None,,58.03075679996982,59.03275590017438,67.61637570010498,69.8373171002604,69.8373171002604,69.8373171002604,69.8373171002604,2,0.6485713999718428,70.50540059991181,70.50540059991181,70.50540059991181,70.50540059991181,70.50540059991181,70.50540059991181,70.50540059991181,70.50540059991181,None,None,None,58.03075679996982,58.03075679996982,59.03275590017438,,,,,,,,,,,,,,,,,,16,001,2024-09-10_10h33.36.515,robot_cogshifting_sign,2022.2.5,59.86324838550586,
"['red_left_P_0', 'red_top_N_0', 'red_top_Q_45', 'blue_top_M_0']","{'color': 'blue_top_M_0', 'position': 'red_left_P_0', 'orientation': 'red_top_Q_45'}",orientation,['orientation'],red_top_Q_45,2,1,letter,1,False,True,"['robot_stimuli\\\\filler.mp4', 'robot_stimuli\\\\filler.mp4', 'robot_stimuli\\\\filler.mp4', 'robot_stimuli\\\\filler.mp4']",robot_stimuli\\filler.mp4,16,0,0,0,0,0,2,2,2,,,,,,,,,,,,,,,,,,,,,70.50540059991181,70.50540059991181,None,,70.50540059991181,71.50730449985713,80.27458980027586,82.31191019993275,82.31191019993275,82.31191019993275,82.31191019993275,3,0.3415151000954211,82.72940240008757,94.93671530019492,82.72940240008757,94.93671530019492,82.72940240008757,94.93671530019492,82.72940240008757,94.93671530019492,15.317460317460316,11.031729400157928,space,70.50540059991181,70.50540059991181,71.50730449985713,73.57807710021734,12.132385999895632,,,,,,,,,,,,,,,,16,001,2024-09-10_10h33.36.515,robot_cogshifting_sign,2022.2.5,59.86324838550586,
"['red_top_J_0', 'red_right_K_45', 'red_right_Q_0', 'blue_right_F_0']","{'color': 'blue_right_F_0', 'position': 'red_top_J_0', 'orientation': 'red_right_K_45'}",orientation,"['color', 'orientation']",red_right_K_45,1,2,letter,1,True,False,"['robot_stimuli\\\\filler.mp4', 'robot_stimuli\\\\filler.mp4', 'robot_stimuli\\\\filler.mp4', 'robot_stimuli\\\\filler.mp4']",robot_stimuli\\filler.mp4,16,0,0,0,0,0,3,3,3,,,,,,,,,,,,,,,,,,,,,94.93671530019492,94.93671530019492,space,2.0772863999009132,97.04090829985216,98.0428749001585,106.61018970003352,108.63033040007576,108.63033040007576,108.63033040007576,108.63033040007576,2,1.799369900021702,110.45054810028523,110.45054810028523,110.45054810028523,110.45054810028523,110.45054810028523,110.45054810028523,110.45054810028523,110.45054810028523,None,None,None,,,,,,,,,,,,,,,,,,,,,16,001,2024-09-10_10h33.36.515,robot_cogshifting_sign,2022.2.5,59.86324838550586,
"['red_bottom_N_0', 'red_right_T_45', 'red_right_V_0', 'blue_right_J_0']","{'color': 'blue_right_J_0', 'position': 'red_bottom_N_0', 'orientation': 'red_right_T_45'}",color,"['color', 'orientation']",blue_right_J_0,3,2,letter,1,False,False,"['robot_stimuli\\\\filler.mp4', 'robot_stimuli\\\\filler.mp4', 'robot_stimuli\\\\filler.mp4', 'robot_stimuli\\\\filler.mp4']",robot_stimuli\\filler.mp4,16,0,0,0,0,0,4,4,4,,,,,,,,,,,,,,,,,,,,,110.45054810028523,110.45054810028523,None,,110.45054810028523,111.45257700001821,120.03618740011007,122.2738890000619,122.2738890000619,122.2738890000619,122.2738890000619,4,2.220200499985367,124.51160710025579,124.51160710025579,124.51160710025579,124.51160710025579,124.51160710025579,124.51160710025579,124.51160710025579,124.51160710025579,None,None,None,110.45054810028523,110.45054810028523,111.45257700001821,113.52335719997063,,,,,,,,,,,,,,,,,16,001,2024-09-10_10h33.36.515,robot_cogshifting_sign,2022.2.5,59.86324838550586,
"['blue_bottom_V_0', 'red_bottom_T_45', 'blue_left_N_45', 'blue_bottom_B_45']","{'color': 'red_bottom_T_45', 'position': 'blue_left_N_45', 'orientation': 'blue_bottom_V_0'}",position,"['color', 'position']",blue_left_N_45,2,2,letter,1,False,True,"['robot_stimuli\\\\filler.mp4', 'robot_stimuli\\\\filler.mp4', 'robot_stimuli\\\\filler.mp4', 'robot_stimuli\\\\filler.mp4']",robot_stimuli\\filler.mp4,16,0,0,0,0,0,5,5,5,,,,,,,,,,,,,,,,,,,,,124.51160710025579,124.51160710025579,None,,124.51160710025579,125.51358840009198,134.2809851001948,136.3181926002726,136.3181926002726,136.3181926002726,136.3181926002726,3,3.6885513002052903,140.0589216002263,146.90572779998183,140.0589216002263,146.90572779998183,140.0589216002263,146.90572779998183,140.0589216002263,146.90572779998183,37.22222222222223,6.255264100152999,space,124.51160710025579,124.51160710025579,125.51358840009198,127.58429720019922,6.794933500234038,,,,,,,,,,,,,,,,16,001,2024-09-10_10h33.36.515,robot_cogshifting_sign,2022.2.5,59.86324838550586,
"['blue_right_L_0', 'blue_right_G_45', 'red_right_J_45', 'blue_top_P_45']","{'color': 'red_right_J_45', 'position': 'blue_top_P_45', 'orientation': 'blue_right_L_0'}",orientation,"['color', 'orientation', 'position']",blue_right_L_0,0,3,letter,1,True,False,"['robot_stimuli\\\\filler.mp4', 'robot_stimuli\\\\filler.mp4', 'robot_stimuli\\\\filler.mp4', 'robot_stimuli\\\\filler.mp4']",robot_stimuli\\filler.mp4,16,0,0,0,0,0,6,6,6,,,,,,,,,,,,,,,,,,,,,146.90572779998183,146.90572779998183,space,0.9404631997458637,147.87427069991827,148.87623280007392,157.44335030019283,159.66409250022843,159.66409250022843,159.66409250022843,159.66409250022843,1,4.9981656996533275,164.69067759998143,164.69067759998143,164.69067759998143,164.69067759998143,164.69067759998143,164.69067759998143,164.69067759998143,164.69067759998143,None,None,None,,,,,,,,,,,,,,,,,,,,,16,001,2024-09-10_10h33.36.515,robot_cogshifting_sign,2022.2.5,59.86324838550586,
"['blue_right_K_0', 'blue_top_C_45', 'blue_top_F_0', 'red_top_W_0']","{'color': 'red_top_W_0', 'position': 'blue_right_K_0', 'orientation': 'blue_top_C_45'}",position,"['color', 'orientation', 'position']",blue_right_K_0,0,3,letter,1,False,False,"['robot_stimuli\\\\filler.mp4', 'robot_stimuli\\\\filler.mp4', 'robot_stimuli\\\\filler.mp4', 'robot_stimuli\\\\filler.mp4']",robot_stimuli\\filler.mp4,16,0,0,0,0,0,7,7,7,,,,,,,,,,,,,,,,,,,,,164.69067759998143,164.69067759998143,None,,164.69067759998143,165.6927122999914,174.44402100006118,176.4638721998781,176.4638721998781,176.4638721998781,176.4638721998781,1,2.5580951999872923,179.05227790027857,179.05227790027857,179.05227790027857,179.05227790027857,179.05227790027857,179.05227790027857,179.05227790027857,179.05227790027857,None,None,None,164.69067759998143,164.69067759998143,165.6927122999914,167.76341899996623,,,,,,,,,,,,,,,,,16,001,2024-09-10_10h33.36.515,robot_cogshifting_sign,2022.2.5,59.86324838550586,
"['red_bottom_H_45', 'blue_bottom_V_0', 'blue_top_T_45', 'blue_bottom_J_45']","{'color': 'red_bottom_H_45', 'position': 'blue_top_T_45', 'orientation': 'blue_bottom_V_0'}",color,"['color', 'orientation', 'position']",red_bottom_H_45,0,3,letter,1,False,True,"['robot_stimuli\\\\filler.mp4', 'robot_stimuli\\\\filler.mp4', 'robot_stimuli\\\\filler.mp4', 'robot_stimuli\\\\filler.mp4']",robot_stimuli\\filler.mp4,16,0,0,0,0,0,8,8,8,,,,,,,,,,,,,,,,,,,,,179.05227790027857,179.05227790027857,None,,179.05227790027857,180.05421980004758,188.58777490025386,190.60836860025302,190.60836860025302,190.60836860025302,190.60836860025302,2,3.1174510000273585,193.78129199985415,198.03970429999754,193.78129199985415,198.03970429999754,193.78129199985415,198.03970429999754,193.78129199985415,198.03970429999754,70.87301587301587,3.500041900202632,space,179.05227790027857,179.05227790027857,180.05421980004758,182.12508619995788,4.18479759991169,,,,,,,,,,,,,,,,16,001,2024-09-10_10h33.36.515,robot_cogshifting_sign,2022.2.5,59.86324838550586,
"['L_Arm_Y_Back', 'L_Arm_X_Back', 'L_Head_X_Back', 'R_Arm_X_For']","{'laterality': 'R_Arm_X_For', 'localisation': 'L_Head_X_Back', 'movement': 'L_Arm_Y_Back'}",movement,['movement'],L_Arm_Y_Back,0,1,robot,2,True,False,"['robot_stimuli\\L_Arm_Y_Back.mp4', 'robot_stimuli\\L_Arm_X_Back.mp4', 'robot_stimuli\\L_Head_X_Back.mp4', 'robot_stimuli\\R_Arm_X_For.mp4']",robot_stimuli\L_Arm_Y_Back.mp4,16,0,0,0,0,0,9,9,9,,,,,,,,,,,,,,,,,,,,,198.03970429999754,198.03970429999754,space,1.2934727002866566,199.35891770012677,200.36090209987015,,,217.31159309996292,217.31159309996292,217.31159309996292,3,2.613407500088215,219.94945409987122,219.94945409987122,219.94945409987122,219.94945409987122,219.94945409987122,219.94945409987122,219.94945409987122,219.94945409987122,None,None,None,,,,,,213.65373180015013,,,,,,,,,,,,,,,16,001,2024-09-10_10h33.36.515,robot_cogshifting_sign,2022.2.5,59.86324838550586,
"['R_Head_Y_Back', 'R_Head_X_Back', 'R_Torso_Y_For', 'L_Head_Y_For']","{'laterality': 'L_Head_Y_For', 'localisation': 'R_Torso_Y_For', 'movement': 'R_Head_X_Back'}",localisation,['localisation'],R_Torso_Y_For,2,1,robot,2,False,False,"['robot_stimuli\\R_Head_Y_Back.mp4', 'robot_stimuli\\R_Head_X_Back.mp4', 'robot_stimuli\\R_Torso_Y_For.mp4', 'robot_stimuli\\L_Head_Y_For.mp4']",robot_stimuli\R_Torso_Y_For.mp4,16,0,0,0,0,0,10,10,10,,,,,,,,,,,,,,,,,,,,,219.94945409987122,219.94945409987122,None,,219.94945409987122,220.95142879988998,,,237.91855029994622,237.91855029994622,237.91855029994622,3,0.9991859998553991,238.9368445002474,238.9368445002474,238.9368445002474,238.9368445002474,238.9368445002474,238.9368445002474,238.9368445002474,238.9368445002474,None,None,None,219.94945409987122,219.94945409987122,220.95142879988998,223.05552509985864,,234.29437390016392,,,,,,,,,,,,,,,16,001,2024-09-10_10h33.36.515,robot_cogshifting_sign,2022.2.5,59.86324838550586,
"['L_Torso_Z_For', 'L_Head_Z_For', 'L_Head_Y_Back', 'R_Head_Z_For']","{'laterality': 'R_Head_Z_For', 'localisation': 'L_Torso_Z_For', 'movement': 'L_Head_Y_Back'}",laterality,['laterality'],R_Head_Z_For,3,1,robot,2,False,True,"['robot_stimuli\\L_Torso_Z_For.mp4', 'robot_stimuli\\L_Head_Z_For.mp4', 'robot_stimuli\\L_Head_Y_Back.mp4', 'robot_stimuli\\R_Head_Z_For.mp4']",robot_stimuli\R_Head_Z_For.mp4,16,0,0,0,0,0,11,11,11,,,,,,,,,,,,,,,,,,,,,238.9368445002474,238.9368445002474,None,,238.9368445002474,239.9387894999236,,,256.8553844001144,256.8553844001144,256.8553844001144,4,0.6140964003279805,257.52341490006074,261.53128009987995,257.52341490006074,261.53128009987995,257.52341490006074,261.53128009987995,257.52341490006074,261.53128009987995,27.698412698412696,3.7176699000410736,space,238.9368445002474,238.9368445002474,239.9387894999236,242.02631990006194,3.929507799912244,253.21498840022832,,,,,,,,,,,,,,,16,001,2024-09-10_10h33.36.515,robot_cogshifting_sign,2022.2.5,59.86324838550586,
"['L_Base_Z_For', 'R_Head_Z_Back', 'R_Base_X_For', 'R_Base_Z_Back']","{'laterality': 'L_Base_Z_For', 'localisation': 'R_Head_Z_Back', 'movement': 'R_Base_X_For'}",movement,"['localisation', 'movement']",R_Base_X_For,2,2,robot,2,True,False,"['robot_stimuli\\L_Base_Z_For.mp4', 'robot_stimuli\\R_Head_Z_Back.mp4', 'robot_stimuli\\R_Base_X_For.mp4', 'robot_stimuli\\R_Base_Z_Back.mp4']",robot_stimuli\R_Base_X_For.mp4,16,0,0,0,0,0,12,12,12,,,,,,,,,,,,,,,,,,,,,261.53128009987995,261.53128009987995,space,1.2739679999649525,262.8338434002362,263.835821100045,,,280.55207219999284,280.55207219999284,280.55207219999284,2,5.0209069000557065,285.59534660028294,285.59534660028294,285.59534660028294,285.59534660028294,285.59534660028294,285.59534660028294,285.59534660028294,285.59534660028294,None,None,None,,,,,,277.01175560010597,,,,,,,,,,,,,,,16,001,2024-09-10_10h33.36.515,robot_cogshifting_sign,2022.2.5,59.86324838550586,
"['L_Torso_Y_Back', 'L_Arm_Y_Back', 'R_Arm_Y_For', 'L_Arm_X_Back']","{'laterality': 'R_Arm_Y_For', 'localisation': 'L_Torso_Y_Back', 'movement': 'L_Arm_X_Back'}",laterality,"['laterality', 'movement']",R_Arm_Y_For,2,2,robot,2,False,False,"['robot_stimuli\\L_Torso_Y_Back.mp4', 'robot_stimuli\\L_Arm_Y_Back.mp4', 'robot_stimuli\\R_Arm_Y_For.mp4', 'robot_stimuli\\L_Arm_X_Back.mp4']",robot_stimuli\R_Arm_Y_For.mp4,16,0,0,0,0,0,13,13,13,,,,,,,,,,,,,,,,,,,,,285.59534660028294,285.59534660028294,None,,285.59534660028294,286.597316400148,,,303.22999949986115,303.22999949986115,303.22999949986115,3,2.1834480999968946,305.4343857001513,305.4343857001513,305.4343857001513,305.4343857001513,305.4343857001513,305.4343857001513,305.4343857001513,305.4343857001513,None,None,None,285.59534660028294,285.59534660028294,286.597316400148,288.68475789995864,,299.5733917001635,,,,,,,,,,,,,,,16,001,2024-09-10_10h33.36.515,robot_cogshifting_sign,2022.2.5,59.86324838550586,
"['R_Base_Z_For', 'R_Head_Y_Back', 'L_Base_Y_For', 'R_Base_Y_Back']","{'laterality': 'L_Base_Y_For', 'localisation': 'R_Head_Y_Back', 'movement': 'R_Base_Z_For'}",localisation,"['localisation', 'movement']",R_Head_Y_Back,1,2,robot,2,False,True,"['robot_stimuli\\R_Base_Z_For.mp4', 'robot_stimuli\\R_Head_Y_Back.mp4', 'robot_stimuli\\L_Base_Y_For.mp4', 'robot_stimuli\\R_Base_Y_Back.mp4']",robot_stimuli\R_Head_Y_Back.mp4,16,0,0,0,0,0,14,14,14,,,,,,,,,,,,,,,,,,,,,305.4343857001513,305.4343857001513,None,,305.4343857001513,306.4363418999128,,,323.21937600011006,323.21937600011006,323.21937600011006,2,3.650189899839461,326.92668149992824,330.5839362000115,326.92668149992824,330.5839362000115,326.92668149992824,330.5839362000115,326.92668149992824,330.5839362000115,69.92063492063492,3.2332341000437737,space,305.4343857001513,305.4343857001513,306.4363418999128,308.52381590008736,3.590323199983686,319.5788561999798,,,,,,,,,,,,,,,16,001,2024-09-10_10h33.36.515,robot_cogshifting_sign,2022.2.5,59.86324838550586,
"['R_Head_Z_Back', 'L_Head_Y_Back', 'L_Base_Z_Back', 'L_Head_Z_Back']","{'laterality': 'R_Head_Z_Back', 'localisation': 'L_Base_Z_Back', 'movement': 'L_Head_Y_Back'}",movement,"['laterality', 'localisation', 'movement']",L_Head_Y_Back,1,3,robot,2,True,False,"['robot_stimuli\\R_Head_Z_Back.mp4', 'robot_stimuli\\L_Head_Y_Back.mp4', 'robot_stimuli\\L_Base_Z_Back.mp4', 'robot_stimuli\\L_Head_Z_Back.mp4']",robot_stimuli\L_Head_Y_Back.mp4,16,0,0,0,0,0,15,15,15,,,,,,,,,,,,,,,,,,,,,330.5839362000115,330.5839362000115,space,0.8944291998632252,331.5023619001731,332.50434149987996,,,349.40425230003893,349.40425230003893,349.40425230003893,2,4.5613092998974025,353.99664520006627,353.99664520006627,353.99664520006627,353.99664520006627,353.99664520006627,353.99664520006627,353.99664520006627,353.99664520006627,None,None,None,,,,,,345.76382010011,,,,,,,,,,,,,,,16,001,2024-09-10_10h33.36.515,robot_cogshifting_sign,2022.2.5,59.86324838550586,
"['R_Arm_Y_Back', 'R_Torso_Y_Back', 'R_Torso_Z_For', 'L_Torso_Y_Back']","{'laterality': 'L_Torso_Y_Back', 'localisation': 'R_Arm_Y_Back', 'movement': 'R_Torso_Z_For'}",localisation,"['laterality', 'localisation', 'movement']",R_Arm_Y_Back,0,3,robot,2,False,False,"['robot_stimuli\\R_Arm_Y_Back.mp4', 'robot_stimuli\\R_Torso_Y_Back.mp4', 'robot_stimuli\\R_Torso_Z_For.mp4', 'robot_stimuli\\L_Torso_Y_Back.mp4']",robot_stimuli\R_Arm_Y_Back.mp4,16,0,0,0,0,0,16,16,16,,,,,,,,,,,,,,,,,,,,,353.99664520006627,353.99664520006627,None,,353.99664520006627,354.99856049986556,,,371.76494259992614,371.76494259992614,371.76494259992614,1,5.407915499992669,377.1922857002355,377.1922857002355,377.1922857002355,377.1922857002355,377.1922857002355,377.1922857002355,377.1922857002355,377.1922857002355,None,None,None,353.99664520006627,353.99664520006627,354.99856049986556,357.0861428999342,,368.25803080014884,,,,,,,,,,,,,,,16,001,2024-09-10_10h33.36.515,robot_cogshifting_sign,2022.2.5,59.86324838550586,
"['R_Base_X_Back', 'L_Torso_X_For', 'R_Torso_X_For', 'R_Torso_Z_For']","{'laterality': 'L_Torso_X_For', 'localisation': 'R_Base_X_Back', 'movement': 'R_Torso_Z_For'}",laterality,"['laterality', 'localisation', 'movement']",L_Torso_X_For,1,3,robot,2,False,True,"['robot_stimuli\\R_Base_X_Back.mp4', 'robot_stimuli\\L_Torso_X_For.mp4', 'robot_stimuli\\R_Torso_X_For.mp4', 'robot_stimuli\\R_Torso_Z_For.mp4']",robot_stimuli\L_Torso_X_For.mp4,16,0,0,0,0,0,17,17,17,,,,,,,,,,,,,,,,,,,,,377.1922857002355,377.1922857002355,None,,377.1922857002355,378.1942691998556,,,395.12761100009084,395.12761100009084,395.12761100009084,1,4.246241999790072,399.4360764999874,402.42532970011234,399.4360764999874,402.42532970011234,399.4360764999874,402.42532970011234,399.4360764999874,402.42532970011234,85.31746031746033,2.6350606996566057,space,377.1922857002355,377.1922857002355,378.1942691998556,380.2817450002767,2.937797799706459,391.4704158999957,,,,,,,,,,,,,,,16,001,2024-09-10_10h33.36.515,robot_cogshifting_sign,2022.2.5,59.86324838550586,
,,,,,,,,,,,,,,0,0,0,0,,,,,,,,,,,,,,,,,,,,,,,,,,,,,,,,,,,,,,,,,,,,,,,,,,,,,,,402.42532970011234,402.42532970011234,402.42532970011234,c,40.36431080009788,,,,,,,,,,16,001,2024-09-10_10h33.36.515,robot_cogshifting_sign,2022.2.5,59.86324838550586,
"['red_left_D_45', 'blue_left_G_45', 'red_right_B_45', 'red_left_K_0']","{'color': 'blue_left_G_45', 'position': 'red_right_B_45', 'orientation': 'red_left_K_0'}",color,"['color', 'orientation']",blue_left_G_45,1,2,letter,1,True,False,"['robot_stimuli\\\\filler.mp4', 'robot_stimuli\\\\filler.mp4', 'robot_stimuli\\\\filler.mp4', 'robot_stimuli\\\\filler.mp4']",robot_stimuli\\filler.mp4,16,,,,,,,,,,,,,0,0,0,0,,,,,,,,,,,,,,,,,,448.1820451999083,,,458.91984670003876,458.91984670003876,458.91984670003876,2,3.581631099805236,462.52692339988425,462.52692339988425,462.52692339988425,462.52692339988425,462.52692339988425,462.52692339988425,462.52692339988425,462.52692339988425,None,None,None,,,,,,,,,,,,442.85490310005844,442.85490310005844,space,5.310443500056863,456.89956649998203,458.91984670003876,,,,16,001,2024-09-10_10h33.36.515,robot_cogshifting_sign,2022.2.5,59.86324838550586,
"['blue_bottom_W_45', 'red_bottom_H_0', 'blue_right_P_0', 'blue_bottom_T_0']","{'color': 'red_bottom_H_0', 'position': 'blue_right_P_0', 'orientation': 'blue_bottom_W_45'}",orientation,"['orientation', 'position']",blue_bottom_W_45,0,2,letter,1,False,False,"['robot_stimuli\\\\filler.mp4', 'robot_stimuli\\\\filler.mp4', 'robot_stimuli\\\\filler.mp4', 'robot_stimuli\\\\filler.mp4']",robot_stimuli\\filler.mp4,16,,,,,,,,,,,,,0,1,1,1,,,,,,,,,,,,,,,,,,462.52692339988425,,,473.46512700011954,473.46512700011954,473.46512700011954,1,1.1483264998532832,474.6341038001701,474.6341038001701,474.6341038001701,474.6341038001701,474.6341038001701,474.6341038001701,474.6341038001701,474.6341038001701,None,None,None,,,,464.59769929992035,,,,,,,,462.52692339988425,462.52692339988425,None,,471.24423470022157,473.46512700011954,462.52692339988425,462.52692339988425,,16,001,2024-09-10_10h33.36.515,robot_cogshifting_sign,2022.2.5,59.86324838550586,
"['red_left_P_45', 'red_left_Z_0', 'blue_left_B_45', 'red_right_S_45']","{'color': 'blue_left_B_45', 'position': 'red_right_S_45', 'orientation': 'red_left_Z_0'}",position,"['orientation', 'position']",red_right_S_45,3,2,letter,1,False,False,"['robot_stimuli\\\\filler.mp4', 'robot_stimuli\\\\filler.mp4', 'robot_stimuli\\\\filler.mp4', 'robot_stimuli\\\\filler.mp4']",robot_stimuli\\filler.mp4,16,,,,,,,,,,,,,0,2,2,2,,,,,,,,,,,,,,,,,,474.6341038001701,,,485.57232040027156,485.57232040027156,485.57232040027156,4,1.729212500154972,487.3257937999442,487.3257937999442,487.3257937999442,487.3257937999442,487.3257937999442,487.3257937999442,487.3257937999442,487.3257937999442,None,None,None,,,,476.70486770011485,,,,,,,,474.6341038001701,474.6341038001701,None,,483.36818480025977,485.57232040027156,474.6341038001701,474.6341038001701,,16,001,2024-09-10_10h33.36.515,robot_cogshifting_sign,2022.2.5,59.86324838550586,
"['red_bottom_K_0', 'red_top_D_45', 'blue_bottom_Q_45', 'red_bottom_N_45']","{'color': 'blue_bottom_Q_45', 'position': 'red_top_D_45', 'orientation': 'red_bottom_K_0'}",orientation,"['orientation', 'position']",red_bottom_K_0,0,2,letter,1,False,False,"['robot_stimuli\\\\filler.mp4', 'robot_stimuli\\\\filler.mp4', 'robot_stimuli\\\\filler.mp4', 'robot_stimuli\\\\filler.mp4']",robot_stimuli\\filler.mp4,16,,,,,,,,,,,,,0,3,3,3,,,,,,,,,,,,,,,,,,487.3257937999442,,,497.8631807002239,497.8631807002239,497.8631807002239,1,3.0626521999947727,500.9525711000897,500.9525711000897,500.9525711000897,500.9525711000897,500.9525711000897,500.9525711000897,500.9525711000897,500.9525711000897,None,None,None,,,,489.3965460001491,,,,,,,,487.3257937999442,487.3257937999442,None,,495.8426288999617,497.8631807002239,487.3257937999442,487.3257937999442,,16,001,2024-09-10_10h33.36.515,robot_cogshifting_sign,2022.2.5,59.86324838550586,
"['red_top_K_45', 'blue_top_X_45', 'blue_left_S_45', 'blue_top_J_0']","{'color': 'red_top_K_45', 'position': 'blue_left_S_45', 'orientation': 'blue_top_J_0'}",orientation,"['color', 'orientation']",blue_top_J_0,3,2,letter,1,False,False,"['robot_stimuli\\\\filler.mp4', 'robot_stimuli\\\\filler.mp4', 'robot_stimuli\\\\filler.mp4', 'robot_stimuli\\\\filler.mp4']",robot_stimuli\\filler.mp4,16,,,,,,,,,,,,,0,4,4,4,,,,,,,,,,,,,,,,,,500.9525711000897,,,511.67370369983837,511.67370369983837,511.67370369983837,4,1.517041299957782,513.2100507002324,513.2100507002324,513.2100507002324,513.2100507002324,513.2100507002324,513.2100507002324,513.2100507002324,513.2100507002324,None,None,None,,,,503.00665700016543,,,,,,,,500.9525711000897,500.9525711000897,None,,509.65373530006036,511.67370369983837,500.9525711000897,500.9525711000897,,16,001,2024-09-10_10h33.36.515,robot_cogshifting_sign,2022.2.5,59.86324838550586,
"['red_left_V_45', 'red_left_P_0', 'blue_left_F_45', 'red_top_Q_45']","{'color': 'blue_left_F_45', 'position': 'red_top_Q_45', 'orientation': 'red_left_P_0'}",position,"['orientation', 'position']",red_top_Q_45,3,2,letter,1,False,False,"['robot_stimuli\\\\filler.mp4', 'robot_stimuli\\\\filler.mp4', 'robot_stimuli\\\\filler.mp4', 'robot_stimuli\\\\filler.mp4']",robot_stimuli\\filler.mp4,16,,,,,,,,,,,,,0,5,5,5,,,,,,,,,,,,,,,,,,513.2100507002324,,,524.1482402998954,524.1482402998954,524.1482402998954,4,0.9370182999409735,525.1168165998533,525.1168165998533,525.1168165998533,525.1168165998533,525.1168165998533,525.1168165998533,525.1168165998533,525.1168165998533,None,None,None,,,,515.2808408001438,,,,,,,,513.2100507002324,513.2100507002324,None,,522.1118872999214,524.1482402998954,513.2100507002324,513.2100507002324,,16,001,2024-09-10_10h33.36.515,robot_cogshifting_sign,2022.2.5,59.86324838550586,
"['blue_bottom_F_45', 'blue_bottom_L_0', 'red_bottom_V_0', 'blue_left_C_0']","{'color': 'red_bottom_V_0', 'position': 'blue_left_C_0', 'orientation': 'blue_bottom_F_45'}",position,"['color', 'position']",blue_left_C_0,3,2,letter,1,False,False,"['robot_stimuli\\\\filler.mp4', 'robot_stimuli\\\\filler.mp4', 'robot_stimuli\\\\filler.mp4', 'robot_stimuli\\\\filler.mp4']",robot_stimuli\\filler.mp4,16,,,,,,,,,,,,,0,6,6,6,,,,,,,,,,,,,,,,,,525.1168165998533,,,536.2554390002042,536.2554390002042,536.2554390002042,4,1.3020060998387635,537.5746993999928,537.5746993999928,537.5746993999928,537.5746993999928,537.5746993999928,537.5746993999928,537.5746993999928,537.5746993999928,None,None,None,,,,527.1876341002062,,,,,,,,525.1168165998533,525.1168165998533,None,,534.034375499934,536.2554390002042,525.1168165998533,525.1168165998533,,16,001,2024-09-10_10h33.36.515,robot_cogshifting_sign,2022.2.5,59.86324838550586,
"['red_top_G_45', 'red_top_R_0', 'blue_top_P_0', 'red_bottom_K_0']","{'color': 'blue_top_P_0', 'position': 'red_bottom_K_0', 'orientation': 'red_top_G_45'}",color,"['color', 'orientation']",blue_top_P_0,2,2,letter,1,False,False,"['robot_stimuli\\\\filler.mp4', 'robot_stimuli\\\\filler.mp4', 'robot_stimuli\\\\filler.mp4', 'robot_stimuli\\\\filler.mp4']",robot_stimuli\\filler.mp4,16,,,,,,,,,,,,,0,7,7,7,,,,,,,,,,,,,,,,,,537.5746993999928,,,548.3125185002573,548.3125185002573,548.3125185002573,3,1.1326564000919461,549.464767599944,549.464767599944,549.464767599944,549.464767599944,549.464767599944,549.464767599944,549.464767599944,549.464767599944,None,None,None,,,,539.6454632999375,,,,,,,,537.5746993999928,537.5746993999928,None,,546.2918501002714,548.3125185002573,537.5746993999928,537.5746993999928,,16,001,2024-09-10_10h33.36.515,robot_cogshifting_sign,2022.2.5,59.86324838550586,
"['red_left_T_45', 'red_top_V_45', 'red_top_K_0', 'blue_top_X_45']","{'color': 'blue_top_X_45', 'position': 'red_left_T_45', 'orientation': 'red_top_K_0'}",color,"['color', 'position']",blue_top_X_45,3,2,letter,1,False,True,"['robot_stimuli\\\\filler.mp4', 'robot_stimuli\\\\filler.mp4', 'robot_stimuli\\\\filler.mp4', 'robot_stimuli\\\\filler.mp4']",robot_stimuli\\filler.mp4,16,,,,,,,,,,,,,0,8,8,8,,,,,,,,,,,,,,,,,,549.464767599944,,,560.2025771001354,560.2025771001354,560.2025771001354,4,1.018184400163591,561.2713267002255,566.2311014998704,561.2713267002255,566.2311014998704,561.2713267002255,566.2311014998704,561.2713267002255,566.2311014998704,24.52380952380952,4.301953199785203,space,,,,551.5355533002876,4.902131900191307,,,,,,,549.464767599944,549.464767599944,None,,557.981564800255,560.2025771001354,549.464767599944,549.464767599944,,16,001,2024-09-10_10h33.36.515,robot_cogshifting_sign,2022.2.5,59.86324838550586,
"['red_left_J_0', 'red_left_Z_45', 'red_right_S_0', 'blue_left_J_0']","{'color': 'blue_left_J_0', 'position': 'red_right_S_0', 'orientation': 'red_left_Z_45'}",color,"['color', 'orientation', 'position']",blue_left_J_0,3,3,letter,1,True,False,"['robot_stimuli\\\\filler.mp4', 'robot_stimuli\\\\filler.mp4', 'robot_stimuli\\\\filler.mp4', 'robot_stimuli\\\\filler.mp4']",robot_stimuli\\filler.mp4,16,,,,,,,,,,,,,0,9,9,9,,,,,,,,,,,,,,,,,,567.3666500002146,,,578.1044808002189,578.1044808002189,578.1044808002189,4,1.7645120997913182,579.8913422999904,579.8913422999904,579.8913422999904,579.8913422999904,579.8913422999904,579.8913422999904,579.8913422999904,579.8913422999904,None,None,None,,,,,,,,,,,,566.2311014998704,566.2311014998704,space,1.1183075997978449,575.8834930001758,578.1044808002189,,,,16,001,2024-09-10_10h33.36.515,robot_cogshifting_sign,2022.2.5,59.86324838550586,
"['blue_left_Q_45', 'blue_right_K_0', 'blue_left_W_0', 'red_left_M_0']","{'color': 'red_left_M_0', 'position': 'blue_right_K_0', 'orientation': 'blue_left_Q_45'}",position,"['color', 'orientation', 'position']",blue_right_K_0,1,3,letter,1,False,False,"['robot_stimuli\\\\filler.mp4', 'robot_stimuli\\\\filler.mp4', 'robot_stimuli\\\\filler.mp4', 'robot_stimuli\\\\filler.mp4']",robot_stimuli\\filler.mp4,16,,,,,,,,,,,,,0,10,10,10,,,,,,,,,,,,,,,,,,579.8913422999904,,,590.6458282000385,590.6458282000385,590.6458282000385,2,2.7994360998272896,593.468042800203,593.468042800203,593.468042800203,593.468042800203,593.468042800203,593.468042800203,593.468042800203,593.468042800203,None,None,None,,,,581.9620779999532,,,,,,,,579.8913422999904,579.8913422999904,None,,588.6252286001109,590.6458282000385,579.8913422999904,579.8913422999904,,16,001,2024-09-10_10h33.36.515,robot_cogshifting_sign,2022.2.5,59.86324838550586,
"['blue_left_C_0', 'red_left_Q_45', 'blue_left_M_45', 'blue_bottom_S_45']","{'color': 'red_left_Q_45', 'position': 'blue_bottom_S_45', 'orientation': 'blue_left_C_0'}",position,"['color', 'orientation', 'position']",blue_bottom_S_45,3,3,letter,1,False,False,"['robot_stimuli\\\\filler.mp4', 'robot_stimuli\\\\filler.mp4', 'robot_stimuli\\\\filler.mp4', 'robot_stimuli\\\\filler.mp4']",robot_stimuli\\filler.mp4,16,,,,,,,,,,,,,0,11,11,11,,,,,,,,,,,,,,,,,,593.468042800203,,,603.8217724002898,603.8217724002898,603.8217724002898,4,1.4720732001587749,605.3247223002836,605.3247223002836,605.3247223002836,605.3247223002836,605.3247223002836,605.3247223002836,605.3247223002836,605.3247223002836,None,None,None,,,,595.5221301000565,,,,,,,,593.468042800203,593.468042800203,None,,601.7845844002441,603.8217724002898,593.468042800203,593.468042800203,,16,001,2024-09-10_10h33.36.515,robot_cogshifting_sign,2022.2.5,59.86324838550586,
"['blue_right_S_45', 'blue_top_N_0', 'blue_top_K_45', 'red_top_X_45']","{'color': 'red_top_X_45', 'position': 'blue_right_S_45', 'orientation': 'blue_top_N_0'}",position,"['color', 'orientation', 'position']",blue_right_S_45,0,3,letter,1,False,False,"['robot_stimuli\\\\filler.mp4', 'robot_stimuli\\\\filler.mp4', 'robot_stimuli\\\\filler.mp4', 'robot_stimuli\\\\filler.mp4']",robot_stimuli\\filler.mp4,16,,,,,,,,,,,,,0,12,12,12,,,,,,,,,,,,,,,,,,605.3247223002836,,,616.4632955999114,616.4632955999114,616.4632955999114,1,2.1663238001056015,618.6509807999246,618.6509807999246,618.6509807999246,618.6509807999246,618.6509807999246,618.6509807999246,618.6509807999246,618.6509807999246,None,None,None,,,,607.3955280999653,,,,,,,,605.3247223002836,605.3247223002836,None,,614.2590187001042,616.4632955999114,605.3247223002836,605.3247223002836,,16,001,2024-09-10_10h33.36.515,robot_cogshifting_sign,2022.2.5,59.86324838550586,
"['blue_bottom_J_45', 'red_left_S_45', 'blue_left_C_0', 'blue_left_D_45']","{'color': 'red_left_S_45', 'position': 'blue_bottom_J_45', 'orientation': 'blue_left_C_0'}",color,"['color', 'orientation', 'position']",red_left_S_45,1,3,letter,1,False,False,"['robot_stimuli\\\\filler.mp4', 'robot_stimuli\\\\filler.mp4', 'robot_stimuli\\\\filler.mp4', 'robot_stimuli\\\\filler.mp4']",robot_stimuli\\filler.mp4,16,,,,,,,,,,,,,0,13,13,13,,,,,,,,,,,,,,,,,,618.6509807999246,,,629.4054451999255,629.4054451999255,629.4054451999255,2,2.0801582001149654,631.5096533000469,631.5096533000469,631.5096533000469,631.5096533000469,631.5096533000469,631.5096533000469,631.5096533000469,631.5096533000469,None,None,None,,,,620.7217846000567,,,,,,,,618.6509807999246,618.6509807999246,None,,627.1844800002873,629.4054451999255,618.6509807999246,618.6509807999246,,16,001,2024-09-10_10h33.36.515,robot_cogshifting_sign,2022.2.5,59.86324838550586,
"['red_bottom_C_45', 'red_bottom_W_0', 'red_top_X_0', 'blue_bottom_M_0']","{'color': 'blue_bottom_M_0', 'position': 'red_top_X_0', 'orientation': 'red_bottom_C_45'}",orientation,"['color', 'orientation', 'position']",red_bottom_C_45,0,3,letter,1,False,False,"['robot_stimuli\\\\filler.mp4', 'robot_stimuli\\\\filler.mp4', 'robot_stimuli\\\\filler.mp4', 'robot_stimuli\\\\filler.mp4']",robot_stimuli\\filler.mp4,16,,,,,,,,,,,,,0,14,14,14,,,,,,,,,,,,,,,,,,631.5096533000469,,,642.0469809002243,642.0469809002243,642.0469809002243,1,1.6303715999238193,643.7002611001953,643.7002611001953,643.7002611001953,643.7002611001953,643.7002611001953,643.7002611001953,643.7002611001953,643.7002611001953,None,None,None,,,,633.5641608000733,,,,,,,,631.5096533000469,631.5096533000469,None,,639.8260185001418,642.0469809002243,631.5096533000469,631.5096533000469,,16,001,2024-09-10_10h33.36.515,robot_cogshifting_sign,2022.2.5,59.86324838550586,
"['blue_top_K_0', 'red_bottom_R_0', 'red_top_G_0', 'red_top_F_45']","{'color': 'blue_top_K_0', 'position': 'red_bottom_R_0', 'orientation': 'red_top_F_45'}",orientation,"['color', 'orientation', 'position']",red_top_F_45,3,3,letter,1,False,False,"['robot_stimuli\\\\filler.mp4', 'robot_stimuli\\\\filler.mp4', 'robot_stimuli\\\\filler.mp4', 'robot_stimuli\\\\filler.mp4']",robot_stimuli\\filler.mp4,16,,,,,,,,,,,,,0,15,15,15,,,,,,,,,,,,,,,,,,643.7002611001953,,,654.4380494002253,654.4380494002253,654.4380494002253,4,1.095155999995768,655.5569342002273,655.5569342002273,655.5569342002273,655.5569342002273,655.5569342002273,655.5569342002273,655.5569342002273,655.5569342002273,None,None,None,,,,645.771012400277,,,,,,,,643.7002611001953,643.7002611001953,None,,652.2170624001883,654.4380494002253,643.7002611001953,643.7002611001953,,16,001,2024-09-10_10h33.36.515,robot_cogshifting_sign,2022.2.5,59.86324838550586,
"['blue_left_M_45', 'red_left_K_0', 'red_left_V_45', 'red_top_S_45']","{'color': 'blue_left_M_45', 'position': 'red_top_S_45', 'orientation': 'red_left_K_0'}",orientation,"['color', 'orientation', 'position']",red_left_K_0,1,3,letter,1,False,False,"['robot_stimuli\\\\filler.mp4', 'robot_stimuli\\\\filler.mp4', 'robot_stimuli\\\\filler.mp4', 'robot_stimuli\\\\filler.mp4']",robot_stimuli\\filler.mp4,16,,,,,,,,,,,,,0,16,16,16,,,,,,,,,,,,,,,,,,655.5569342002273,,,666.2780432002619,666.2780432002619,666.2780432002619,2,1.9125008000992239,668.215197800193,668.215197800193,668.215197800193,668.215197800193,668.215197800193,668.215197800193,668.215197800193,668.215197800193,None,None,None,,,,657.6277212002315,,,,,,,,655.5569342002273,655.5569342002273,None,,664.2575270002708,666.2780432002619,655.5569342002273,655.5569342002273,,16,001,2024-09-10_10h33.36.515,robot_cogshifting_sign,2022.2.5,59.86324838550586,
"['red_bottom_Q_45', 'blue_left_R_45', 'blue_bottom_W_45', 'blue_bottom_D_0']","{'color': 'red_bottom_Q_45', 'position': 'blue_left_R_45', 'orientation': 'blue_bottom_D_0'}",color,"['color', 'orientation', 'position']",red_bottom_Q_45,0,3,letter,1,False,True,"['robot_stimuli\\\\filler.mp4', 'robot_stimuli\\\\filler.mp4', 'robot_stimuli\\\\filler.mp4', 'robot_stimuli\\\\filler.mp4']",robot_stimuli\\filler.mp4,16,,,,,,,,,,,,,0,17,17,17,,,,,,,,,,,,,,,,,,668.215197800193,,,678.7526356000453,678.7526356000453,678.7526356000453,1,2.2925545000471175,681.1239415998571,684.8145216000266,681.1239415998571,684.8145216000266,681.1239415998571,684.8145216000266,681.1239415998571,684.8145216000266,44.2063492063492,3.0830994001589715,space,,,,670.2692756000906,3.6093668998219073,,,,,,,668.215197800193,668.215197800193,None,,676.5316145000979,678.7526356000453,668.215197800193,668.215197800193,,16,001,2024-09-10_10h33.36.515,robot_cogshifting_sign,2022.2.5,59.86324838550586,
"['red_right_W_45', 'red_left_B_45', 'red_left_X_0', 'blue_left_D_45']","{'color': 'blue_left_D_45', 'position': 'red_right_W_45', 'orientation': 'red_left_X_0'}",orientation,['orientation'],red_left_X_0,2,1,letter,1,True,False,"['robot_stimuli\\\\filler.mp4', 'robot_stimuli\\\\filler.mp4', 'robot_stimuli\\\\filler.mp4', 'robot_stimuli\\\\filler.mp4']",robot_stimuli\\filler.mp4,16,,,,,,,,,,,,,0,18,18,18,,,,,,,,,,,,,,,,,,688.1043246998452,,,698.4413598002866,698.4413598002866,698.4413598002866,3,0.3804828003048897,698.8421414000914,698.8421414000914,698.8421414000914,698.8421414000914,698.8421414000914,698.8421414000914,698.8421414000914,698.8421414000914,None,None,None,,,,,,,,,,,,684.8145216000266,684.8145216000266,space,3.2708622999489307,696.420783100184,698.4413598002866,,,,16,001,2024-09-10_10h33.36.515,robot_cogshifting_sign,2022.2.5,59.86324838550586,
"['red_top_B_0', 'red_left_J_45', 'blue_top_J_45', 'red_top_Z_45']","{'color': 'blue_top_J_45', 'position': 'red_left_J_45', 'orientation': 'red_top_B_0'}",color,['color'],blue_top_J_45,2,1,letter,1,False,False,"['robot_stimuli\\\\filler.mp4', 'robot_stimuli\\\\filler.mp4', 'robot_stimuli\\\\filler.mp4', 'robot_stimuli\\\\filler.mp4']",robot_stimuli\\filler.mp4,16,,,,,,,,,,,,,0,19,19,19,,,,,,,,,,,,,,,,,,698.8421414000914,,,709.7803616998717,709.7803616998717,709.7803616998717,3,0.48884049989283085,710.2982791000977,710.2982791000977,710.2982791000977,710.2982791000977,710.2982791000977,710.2982791000977,710.2982791000977,710.2982791000977,None,None,None,,,,700.912896099966,,,,,,,,698.8421414000914,698.8421414000914,None,,707.7598403999582,709.7803616998717,698.8421414000914,698.8421414000914,,16,001,2024-09-10_10h33.36.515,robot_cogshifting_sign,2022.2.5,59.86324838550586,
"['red_bottom_P_0', 'blue_top_T_0', 'red_top_J_0', 'red_top_D_45']","{'color': 'blue_top_T_0', 'position': 'red_bottom_P_0', 'orientation': 'red_top_D_45'}",position,['position'],red_bottom_P_0,0,1,letter,1,False,False,"['robot_stimuli\\\\filler.mp4', 'robot_stimuli\\\\filler.mp4', 'robot_stimuli\\\\filler.mp4', 'robot_stimuli\\\\filler.mp4']",robot_stimuli\\filler.mp4,16,,,,,,,,,,,,,0,20,20,20,,,,,,,,,,,,,,,,,,710.2982791000977,,,720.8354219999164,720.8354219999164,720.8354219999164,1,0.43433280009776354,721.2863435000181,721.2863435000181,721.2863435000181,721.2863435000181,721.2863435000181,721.2863435000181,721.2863435000181,721.2863435000181,None,None,None,,,,712.3689079000615,,,,,,,,710.2982791000977,710.2982791000977,None,,718.8148396001197,720.8354219999164,710.2982791000977,710.2982791000977,,16,001,2024-09-10_10h33.36.515,robot_cogshifting_sign,2022.2.5,59.86324838550586,
"['blue_right_T_0', 'blue_top_M_0', 'blue_top_B_45', 'red_top_M_0']","{'color': 'red_top_M_0', 'position': 'blue_right_T_0', 'orientation': 'blue_top_B_45'}",color,['color'],red_top_M_0,3,1,letter,1,False,False,"['robot_stimuli\\\\filler.mp4', 'robot_stimuli\\\\filler.mp4', 'robot_stimuli\\\\filler.mp4', 'robot_stimuli\\\\filler.mp4']",robot_stimuli\\filler.mp4,16,,,,,,,,,,,,,0,21,21,21,,,,,,,,,,,,,,,,,,721.2863435000181,,,732.024081800133,732.024081800133,732.024081800133,4,0.26094819977879524,732.3080144999549,732.3080144999549,732.3080144999549,732.3080144999549,732.3080144999549,732.3080144999549,732.3080144999549,732.3080144999549,None,None,None,,,,723.357104900293,,,,,,,,721.2863435000181,721.2863435000181,None,,730.0035105999559,732.024081800133,721.2863435000181,721.2863435000181,,16,001,2024-09-10_10h33.36.515,robot_cogshifting_sign,2022.2.5,59.86324838550586,
"['blue_top_B_45', 'red_top_D_45', 'blue_top_J_0', 'blue_right_F_45']","{'color': 'red_top_D_45', 'position': 'blue_right_F_45', 'orientation': 'blue_top_J_0'}",position,['position'],blue_right_F_45,3,1,letter,1,False,False,"['robot_stimuli\\\\filler.mp4', 'robot_stimuli\\\\filler.mp4', 'robot_stimuli\\\\filler.mp4', 'robot_stimuli\\\\filler.mp4']",robot_stimuli\\filler.mp4,16,,,,,,,,,,,,,0,22,22,22,,,,,,,,,,,,,,,,,,732.3080144999549,,,742.862093300093,742.862093300093,742.862093300093,4,0.3347212001681328,743.2295190999284,743.2295190999284,743.2295190999284,743.2295190999284,743.2295190999284,743.2295190999284,743.2295190999284,743.2295190999284,None,None,None,,,,734.3787604998797,,,,,,,,732.3080144999549,732.3080144999549,None,,740.841547800228,742.862093300093,732.3080144999549,732.3080144999549,,16,001,2024-09-10_10h33.36.515,robot_cogshifting_sign,2022.2.5,59.86324838550586,
"['blue_bottom_P_45', 'blue_top_K_45', 'blue_bottom_B_0', 'red_bottom_R_45']","{'color': 'red_bottom_R_45', 'position': 'blue_top_K_45', 'orientation': 'blue_bottom_B_0'}",color,['color'],red_bottom_R_45,3,1,letter,1,False,False,"['robot_stimuli\\\\filler.mp4', 'robot_stimuli\\\\filler.mp4', 'robot_stimuli\\\\filler.mp4', 'robot_stimuli\\\\filler.mp4']",robot_stimuli\\filler.mp4,16,,,,,,,,,,,,,0,23,23,23,,,,,,,,,,,,,,,,,,743.2295190999284,,,754.3847846998833,754.3847846998833,754.3847846998833,4,0.6599671998992562,755.0694931000471,755.0694931000471,755.0694931000471,755.0694931000471,755.0694931000471,755.0694931000471,755.0694931000471,755.0694931000471,None,None,None,,,,745.3003406999633,,,,,,,,743.2295190999284,743.2295190999284,None,,752.1639169999398,754.3847846998833,743.2295190999284,743.2295190999284,,16,001,2024-09-10_10h33.36.515,robot_cogshifting_sign,2022.2.5,59.86324838550586,
"['red_top_G_45', 'red_left_M_45', 'red_left_M_0', 'blue_left_Z_45']","{'color': 'blue_left_Z_45', 'position': 'red_top_G_45', 'orientation': 'red_left_M_0'}",position,['position'],red_top_G_45,0,1,letter,1,False,False,"['robot_stimuli\\\\filler.mp4', 'robot_stimuli\\\\filler.mp4', 'robot_stimuli\\\\filler.mp4', 'robot_stimuli\\\\filler.mp4']",robot_stimuli\\filler.mp4,16,,,,,,,,,,,,,0,24,24,24,,,,,,,,,,,,,,,,,,755.0694931000471,,,765.8240010002628,765.8240010002628,765.8240010002628,1,0.5576868997886777,766.4084708001465,766.4084708001465,766.4084708001465,766.4084708001465,766.4084708001465,766.4084708001465,766.4084708001465,766.4084708001465,None,None,None,,,,757.1403481001034,,,,,,,,755.0694931000471,755.0694931000471,None,,763.8036564998329,765.8240010002628,755.0694931000471,755.0694931000471,,16,001,2024-09-10_10h33.36.515,robot_cogshifting_sign,2022.2.5,59.86324838550586,
"['blue_right_D_0', 'red_left_N_0', 'blue_left_T_45', 'blue_left_J_0']","{'color': 'red_left_N_0', 'position': 'blue_right_D_0', 'orientation': 'blue_left_T_45'}",orientation,['orientation'],blue_left_T_45,2,1,letter,1,False,False,"['robot_stimuli\\\\filler.mp4', 'robot_stimuli\\\\filler.mp4', 'robot_stimuli\\\\filler.mp4', 'robot_stimuli\\\\filler.mp4']",robot_stimuli\\filler.mp4,16,,,,,,,,,,,,,0,25,25,25,,,,,,,,,,,,,,,,,,766.4084708001465,,,777.1463510999456,777.1463510999456,777.1463510999456,3,1.5636670999228954,778.732752900105,778.732752900105,778.732752900105,778.732752900105,778.732752900105,778.732752900105,778.732752900105,778.732752900105,None,None,None,,,,768.4793016999029,,,,,,,,766.4084708001465,766.4084708001465,None,,775.1258719000034,777.1463510999456,766.4084708001465,766.4084708001465,,16,001,2024-09-10_10h33.36.515,robot_cogshifting_sign,2022.2.5,59.86324838550586,
"['red_bottom_Q_45', 'red_left_X_45', 'red_bottom_K_0', 'blue_bottom_G_45']","{'color': 'blue_bottom_G_45', 'position': 'red_left_X_45', 'orientation': 'red_bottom_K_0'}",orientation,['orientation'],red_bottom_K_0,2,1,letter,1,False,True,"['robot_stimuli\\\\filler.mp4', 'robot_stimuli\\\\filler.mp4', 'robot_stimuli\\\\filler.mp4', 'robot_stimuli\\\\filler.mp4']",robot_stimuli\\filler.mp4,16,,,,,,,,,,,,,0,26,26,26,,,,,,,,,,,,,,,,,,778.732752900105,,,789.0697443000972,789.0697443000972,789.0697443000972,3,0.34358990006148815,789.4704912998714,792.5098610999994,789.4704912998714,792.5098610999994,789.4704912998714,792.5098610999994,789.4704912998714,792.5098610999994,9.444444444444441,2.582098300103098,space,,,,780.7868546000682,2.96706539997831,,,,,,,778.732752900105,778.732752900105,None,,787.0491959000938,789.0697443000972,778.732752900105,778.732752900105,,16,001,2024-09-10_10h33.36.515,robot_cogshifting_sign,2022.2.5,59.86324838550586,
"['R_Arm_Z_For', 'L_Arm_Z_Back', 'R_Arm_X_Back', 'R_Base_Z_For']","{'laterality': 'L_Arm_Z_Back', 'localisation': 'R_Base_Z_For', 'movement': 'R_Arm_X_Back'}",laterality,"['laterality', 'movement']",L_Arm_Z_Back,1,2,robot,2,True,False,"['robot_stimuli\\R_Arm_Z_For.mp4', 'robot_stimuli\\L_Arm_Z_Back.mp4', 'robot_stimuli\\R_Arm_X_Back.mp4', 'robot_stimuli\\R_Base_Z_For.mp4']",robot_stimuli\L_Arm_Z_Back.mp4,16,,,,,,,,,,,,,0,27,27,27,,,,,,,,,,,,,,,,,,793.8458309001289,,,810.7457396001555,810.7457396001555,810.7457396001555,2,3.483883799985051,814.2526719002053,814.2526719002053,814.2526719002053,814.2526719002053,814.2526719002053,814.2526719002053,814.2526719002053,814.2526719002053,None,None,None,,,,,,,,,,,,792.5098610999994,792.5098610999994,space,1.318712200038135,,,,,807.1052778000012,16,001,2024-09-10_10h33.36.515,robot_cogshifting_sign,2022.2.5,59.86324838550586,
"['R_Head_X_Back', 'R_Torso_Y_For', 'L_Torso_X_For', 'R_Torso_X_For']","{'laterality': 'L_Torso_X_For', 'localisation': 'R_Head_X_Back', 'movement': 'R_Torso_Y_For'}",movement,"['localisation', 'movement']",R_Torso_Y_For,1,2,robot,2,False,False,"['robot_stimuli\\R_Head_X_Back.mp4', 'robot_stimuli\\R_Torso_Y_For.mp4', 'robot_stimuli\\L_Torso_X_For.mp4', 'robot_stimuli\\R_Torso_X_For.mp4']",robot_stimuli\R_Torso_Y_For.mp4,16,,,,,,,,,,,,,0,28,28,28,,,,,,,,,,,,,,,,,,814.2526719002053,,,831.1525866002776,831.1525866002776,831.1525866002776,2,1.0450307000428438,832.2213733000681,832.2213733000681,832.2213733000681,832.2213733000681,832.2213733000681,832.2213733000681,832.2213733000681,832.2213733000681,None,None,None,,,,816.3401724998839,,,,,,,,814.2526719002053,814.2526719002053,None,,,,814.2526719002053,814.2526719002053,827.4955214001238,16,001,2024-09-10_10h33.36.515,robot_cogshifting_sign,2022.2.5,59.86324838550586,
"['R_Arm_Y_For', 'R_Arm_Z_Back', 'R_Head_Z_Back', 'L_Arm_Z_Back']","{'laterality': 'L_Arm_Z_Back', 'localisation': 'R_Head_Z_Back', 'movement': 'R_Arm_Y_For'}",localisation,"['localisation', 'movement']",R_Head_Z_Back,2,2,robot,2,False,False,"['robot_stimuli\\R_Arm_Y_For.mp4', 'robot_stimuli\\R_Arm_Z_Back.mp4', 'robot_stimuli\\R_Head_Z_Back.mp4', 'robot_stimuli\\L_Arm_Z_Back.mp4']",robot_stimuli\R_Head_Z_Back.mp4,16,,,,,,,,,,,,,0,29,29,29,,,,,,,,,,,,,,,,,,832.2213733000681,,,848.9877098002471,848.9877098002471,848.9877098002471,3,1.0816323002800345,850.0898839002475,850.0898839002475,850.0898839002475,850.0898839002475,850.0898839002475,850.0898839002475,850.0898839002475,850.0898839002475,None,None,None,,,,834.3088219999336,,,,,,,,832.2213733000681,832.2213733000681,None,,,,832.2213733000681,832.2213733000681,845.3307276000269,16,001,2024-09-10_10h33.36.515,robot_cogshifting_sign,2022.2.5,59.86324838550586,
"['L_Torso_Y_For', 'R_Torso_X_For', 'R_Head_Y_For', 'R_Torso_Y_For']","{'laterality': 'L_Torso_Y_For', 'localisation': 'R_Head_Y_For', 'movement': 'R_Torso_X_For'}",laterality,"['laterality', 'localisation']",L_Torso_Y_For,0,2,robot,2,False,False,"['robot_stimuli\\L_Torso_Y_For.mp4', 'robot_stimuli\\R_Torso_X_For.mp4', 'robot_stimuli\\R_Head_Y_For.mp4', 'robot_stimuli\\R_Torso_Y_For.mp4']",robot_stimuli\L_Torso_Y_For.mp4,16,,,,,,,,,,,,,0,30,30,30,,,,,,,,,,,,,,,,,,850.0898839002475,,,866.9898186000064,866.9898186000064,866.9898186000064,1,1.0311271999962628,868.0418795002624,868.0418795002624,868.0418795002624,868.0418795002624,868.0418795002624,868.0418795002624,868.0418795002624,868.0418795002624,None,None,None,,,,852.177320800256,,,,,,,,850.0898839002475,850.0898839002475,None,,,,850.0898839002475,850.0898839002475,863.3325947001576,16,001,2024-09-10_10h33.36.515,robot_cogshifting_sign,2022.2.5,59.86324838550586,
"['L_Arm_Y_For', 'R_Arm_X_For', 'L_Torso_X_Back', 'L_Arm_X_For']","{'laterality': 'R_Arm_X_For', 'localisation': 'L_Torso_X_Back', 'movement': 'L_Arm_Y_For'}",movement,"['laterality', 'movement']",L_Arm_Y_For,0,2,robot,2,False,False,"['robot_stimuli\\L_Arm_Y_For.mp4', 'robot_stimuli\\R_Arm_X_For.mp4', 'robot_stimuli\\L_Torso_X_Back.mp4', 'robot_stimuli\\L_Arm_X_For.mp4']",robot_stimuli\L_Arm_Y_For.mp4,16,,,,,,,,,,,,,0,31,31,31,,,,,,,,,,,,,,,,,,868.0418795002624,,,884.9250917001627,884.9250917001627,884.9250917001627,3,1.6796568999998271,886.6285001998767,886.6285001998767,886.6285001998767,886.6285001998767,886.6285001998767,886.6285001998767,886.6285001998767,886.6285001998767,None,None,None,,,,870.1293281000108,,,,,,,,868.0418795002624,868.0418795002624,None,,,,868.0418795002624,868.0418795002624,881.2846090001985,16,001,2024-09-10_10h33.36.515,robot_cogshifting_sign,2022.2.5,59.86324838550586,
"['L_Arm_X_For', 'R_Arm_Y_Back', 'R_Head_X_For', 'R_Arm_X_Back']","{'laterality': 'L_Arm_X_For', 'localisation': 'R_Head_X_For', 'movement': 'R_Arm_Y_Back'}",localisation,"['laterality', 'localisation']",R_Head_X_For,2,2,robot,2,False,False,"['robot_stimuli\\L_Arm_X_For.mp4', 'robot_stimuli\\R_Arm_Y_Back.mp4', 'robot_stimuli\\R_Head_X_For.mp4', 'robot_stimuli\\R_Arm_X_Back.mp4']",robot_stimuli\R_Head_X_For.mp4,16,,,,,,,,,,,,,0,32,32,32,,,,,,,,,,,,,,,,,,886.6285001998767,,,903.5116639002226,903.5116639002226,903.5116639002226,3,1.6055862000212073,905.1482767001726,905.1482767001726,905.1482767001726,905.1482767001726,905.1482767001726,905.1482767001726,905.1482767001726,905.1482767001726,None,None,None,,,,888.6991918999702,,,,,,,,886.6285001998767,886.6285001998767,None,,,,886.6285001998767,886.6285001998767,899.8711967999116,16,001,2024-09-10_10h33.36.515,robot_cogshifting_sign,2022.2.5,59.86324838550586,
"['R_Arm_Z_For', 'R_Arm_X_Back', 'L_Arm_X_Back', 'R_Base_X_Back']","{'laterality': 'L_Arm_X_Back', 'localisation': 'R_Base_X_Back', 'movement': 'R_Arm_Z_For'}",movement,"['localisation', 'movement']",R_Arm_Z_For,0,2,robot,2,False,False,"['robot_stimuli\\R_Arm_Z_For.mp4', 'robot_stimuli\\R_Arm_X_Back.mp4', 'robot_stimuli\\L_Arm_X_Back.mp4', 'robot_stimuli\\R_Base_X_Back.mp4']",robot_stimuli\R_Arm_Z_For.mp4,16,,,,,,,,,,,,,0,33,33,33,,,,,,,,,,,,,,,,,,905.1482767001726,,,922.0481826001778,922.0481826001778,922.0481826001778,1,0.8847542000003159,922.9499929999001,922.9499929999001,922.9499929999001,922.9499929999001,922.9499929999001,922.9499929999001,922.9499929999001,922.9499929999001,None,None,None,,,,907.2357320999727,,,,,,,,905.1482767001726,905.1482767001726,None,,,,905.1482767001726,905.1482767001726,918.3909984999336,16,001,2024-09-10_10h33.36.515,robot_cogshifting_sign,2022.2.5,59.86324838550586,
"['R_Arm_X_For', 'L_Head_X_For', 'R_Head_Z_For', 'R_Head_X_For']","{'laterality': 'L_Head_X_For', 'localisation': 'R_Arm_X_For', 'movement': 'R_Head_Z_For'}",laterality,"['laterality', 'localisation']",L_Head_X_For,1,2,robot,2,False,False,"['robot_stimuli\\R_Arm_X_For.mp4', 'robot_stimuli\\L_Head_X_For.mp4', 'robot_stimuli\\R_Head_Z_For.mp4', 'robot_stimuli\\R_Head_X_For.mp4']",robot_stimuli\L_Head_X_For.mp4,16,,,,,,,,,,,,,0,34,34,34,,,,,,,,,,,,,,,,,,922.9499929999001,,,939.8164961999282,939.8164961999282,939.8164961999282,1,1.9641107004135847,941.8037017998286,941.8037017998286,941.8037017998286,941.8037017998286,941.8037017998286,941.8037017998286,941.8037017998286,941.8037017998286,None,None,None,,,,925.0373960998841,,,,,,,,922.9499929999001,922.9499929999001,None,,,,922.9499929999001,922.9499929999001,936.176002799999,16,001,2024-09-10_10h33.36.515,robot_cogshifting_sign,2022.2.5,59.86324838550586,
"['R_Base_Y_For', 'L_Base_Y_Back', 'L_Head_Y_For', 'L_Base_X_Back']","{'laterality': 'R_Base_Y_For', 'localisation': 'L_Head_Y_For', 'movement': 'L_Base_X_Back'}",localisation,"['localisation', 'movement']",L_Head_Y_For,2,2,robot,2,False,True,"['robot_stimuli\\R_Base_Y_For.mp4', 'robot_stimuli\\L_Base_Y_Back.mp4', 'robot_stimuli\\L_Head_Y_For.mp4', 'robot_stimuli\\L_Base_X_Back.mp4']",robot_stimuli\L_Head_Y_For.mp4,16,,,,,,,,,,,,,0,35,35,35,,,,,,,,,,,,,,,,,,941.8037017998286,,,958.5867515001446,958.5867515001446,958.5867515001446,3,0.8987670000642538,959.5386566002853,963.1123474999331,959.5386566002853,963.1123474999331,959.5386566002853,963.1123474999331,959.5386566002853,963.1123474999331,59.6031746031746,2.9149386999197304,space,,,,943.9078513002023,3.5142779001034796,,,,,,,941.8037017998286,941.8037017998286,None,,,,941.8037017998286,941.8037017998286,954.9797212998383,16,001,2024-09-10_10h33.36.515,robot_cogshifting_sign,2022.2.5,59.86324838550586,
"['R_Base_Y_For', 'R_Base_Z_For', 'R_Torso_Y_For', 'L_Base_Y_Back']","{'laterality': 'L_Base_Y_Back', 'localisation': 'R_Torso_Y_For', 'movement': 'R_Base_Z_For'}",laterality,['laterality'],L_Base_Y_Back,3,1,robot,2,True,False,"['robot_stimuli\\R_Base_Y_For.mp4', 'robot_stimuli\\R_Base_Z_For.mp4', 'robot_stimuli\\R_Torso_Y_For.mp4', 'robot_stimuli\\L_Base_Y_Back.mp4']",robot_stimuli\L_Base_Y_Back.mp4,16,,,,,,,,,,,,,0,36,36,36,,,,,,,,,,,,,,,,,,965.7341574998572,,,982.5673169000074,982.5673169000074,982.5673169000074,4,0.7654579998925328,983.3521890002303,983.3521890002303,983.3521890002303,983.3521890002303,983.3521890002303,983.3521890002303,983.3521890002303,983.3521890002303,None,None,None,,,,,,,,,,,,963.1123474999331,963.1123474999331,space,2.6044950000941753,,,,,978.9935997002758,16,001,2024-09-10_10h33.36.515,robot_cogshifting_sign,2022.2.5,59.86324838550586,
"['L_Torso_Z_Back', 'R_Arm_Z_For', 'L_Arm_Z_Back', 'L_Arm_X_Back']","{'laterality': 'R_Arm_Z_For', 'localisation': 'L_Torso_Z_Back', 'movement': 'L_Arm_X_Back'}",movement,['movement'],L_Arm_X_Back,3,1,robot,2,False,False,"['robot_stimuli\\L_Torso_Z_Back.mp4', 'robot_stimuli\\R_Arm_Z_For.mp4', 'robot_stimuli\\L_Arm_Z_Back.mp4', 'robot_stimuli\\L_Arm_X_Back.mp4']",robot_stimuli\L_Arm_X_Back.mp4,16,,,,,,,,,,,,,0,37,37,37,,,,,,,,,,,,,,,,,,983.3521890002303,,,1000.1185457999818,1000.1185457999818,1000.1185457999818,4,2.3103743996471167,1002.4564844998531,1002.4564844998531,1002.4564844998531,1002.4564844998531,1002.4564844998531,1002.4564844998531,1002.4564844998531,1002.4564844998531,None,None,None,,,,985.4563577002846,,,,,,,,983.3521890002303,983.3521890002303,None,,,,983.3521890002303,983.3521890002303,996.478009799961,16,001,2024-09-10_10h33.36.515,robot_cogshifting_sign,2022.2.5,59.86324838550586,
"['L_Arm_X_For', 'L_Base_X_Back', 'L_Arm_Y_For', 'R_Arm_X_For']","{'laterality': 'R_Arm_X_For', 'localisation': 'L_Base_X_Back', 'movement': 'L_Arm_Y_For'}",movement,['movement'],L_Arm_Y_For,2,1,robot,2,False,False,"['robot_stimuli\\L_Arm_X_For.mp4', 'robot_stimuli\\L_Base_X_Back.mp4', 'robot_stimuli\\L_Arm_Y_For.mp4', 'robot_stimuli\\R_Arm_X_For.mp4']",robot_stimuli\L_Arm_Y_For.mp4,16,,,,,,,,,,,,,0,38,38,38,,,,,,,,,,,,,,,,,,1002.4564844998531,,,1019.3230432001874,1019.3230432001874,1019.3230432001874,2,0.7546545998193324,1020.1078778002411,1020.1078778002411,1020.1078778002411,1020.1078778002411,1020.1078778002411,1020.1078778002411,1020.1078778002411,1020.1078778002411,None,None,None,,,,1004.5439094998874,,,,,,,,1002.4564844998531,1002.4564844998531,None,,,,1002.4564844998531,1002.4564844998531,1015.6825063000433,16,001,2024-09-10_10h33.36.515,robot_cogshifting_sign,2022.2.5,59.86324838550586,
"['R_Base_Y_For', 'L_Base_Y_For', 'R_Arm_Y_For', 'R_Base_Z_Back']","{'laterality': 'L_Base_Y_For', 'localisation': 'R_Arm_Y_For', 'movement': 'R_Base_Z_Back'}",localisation,['localisation'],R_Arm_Y_For,2,1,robot,2,False,False,"['robot_stimuli\\R_Base_Y_For.mp4', 'robot_stimuli\\L_Base_Y_For.mp4', 'robot_stimuli\\R_Arm_Y_For.mp4', 'robot_stimuli\\R_Base_Z_Back.mp4']",robot_stimuli\R_Arm_Y_For.mp4,16,,,,,,,,,,,,,0,39,39,39,,,,,,,,,,,,,,,,,,1020.1078778002411,,,1036.673843699973,1036.673843699973,1036.673843699973,3,0.7546811997890472,1037.4586987998337,1037.4586987998337,1037.4586987998337,1037.4586987998337,1037.4586987998337,1037.4586987998337,1037.4586987998337,1037.4586987998337,None,None,None,,,,1022.1953584998846,,,,,,,,1020.1078778002411,1020.1078778002411,None,,,,1020.1078778002411,1020.1078778002411,1033.116958099883,16,001,2024-09-10_10h33.36.515,robot_cogshifting_sign,2022.2.5,59.86324838550586,
"['L_Torso_Y_For', 'R_Arm_Y_For', 'R_Torso_X_For', 'R_Torso_Y_Back']","{'laterality': 'L_Torso_Y_For', 'localisation': 'R_Arm_Y_For', 'movement': 'R_Torso_X_For'}",laterality,['laterality'],L_Torso_Y_For,0,1,robot,2,False,False,"['robot_stimuli\\L_Torso_Y_For.mp4', 'robot_stimuli\\R_Arm_Y_For.mp4', 'robot_stimuli\\R_Torso_X_For.mp4', 'robot_stimuli\\R_Torso_Y_Back.mp4']",robot_stimuli\L_Torso_Y_For.mp4,16,,,,,,,,,,,,,0,40,40,40,,,,,,,,,,,,,,,,,,1037.4586987998337,,,1054.2250131000765,1054.2250131000765,1054.2250131000765,1,0.6524837999604642,1054.9097342002206,1054.9097342002206,1054.9097342002206,1054.9097342002206,1054.9097342002206,1054.9097342002206,1054.9097342002206,1054.9097342002206,None,None,None,,,,1039.5461868001148,,,,,,,,1037.4586987998337,1037.4586987998337,None,,,,1037.4586987998337,1037.4586987998337,1050.5845305002294,16,001,2024-09-10_10h33.36.515,robot_cogshifting_sign,2022.2.5,59.86324838550586,
"['L_Base_Z_Back', 'L_Base_X_Back', 'R_Base_Z_For', 'L_Head_Z_For']","{'laterality': 'R_Base_Z_For', 'localisation': 'L_Head_Z_For', 'movement': 'L_Base_X_Back'}",laterality,['laterality'],R_Base_Z_For,2,1,robot,2,False,False,"['robot_stimuli\\L_Base_Z_Back.mp4', 'robot_stimuli\\L_Base_X_Back.mp4', 'robot_stimuli\\R_Base_Z_For.mp4', 'robot_stimuli\\L_Head_Z_For.mp4']",robot_stimuli\R_Base_Z_For.mp4,16,,,,,,,,,,,,,0,41,41,41,,,,,,,,,,,,,,,,,,1054.9097342002206,,,1071.7595290001482,1071.7595290001482,1071.7595290001482,3,1.2613783003762364,1073.0454402002506,1073.0454402002506,1073.0454402002506,1073.0454402002506,1073.0454402002506,1073.0454402002506,1073.0454402002506,1073.0454402002506,None,None,None,,,,1056.9972055000253,,,,,,,,1054.9097342002206,1054.9097342002206,None,,,,1054.9097342002206,1054.9097342002206,1068.1357920002192,16,001,2024-09-10_10h33.36.515,robot_cogshifting_sign,2022.2.5,59.86324838550586,
"['R_Arm_Y_For', 'R_Arm_X_For', 'R_Base_X_Back', 'L_Arm_X_For']","{'laterality': 'L_Arm_X_For', 'localisation': 'R_Base_X_Back', 'movement': 'R_Arm_Y_For'}",movement,['movement'],R_Arm_Y_For,0,1,robot,2,False,False,"['robot_stimuli\\R_Arm_Y_For.mp4', 'robot_stimuli\\R_Arm_X_For.mp4', 'robot_stimuli\\R_Base_X_Back.mp4', 'robot_stimuli\\L_Arm_X_For.mp4']",robot_stimuli\R_Arm_Y_For.mp4,16,,,,,,,,,,,,,0,42,42,42,,,,,,,,,,,,,,,,,,1073.0454402002506,,,1089.7951047001407,1089.7951047001407,1089.7951047001407,2,5.297703900374472,1095.122238700278,1095.122238700278,1095.122238700278,1095.122238700278,1095.122238700278,1095.122238700278,1095.122238700278,1095.122238700278,None,None,None,,,,1075.1328644002788,,,,,,,,1073.0454402002506,1073.0454402002506,None,,,,1073.0454402002506,1073.0454402002506,1086.1712535000406,16,001,2024-09-10_10h33.36.515,robot_cogshifting_sign,2022.2.5,59.86324838550586,
"['R_Torso_Y_Back', 'L_Arm_Y_For', 'R_Arm_Z_Back', 'R_Arm_Y_For']","{'laterality': 'L_Arm_Y_For', 'localisation': 'R_Torso_Y_Back', 'movement': 'R_Arm_Z_Back'}",localisation,['localisation'],R_Torso_Y_Back,0,1,robot,2,False,False,"['robot_stimuli\\R_Torso_Y_Back.mp4', 'robot_stimuli\\L_Arm_Y_For.mp4', 'robot_stimuli\\R_Arm_Z_Back.mp4', 'robot_stimuli\\R_Arm_Y_For.mp4']",robot_stimuli\R_Torso_Y_Back.mp4,16,,,,,,,,,,,,,0,43,43,43,,,,,,,,,,,,,,,,,,1095.122238700278,,,1111.8885572999716,1111.8885572999716,1111.8885572999716,1,0.9563496001064777,1112.8738227002323,1112.8738227002323,1112.8738227002323,1112.8738227002323,1112.8738227002323,1112.8738227002323,1112.8738227002323,1112.8738227002323,None,None,None,,,,1097.2096930001862,,,,,,,,1095.122238700278,1095.122238700278,None,,,,1095.122238700278,1095.122238700278,1108.3816391001455,16,001,2024-09-10_10h33.36.515,robot_cogshifting_sign,2022.2.5,59.86324838550586,
"['L_Head_Y_For', 'R_Head_X_Back', 'R_Head_Y_Back', 'R_Base_Y_Back']","{'laterality': 'L_Head_Y_For', 'localisation': 'R_Base_Y_Back', 'movement': 'R_Head_X_Back'}",localisation,['localisation'],R_Base_Y_Back,3,1,robot,2,False,True,"['robot_stimuli\\L_Head_Y_For.mp4', 'robot_stimuli\\R_Head_X_Back.mp4', 'robot_stimuli\\R_Head_Y_Back.mp4', 'robot_stimuli\\R_Base_Y_Back.mp4']",robot_stimuli\R_Base_Y_Back.mp4,16,,,,,,,,,,,,,0,44,44,44,,,,,,,,,,,,,,,,,,1112.8738227002323,,,1129.7737449998967,1129.7737449998967,1129.7737449998967,4,1.463753200136125,1131.2934834999032,1135.4182110000402,1131.2934834999032,1135.4182110000402,1131.2934834999032,1135.4182110000402,1131.2934834999032,1135.4182110000402,30.873015873015877,3.132920299656689,space,,,,1114.9612524998374,4.054983000271022,,,,,,,1112.8738227002323,1112.8738227002323,None,,,,1112.8738227002323,1112.8738227002323,1126.1333238002844,16,001,2024-09-10_10h33.36.515,robot_cogshifting_sign,2022.2.5,59.86324838550586,
"['L_Base_X_For', 'R_Arm_X_For', 'L_Arm_X_For', 'L_Arm_Z_Back']","{'laterality': 'R_Arm_X_For', 'localisation': 'L_Base_X_For', 'movement': 'L_Arm_Z_Back'}",movement,"['laterality', 'localisation', 'movement']",L_Arm_Z_Back,3,3,robot,2,True,False,"['robot_stimuli\\L_Base_X_For.mp4', 'robot_stimuli\\R_Arm_X_For.mp4', 'robot_stimuli\\L_Arm_X_For.mp4', 'robot_stimuli\\L_Arm_Z_Back.mp4']",robot_stimuli\L_Arm_Z_Back.mp4,16,,,,,,,,,,,,,0,45,45,45,,,,,,,,,,,,,,,,,,1138.5076319002546,,,1155.3574787001126,1155.3574787001126,1155.3574787001126,4,1.1915378998965025,1156.5765398000367,1156.5765398000367,1156.5765398000367,1156.5765398000367,1156.5765398000367,1156.5765398000367,1156.5765398000367,1156.5765398000367,None,None,None,,,,,,,,,,,,1135.4182110000402,1135.4182110000402,space,3.0678301001898944,,,,,1151.7169683002867,16,001,2024-09-10_10h33.36.515,robot_cogshifting_sign,2022.2.5,59.86324838550586,
"['R_Arm_Y_Back', 'R_Arm_X_Back', 'R_Head_Y_For', 'L_Arm_Y_For']","{'laterality': 'L_Arm_Y_For', 'localisation': 'R_Head_Y_For', 'movement': 'R_Arm_X_Back'}",laterality,"['laterality', 'localisation', 'movement']",L_Arm_Y_For,3,3,robot,2,False,False,"['robot_stimuli\\R_Arm_Y_Back.mp4', 'robot_stimuli\\R_Arm_X_Back.mp4', 'robot_stimuli\\R_Head_Y_For.mp4', 'robot_stimuli\\L_Arm_Y_For.mp4']",robot_stimuli\L_Arm_Y_For.mp4,16,,,,,,,,,,,,,0,46,46,46,,,,,,,,,,,,,,,,,,1156.5765398000367,,,1173.476484300103,1173.476484300103,1173.476484300103,4,1.5530574000440538,1175.0462209000252,1175.0462209000252,1175.0462209000252,1175.0462209000252,1175.0462209000252,1175.0462209000252,1175.0462209000252,1175.0462209000252,None,None,None,,,,1158.6639610002749,,,,,,,,1156.5765398000367,1156.5765398000367,None,,,,1156.5765398000367,1156.5765398000367,1169.8192445002496,16,001,2024-09-10_10h33.36.515,robot_cogshifting_sign,2022.2.5,59.86324838550586,
"['R_Base_Z_Back', 'L_Base_Y_For', 'L_Torso_Z_Back', 'L_Base_Z_Back']","{'laterality': 'R_Base_Z_Back', 'localisation': 'L_Torso_Z_Back', 'movement': 'L_Base_Y_For'}",localisation,"['laterality', 'localisation', 'movement']",L_Torso_Z_Back,2,3,robot,2,False,False,"['robot_stimuli\\R_Base_Z_Back.mp4', 'robot_stimuli\\L_Base_Y_For.mp4', 'robot_stimuli\\L_Torso_Z_Back.mp4', 'robot_stimuli\\L_Base_Z_Back.mp4']",robot_stimuli\L_Torso_Z_Back.mp4,16,,,,,,,,,,,,,0,47,47,47,,,,,,,,,,,,,,,,,,1175.0462209000252,,,1191.6288573001511,1191.6288573001511,1191.6288573001511,2,4.384429599624127,1196.0375566002913,1196.0375566002913,1196.0375566002913,1196.0375566002913,1196.0375566002913,1196.0375566002913,1196.0375566002913,1196.0375566002913,None,None,None,,,,1177.1504124999046,,,,,,,,1175.0462209000252,1175.0462209000252,None,,,,1175.0462209000252,1175.0462209000252,1187.9883726001717,16,001,2024-09-10_10h33.36.515,robot_cogshifting_sign,2022.2.5,59.86324838550586,
"['L_Torso_X_For', 'R_Torso_Z_For', 'L_Head_Z_Back', 'L_Torso_Z_For']","{'laterality': 'R_Torso_Z_For', 'localisation': 'L_Head_Z_Back', 'movement': 'L_Torso_X_For'}",localisation,"['laterality', 'localisation', 'movement']",L_Head_Z_Back,2,3,robot,2,False,False,"['robot_stimuli\\L_Torso_X_For.mp4', 'robot_stimuli\\R_Torso_Z_For.mp4', 'robot_stimuli\\L_Head_Z_Back.mp4', 'robot_stimuli\\L_Torso_Z_For.mp4']",robot_stimuli\L_Head_Z_Back.mp4,16,,,,,,,,,,,,,0,48,48,48,,,,,,,,,,,,,,,,,,1196.0375566002913,,,1212.9541592001915,1212.9541592001915,1212.9541592001915,3,3.691253900062293,1216.6781798000447,1216.6781798000447,1216.6781798000447,1216.6781798000447,1216.6781798000447,1216.6781798000447,1216.6781798000447,1216.6781798000447,None,None,None,,,,1198.124996200204,,,,,,,,1196.0375566002913,1196.0375566002913,None,,,,1196.0375566002913,1196.0375566002913,1209.313712600153,16,001,2024-09-10_10h33.36.515,robot_cogshifting_sign,2022.2.5,59.86324838550586,
"['R_Arm_Y_Back', 'R_Base_Z_Back', 'R_Base_Y_Back', 'L_Base_Y_For']","{'laterality': 'L_Base_Y_For', 'localisation': 'R_Arm_Y_Back', 'movement': 'R_Base_Z_Back'}",laterality,"['laterality', 'localisation', 'movement']",L_Base_Y_For,3,3,robot,2,False,False,"['robot_stimuli\\R_Arm_Y_Back.mp4', 'robot_stimuli\\R_Base_Z_Back.mp4', 'robot_stimuli\\R_Base_Y_Back.mp4', 'robot_stimuli\\L_Base_Y_For.mp4']",robot_stimuli\L_Base_Y_For.mp4,16,,,,,,,,,,,,,0,49,49,49,,,,,,,,,,,,,,,,,,1216.6781798000447,,,1233.3613519999199,1233.3613519999199,1233.3613519999199,4,1.6439114999957383,1235.030976000242,1235.030976000242,1235.030976000242,1235.030976000242,1235.030976000242,1235.030976000242,1235.030976000242,1235.030976000242,None,None,None,,,,1218.7655994002707,,,,,,,,1216.6781798000447,1216.6781798000447,None,,,,1216.6781798000447,1216.6781798000447,1229.8374326000921,16,001,2024-09-10_10h33.36.515,robot_cogshifting_sign,2022.2.5,59.86324838550586,
"['L_Base_Y_Back', 'L_Torso_Z_Back', 'R_Base_Z_For', 'L_Base_Z_For']","{'laterality': 'R_Base_Z_For', 'localisation': 'L_Torso_Z_Back', 'movement': 'L_Base_Y_Back'}",laterality,"['laterality', 'localisation', 'movement']",R_Base_Z_For,2,3,robot,2,False,False,"['robot_stimuli\\L_Base_Y_Back.mp4', 'robot_stimuli\\L_Torso_Z_Back.mp4', 'robot_stimuli\\R_Base_Z_For.mp4', 'robot_stimuli\\L_Base_Z_For.mp4']",robot_stimuli\R_Base_Z_For.mp4,16,,,,,,,,,,,,,0,50,50,50,,,,,,,,,,,,,,,,,,1235.030976000242,,,1251.7138160001487,1251.7138160001487,1251.7138160001487,3,1.6103885998018086,1253.3503756001592,1253.3503756001592,1253.3503756001592,1253.3503756001592,1253.3503756001592,1253.3503756001592,1253.3503756001592,1253.3503756001592,None,None,None,,,,1237.1184590999037,,,,,,,,1235.030976000242,1235.030976000242,None,,,,1235.030976000242,1235.030976000242,1248.0733901001513,16,001,2024-09-10_10h33.36.515,robot_cogshifting_sign,2022.2.5,59.86324838550586,
"['R_Base_X_Back', 'L_Base_Z_For', 'L_Base_X_Back', 'L_Torso_X_Back']","{'laterality': 'R_Base_X_Back', 'localisation': 'L_Torso_X_Back', 'movement': 'L_Base_Z_For'}",localisation,"['laterality', 'localisation', 'movement']",L_Torso_X_Back,3,3,robot,2,False,False,"['robot_stimuli\\R_Base_X_Back.mp4', 'robot_stimuli\\L_Base_Z_For.mp4', 'robot_stimuli\\L_Base_X_Back.mp4', 'robot_stimuli\\L_Torso_X_Back.mp4']",robot_stimuli\L_Torso_X_Back.mp4,16,,,,,,,,,,,,,0,51,51,51,,,,,,,,,,,,,,,,,,1253.3503756001592,,,1270.2335963998921,1270.2335963998921,1270.2335963998921,4,2.9548178003169596,1273.2061228002422,1273.2061228002422,1273.2061228002422,1273.2061228002422,1273.2061228002422,1273.2061228002422,1273.2061228002422,1273.2061228002422,None,None,None,,,,1255.4378621000797,,,,,,,,1253.3503756001592,1253.3503756001592,None,,,,1253.3503756001592,1253.3503756001592,1266.5931036998518,16,001,2024-09-10_10h33.36.515,robot_cogshifting_sign,2022.2.5,59.86324838550586,
"['R_Base_Z_Back', 'L_Torso_Z_Back', 'L_Base_X_For', 'L_Base_Z_For']","{'laterality': 'R_Base_Z_Back', 'localisation': 'L_Torso_Z_Back', 'movement': 'L_Base_X_For'}",movement,"['laterality', 'localisation', 'movement']",L_Base_X_For,2,3,robot,2,False,False,"['robot_stimuli\\R_Base_Z_Back.mp4', 'robot_stimuli\\L_Torso_Z_Back.mp4', 'robot_stimuli\\L_Base_X_For.mp4', 'robot_stimuli\\L_Base_Z_For.mp4']",robot_stimuli\L_Base_X_For.mp4,16,,,,,,,,,,,,,0,52,52,52,,,,,,,,,,,,,,,,,,1273.2061228002422,,,1289.7720604999922,1289.7720604999922,1289.7720604999922,3,1.1684872000478208,1290.9577067000791,1290.9577067000791,1290.9577067000791,1290.9577067000791,1290.9577067000791,1290.9577067000791,1290.9577067000791,1290.9577067000791,None,None,None,,,,1275.293639200274,,,,,,,,1273.2061228002422,1273.2061228002422,None,,,,1273.2061228002422,1273.2061228002422,1286.1315836999565,16,001,2024-09-10_10h33.36.515,robot_cogshifting_sign,2022.2.5,59.86324838550586,
"['L_Torso_Y_Back', 'L_Base_Y_For', 'R_Torso_Y_For', 'L_Torso_Z_Back']","{'laterality': 'R_Torso_Y_For', 'localisation': 'L_Base_Y_For', 'movement': 'L_Torso_Z_Back'}",movement,"['laterality', 'localisation', 'movement']",L_Torso_Z_Back,3,3,robot,2,False,True,"['robot_stimuli\\L_Torso_Y_Back.mp4', 'robot_stimuli\\L_Base_Y_For.mp4', 'robot_stimuli\\R_Torso_Y_For.mp4', 'robot_stimuli\\L_Torso_Z_Back.mp4']",robot_stimuli\L_Torso_Z_Back.mp4,16,,,,,,,,,,,,,0,53,53,53,,,,,,,,,,,,,,,,,,1290.9577067000791,,,1307.4735909998417,1307.4735909998417,1307.4735909998417,4,1.3069688002578914,1308.842956600245,1312.800760900136,1308.842956600245,1312.800760900136,1308.842956600245,1312.800760900136,1308.842956600245,1312.800760900136,85.47619047619047,3.2352720997296274,space,,,,1293.0451619001105,3.882072400301695,,,,,,,1290.9577067000791,1290.9577067000791,None,,,,1290.9577067000791,1290.9577067000791,1303.9666618001647,16,001,2024-09-10_10h33.36.515,robot_cogshifting_sign,2022.2.5,59.86324838550586,
"['red_right_G_0', 'blue_right_Z_45', 'blue_right_G_0', 'blue_top_J_0']","{'color': 'red_right_G_0', 'position': 'blue_top_J_0', 'orientation': 'blue_right_Z_45'}",position,"['color', 'orientation', 'position']",blue_top_J_0,3,3,letter,3,True,False,"['robot_stimuli\\\\filler.mp4', 'robot_stimuli\\\\filler.mp4', 'robot_stimuli\\\\filler.mp4', 'robot_stimuli\\\\filler.mp4']",robot_stimuli\\filler.mp4,16,,,,,,,,,,,,,0,54,54,54,,,,,,,,,,,,,,,,,,1314.6710729999468,,,1325.208486100193,1325.208486100193,1325.208486100193,4,1.700483599677682,1326.9285515001975,1326.9285515001975,1326.9285515001975,1326.9285515001975,1326.9285515001975,1326.9285515001975,1326.9285515001975,1326.9285515001975,None,None,None,,,,,,,,,,,,1312.800760900136,1312.800760900136,space,1.8443325003609061,1323.1879568998702,1325.208486100193,,,,16,001,2024-09-10_10h33.36.515,robot_cogshifting_sign,2022.2.5,59.86324838550586,
"['blue_bottom_Q_0', 'red_bottom_L_0', 'red_right_K_0', 'red_bottom_P_45']","{'color': 'blue_bottom_Q_0', 'position': 'red_right_K_0', 'orientation': 'red_bottom_P_45'}",position,"['color', 'orientation', 'position']",red_right_K_0,2,3,letter,3,False,False,"['robot_stimuli\\\\filler.mp4', 'robot_stimuli\\\\filler.mp4', 'robot_stimuli\\\\filler.mp4', 'robot_stimuli\\\\filler.mp4']",robot_stimuli\\filler.mp4,16,,,,,,,,,,,,,0,55,55,55,,,,,,,,,,,,,,,,,,1326.9285515001975,,,1337.465969900135,1337.465969900135,1337.465969900135,3,1.6746644000522792,1339.1693374002352,1339.1693374002352,1339.1693374002352,1339.1693374002352,1339.1693374002352,1339.1693374002352,1339.1693374002352,1339.1693374002352,None,None,None,,,,1328.9826595000923,,,,,,,,1326.9285515001975,1326.9285515001975,None,,1335.4454097002745,1337.465969900135,1326.9285515001975,1326.9285515001975,,16,001,2024-09-10_10h33.36.515,robot_cogshifting_sign,2022.2.5,59.86324838550586,
"['red_left_C_0', 'red_left_K_45', 'red_top_N_0', 'blue_left_F_0']","{'color': 'blue_left_F_0', 'position': 'red_top_N_0', 'orientation': 'red_left_K_45'}",color,"['color', 'orientation', 'position']",blue_left_F_0,3,3,letter,3,False,False,"['robot_stimuli\\\\filler.mp4', 'robot_stimuli\\\\filler.mp4', 'robot_stimuli\\\\filler.mp4', 'robot_stimuli\\\\filler.mp4']",robot_stimuli\\filler.mp4,16,,,,,,,,,,,,,0,56,56,56,,,,,,,,,,,,,,,,,,1339.1693374002352,,,1349.9070855998434,1349.9070855998434,1349.9070855998434,4,1.785490000154823,1351.7106524002738,1351.7106524002738,1351.7106524002738,1351.7106524002738,1351.7106524002738,1351.7106524002738,1351.7106524002738,1351.7106524002738,None,None,None,,,,1341.223340000026,,,,,,,,1339.1693374002352,1339.1693374002352,None,,1347.686099300161,1349.9070855998434,1339.1693374002352,1339.1693374002352,,16,001,2024-09-10_10h33.36.515,robot_cogshifting_sign,2022.2.5,59.86324838550586,
"['red_bottom_B_0', 'red_right_X_0', 'red_bottom_X_45', 'blue_bottom_B_0']","{'color': 'blue_bottom_B_0', 'position': 'red_right_X_0', 'orientation': 'red_bottom_X_45'}",orientation,"['color', 'orientation', 'position']",red_bottom_X_45,2,3,letter,3,False,False,"['robot_stimuli\\\\filler.mp4', 'robot_stimuli\\\\filler.mp4', 'robot_stimuli\\\\filler.mp4', 'robot_stimuli\\\\filler.mp4']",robot_stimuli\\filler.mp4,16,,,,,,,,,,,,,0,57,57,57,,,,,,,,,,,,,,,,,,1351.7106524002738,,,1362.6655796002597,1362.6655796002597,1362.6655796002597,3,1.4991592997685075,1364.1852449001744,1364.1852449001744,1364.1852449001744,1364.1852449001744,1364.1852449001744,1364.1852449001744,1364.1852449001744,1364.1852449001744,None,None,None,,,,1353.7814294998534,,,,,,,,1351.7106524002738,1351.7106524002738,None,,1360.444596100133,1362.6655796002597,1351.7106524002738,1351.7106524002738,,16,001,2024-09-10_10h33.36.515,robot_cogshifting_sign,2022.2.5,59.86324838550586,
"['red_right_C_45', 'blue_right_G_45', 'red_right_Q_0', 'red_left_L_45']","{'color': 'blue_right_G_45', 'position': 'red_left_L_45', 'orientation': 'red_right_Q_0'}",color,"['color', 'orientation', 'position']",blue_right_G_45,1,3,letter,3,False,False,"['robot_stimuli\\\\filler.mp4', 'robot_stimuli\\\\filler.mp4', 'robot_stimuli\\\\filler.mp4', 'robot_stimuli\\\\filler.mp4']",robot_stimuli\\filler.mp4,16,,,,,,,,,,,,,0,58,58,58,,,,,,,,,,,,,,,,,,1364.1852449001744,,,1374.923021600116,1374.923021600116,1374.923021600116,2,1.497843200340867,1376.4426887999289,1376.4426887999289,1376.4426887999289,1376.4426887999289,1376.4426887999289,1376.4426887999289,1376.4426887999289,1376.4426887999289,None,None,None,,,,1366.2561113000847,,,,,,,,1364.1852449001744,1364.1852449001744,None,,1372.9024208001792,1374.923021600116,1364.1852449001744,1364.1852449001744,,16,001,2024-09-10_10h33.36.515,robot_cogshifting_sign,2022.2.5,59.86324838550586,
"['red_top_F_0', 'blue_left_S_0', 'red_left_J_45', 'red_left_M_0']","{'color': 'blue_left_S_0', 'position': 'red_top_F_0', 'orientation': 'red_left_J_45'}",color,"['color', 'orientation', 'position']",blue_left_S_0,1,3,letter,3,False,False,"['robot_stimuli\\\\filler.mp4', 'robot_stimuli\\\\filler.mp4', 'robot_stimuli\\\\filler.mp4', 'robot_stimuli\\\\filler.mp4']",robot_stimuli\\filler.mp4,16,,,,,,,,,,,,,0,59,59,59,,,,,,,,,,,,,,,,,,1376.4426887999289,,,1387.197165099904,1387.197165099904,1387.197165099904,2,1.1438219002448022,1388.366174200084,1388.366174200084,1388.366174200084,1388.366174200084,1388.366174200084,1388.366174200084,1388.366174200084,1388.366174200084,None,None,None,,,,1378.513481200207,,,,,,,,1376.4426887999289,1376.4426887999289,None,,1384.9762408998795,1387.197165099904,1376.4426887999289,1376.4426887999289,,16,001,2024-09-10_10h33.36.515,robot_cogshifting_sign,2022.2.5,59.86324838550586,
"['red_right_K_0', 'blue_right_P_0', 'blue_bottom_D_0', 'blue_right_N_45']","{'color': 'red_right_K_0', 'position': 'blue_bottom_D_0', 'orientation': 'blue_right_N_45'}",orientation,"['color', 'orientation', 'position']",blue_right_N_45,3,3,letter,3,False,False,"['robot_stimuli\\\\filler.mp4', 'robot_stimuli\\\\filler.mp4', 'robot_stimuli\\\\filler.mp4', 'robot_stimuli\\\\filler.mp4']",robot_stimuli\\filler.mp4,16,,,,,,,,,,,,,0,60,60,60,,,,,,,,,,,,,,,,,,1388.366174200084,,,1398.9035632000305,1398.9035632000305,1398.9035632000305,4,1.6529899002052844,1400.5735770999454,1400.5735770999454,1400.5735770999454,1400.5735770999454,1400.5735770999454,1400.5735770999454,1400.5735770999454,1400.5735770999454,None,None,None,,,,1390.4370128000155,,,,,,,,1388.366174200084,1388.366174200084,None,,1396.8829974001274,1398.9035632000305,1388.366174200084,1388.366174200084,,16,001,2024-09-10_10h33.36.515,robot_cogshifting_sign,2022.2.5,59.86324838550586,
"['blue_bottom_J_0', 'red_bottom_H_0', 'blue_bottom_L_45', 'blue_top_L_0']","{'color': 'red_bottom_H_0', 'position': 'blue_top_L_0', 'orientation': 'blue_bottom_L_45'}",position,"['color', 'orientation', 'position']",blue_top_L_0,3,3,letter,3,False,False,"['robot_stimuli\\\\filler.mp4', 'robot_stimuli\\\\filler.mp4', 'robot_stimuli\\\\filler.mp4', 'robot_stimuli\\\\filler.mp4']",robot_stimuli\\filler.mp4,16,,,,,,,,,,,,,0,61,61,61,,,,,,,,,,,,,,,,,,1400.5735770999454,,,1411.2946488000453,1411.2946488000453,1411.2946488000453,4,1.3348841001279652,1412.6473027002066,1412.6473027002066,1412.6473027002066,1412.6473027002066,1412.6473027002066,1412.6473027002066,1412.6473027002066,1412.6473027002066,None,None,None,,,,1402.6443087998778,,,,,,,,1400.5735770999454,1400.5735770999454,None,,1409.073623499833,1411.2946488000453,1400.5735770999454,1400.5735770999454,,16,001,2024-09-10_10h33.36.515,robot_cogshifting_sign,2022.2.5,59.86324838550586,
"['red_right_T_0', 'red_left_R_45', 'blue_right_F_45', 'red_right_L_45']","{'color': 'blue_right_F_45', 'position': 'red_left_R_45', 'orientation': 'red_right_T_0'}",orientation,"['color', 'orientation', 'position']",red_right_T_0,0,3,letter,3,False,True,"['robot_stimuli\\\\filler.mp4', 'robot_stimuli\\\\filler.mp4', 'robot_stimuli\\\\filler.mp4', 'robot_stimuli\\\\filler.mp4']",robot_stimuli\\filler.mp4,16,,,,,,,,,,,,,0,62,62,62,,,,,,,,,,,,,,,,,,1412.6473027002066,,,1423.3850722000934,1423.3850722000934,1423.3850722000934,1,1.5230458998121321,1424.9715860001743,1429.129713400267,1424.9715860001743,1429.129713400267,1424.9715860001743,1429.129713400267,1424.9715860001743,1429.129713400267,37.06349206349206,3.4665252999402583,space,,,,1414.7180906999856,4.097379600163549,,,,,,,1412.6473027002066,1412.6473027002066,None,,1421.3477376000956,1423.3850722000934,1412.6473027002066,1412.6473027002066,,16,001,2024-09-10_10h33.36.515,robot_cogshifting_sign,2022.2.5,59.86324838550586,
"['red_right_X_45', 'red_right_L_0', 'red_left_X_45', 'blue_right_J_45']","{'color': 'blue_right_J_45', 'position': 'red_left_X_45', 'orientation': 'red_right_L_0'}",color,['color'],blue_right_J_45,3,1,letter,3,True,False,"['robot_stimuli\\\\filler.mp4', 'robot_stimuli\\\\filler.mp4', 'robot_stimuli\\\\filler.mp4', 'robot_stimuli\\\\filler.mp4']",robot_stimuli\\filler.mp4,16,,,,,,,,,,,,,0,63,63,63,,,,,,,,,,,,,,,,,,1432.4028242998756,,,1442.9403224000707,1442.9403224000707,1442.9403224000707,4,0.3848072001710534,1443.35773649998,1443.35773649998,1443.35773649998,1443.35773649998,1443.35773649998,1443.35773649998,1443.35773649998,1443.35773649998,None,None,None,,,,,,,,,,,,1429.129713400267,1429.129713400267,space,3.2514470000751317,1440.9197928002104,1442.9403224000707,,,,16,001,2024-09-10_10h33.36.515,robot_cogshifting_sign,2022.2.5,59.86324838550586,
"['red_bottom_Z_0', 'blue_bottom_G_45', 'blue_bottom_M_0', 'blue_top_X_0']","{'color': 'red_bottom_Z_0', 'position': 'blue_top_X_0', 'orientation': 'blue_bottom_G_45'}",position,['position'],blue_top_X_0,3,1,letter,3,False,False,"['robot_stimuli\\\\filler.mp4', 'robot_stimuli\\\\filler.mp4', 'robot_stimuli\\\\filler.mp4', 'robot_stimuli\\\\filler.mp4']",robot_stimuli\\filler.mp4,16,,,,,,,,,,,,,0,64,64,64,,,,,,,,,,,,,,,,,,1443.35773649998,,,1453.9118682001717,1453.9118682001717,1453.9118682001717,4,0.6841413998045027,1454.6132263001055,1454.6132263001055,1454.6132263001055,1454.6132263001055,1454.6132263001055,1454.6132263001055,1454.6132263001055,1454.6132263001055,None,None,None,,,,1445.412365199998,,,,,,,,1443.35773649998,1443.35773649998,None,,1451.6909488001838,1453.9118682001717,1443.35773649998,1443.35773649998,,16,001,2024-09-10_10h33.36.515,robot_cogshifting_sign,2022.2.5,59.86324838550586,
"['blue_top_N_0', 'red_top_J_0', 'blue_top_H_45', 'blue_left_N_0']","{'color': 'red_top_J_0', 'position': 'blue_left_N_0', 'orientation': 'blue_top_H_45'}",color,['color'],red_top_J_0,1,1,letter,3,False,False,"['robot_stimuli\\\\filler.mp4', 'robot_stimuli\\\\filler.mp4', 'robot_stimuli\\\\filler.mp4', 'robot_stimuli\\\\filler.mp4']",robot_stimuli\\filler.mp4,16,,,,,,,,,,,,,0,65,65,65,,,,,,,,,,,,,,,,,,1454.6132263001055,,,1465.551433800254,1465.551433800254,1465.551433800254,2,0.8769803997129202,1466.4532224000432,1466.4532224000432,1466.4532224000432,1466.4532224000432,1466.4532224000432,1466.4532224000432,1466.4532224000432,1466.4532224000432,None,None,None,,,,1456.6839924999513,,,,,,,,1454.6132263001055,1454.6132263001055,None,,1463.3471707999706,1465.551433800254,1454.6132263001055,1454.6132263001055,,16,001,2024-09-10_10h33.36.515,robot_cogshifting_sign,2022.2.5,59.86324838550586,
"['red_right_N_45', 'red_right_D_0', 'red_bottom_T_45', 'blue_right_X_45']","{'color': 'blue_right_X_45', 'position': 'red_bottom_T_45', 'orientation': 'red_right_D_0'}",orientation,['orientation'],red_right_D_0,1,1,letter,3,False,False,"['robot_stimuli\\\\filler.mp4', 'robot_stimuli\\\\filler.mp4', 'robot_stimuli\\\\filler.mp4', 'robot_stimuli\\\\filler.mp4']",robot_stimuli\\filler.mp4,16,,,,,,,,,,,,,0,66,66,66,,,,,,,,,,,,,,,,,,1466.4532224000432,,,1477.1910136002116,1477.1910136002116,1477.1910136002116,2,0.6298389998264611,1477.842285099905,1477.842285099905,1477.842285099905,1477.842285099905,1477.842285099905,1477.842285099905,1477.842285099905,1477.842285099905,None,None,None,,,,1468.5239987000823,,,,,,,,1466.4532224000432,1466.4532224000432,None,,1475.1706199999899,1477.1910136002116,1466.4532224000432,1466.4532224000432,,16,001,2024-09-10_10h33.36.515,robot_cogshifting_sign,2022.2.5,59.86324838550586,
"['red_left_K_0', 'blue_left_B_45', 'blue_left_J_0', 'blue_top_H_0']","{'color': 'red_left_K_0', 'position': 'blue_top_H_0', 'orientation': 'blue_left_B_45'}",orientation,['orientation'],blue_left_B_45,1,1,letter,3,False,False,"['robot_stimuli\\\\filler.mp4', 'robot_stimuli\\\\filler.mp4', 'robot_stimuli\\\\filler.mp4', 'robot_stimuli\\\\filler.mp4']",robot_stimuli\\filler.mp4,16,,,,,,,,,,,,,0,67,67,67,,,,,,,,,,,,,,,,,,1477.842285099905,,,1488.3796856999397,1488.3796856999397,1488.3796856999397,2,0.4323791000060737,1488.8472811002284,1488.8472811002284,1488.8472811002284,1488.8472811002284,1488.8472811002284,1488.8472811002284,1488.8472811002284,1488.8472811002284,None,None,None,,,,1479.9130621999502,,,,,,,,1477.842285099905,1477.842285099905,None,,1486.3591427998617,1488.3796856999397,1477.842285099905,1477.842285099905,,16,001,2024-09-10_10h33.36.515,robot_cogshifting_sign,2022.2.5,59.86324838550586,
"['red_bottom_C_0', 'red_left_W_45', 'red_bottom_B_45', 'blue_bottom_Z_45']","{'color': 'blue_bottom_Z_45', 'position': 'red_left_W_45', 'orientation': 'red_bottom_C_0'}",color,['color'],blue_bottom_Z_45,3,1,letter,3,False,False,"['robot_stimuli\\\\filler.mp4', 'robot_stimuli\\\\filler.mp4', 'robot_stimuli\\\\filler.mp4', 'robot_stimuli\\\\filler.mp4']",robot_stimuli\\filler.mp4,16,,,,,,,,,,,,,0,68,68,68,,,,,,,,,,,,,,,,,,1488.8472811002284,,,1499.3680202001706,1499.3680202001706,1499.3680202001706,4,0.60491309966892,1500.0025734002702,1500.0025734002702,1500.0025734002702,1500.0025734002702,1500.0025734002702,1500.0025734002702,1500.0025734002702,1500.0025734002702,None,None,None,,,,,,,,,,,,1488.8472811002284,1488.8472811002284,None,,1497.347472799942,1499.3680202001706,1488.8472811002284,1488.8472811002284,,16,001,2024-09-10_10h33.36.515,robot_cogshifting_sign,2022.2.5,59.86324838550586,
"['blue_top_D_45', 'red_top_Q_0', 'blue_top_N_0', 'blue_bottom_B_0']","{'color': 'red_top_Q_0', 'position': 'blue_bottom_B_0', 'orientation': 'blue_top_D_45'}",position,['position'],blue_bottom_B_0,3,1,letter,3,False,False,"['robot_stimuli\\\\filler.mp4', 'robot_stimuli\\\\filler.mp4', 'robot_stimuli\\\\filler.mp4', 'robot_stimuli\\\\filler.mp4']",robot_stimuli\\filler.mp4,16,,,,,,,,,,,,,0,69,69,69,,,,,,,,,,,,,,,,,,1500.0025734002702,,,1510.957455500029,1510.957455500029,1510.957455500029,4,0.6947123999707401,1511.675579099916,1511.675579099916,1511.675579099916,1511.675579099916,1511.675579099916,1511.675579099916,1511.675579099916,1511.675579099916,None,None,None,,,,1502.073369699996,,,,,,,,1500.0025734002702,1500.0025734002702,None,,1508.9201449998654,1510.957455500029,1500.0025734002702,1500.0025734002702,,16,001,2024-09-10_10h33.36.515,robot_cogshifting_sign,2022.2.5,59.86324838550586,
"['red_right_D_45', 'blue_right_X_0', 'blue_top_J_45', 'blue_right_K_45']","{'color': 'red_right_D_45', 'position': 'blue_top_J_45', 'orientation': 'blue_right_X_0'}",position,['position'],blue_top_J_45,2,1,letter,3,False,False,"['robot_stimuli\\\\filler.mp4', 'robot_stimuli\\\\filler.mp4', 'robot_stimuli\\\\filler.mp4', 'robot_stimuli\\\\filler.mp4']",robot_stimuli\\filler.mp4,16,,,,,,,,,,,,,0,70,70,70,,,,,,,,,,,,,,,,,,1511.675579099916,,,1522.6137596000917,1522.6137596000917,1522.6137596000917,3,0.7358874999918044,1523.381926999893,1523.381926999893,1523.381926999893,1523.381926999893,1523.381926999893,1523.381926999893,1523.381926999893,1523.381926999893,None,None,None,,,,1513.7463452001102,,,,,,,,1511.675579099916,1511.675579099916,None,,1520.3927410002798,1522.6137596000917,1511.675579099916,1511.675579099916,,16,001,2024-09-10_10h33.36.515,robot_cogshifting_sign,2022.2.5,59.86324838550586,
"['blue_bottom_T_45', 'red_bottom_D_45', 'blue_bottom_M_0', 'blue_left_G_45']","{'color': 'red_bottom_D_45', 'position': 'blue_left_G_45', 'orientation': 'blue_bottom_M_0'}",orientation,['orientation'],blue_bottom_M_0,2,1,letter,3,False,True,"['robot_stimuli\\\\filler.mp4', 'robot_stimuli\\\\filler.mp4', 'robot_stimuli\\\\filler.mp4', 'robot_stimuli\\\\filler.mp4']",robot_stimuli\\filler.mp4,16,,,,,,,,,,,,,0,71,71,71,,,,,,,,,,,,,,,,,,1523.381926999893,,,1534.3201382001862,1534.3201382001862,1534.3201382001862,3,0.3805487002246082,1534.7543338001706,1539.2131215999834,1534.7543338001706,1539.2131215999834,1534.7543338001706,1539.2131215999834,1534.7543338001706,1539.2131215999834,10.873015873015873,3.467096199747175,space,,,,1525.4527241000906,4.38650680007413,,,,,,,1523.381926999893,1523.381926999893,None,,1532.099103800021,1534.3201382001862,1523.381926999893,1523.381926999893,,16,001,2024-09-10_10h33.36.515,robot_cogshifting_sign,2022.2.5,59.86324838550586,
"['blue_top_L_45', 'red_right_X_45', 'blue_right_B_45', 'blue_right_V_0']","{'color': 'red_right_X_45', 'position': 'blue_top_L_45', 'orientation': 'blue_right_V_0'}",position,"['orientation', 'position']",blue_top_L_45,0,2,letter,3,True,False,"['robot_stimuli\\\\filler.mp4', 'robot_stimuli\\\\filler.mp4', 'robot_stimuli\\\\filler.mp4', 'robot_stimuli\\\\filler.mp4']",robot_stimuli\\filler.mp4,16,,,,,,,,,,,,,0,72,72,72,,,,,,,,,,,,,,,,,,1546.22694650013,,,1556.780980499927,1556.780980499927,1556.780980499927,1,1.3442740002647042,1558.1503985999152,1558.1503985999152,1558.1503985999152,1558.1503985999152,1558.1503985999152,1558.1503985999152,1558.1503985999152,1558.1503985999152,None,None,None,,,,,,,,,,,,1539.2131215999834,1539.2131215999834,space,6.983749100007117,1554.7604608000256,1556.780980499927,,,,16,001,2024-09-10_10h33.36.515,robot_cogshifting_sign,2022.2.5,59.86324838550586,
"['red_left_J_0', 'blue_left_Q_45', 'red_bottom_R_45', 'red_left_N_45']","{'color': 'blue_left_Q_45', 'position': 'red_bottom_R_45', 'orientation': 'red_left_J_0'}",position,"['orientation', 'position']",red_bottom_R_45,2,2,letter,3,False,False,"['robot_stimuli\\\\filler.mp4', 'robot_stimuli\\\\filler.mp4', 'robot_stimuli\\\\filler.mp4', 'robot_stimuli\\\\filler.mp4']",robot_stimuli\\filler.mp4,16,,,,,,,,,,,,,0,73,73,73,,,,,,,,,,,,,,,,,,1558.1503985999152,,,1568.888152600266,1568.888152600266,1568.888152600266,3,0.8523772000335157,1569.773244699929,1569.773244699929,1569.773244699929,1569.773244699929,1569.773244699929,1569.773244699929,1569.773244699929,1569.773244699929,None,None,None,,,,1560.2211572001688,,,,,,,,1558.1503985999152,1558.1503985999152,None,,1566.6838670000434,1568.888152600266,1558.1503985999152,1558.1503985999152,,16,001,2024-09-10_10h33.36.515,robot_cogshifting_sign,2022.2.5,59.86324838550586,
"['blue_right_P_0', 'red_right_T_0', 'red_top_Z_0', 'red_right_R_45']","{'color': 'blue_right_P_0', 'position': 'red_top_Z_0', 'orientation': 'red_right_R_45'}",position,"['color', 'position']",red_top_Z_0,2,2,letter,3,False,False,"['robot_stimuli\\\\filler.mp4', 'robot_stimuli\\\\filler.mp4', 'robot_stimuli\\\\filler.mp4', 'robot_stimuli\\\\filler.mp4']",robot_stimuli\\filler.mp4,16,,,,,,,,,,,,,0,74,74,74,,,,,,,,,,,,,,,,,,1569.773244699929,,,1580.7114899000153,1580.7114899000153,1580.7114899000153,3,1.020998400170356,1581.7635743999854,1581.7635743999854,1581.7635743999854,1581.7635743999854,1581.7635743999854,1581.7635743999854,1581.7635743999854,1581.7635743999854,None,None,None,,,,1571.8440713998862,,,,,,,,1569.773244699929,1569.773244699929,None,,1578.6909793000668,1580.7114899000153,1569.773244699929,1569.773244699929,,16,001,2024-09-10_10h33.36.515,robot_cogshifting_sign,2022.2.5,59.86324838550586,
"['blue_top_M_45', 'blue_left_Z_45', 'blue_left_L_0', 'red_left_Z_45']","{'color': 'red_left_Z_45', 'position': 'blue_top_M_45', 'orientation': 'blue_left_L_0'}",orientation,"['color', 'orientation']",blue_left_L_0,2,2,letter,3,False,False,"['robot_stimuli\\\\filler.mp4', 'robot_stimuli\\\\filler.mp4', 'robot_stimuli\\\\filler.mp4', 'robot_stimuli\\\\filler.mp4']",robot_stimuli\\filler.mp4,16,,,,,,,,,,,,,0,75,75,75,,,,,,,,,,,,,,,,,,1581.7635743999854,,,1592.7016961998306,1592.7016961998306,1592.7016961998306,3,1.1993122999556363,1593.9207733999938,1593.9207733999938,1593.9207733999938,1593.9207733999938,1593.9207733999938,1593.9207733999938,1593.9207733999938,1593.9207733999938,None,None,None,,,,1583.834401000291,,,,,,,,1581.7635743999854,1581.7635743999854,None,,1590.6812028000131,1592.7016961998306,1581.7635743999854,1581.7635743999854,,16,001,2024-09-10_10h33.36.515,robot_cogshifting_sign,2022.2.5,59.86324838550586,
"['red_bottom_P_0', 'red_right_V_0', 'blue_bottom_G_0', 'red_bottom_V_45']","{'color': 'blue_bottom_G_0', 'position': 'red_right_V_0', 'orientation': 'red_bottom_V_45'}",color,"['color', 'orientation']",blue_bottom_G_0,2,2,letter,3,False,False,"['robot_stimuli\\\\filler.mp4', 'robot_stimuli\\\\filler.mp4', 'robot_stimuli\\\\filler.mp4', 'robot_stimuli\\\\filler.mp4']",robot_stimuli\\filler.mp4,16,,,,,,,,,,,,,0,76,76,76,,,,,,,,,,,,,,,,,,1593.9207733999938,,,1604.4581647999585,1604.4581647999585,1604.4581647999585,3,0.5945966998115182,1605.076147899963,1605.076147899963,1605.076147899963,1605.076147899963,1605.076147899963,1605.076147899963,1605.076147899963,1605.076147899963,None,None,None,,,,1595.9753232002258,,,,,,,,1593.9207733999938,1593.9207733999938,None,,1602.2371582998894,1604.4581647999585,1593.9207733999938,1593.9207733999938,,16,001,2024-09-10_10h33.36.515,robot_cogshifting_sign,2022.2.5,59.86324838550586,
"['red_right_D_0', 'red_top_P_0', 'red_right_G_45', 'blue_right_N_0']","{'color': 'blue_right_N_0', 'position': 'red_top_P_0', 'orientation': 'red_right_G_45'}",orientation,"['color', 'orientation']",red_right_G_45,2,2,letter,3,False,False,"['robot_stimuli\\\\filler.mp4', 'robot_stimuli\\\\filler.mp4', 'robot_stimuli\\\\filler.mp4', 'robot_stimuli\\\\filler.mp4']",robot_stimuli\\filler.mp4,16,,,,,,,,,,,,,0,77,77,77,,,,,,,,,,,,,,,,,,1605.076147899963,,,1616.1979964999482,1616.1979964999482,1616.1979964999482,3,1.4393166997469962,1617.6675304998644,1617.6675304998644,1617.6675304998644,1617.6675304998644,1617.6675304998644,1617.6675304998644,1617.6675304998644,1617.6675304998644,None,None,None,,,,1607.1468317001127,,,,,,,,1605.076147899963,1605.076147899963,None,,1613.9936673999764,1616.1979964999482,1605.076147899963,1605.076147899963,,16,001,2024-09-10_10h33.36.515,robot_cogshifting_sign,2022.2.5,59.86324838550586,
"['blue_top_R_0', 'blue_top_X_45', 'blue_right_S_0', 'red_top_R_0']","{'color': 'red_top_R_0', 'position': 'blue_right_S_0', 'orientation': 'blue_top_X_45'}",color,"['color', 'orientation']",red_top_R_0,3,2,letter,3,False,False,"['robot_stimuli\\\\filler.mp4', 'robot_stimuli\\\\filler.mp4', 'robot_stimuli\\\\filler.mp4', 'robot_stimuli\\\\filler.mp4']",robot_stimuli\\filler.mp4,16,,,,,,,,,,,,,0,78,78,78,,,,,,,,,,,,,,,,,,1617.6675304998644,,,1628.6057632002048,1628.6057632002048,1628.6057632002048,4,0.91147689986974,1629.5408927998506,1629.5408927998506,1629.5408927998506,1629.5408927998506,1629.5408927998506,1629.5408927998506,1629.5408927998506,1629.5408927998506,None,None,None,,,,1619.7383524999022,,,,,,,,1617.6675304998644,1617.6675304998644,None,,1626.3847652999684,1628.6057632002048,1617.6675304998644,1617.6675304998644,,16,001,2024-09-10_10h33.36.515,robot_cogshifting_sign,2022.2.5,59.86324838550586,
"['blue_bottom_V_0', 'blue_top_R_0', 'blue_top_P_45', 'red_top_C_0']","{'color': 'red_top_C_0', 'position': 'blue_bottom_V_0', 'orientation': 'blue_top_P_45'}",color,"['color', 'orientation']",red_top_C_0,3,2,letter,3,False,False,"['robot_stimuli\\\\filler.mp4', 'robot_stimuli\\\\filler.mp4', 'robot_stimuli\\\\filler.mp4', 'robot_stimuli\\\\filler.mp4']",robot_stimuli\\filler.mp4,16,,,,,,,,,,,,,0,79,79,79,,,,,,,,,,,,,,,,,,1629.5408927998506,,,1640.262006400153,1640.262006400153,1640.262006400153,4,0.8385184002108872,1641.13041169988,1641.13041169988,1641.13041169988,1641.13041169988,1641.13041169988,1641.13041169988,1641.13041169988,1641.13041169988,None,None,None,,,,1631.6117384000681,,,,,,,,1629.5408927998506,1629.5408927998506,None,,1638.241355900187,1640.262006400153,1629.5408927998506,1629.5408927998506,,16,001,2024-09-10_10h33.36.515,robot_cogshifting_sign,2022.2.5,59.86324838550586,
"['blue_bottom_C_0', 'red_top_D_0', 'red_bottom_Q_45', 'red_bottom_S_0']","{'color': 'blue_bottom_C_0', 'position': 'red_top_D_0', 'orientation': 'red_bottom_Q_45'}",orientation,"['color', 'orientation']",red_bottom_Q_45,2,2,letter,3,False,True,"['robot_stimuli\\\\filler.mp4', 'robot_stimuli\\\\filler.mp4', 'robot_stimuli\\\\filler.mp4', 'robot_stimuli\\\\filler.mp4']",robot_stimuli\\filler.mp4,16,,,,,,,,,,,,,0,80,80,80,,,,,,,,,,,,,,,,,,1641.13041169988,,,1651.851461400278,1651.851461400278,1651.851461400278,3,1.0413819001987576,1652.9536385000683,1658.6315001999028,1652.9536385000683,1658.6315001999028,1652.9536385000683,1658.6315001999028,1652.9536385000683,1658.6315001999028,19.444444444444446,4.753229199908674,space,,,,1643.2012205999345,5.618996300268918,,,,,,,1641.13041169988,1641.13041169988,None,,1649.6471505998634,1651.851461400278,1641.13041169988,1641.13041169988,,16,001,2024-09-10_10h33.36.515,robot_cogshifting_sign,2022.2.5,59.86324838550586,
"['R_Head_X_Back', 'R_Head_Z_Back', 'R_Base_X_Back', 'L_Head_X_Back']","{'laterality': 'L_Head_X_Back', 'localisation': 'R_Base_X_Back', 'movement': 'R_Head_Z_Back'}",movement,"['localisation', 'movement']",R_Head_Z_Back,1,2,robot,4,True,False,"['robot_stimuli\\R_Head_X_Back.mp4', 'robot_stimuli\\R_Head_Z_Back.mp4', 'robot_stimuli\\R_Base_X_Back.mp4', 'robot_stimuli\\L_Head_X_Back.mp4']",robot_stimuli\R_Head_Z_Back.mp4,16,,,,,,,,,,,,,0,81,81,81,,,,,,,,,,,,,,,,,,1665.5284071001224,,,1682.411618700251,1682.411618700251,1682.411618700251,1,3.352962600067258,1685.7849627002142,1685.7849627002142,1685.7849627002142,1685.7849627002142,1685.7849627002142,1685.7849627002142,1685.7849627002142,1685.7849627002142,None,None,None,,,,,,,,,,,,1658.6315001999028,1658.6315001999028,space,6.876590999774635,,,,,1678.7711657001637,16,001,2024-09-10_10h33.36.515,robot_cogshifting_sign,2022.2.5,59.86324838550586,
"['L_Head_Z_For', 'L_Arm_Z_Back', 'R_Arm_Z_For', 'L_Arm_Y_Back']","{'laterality': 'R_Arm_Z_For', 'localisation': 'L_Head_Z_For', 'movement': 'L_Arm_Y_Back'}",localisation,"['laterality', 'localisation']",L_Head_Z_For,0,2,robot,4,False,False,"['robot_stimuli\\L_Head_Z_For.mp4', 'robot_stimuli\\L_Arm_Z_Back.mp4', 'robot_stimuli\\R_Arm_Z_For.mp4', 'robot_stimuli\\L_Arm_Y_Back.mp4']",robot_stimuli\L_Head_Z_For.mp4,16,,,,,,,,,,,,,0,82,82,82,,,,,,,,,,,,,,,,,,1685.7849627002142,,,1702.6848557000048,1702.6848557000048,1702.6848557000048,1,4.335027300287038,1707.0434330999851,1707.0434330999851,1707.0434330999851,1707.0434330999851,1707.0434330999851,1707.0434330999851,1707.0434330999851,1707.0434330999851,None,None,None,,,,1687.8724385001697,,,,,,,,1685.7849627002142,1685.7849627002142,None,,,,1685.7849627002142,1685.7849627002142,1699.0444042999297,16,001,2024-09-10_10h33.36.515,robot_cogshifting_sign,2022.2.5,59.86324838550586,
"['R_Base_X_Back', 'R_Arm_Z_Back', 'L_Arm_X_For', 'R_Arm_X_Back']","{'laterality': 'L_Arm_X_For', 'localisation': 'R_Base_X_Back', 'movement': 'R_Arm_Z_Back'}",movement,"['laterality', 'movement']",R_Arm_Z_Back,1,2,robot,4,False,False,"['robot_stimuli\\R_Base_X_Back.mp4', 'robot_stimuli\\R_Arm_Z_Back.mp4', 'robot_stimuli\\L_Arm_X_For.mp4', 'robot_stimuli\\R_Arm_X_Back.mp4']",robot_stimuli\R_Arm_Z_Back.mp4,16,,,,,,,,,,,,,0,83,83,83,,,,,,,,,,,,,,,,,,1707.0434330999851,,,1723.9433617000468,1723.9433617000468,1723.9433617000468,1,1.3492141999304295,1725.3127743001096,1725.3127743001096,1725.3127743001096,1725.3127743001096,1725.3127743001096,1725.3127743001096,1725.3127743001096,1725.3127743001096,None,None,None,,,,1709.1309597999789,,,,,,,,1707.0434330999851,1707.0434330999851,None,,,,1707.0434330999851,1707.0434330999851,1720.302920000162,16,001,2024-09-10_10h33.36.515,robot_cogshifting_sign,2022.2.5,59.86324838550586,
"['L_Arm_Z_Back', 'R_Torso_Z_For', 'R_Arm_Y_For', 'R_Arm_Z_For']","{'laterality': 'L_Arm_Z_Back', 'localisation': 'R_Torso_Z_For', 'movement': 'R_Arm_Y_For'}",localisation,"['localisation', 'movement']",R_Torso_Z_For,1,2,robot,4,False,False,"['robot_stimuli\\L_Arm_Z_Back.mp4', 'robot_stimuli\\R_Torso_Z_For.mp4', 'robot_stimuli\\R_Arm_Y_For.mp4', 'robot_stimuli\\R_Arm_Z_For.mp4']",robot_stimuli\R_Torso_Z_For.mp4,16,,,,,,,,,,,,,0,84,84,84,,,,,,,,,,,,,,,,,,1725.3127743001096,,,1742.0791444000788,1742.0791444000788,1742.0791444000788,2,1.2375945001840591,1743.34824569989,1743.34824569989,1743.34824569989,1743.34824569989,1743.34824569989,1743.34824569989,1743.34824569989,1743.34824569989,None,None,None,,,,1727.4002383998595,,,,,,,,1725.3127743001096,1725.3127743001096,None,,,,1725.3127743001096,1725.3127743001096,1738.4386829999276,16,001,2024-09-10_10h33.36.515,robot_cogshifting_sign,2022.2.5,59.86324838550586,
"['R_Arm_X_Back', 'L_Torso_X_Back', 'R_Torso_X_Back', 'R_Torso_Y_Back']","{'laterality': 'L_Torso_X_Back', 'localisation': 'R_Arm_X_Back', 'movement': 'R_Torso_Y_Back'}",movement,"['laterality', 'movement']",R_Torso_Y_Back,3,2,robot,4,False,False,"['robot_stimuli\\R_Arm_X_Back.mp4', 'robot_stimuli\\L_Torso_X_Back.mp4', 'robot_stimuli\\R_Torso_X_Back.mp4', 'robot_stimuli\\R_Torso_Y_Back.mp4']",robot_stimuli\R_Torso_Y_Back.mp4,16,,,,,,,,,,,,,0,85,85,85,,,,,,,,,,,,,,,,,,1743.34824569989,,,1760.2649082001299,1760.2649082001299,1760.2649082001299,4,0.891153700184077,1761.183383999858,1761.183383999858,1761.183383999858,1761.183383999858,1761.183383999858,1761.183383999858,1761.183383999858,1761.183383999858,None,None,None,,,,1745.4523879000917,,,,,,,,1743.34824569989,1743.34824569989,None,,,,1743.34824569989,1743.34824569989,1756.6410845001228,16,001,2024-09-10_10h33.36.515,robot_cogshifting_sign,2022.2.5,59.86324838550586,
