sequence,odd_ones,parameter,choices,target,target_idx,condition,stimuli,block,is_block_beginning,is_block_ending,sequence_fnames,target_fname,subject,retraining.thisRepN,retraining.thisTrialN,retraining.thisN,retraining.thisIndex,training.thisRepN,training.thisTrialN,training.thisN,training.thisIndex,training_sequence_loop.thisRepN,training_sequence_loop.thisTrialN,training_sequence_loop.thisN,training_sequence_loop.thisIndex,trials.thisRepN,trials.thisTrialN,trials.thisN,trials.thisIndex,sequence_loop.thisRepN,sequence_loop.thisTrialN,sequence_loop.thisN,sequence_loop.thisIndex,langage_text.started,langage_key.started,langage_key.keys,langage_key.rt,intro_text.started,intro_key.started,intro_key.keys,intro_key.rt,training_intro_text.started,training_intro_key.started,training_intro_key.keys,training_intro_key.rt,polygon.started,polygon.stopped,cue_before_text.started,cue_before_text.stopped,training_presentation_letter.started,training_presentation_letter.stopped,recall_key.started,recall_question.started,recall_answer.started,recall_key.keys,recall_key.rt,RSME_labels.started,RSME_labels.stopped,RSME_ticks.started,RSME_ticks.stopped,RSME_text.started,RSME_text.stopped,RSME_key.started,RSME_key.stopped,RSME_ticks.response,RSME_ticks.rt,RSME_key.keys,training_intro_text.stopped,training_intro_key.stopped,RSME_key.rt,training_presentation_movie.started,experiment_beginning_text.started,experiment_beginning_keys.started,experiment_beginning_key.started,experiment_beginning_key.keys,experiment_beginning_key.rt,block_intro_text.started,block_intro_key.started,block_intro_key.keys,block_intro_key.rt,presentation_letter.started,presentation_letter.stopped,block_intro_text.stopped,block_intro_key.stopped,presentation_movie.started,participant,session,date,expName,psychopyVersion,frameRate,
,,,,,,,,,,,,,,,,,,,,,,,,,,,,,,,,,,10.92153799999869,10.92153799999869,f,1.6736046000005445,,,,,,,,,,,,,,,,,,,,,,,,,,,,,,,,,,,,,,,,,,,,,,,,,10,001,2024-07-29_16h03.51.019,robot_cogshifting_sign,2022.2.5,59.880669801428404,
,,,,,,,,,,,,,,,,,,,,,,,,,,,,,,,,,,,,,,12.65914100000009,12.65914100000009,space,134.52763210000012,,,,,,,,,,,,,,,,,,,,,,,,,,,,,,,,,,,,,,,,,,,,,10,001,2024-07-29_16h03.51.019,robot_cogshifting_sign,2022.2.5,59.880669801428404,
"['blue_left_Z_0', 'blue_bottom_W_0', 'red_bottom_J_0', 'blue_bottom_F_45']","{'color': 'red_bottom_J_0', 'position': 'blue_left_Z_0', 'orientation': 'blue_bottom_F_45'}",position,['position'],blue_left_Z_0,0,1,letter,1,True,False,"['robot_stimuli\\\\filler.mp4', 'robot_stimuli\\\\filler.mp4', 'robot_stimuli\\\\filler.mp4', 'robot_stimuli\\\\filler.mp4']",robot_stimuli\\filler.mp4,10,0,0,0,0,0,0,0,0,,,,,,,,,,,,,,,,,,,,,147.21764039999834,147.21764039999834,space,3.657355400000597,150.9037286999992,151.90364389999922,151.90364389999922,154.2475727000001,160.9487922999997,162.98608179999974,162.98608179999974,162.98608179999974,162.98608179999974,1,3.760220500000287,166.84931519999918,166.84931519999918,166.84931519999918,166.84931519999918,166.84931519999918,166.84931519999918,166.84931519999918,166.84931519999918,None,None,None,,,,,,,,,,,,,,,,,,,10,001,2024-07-29_16h03.51.019,robot_cogshifting_sign,2022.2.5,59.880669801428404,
"['red_top_Z_45', 'red_left_X_0', 'blue_top_T_0', 'red_top_N_0']","{'color': 'blue_top_T_0', 'position': 'red_left_X_0', 'orientation': 'red_top_Z_45'}",orientation,['orientation'],red_top_Z_45,0,1,letter,1,False,False,"['robot_stimuli\\\\filler.mp4', 'robot_stimuli\\\\filler.mp4', 'robot_stimuli\\\\filler.mp4', 'robot_stimuli\\\\filler.mp4']",robot_stimuli\\filler.mp4,10,0,0,0,0,0,1,1,1,,,,,,,,,,,,,,,,,,,,,166.84931519999918,166.84931519999918,None,,166.84931519999918,,167.85340469999937,,176.62415509999846,178.84012819999953,178.84012819999953,178.84012819999953,178.84012819999953,1,10.266188699999475,189.13687189999837,189.13687189999837,189.13687189999837,189.13687189999837,189.13687189999837,189.13687189999837,189.13687189999837,189.13687189999837,None,None,None,166.84931519999918,166.84931519999918,,,,,,,,,,,,,,,,,10,001,2024-07-29_16h03.51.019,robot_cogshifting_sign,2022.2.5,59.880669801428404,
"['blue_right_D_45', 'blue_left_D_0', 'red_right_W_0', 'blue_right_T_0']","{'color': 'red_right_W_0', 'position': 'blue_left_D_0', 'orientation': 'blue_right_D_45'}",color,['color'],red_right_W_0,2,1,letter,1,False,True,"['robot_stimuli\\\\filler.mp4', 'robot_stimuli\\\\filler.mp4', 'robot_stimuli\\\\filler.mp4', 'robot_stimuli\\\\filler.mp4']",robot_stimuli\\filler.mp4,10,0,0,0,0,0,2,2,2,,,,,,,,,,,,,,,,,,,,,189.13687189999837,189.13687189999837,None,,189.13687189999837,190.13699199999974,190.13699199999974,192.2109838999986,198.72379439999895,200.9440799999993,200.9440799999993,200.9440799999993,200.9440799999993,3,5.067546599999332,206.0925675999988,327.44744719999835,206.0925675999988,327.44744719999835,206.0925675999988,327.44744719999835,206.0925675999988,327.44744719999835,10.246913580246913,3.452993900000365,space,189.13687189999837,189.13687189999837,121.2865927999992,,,,,,,,,,,,,,,,10,001,2024-07-29_16h03.51.019,robot_cogshifting_sign,2022.2.5,59.880669801428404,
"['red_bottom_D_45', 'red_right_J_45', 'red_right_D_0', 'blue_right_S_45']","{'color': 'blue_right_S_45', 'position': 'red_bottom_D_45', 'orientation': 'red_right_D_0'}",orientation,"['color', 'orientation']",red_right_D_0,2,2,letter,1,True,False,"['robot_stimuli\\\\filler.mp4', 'robot_stimuli\\\\filler.mp4', 'robot_stimuli\\\\filler.mp4', 'robot_stimuli\\\\filler.mp4']",robot_stimuli\\filler.mp4,10,0,0,0,0,0,3,3,3,,,,,,,,,,,,,,,,,,,,,327.44744719999835,327.44744719999835,space,2.8674013999989256,330.3367989999988,331.33683839999867,331.33683839999867,333.4111353999997,339.91576480000003,341.94794059999913,341.94794059999913,341.94794059999913,341.94794059999913,3,6.367757600000914,348.3371066999989,348.3371066999989,348.3371066999989,348.3371066999989,348.3371066999989,348.3371066999989,348.3371066999989,348.3371066999989,None,None,None,,,,,,,,,,,,,,,,,,,10,001,2024-07-29_16h03.51.019,robot_cogshifting_sign,2022.2.5,59.880669801428404,
"['blue_bottom_G_45', 'blue_right_T_45', 'red_right_H_45', 'blue_right_B_0']","{'color': 'red_right_H_45', 'position': 'blue_bottom_G_45', 'orientation': 'blue_right_B_0'}",position,"['orientation', 'position']",blue_bottom_G_45,0,2,letter,1,False,False,"['robot_stimuli\\\\filler.mp4', 'robot_stimuli\\\\filler.mp4', 'robot_stimuli\\\\filler.mp4', 'robot_stimuli\\\\filler.mp4']",robot_stimuli\\filler.mp4,10,0,0,0,0,0,4,4,4,,,,,,,,,,,,,,,,,,,,,348.3371066999989,348.3371066999989,None,,348.3371066999989,349.3369359999997,349.3369359999997,351.4089408999989,358.1284779999987,360.15344059999916,360.15344059999916,360.15344059999916,360.15344059999916,1,3.226047300000573,363.40350989999934,363.40350989999934,363.40350989999934,363.40350989999934,363.40350989999934,363.40350989999934,363.40350989999934,363.40350989999934,None,None,None,348.3371066999989,348.3371066999989,,,,,,,,,,,,,,,,,10,001,2024-07-29_16h03.51.019,robot_cogshifting_sign,2022.2.5,59.880669801428404,
"['blue_left_X_0', 'red_top_B_0', 'blue_top_B_0', 'blue_top_T_45']","{'color': 'red_top_B_0', 'position': 'blue_left_X_0', 'orientation': 'blue_top_T_45'}",color,"['color', 'orientation']",red_top_B_0,1,2,letter,1,False,True,"['robot_stimuli\\\\filler.mp4', 'robot_stimuli\\\\filler.mp4', 'robot_stimuli\\\\filler.mp4', 'robot_stimuli\\\\filler.mp4']",robot_stimuli\\filler.mp4,10,0,0,0,0,0,5,5,5,,,,,,,,,,,,,,,,,,,,,363.40350989999934,363.40350989999934,None,,363.40350989999934,364.40368059999855,364.40368059999855,366.4761654999984,373.17438330000004,375.39770489999864,375.39770489999864,375.39770489999864,375.39770489999864,2,1.7010953999997582,377.1456621999987,381.5967363,377.1456621999987,381.5967363,377.1456621999987,381.5967363,377.1456621999987,381.5967363,26.450617283950614,2.815306899999996,space,363.40350989999934,363.40350989999934,4.401994300000297,,,,,,,,,,,,,,,,10,001,2024-07-29_16h03.51.019,robot_cogshifting_sign,2022.2.5,59.880669801428404,
"['red_left_L_0', 'blue_top_H_0', 'blue_left_V_0', 'blue_left_X_45']","{'color': 'red_left_L_0', 'position': 'blue_top_H_0', 'orientation': 'blue_left_X_45'}",orientation,"['color', 'orientation', 'position']",blue_left_X_45,3,3,letter,1,True,False,"['robot_stimuli\\\\filler.mp4', 'robot_stimuli\\\\filler.mp4', 'robot_stimuli\\\\filler.mp4', 'robot_stimuli\\\\filler.mp4']",robot_stimuli\\filler.mp4,10,0,0,0,0,0,6,6,6,,,,,,,,,,,,,,,,,,,,,381.5967363,381.5967363,space,2.950265600000421,384.5702848000001,385.57046589999845,385.57046589999845,387.6442105999995,394.14308249999885,396.3655450999995,396.3655450999995,396.3655450999995,396.3655450999995,4,3.206014999999752,399.6037308999985,399.6037308999985,399.6037308999985,399.6037308999985,399.6037308999985,399.6037308999985,399.6037308999985,399.6037308999985,None,None,None,,,,,,,,,,,,,,,,,,,10,001,2024-07-29_16h03.51.019,robot_cogshifting_sign,2022.2.5,59.880669801428404,
"['red_left_B_0', 'blue_left_X_45', 'blue_left_P_0', 'blue_right_D_0']","{'color': 'red_left_B_0', 'position': 'blue_right_D_0', 'orientation': 'blue_left_X_45'}",color,"['color', 'orientation', 'position']",red_left_B_0,0,3,letter,1,False,False,"['robot_stimuli\\\\filler.mp4', 'robot_stimuli\\\\filler.mp4', 'robot_stimuli\\\\filler.mp4', 'robot_stimuli\\\\filler.mp4']",robot_stimuli\\filler.mp4,10,0,0,0,0,0,7,7,7,,,,,,,,,,,,,,,,,,,,,399.6037308999985,399.6037308999985,None,,399.6037308999985,400.6037773999997,400.6037773999997,402.67566609999994,409.371448599999,411.5982211999999,411.5982211999999,411.5982211999999,411.5982211999999,1,2.90803219999907,414.5369271999989,414.5369271999989,414.5369271999989,414.5369271999989,414.5369271999989,414.5369271999989,414.5369271999989,414.5369271999989,None,None,None,399.6037308999985,399.6037308999985,,,,,,,,,,,,,,,,,10,001,2024-07-29_16h03.51.019,robot_cogshifting_sign,2022.2.5,59.880669801428404,
"['blue_top_Q_0', 'blue_right_J_0', 'blue_top_V_45', 'red_top_P_0']","{'color': 'red_top_P_0', 'position': 'blue_right_J_0', 'orientation': 'blue_top_V_45'}",position,"['color', 'orientation', 'position']",blue_right_J_0,1,3,letter,1,False,True,"['robot_stimuli\\\\filler.mp4', 'robot_stimuli\\\\filler.mp4', 'robot_stimuli\\\\filler.mp4', 'robot_stimuli\\\\filler.mp4']",robot_stimuli\\filler.mp4,10,0,0,0,0,0,8,8,8,,,,,,,,,,,,,,,,,,,,,414.5369271999989,414.5369271999989,None,,414.5369271999989,415.537037099999,415.537037099999,417.60855300000003,424.29982409999866,426.31431129999874,426.31431129999874,426.31431129999874,426.31431129999874,2,4.833267299998624,431.19473990000006,436.0852608999994,431.19473990000006,436.0852608999994,431.19473990000006,436.0852608999994,431.19473990000006,436.0852608999994,31.697530864197528,3.3138256999991427,space,414.5369271999989,414.5369271999989,4.831773400001111,,,,,,,,,,,,,,,,10,001,2024-07-29_16h03.51.019,robot_cogshifting_sign,2022.2.5,59.880669801428404,
"['L_Base_Y_For', 'R_Arm_Y_Back', 'R_Base_Z_For', 'R_Base_Y_Back']","{'laterality': 'L_Base_Y_For', 'localisation': 'R_Arm_Y_Back', 'movement': 'R_Base_Z_For'}",movement,['movement'],R_Base_Z_For,2,1,robot,2,True,False,"['robot_stimuli\\L_Base_Y_For.mp4', 'robot_stimuli\\R_Arm_Y_Back.mp4', 'robot_stimuli\\R_Base_Z_For.mp4', 'robot_stimuli\\R_Base_Y_Back.mp4']",robot_stimuli\R_Base_Z_For.mp4,10,0,0,0,0,0,9,9,9,,,,,,,,,,,,,,,,,,,,,436.0852608999994,436.0852608999994,space,2.3336354000002757,438.43690179999976,439.4370863999993,439.4370863999993,441.5332903999988,,,456.27596019999874,456.27596019999874,456.27596019999874,3,1.2387698999991699,457.5369585999997,457.5369585999997,457.5369585999997,457.5369585999997,457.5369585999997,457.5369585999997,457.5369585999997,457.5369585999997,None,None,None,,,,452.64686809999876,,,,,,,,,,,,,,,10,001,2024-07-29_16h03.51.019,robot_cogshifting_sign,2022.2.5,59.880669801428404,
"['L_Torso_Z_For', 'R_Head_Z_Back', 'L_Head_Z_Back', 'L_Head_Y_Back']","{'laterality': 'R_Head_Z_Back', 'localisation': 'L_Torso_Z_For', 'movement': 'L_Head_Y_Back'}",localisation,['localisation'],L_Torso_Z_For,0,1,robot,2,False,False,"['robot_stimuli\\L_Torso_Z_For.mp4', 'robot_stimuli\\R_Head_Z_Back.mp4', 'robot_stimuli\\L_Head_Z_Back.mp4', 'robot_stimuli\\L_Head_Y_Back.mp4']",robot_stimuli\L_Torso_Z_For.mp4,10,0,0,0,0,0,10,10,10,,,,,,,,,,,,,,,,,,,,,457.5369585999997,457.5369585999997,None,,457.5369585999997,458.53706639999837,458.53706639999837,460.62739580000016,,,475.46171270000013,475.46171270000013,475.46171270000013,1,2.4771589000010863,477.97028150000006,477.97028150000006,477.97028150000006,477.97028150000006,477.97028150000006,477.97028150000006,477.97028150000006,477.97028150000006,None,None,None,457.5369585999997,457.5369585999997,,471.8149297,,,,,,,,,,,,,,,10,001,2024-07-29_16h03.51.019,robot_cogshifting_sign,2022.2.5,59.880669801428404,
"['L_Base_Y_Back', 'L_Torso_Y_For', 'R_Base_Y_For', 'L_Base_Z_For']","{'laterality': 'R_Base_Y_For', 'localisation': 'L_Torso_Y_For', 'movement': 'L_Base_Z_For'}",laterality,['laterality'],R_Base_Y_For,2,1,robot,2,False,True,"['robot_stimuli\\L_Base_Y_Back.mp4', 'robot_stimuli\\L_Torso_Y_For.mp4', 'robot_stimuli\\R_Base_Y_For.mp4', 'robot_stimuli\\L_Base_Z_For.mp4']",robot_stimuli\R_Base_Y_For.mp4,10,0,0,0,0,0,11,11,11,,,,,,,,,,,,,,,,,,,,,477.97028150000006,477.97028150000006,None,,477.97028150000006,478.97025679999933,478.97025679999933,481.0513523999998,,,495.84736489999887,495.84736489999887,495.84736489999887,3,3.1556386000011116,499.04488299999866,502.4159940999998,499.04488299999866,502.4159940999998,499.04488299999866,502.4159940999998,499.04488299999866,502.4159940999998,24.753086419753085,2.30397880000055,space,477.97028150000006,477.97028150000006,3.3089517000007618,492.1980270999993,,,,,,,,,,,,,,,10,001,2024-07-29_16h03.51.019,robot_cogshifting_sign,2022.2.5,59.880669801428404,
"['L_Base_Z_For', 'R_Head_Z_For', 'R_Base_X_Back', 'R_Base_Z_Back']","{'laterality': 'L_Base_Z_For', 'localisation': 'R_Head_Z_For', 'movement': 'R_Base_X_Back'}",movement,"['laterality', 'movement']",R_Base_X_Back,2,2,robot,2,True,False,"['robot_stimuli\\L_Base_Z_For.mp4', 'robot_stimuli\\R_Head_Z_For.mp4', 'robot_stimuli\\R_Base_X_Back.mp4', 'robot_stimuli\\R_Base_Z_Back.mp4']",robot_stimuli\R_Base_X_Back.mp4,10,0,0,0,0,0,12,12,12,,,,,,,,,,,,,,,,,,,,,502.4159940999998,502.4159940999998,space,2.298492100000658,504.7370617999986,505.73692049999954,505.73692049999954,507.8280698999988,,,522.5282567999984,522.5282567999984,522.5282567999984,3,5.706794100000479,528.253744399999,528.253744399999,528.253744399999,528.253744399999,528.253744399999,528.253744399999,528.253744399999,528.253744399999,None,None,None,,,,518.9932745999995,,,,,,,,,,,,,,,10,001,2024-07-29_16h03.51.019,robot_cogshifting_sign,2022.2.5,59.880669801428404,
"['R_Base_Y_For', 'L_Base_X_For', 'R_Base_X_Back', 'R_Arm_X_For']","{'laterality': 'L_Base_X_For', 'localisation': 'R_Arm_X_For', 'movement': 'R_Base_Y_For'}",localisation,"['localisation', 'movement']",R_Arm_X_For,3,2,robot,2,False,False,"['robot_stimuli\\R_Base_Y_For.mp4', 'robot_stimuli\\L_Base_X_For.mp4', 'robot_stimuli\\R_Base_X_Back.mp4', 'robot_stimuli\\R_Arm_X_For.mp4']",robot_stimuli\R_Arm_X_For.mp4,10,0,0,0,0,0,13,13,13,,,,,,,,,,,,,,,,,,,,,528.253744399999,528.253744399999,None,,528.253744399999,529.2539593999991,529.2539593999991,531.3290063999993,,,546.0789571999994,546.0789571999994,546.0789571999994,3,14.69281029999911,560.8036882999986,560.8036882999986,560.8036882999986,560.8036882999986,560.8036882999986,560.8036882999986,560.8036882999986,560.8036882999986,None,None,None,528.253744399999,528.253744399999,,542.4350760999987,,,,,,,,,,,,,,,10,001,2024-07-29_16h03.51.019,robot_cogshifting_sign,2022.2.5,59.880669801428404,
"['L_Torso_X_For', 'R_Torso_Y_Back', 'L_Torso_Y_Back', 'L_Base_Y_For']","{'laterality': 'R_Torso_Y_Back', 'localisation': 'L_Base_Y_For', 'movement': 'L_Torso_X_For'}",laterality,"['laterality', 'movement']",R_Torso_Y_Back,1,2,robot,2,False,True,"['robot_stimuli\\L_Torso_X_For.mp4', 'robot_stimuli\\R_Torso_Y_Back.mp4', 'robot_stimuli\\L_Torso_Y_Back.mp4', 'robot_stimuli\\L_Base_Y_For.mp4']",robot_stimuli\R_Torso_Y_Back.mp4,10,0,0,0,0,0,14,14,14,,,,,,,,,,,,,,,,,,,,,560.8036882999986,560.8036882999986,None,,560.8036882999986,561.8040533999992,561.8040533999992,563.8805220999984,,,578.4604003999993,578.4604003999993,578.4604003999993,2,3.4153394999993907,581.928783899999,585.5263909999994,581.928783899999,585.5263909999994,581.928783899999,585.5263909999994,581.928783899999,585.5263909999994,38.48765432098765,2.1234905000001163,space,560.8036882999986,560.8036882999986,3.5451126000007207,574.9242142999992,,,,,,,,,,,,,,,10,001,2024-07-29_16h03.51.019,robot_cogshifting_sign,2022.2.5,59.880669801428404,
"['R_Arm_Y_For', 'R_Arm_X_Back', 'R_Head_X_For', 'L_Arm_X_For']","{'laterality': 'L_Arm_X_For', 'localisation': 'R_Head_X_For', 'movement': 'R_Arm_Y_For'}",laterality,"['laterality', 'localisation', 'movement']",L_Arm_X_For,3,3,robot,2,True,False,"['robot_stimuli\\R_Arm_Y_For.mp4', 'robot_stimuli\\R_Arm_X_Back.mp4', 'robot_stimuli\\R_Head_X_For.mp4', 'robot_stimuli\\L_Arm_X_For.mp4']",robot_stimuli\L_Arm_X_For.mp4,10,0,0,0,0,0,15,15,15,,,,,,,,,,,,,,,,,,,,,585.5263909999994,585.5263909999994,space,2.3795380999999907,587.9369840999989,588.9372772999996,588.9372772999996,591.0179764999993,,,605.7111639999985,605.7111639999985,605.7111639999985,4,3.163211900000533,608.9039290000001,608.9039290000001,608.9039290000001,608.9039290000001,608.9039290000001,608.9039290000001,608.9039290000001,608.9039290000001,None,None,None,,,,602.069239299999,,,,,,,,,,,,,,,10,001,2024-07-29_16h03.51.019,robot_cogshifting_sign,2022.2.5,59.880669801428404,
"['R_Head_X_Back', 'R_Base_X_Back', 'R_Base_Y_Back', 'L_Base_X_Back']","{'laterality': 'L_Base_X_Back', 'localisation': 'R_Head_X_Back', 'movement': 'R_Base_Y_Back'}",localisation,"['laterality', 'localisation', 'movement']",R_Head_X_Back,0,3,robot,2,False,False,"['robot_stimuli\\R_Head_X_Back.mp4', 'robot_stimuli\\R_Base_X_Back.mp4', 'robot_stimuli\\R_Base_Y_Back.mp4', 'robot_stimuli\\L_Base_X_Back.mp4']",robot_stimuli\R_Head_X_Back.mp4,10,0,0,0,0,0,16,16,16,,,,,,,,,,,,,,,,,,,,,608.9039290000001,608.9039290000001,None,,608.9039290000001,609.9038841999991,609.9038841999991,611.9771320999989,,,626.7447527999993,626.7447527999993,626.7447527999993,1,2.777776000000813,629.5537482999989,629.5537482999989,629.5537482999989,629.5537482999989,629.5537482999989,629.5537482999989,629.5537482999989,629.5537482999989,None,None,None,608.9039290000001,608.9039290000001,,623.1386379999985,,,,,,,,,,,,,,,10,001,2024-07-29_16h03.51.019,robot_cogshifting_sign,2022.2.5,59.880669801428404,
"['L_Torso_X_For', 'R_Base_X_Back', 'R_Torso_X_For', 'R_Torso_Z_Back']","{'laterality': 'L_Torso_X_For', 'localisation': 'R_Base_X_Back', 'movement': 'R_Torso_Z_Back'}",movement,"['laterality', 'localisation', 'movement']",R_Torso_Z_Back,3,3,robot,2,False,True,"['robot_stimuli\\L_Torso_X_For.mp4', 'robot_stimuli\\R_Base_X_Back.mp4', 'robot_stimuli\\R_Torso_X_For.mp4', 'robot_stimuli\\R_Torso_Z_Back.mp4']",robot_stimuli\R_Torso_Z_Back.mp4,10,0,0,0,0,0,17,17,17,,,,,,,,,,,,,,,,,,,,,629.5537482999989,629.5537482999989,None,,629.5537482999989,630.5539304999984,630.5539304999984,632.634263599999,,,647.4561328999989,647.4561328999989,647.4561328999989,4,7.330121300001338,654.8284735999987,658.6229534999984,654.8284735999987,658.6229534999984,654.8284735999987,658.6229534999984,654.8284735999987,658.6229534999984,41.7283950617284,2.0584015000004,space,629.5537482999989,629.5537482999989,3.7499031999996078,643.8197698999993,,,,,,,,,,,,,,,10,001,2024-07-29_16h03.51.019,robot_cogshifting_sign,2022.2.5,59.880669801428404,
,,,,,,,,,,,,,,0,0,0,0,,,,,,,,,,,,,,,,,,,,,,,,,,,,,,,,,,,,,,,,,,,,,,,,,,,,,,,658.6229534999984,658.6229534999984,658.6229534999984,c,2.612321599999632,,,,,,,,,,10,001,2024-07-29_16h03.51.019,robot_cogshifting_sign,2022.2.5,59.880669801428404,
"['red_top_J_0', 'red_right_C_45', 'blue_right_G_0', 'red_right_G_0']","{'color': 'blue_right_G_0', 'position': 'red_top_J_0', 'orientation': 'red_right_C_45'}",orientation,['orientation'],red_right_C_45,1,1,letter,1,True,False,"['robot_stimuli\\\\filler.mp4', 'robot_stimuli\\\\filler.mp4', 'robot_stimuli\\\\filler.mp4', 'robot_stimuli\\\\filler.mp4']",robot_stimuli\\filler.mp4,10,,,,,,,,,,,,,0,0,0,0,,,,,,,,,,,,,,,,,,,665.0370601999985,667.108694999999,,,675.8117052999987,675.8117052999987,675.8117052999987,2,0.8158043999992515,676.6543841999992,676.6543841999992,676.6543841999992,676.6543841999992,676.6543841999992,676.6543841999992,676.6543841999992,676.6543841999992,None,None,None,,,,,,,,,,661.2695691999998,661.2695691999998,space,3.7492449000001216,673.7875071999988,675.8117052999987,,,,10,001,2024-07-29_16h03.51.019,robot_cogshifting_sign,2022.2.5,59.880669801428404,
"['blue_right_J_45', 'red_right_P_0', 'red_top_C_45', 'red_right_K_45']","{'color': 'blue_right_J_45', 'position': 'red_top_C_45', 'orientation': 'red_right_P_0'}",position,['position'],red_top_C_45,2,1,letter,1,False,False,"['robot_stimuli\\\\filler.mp4', 'robot_stimuli\\\\filler.mp4', 'robot_stimuli\\\\filler.mp4', 'robot_stimuli\\\\filler.mp4']",robot_stimuli\\filler.mp4,10,,,,,,,,,,,,,0,1,1,1,,,,,,,,,,,,,,,,,,,676.6543841999992,678.708098699999,,,687.4156643999995,687.4156643999995,687.4156643999995,3,0.5555729999996402,688.0037660999988,688.0037660999988,688.0037660999988,688.0037660999988,688.0037660999988,688.0037660999988,688.0037660999988,688.0037660999988,None,None,None,,,,,,,,,,676.6543841999992,676.6543841999992,None,,685.2001100999987,687.4156643999995,676.6543841999992,676.6543841999992,,10,001,2024-07-29_16h03.51.019,robot_cogshifting_sign,2022.2.5,59.880669801428404,
"['blue_left_K_45', 'red_top_D_45', 'red_left_J_45', 'red_left_C_0']","{'color': 'blue_left_K_45', 'position': 'red_top_D_45', 'orientation': 'red_left_C_0'}",orientation,['orientation'],red_left_C_0,3,1,letter,1,False,False,"['robot_stimuli\\\\filler.mp4', 'robot_stimuli\\\\filler.mp4', 'robot_stimuli\\\\filler.mp4', 'robot_stimuli\\\\filler.mp4']",robot_stimuli\\filler.mp4,10,,,,,,,,,,,,,0,2,2,2,,,,,,,,,,,,,,,,,,,688.0037660999988,690.0597445999992,,,698.9507182999987,698.9507182999987,698.9507182999987,4,1.3238025000009657,700.3035149999996,700.3035149999996,700.3035149999996,700.3035149999996,700.3035149999996,700.3035149999996,700.3035149999996,700.3035149999996,None,None,None,,,,,,,,,,688.0037660999988,688.0037660999988,None,,696.7251701999994,698.9507182999987,688.0037660999988,688.0037660999988,,10,001,2024-07-29_16h03.51.019,robot_cogshifting_sign,2022.2.5,59.880669801428404,
"['blue_top_B_0', 'red_left_S_0', 'red_top_Q_0', 'red_top_W_45']","{'color': 'blue_top_B_0', 'position': 'red_left_S_0', 'orientation': 'red_top_W_45'}",position,['position'],red_left_S_0,1,1,letter,1,False,False,"['robot_stimuli\\\\filler.mp4', 'robot_stimuli\\\\filler.mp4', 'robot_stimuli\\\\filler.mp4', 'robot_stimuli\\\\filler.mp4']",robot_stimuli\\filler.mp4,10,,,,,,,,,,,,,0,3,3,3,,,,,,,,,,,,,,,,,,,700.3035149999996,702.3641855999995,,,710.8449087999998,710.8449087999998,710.8449087999998,2,1.4047263000011299,712.2700930999999,712.2700930999999,712.2700930999999,712.2700930999999,712.2700930999999,712.2700930999999,712.2700930999999,712.2700930999999,None,None,None,,,,,,,,,,700.3035149999996,700.3035149999996,None,,708.8348148999994,710.8449087999998,700.3035149999996,700.3035149999996,,10,001,2024-07-29_16h03.51.019,robot_cogshifting_sign,2022.2.5,59.880669801428404,
"['red_bottom_X_45', 'red_right_H_0', 'blue_right_L_45', 'red_right_L_45']","{'color': 'blue_right_L_45', 'position': 'red_bottom_X_45', 'orientation': 'red_right_H_0'}",color,['color'],blue_right_L_45,2,1,letter,1,False,False,"['robot_stimuli\\\\filler.mp4', 'robot_stimuli\\\\filler.mp4', 'robot_stimuli\\\\filler.mp4', 'robot_stimuli\\\\filler.mp4']",robot_stimuli\\filler.mp4,10,,,,,,,,,,,,,0,4,4,4,,,,,,,,,,,,,,,,,,,712.2700930999999,714.3241609999986,,,722.8027281999985,722.8027281999985,722.8027281999985,3,0.3516653000006045,723.1868796999988,723.1868796999988,723.1868796999988,723.1868796999988,723.1868796999988,723.1868796999988,723.1868796999988,723.1868796999988,None,None,None,,,,,,,,,,712.2700930999999,712.2700930999999,None,,720.7843825999989,722.8027281999985,712.2700930999999,712.2700930999999,,10,001,2024-07-29_16h03.51.019,robot_cogshifting_sign,2022.2.5,59.880669801428404,
"['blue_left_G_45', 'red_left_J_45', 'red_left_K_0', 'red_right_M_45']","{'color': 'blue_left_G_45', 'position': 'red_right_M_45', 'orientation': 'red_left_K_0'}",color,['color'],blue_left_G_45,0,1,letter,1,False,False,"['robot_stimuli\\\\filler.mp4', 'robot_stimuli\\\\filler.mp4', 'robot_stimuli\\\\filler.mp4', 'robot_stimuli\\\\filler.mp4']",robot_stimuli\\filler.mp4,10,,,,,,,,,,,,,0,5,5,5,,,,,,,,,,,,,,,,,,,723.1868796999988,725.2433215000001,,,733.7383276,733.7383276,733.7383276,2,4.375950400000875,738.1368000999992,738.1368000999992,738.1368000999992,738.1368000999992,738.1368000999992,738.1368000999992,738.1368000999992,738.1368000999992,None,None,None,,,,,,,,,,723.1868796999988,723.1868796999988,None,,731.5339305999987,733.7383276,723.1868796999988,723.1868796999988,,10,001,2024-07-29_16h03.51.019,robot_cogshifting_sign,2022.2.5,59.880669801428404,
"['red_right_T_45', 'red_right_K_0', 'blue_right_H_0', 'red_top_P_0']","{'color': 'blue_right_H_0', 'position': 'red_top_P_0', 'orientation': 'red_right_T_45'}",position,['position'],red_top_P_0,3,1,letter,1,False,False,"['robot_stimuli\\\\filler.mp4', 'robot_stimuli\\\\filler.mp4', 'robot_stimuli\\\\filler.mp4', 'robot_stimuli\\\\filler.mp4']",robot_stimuli\\filler.mp4,10,,,,,,,,,,,,,0,6,6,6,,,,,,,,,,,,,,,,,,,738.1368000999992,740.2023653999986,,,748.6905858999999,748.6905858999999,748.6905858999999,4,1.4237496000005194,750.1367993999993,750.1367993999993,750.1367993999993,750.1367993999993,750.1367993999993,750.1367993999993,750.1367993999993,750.1367993999993,None,None,None,,,,,,,,,,738.1368000999992,738.1368000999992,None,,746.6635141999996,748.6905858999999,738.1368000999992,738.1368000999992,,10,001,2024-07-29_16h03.51.019,robot_cogshifting_sign,2022.2.5,59.880669801428404,
"['blue_left_F_45', 'red_left_Z_0', 'red_right_R_45', 'red_left_K_45']","{'color': 'blue_left_F_45', 'position': 'red_right_R_45', 'orientation': 'red_left_Z_0'}",orientation,['orientation'],red_left_Z_0,1,1,letter,1,False,False,"['robot_stimuli\\\\filler.mp4', 'robot_stimuli\\\\filler.mp4', 'robot_stimuli\\\\filler.mp4', 'robot_stimuli\\\\filler.mp4']",robot_stimuli\\filler.mp4,10,,,,,,,,,,,,,0,7,7,7,,,,,,,,,,,,,,,,,,,750.1367993999993,752.1937089999992,,,760.8814573999989,760.8814573999989,760.8814573999989,2,1.1459759999997914,762.0538489999999,762.0538489999999,762.0538489999999,762.0538489999999,762.0538489999999,762.0538489999999,762.0538489999999,762.0538489999999,None,None,None,,,,,,,,,,750.1367993999993,750.1367993999993,None,,758.8605453,760.8814573999989,750.1367993999993,750.1367993999993,,10,001,2024-07-29_16h03.51.019,robot_cogshifting_sign,2022.2.5,59.880669801428404,
"['red_top_V_0', 'red_right_R_45', 'blue_right_T_0', 'red_right_M_0']","{'color': 'blue_right_T_0', 'position': 'red_top_V_0', 'orientation': 'red_right_R_45'}",color,['color'],blue_right_T_0,2,1,letter,1,False,True,"['robot_stimuli\\\\filler.mp4', 'robot_stimuli\\\\filler.mp4', 'robot_stimuli\\\\filler.mp4', 'robot_stimuli\\\\filler.mp4']",robot_stimuli\\filler.mp4,10,,,,,,,,,,,,,0,8,8,8,,,,,,,,,,,,,,,,,,,762.0538489999999,764.1097293999992,,,772.792384299999,772.792384299999,772.792384299999,3,1.1863618000006682,774.0306133999984,778.7014394999987,774.0306133999984,778.7014394999987,774.0306133999984,778.7014394999987,774.0306133999984,778.7014394999987,7.6234567901234565,3.0361740000007558,space,,,4.6196557999992365,,,,,,,762.0538489999999,762.0538489999999,None,,770.7712819999997,772.792384299999,762.0538489999999,762.0538489999999,,10,001,2024-07-29_16h03.51.019,robot_cogshifting_sign,2022.2.5,59.880669801428404,
"['blue_bottom_K_45', 'red_bottom_C_0', 'red_left_Z_45', 'red_bottom_L_45']","{'color': 'blue_bottom_K_45', 'position': 'red_left_Z_45', 'orientation': 'red_bottom_C_0'}",color,"['color', 'orientation']",blue_bottom_K_45,0,2,letter,1,True,False,"['robot_stimuli\\\\filler.mp4', 'robot_stimuli\\\\filler.mp4', 'robot_stimuli\\\\filler.mp4', 'robot_stimuli\\\\filler.mp4']",robot_stimuli\\filler.mp4,10,,,,,,,,,,,,,0,9,9,9,,,,,,,,,,,,,,,,,,,781.7205302999992,783.778857199999,,,792.8650946999987,792.8650946999987,792.8650946999987,1,3.64135510000051,796.5372998999992,796.5372998999992,796.5372998999992,796.5372998999992,796.5372998999992,796.5372998999992,796.5372998999992,796.5372998999992,None,None,None,,,,,,,,,,778.7014394999987,778.7014394999987,space,2.9981693999998242,790.6427067999994,792.8650946999987,,,,10,001,2024-07-29_16h03.51.019,robot_cogshifting_sign,2022.2.5,59.880669801428404,
"['red_left_L_45', 'red_left_T_0', 'red_right_N_45', 'blue_left_T_45']","{'color': 'blue_left_T_45', 'position': 'red_right_N_45', 'orientation': 'red_left_T_0'}",position,"['color', 'position']",red_right_N_45,2,2,letter,1,False,False,"['robot_stimuli\\\\filler.mp4', 'robot_stimuli\\\\filler.mp4', 'robot_stimuli\\\\filler.mp4', 'robot_stimuli\\\\filler.mp4']",robot_stimuli\\filler.mp4,10,,,,,,,,,,,,,0,10,10,10,,,,,,,,,,,,,,,,,,,796.5372998999992,798.5992240999985,,,807.4879005999992,807.4879005999992,807.4879005999992,3,2.2433313000001363,809.7539000999986,809.7539000999986,809.7539000999986,809.7539000999986,809.7539000999986,809.7539000999986,809.7539000999986,809.7539000999986,None,None,None,,,,,,,,,,796.5372998999992,796.5372998999992,None,,805.2754613999987,807.4879005999992,796.5372998999992,796.5372998999992,,10,001,2024-07-29_16h03.51.019,robot_cogshifting_sign,2022.2.5,59.880669801428404,
"['blue_right_M_0', 'red_right_D_0', 'red_right_T_45', 'red_left_L_0']","{'color': 'blue_right_M_0', 'position': 'red_left_L_0', 'orientation': 'red_right_T_45'}",color,"['color', 'position']",blue_right_M_0,0,2,letter,1,False,False,"['robot_stimuli\\\\filler.mp4', 'robot_stimuli\\\\filler.mp4', 'robot_stimuli\\\\filler.mp4', 'robot_stimuli\\\\filler.mp4']",robot_stimuli\\filler.mp4,10,,,,,,,,,,,,,0,11,11,11,,,,,,,,,,,,,,,,,,,809.7539000999986,811.8095424999992,,,820.4861333999997,820.4861333999997,820.4861333999997,1,1.9158315999993647,822.4207780999986,822.4207780999986,822.4207780999986,822.4207780999986,822.4207780999986,822.4207780999986,822.4207780999986,822.4207780999986,None,None,None,,,,,,,,,,809.7539000999986,809.7539000999986,None,,818.4695756000001,820.4861333999997,809.7539000999986,809.7539000999986,,10,001,2024-07-29_16h03.51.019,robot_cogshifting_sign,2022.2.5,59.880669801428404,
"['blue_left_K_0', 'red_left_N_0', 'blue_left_Q_45', 'blue_right_X_0']","{'color': 'red_left_N_0', 'position': 'blue_right_X_0', 'orientation': 'blue_left_Q_45'}",orientation,"['color', 'orientation']",blue_left_Q_45,2,2,letter,1,False,False,"['robot_stimuli\\\\filler.mp4', 'robot_stimuli\\\\filler.mp4', 'robot_stimuli\\\\filler.mp4', 'robot_stimuli\\\\filler.mp4']",robot_stimuli\\filler.mp4,10,,,,,,,,,,,,,0,12,12,12,,,,,,,,,,,,,,,,,,,822.4207780999986,824.4773819999991,,,833.5781061999987,833.5781061999987,833.5781061999987,3,1.600809899999149,835.2040874999984,835.2040874999984,835.2040874999984,835.2040874999984,835.2040874999984,835.2040874999984,835.2040874999984,835.2040874999984,None,None,None,,,,,,,,,,822.4207780999986,822.4207780999986,None,,831.3601211999994,833.5781061999987,822.4207780999986,822.4207780999986,,10,001,2024-07-29_16h03.51.019,robot_cogshifting_sign,2022.2.5,59.880669801428404,
"['red_left_T_0', 'red_top_S_45', 'red_left_T_45', 'blue_left_M_45']","{'color': 'blue_left_M_45', 'position': 'red_top_S_45', 'orientation': 'red_left_T_0'}",color,"['color', 'orientation']",blue_left_M_45,3,2,letter,1,False,False,"['robot_stimuli\\\\filler.mp4', 'robot_stimuli\\\\filler.mp4', 'robot_stimuli\\\\filler.mp4', 'robot_stimuli\\\\filler.mp4']",robot_stimuli\\filler.mp4,10,,,,,,,,,,,,,0,13,13,13,,,,,,,,,,,,,,,,,,,835.2040874999984,837.2580385000001,,,846.1347161999984,846.1347161999984,846.1347161999984,4,2.684720400000515,848.837765799999,848.837765799999,848.837765799999,848.837765799999,848.837765799999,848.837765799999,848.837765799999,848.837765799999,None,None,None,,,,,,,,,,835.2040874999984,835.2040874999984,None,,843.9216908999988,846.1347161999984,835.2040874999984,835.2040874999984,,10,001,2024-07-29_16h03.51.019,robot_cogshifting_sign,2022.2.5,59.880669801428404,
"['blue_bottom_T_0', 'blue_top_B_0', 'blue_top_V_45', 'red_top_B_0']","{'color': 'red_top_B_0', 'position': 'blue_bottom_T_0', 'orientation': 'blue_top_V_45'}",orientation,"['orientation', 'position']",blue_top_V_45,2,2,letter,1,False,False,"['robot_stimuli\\\\filler.mp4', 'robot_stimuli\\\\filler.mp4', 'robot_stimuli\\\\filler.mp4', 'robot_stimuli\\\\filler.mp4']",robot_stimuli\\filler.mp4,10,,,,,,,,,,,,,0,14,14,14,,,,,,,,,,,,,,,,,,,848.837765799999,850.8940813999998,,,859.9779709999984,859.9779709999984,859.9779709999984,3,4.4804088000000775,864.4872414000001,864.4872414000001,864.4872414000001,864.4872414000001,864.4872414000001,864.4872414000001,864.4872414000001,864.4872414000001,None,None,None,,,,,,,,,,848.837765799999,848.837765799999,None,,857.7621171999999,859.9779709999984,848.837765799999,848.837765799999,,10,001,2024-07-29_16h03.51.019,robot_cogshifting_sign,2022.2.5,59.880669801428404,
"['red_top_G_0', 'red_bottom_M_45', 'red_top_X_45', 'blue_top_R_45']","{'color': 'blue_top_R_45', 'position': 'red_bottom_M_45', 'orientation': 'red_top_G_0'}",position,"['orientation', 'position']",red_bottom_M_45,1,2,letter,1,False,False,"['robot_stimuli\\\\filler.mp4', 'robot_stimuli\\\\filler.mp4', 'robot_stimuli\\\\filler.mp4', 'robot_stimuli\\\\filler.mp4']",robot_stimuli\\filler.mp4,10,,,,,,,,,,,,,0,15,15,15,,,,,,,,,,,,,,,,,,,864.4872414000001,866.5461796999989,,,875.2346105999986,875.2346105999986,875.2346105999986,2,1.6485884999983682,876.9039059999996,876.9039059999996,876.9039059999996,876.9039059999996,876.9039059999996,876.9039059999996,876.9039059999996,876.9039059999996,None,None,None,,,,,,,,,,864.4872414000001,864.4872414000001,None,,873.2144128999989,875.2346105999986,864.4872414000001,864.4872414000001,,10,001,2024-07-29_16h03.51.019,robot_cogshifting_sign,2022.2.5,59.880669801428404,
"['red_right_C_0', 'red_right_N_45', 'red_bottom_S_0', 'blue_right_W_0']","{'color': 'blue_right_W_0', 'position': 'red_bottom_S_0', 'orientation': 'red_right_N_45'}",position,"['orientation', 'position']",red_bottom_S_0,2,2,letter,1,False,False,"['robot_stimuli\\\\filler.mp4', 'robot_stimuli\\\\filler.mp4', 'robot_stimuli\\\\filler.mp4', 'robot_stimuli\\\\filler.mp4']",robot_stimuli\\filler.mp4,10,,,,,,,,,,,,,0,16,16,16,,,,,,,,,,,,,,,,,,,876.9039059999996,878.9584873999993,,,887.8435837999987,887.8435837999987,887.8435837999987,3,1.8556005000009463,889.7209089999997,889.7209089999997,889.7209089999997,889.7209089999997,889.7209089999997,889.7209089999997,889.7209089999997,889.7209089999997,None,None,None,,,,,,,,,,876.9039059999996,876.9039059999996,None,,885.6348118999995,887.8435837999987,876.9039059999996,876.9039059999996,,10,001,2024-07-29_16h03.51.019,robot_cogshifting_sign,2022.2.5,59.880669801428404,
"['blue_right_J_45', 'red_right_T_0', 'red_right_R_45', 'red_top_Q_45']","{'color': 'blue_right_J_45', 'position': 'red_top_Q_45', 'orientation': 'red_right_T_0'}",orientation,"['color', 'orientation']",red_right_T_0,1,2,letter,1,False,True,"['robot_stimuli\\\\filler.mp4', 'robot_stimuli\\\\filler.mp4', 'robot_stimuli\\\\filler.mp4', 'robot_stimuli\\\\filler.mp4']",robot_stimuli\\filler.mp4,10,,,,,,,,,,,,,0,17,17,17,,,,,,,,,,,,,,,,,,,889.7209089999997,891.7753038999999,,,900.6532587999991,900.6532587999991,900.6532587999991,2,1.8534498999997595,902.5647762999997,907.0384101,902.5647762999997,907.0384101,902.5647762999997,907.0384101,902.5647762999997,907.0384101,18.117283950617278,2.6795382000000245,space,,,4.413322800000969,,,,,,,889.7209089999997,889.7209089999997,None,,898.4406912999984,900.6532587999991,889.7209089999997,889.7209089999997,,10,001,2024-07-29_16h03.51.019,robot_cogshifting_sign,2022.2.5,59.880669801428404,
"['red_right_D_45', 'blue_left_P_45', 'red_left_M_45', 'red_left_W_0']","{'color': 'blue_left_P_45', 'position': 'red_right_D_45', 'orientation': 'red_left_W_0'}",orientation,"['color', 'orientation', 'position']",red_left_W_0,3,3,letter,1,True,False,"['robot_stimuli\\\\filler.mp4', 'robot_stimuli\\\\filler.mp4', 'robot_stimuli\\\\filler.mp4', 'robot_stimuli\\\\filler.mp4']",robot_stimuli\\filler.mp4,10,,,,,,,,,,,,,0,18,18,18,,,,,,,,,,,,,,,,,,,909.8705143999996,911.925319,,,920.8069141999986,920.8069141999986,920.8069141999986,4,2.5483965999992506,923.387381999999,923.387381999999,923.387381999999,923.387381999999,923.387381999999,923.387381999999,923.387381999999,923.387381999999,None,None,None,,,,,,,,,,907.0384101,907.0384101,space,2.813198099998772,918.5934985999993,920.8069141999986,,,,10,001,2024-07-29_16h03.51.019,robot_cogshifting_sign,2022.2.5,59.880669801428404,
"['blue_right_P_45', 'blue_right_V_0', 'red_right_Z_45', 'blue_top_F_45']","{'color': 'red_right_Z_45', 'position': 'blue_top_F_45', 'orientation': 'blue_right_V_0'}",orientation,"['color', 'orientation', 'position']",blue_right_V_0,1,3,letter,1,False,False,"['robot_stimuli\\\\filler.mp4', 'robot_stimuli\\\\filler.mp4', 'robot_stimuli\\\\filler.mp4', 'robot_stimuli\\\\filler.mp4']",robot_stimuli\\filler.mp4,10,,,,,,,,,,,,,0,19,19,19,,,,,,,,,,,,,,,,,,,923.387381999999,925.4495026999994,,,934.1303628999995,934.1303628999995,934.1303628999995,2,3.6953895000006014,937.8539291999987,937.8539291999987,937.8539291999987,937.8539291999987,937.8539291999987,937.8539291999987,937.8539291999987,937.8539291999987,None,None,None,,,,,,,,,,923.387381999999,923.387381999999,None,,932.1185139999998,934.1303628999995,923.387381999999,923.387381999999,,10,001,2024-07-29_16h03.51.019,robot_cogshifting_sign,2022.2.5,59.880669801428404,
"['red_left_B_45', 'red_bottom_C_45', 'blue_bottom_B_45', 'red_bottom_Q_0']","{'color': 'blue_bottom_B_45', 'position': 'red_left_B_45', 'orientation': 'red_bottom_Q_0'}",color,"['color', 'orientation', 'position']",blue_bottom_B_45,2,3,letter,1,False,False,"['robot_stimuli\\\\filler.mp4', 'robot_stimuli\\\\filler.mp4', 'robot_stimuli\\\\filler.mp4', 'robot_stimuli\\\\filler.mp4']",robot_stimuli\\filler.mp4,10,,,,,,,,,,,,,0,20,20,20,,,,,,,,,,,,,,,,,,,937.8539291999987,939.9149326999996,,,948.4018349999988,948.4018349999988,948.4018349999988,3,2.616530999999668,951.0373648999994,951.0373648999994,951.0373648999994,951.0373648999994,951.0373648999994,951.0373648999994,951.0373648999994,951.0373648999994,None,None,None,,,,,,,,,,937.8539291999987,937.8539291999987,None,,946.3814790999986,948.4018349999988,937.8539291999987,937.8539291999987,,10,001,2024-07-29_16h03.51.019,robot_cogshifting_sign,2022.2.5,59.880669801428404,
"['red_top_G_0', 'blue_top_R_0', 'red_right_W_0', 'red_top_B_45']","{'color': 'blue_top_R_0', 'position': 'red_right_W_0', 'orientation': 'red_top_B_45'}",position,"['color', 'orientation', 'position']",red_right_W_0,2,3,letter,1,False,False,"['robot_stimuli\\\\filler.mp4', 'robot_stimuli\\\\filler.mp4', 'robot_stimuli\\\\filler.mp4', 'robot_stimuli\\\\filler.mp4']",robot_stimuli\\filler.mp4,10,,,,,,,,,,,,,0,21,21,21,,,,,,,,,,,,,,,,,,,951.0373648999994,953.0955933999994,,,961.9757098999999,961.9757098999999,961.9757098999999,3,2.6037422999997943,964.6039949999995,964.6039949999995,964.6039949999995,964.6039949999995,964.6039949999995,964.6039949999995,964.6039949999995,964.6039949999995,None,None,None,,,,,,,,,,951.0373648999994,951.0373648999994,None,,959.7596498999992,961.9757098999999,951.0373648999994,951.0373648999994,,10,001,2024-07-29_16h03.51.019,robot_cogshifting_sign,2022.2.5,59.880669801428404,
"['red_left_X_0', 'red_bottom_Z_0', 'blue_left_V_0', 'red_left_H_45']","{'color': 'blue_left_V_0', 'position': 'red_bottom_Z_0', 'orientation': 'red_left_H_45'}",orientation,"['color', 'orientation', 'position']",red_left_H_45,3,3,letter,1,False,False,"['robot_stimuli\\\\filler.mp4', 'robot_stimuli\\\\filler.mp4', 'robot_stimuli\\\\filler.mp4', 'robot_stimuli\\\\filler.mp4']",robot_stimuli\\filler.mp4,10,,,,,,,,,,,,,0,22,22,22,,,,,,,,,,,,,,,,,,,964.6039949999995,966.6615441999984,,,975.3591105999985,975.3591105999985,975.3591105999985,4,2.80399159999979,978.1873617000001,978.1873617000001,978.1873617000001,978.1873617000001,978.1873617000001,978.1873617000001,978.1873617000001,978.1873617000001,None,None,None,,,,,,,,,,964.6039949999995,964.6039949999995,None,,973.1384260999985,975.3591105999985,964.6039949999995,964.6039949999995,,10,001,2024-07-29_16h03.51.019,robot_cogshifting_sign,2022.2.5,59.880669801428404,
"['red_bottom_T_45', 'red_bottom_L_0', 'blue_bottom_R_45', 'red_top_M_45']","{'color': 'blue_bottom_R_45', 'position': 'red_top_M_45', 'orientation': 'red_bottom_L_0'}",color,"['color', 'orientation', 'position']",blue_bottom_R_45,2,3,letter,1,False,False,"['robot_stimuli\\\\filler.mp4', 'robot_stimuli\\\\filler.mp4', 'robot_stimuli\\\\filler.mp4', 'robot_stimuli\\\\filler.mp4']",robot_stimuli\\filler.mp4,10,,,,,,,,,,,,,0,23,23,23,,,,,,,,,,,,,,,,,,,978.1873617000001,980.2411218999987,,,988.9287257999986,988.9287257999986,988.9287257999986,3,3.2417410999987624,992.1872382999991,992.1872382999991,992.1872382999991,992.1872382999991,992.1872382999991,992.1872382999991,992.1872382999991,992.1872382999991,None,None,None,,,,,,,,,,978.1873617000001,978.1873617000001,None,,986.7124847999985,988.9287257999986,978.1873617000001,978.1873617000001,,10,001,2024-07-29_16h03.51.019,robot_cogshifting_sign,2022.2.5,59.880669801428404,
"['red_left_M_0', 'blue_left_G_45', 'blue_left_X_0', 'blue_right_S_0']","{'color': 'red_left_M_0', 'position': 'blue_right_S_0', 'orientation': 'blue_left_G_45'}",position,"['color', 'orientation', 'position']",blue_right_S_0,3,3,letter,1,False,False,"['robot_stimuli\\\\filler.mp4', 'robot_stimuli\\\\filler.mp4', 'robot_stimuli\\\\filler.mp4', 'robot_stimuli\\\\filler.mp4']",robot_stimuli\\filler.mp4,10,,,,,,,,,,,,,0,24,24,24,,,,,,,,,,,,,,,,,,,992.1872382999991,994.2435826000001,,,1002.9354178999984,1002.9354178999984,1002.9354178999984,4,3.859685499999614,1006.8206640999997,1006.8206640999997,1006.8206640999997,1006.8206640999997,1006.8206640999997,1006.8206640999997,1006.8206640999997,1006.8206640999997,None,None,None,,,,,,,,,,992.1872382999991,992.1872382999991,None,,1000.9151296,1002.9354178999984,992.1872382999991,992.1872382999991,,10,001,2024-07-29_16h03.51.019,robot_cogshifting_sign,2022.2.5,59.880669801428404,
"['red_top_M_45', 'blue_bottom_F_45', 'red_bottom_H_45', 'red_bottom_N_0']","{'color': 'blue_bottom_F_45', 'position': 'red_top_M_45', 'orientation': 'red_bottom_N_0'}",color,"['color', 'orientation', 'position']",blue_bottom_F_45,1,3,letter,1,False,False,"['robot_stimuli\\\\filler.mp4', 'robot_stimuli\\\\filler.mp4', 'robot_stimuli\\\\filler.mp4', 'robot_stimuli\\\\filler.mp4']",robot_stimuli\\filler.mp4,10,,,,,,,,,,,,,0,25,25,25,,,,,,,,,,,,,,,,,,,1006.8206640999997,1008.8769247,,,1017.759619299999,1017.759619299999,1017.759619299999,3,6.1073513999999705,1023.8874705999988,1023.8874705999988,1023.8874705999988,1023.8874705999988,1023.8874705999988,1023.8874705999988,1023.8874705999988,1023.8874705999988,None,None,None,,,,,,,,,,1006.8206640999997,1006.8206640999997,None,,1015.5433206999987,1017.759619299999,1006.8206640999997,1006.8206640999997,,10,001,2024-07-29_16h03.51.019,robot_cogshifting_sign,2022.2.5,59.880669801428404,
"['blue_bottom_Q_0', 'blue_bottom_R_45', 'blue_right_W_0', 'red_bottom_R_0']","{'color': 'red_bottom_R_0', 'position': 'blue_right_W_0', 'orientation': 'blue_bottom_R_45'}",position,"['color', 'orientation', 'position']",blue_right_W_0,2,3,letter,1,False,True,"['robot_stimuli\\\\filler.mp4', 'robot_stimuli\\\\filler.mp4', 'robot_stimuli\\\\filler.mp4', 'robot_stimuli\\\\filler.mp4']",robot_stimuli\\filler.mp4,10,,,,,,,,,,,,,0,26,26,26,,,,,,,,,,,,,,,,,,,1023.8874705999988,1025.9410527,,,1035.0328828000002,1035.0328828000002,1035.0328828000002,3,2.5457643999998254,1037.629567099999,1187.8608673999988,1037.629567099999,1187.8608673999988,1037.629567099999,1187.8608673999988,1037.629567099999,1187.8608673999988,36.79012345679013,2.6013450999998895,space,,,150.1637912999995,,,,,,,1023.8874705999988,1023.8874705999988,None,,1032.8199069999991,1035.0328828000002,1023.8874705999988,1023.8874705999988,,10,001,2024-07-29_16h03.51.019,robot_cogshifting_sign,2022.2.5,59.880669801428404,
"['R_Torso_X_For', 'L_Base_X_For', 'R_Base_Z_For', 'R_Base_X_For']","{'laterality': 'L_Base_X_For', 'localisation': 'R_Torso_X_For', 'movement': 'R_Base_Z_For'}",movement,"['laterality', 'movement']",R_Base_Z_For,2,2,robot,2,True,False,"['robot_stimuli\\R_Torso_X_For.mp4', 'robot_stimuli\\L_Base_X_For.mp4', 'robot_stimuli\\R_Base_Z_For.mp4', 'robot_stimuli\\R_Base_X_For.mp4']",robot_stimuli\R_Base_Z_For.mp4,10,,,,,,,,,,,,,0,27,27,27,,,,,,,,,,,,,,,,,,,1202.4873831999994,1204.5802252999983,,,1219.2328718999997,1219.2328718999997,1219.2328718999997,3,2.210035500000231,1221.4707918999993,1221.4707918999993,1221.4707918999993,1221.4707918999993,1221.4707918999993,1221.4707918999993,1221.4707918999993,1221.4707918999993,None,None,None,,,,,,,,,,1187.8608673999988,1187.8608673999988,space,14.605996100000993,,,,,1215.6824788999984,10,001,2024-07-29_16h03.51.019,robot_cogshifting_sign,2022.2.5,59.880669801428404,
"['R_Torso_Y_For', 'L_Torso_Z_Back', 'R_Torso_Z_For', 'R_Head_Z_Back']","{'laterality': 'L_Torso_Z_Back', 'localisation': 'R_Head_Z_Back', 'movement': 'R_Torso_Y_For'}",localisation,"['localisation', 'movement']",R_Head_Z_Back,3,2,robot,2,False,False,"['robot_stimuli\\R_Torso_Y_For.mp4', 'robot_stimuli\\L_Torso_Z_Back.mp4', 'robot_stimuli\\R_Torso_Z_For.mp4', 'robot_stimuli\\R_Head_Z_Back.mp4']",robot_stimuli\R_Head_Z_Back.mp4,10,,,,,,,,,,,,,0,28,28,28,,,,,,,,,,,,,,,,,,,1221.4707918999993,1223.559918699999,,,1238.277184999999,1238.277184999999,1238.277184999999,4,2.0923910000001342,1240.3873643999996,1240.3873643999996,1240.3873643999996,1240.3873643999996,1240.3873643999996,1240.3873643999996,1240.3873643999996,1240.3873643999996,None,None,None,,,,,,,,,,1221.4707918999993,1221.4707918999993,None,,,,1221.4707918999993,1221.4707918999993,1234.6323533999985,10,001,2024-07-29_16h03.51.019,robot_cogshifting_sign,2022.2.5,59.880669801428404,
"['R_Head_Z_Back', 'L_Head_Z_For', 'L_Base_Z_For', 'L_Head_X_Back']","{'laterality': 'R_Head_Z_Back', 'localisation': 'L_Base_Z_For', 'movement': 'L_Head_X_Back'}",localisation,"['laterality', 'localisation']",L_Base_Z_For,2,2,robot,2,False,False,"['robot_stimuli\\R_Head_Z_Back.mp4', 'robot_stimuli\\L_Head_Z_For.mp4', 'robot_stimuli\\L_Base_Z_For.mp4', 'robot_stimuli\\L_Head_X_Back.mp4']",robot_stimuli\L_Base_Z_For.mp4,10,,,,,,,,,,,,,0,29,29,29,,,,,,,,,,,,,,,,,,,1240.3873643999996,1242.4581357999996,,,1257.2605119,1257.2605119,1257.2605119,3,2.7345330999996804,1260.0207745999996,1260.0207745999996,1260.0207745999996,1260.0207745999996,1260.0207745999996,1260.0207745999996,1260.0207745999996,1260.0207745999996,None,None,None,,,,,,,,,,1240.3873643999996,1240.3873643999996,None,,,,1240.3873643999996,1240.3873643999996,1253.6203969999988,10,001,2024-07-29_16h03.51.019,robot_cogshifting_sign,2022.2.5,59.880669801428404,
"['R_Arm_Y_Back', 'R_Base_Z_Back', 'L_Base_Y_Back', 'R_Base_Y_Back']","{'laterality': 'L_Base_Y_Back', 'localisation': 'R_Arm_Y_Back', 'movement': 'R_Base_Z_Back'}",laterality,"['laterality', 'localisation']",L_Base_Y_Back,2,2,robot,2,False,False,"['robot_stimuli\\R_Arm_Y_Back.mp4', 'robot_stimuli\\R_Base_Z_Back.mp4', 'robot_stimuli\\L_Base_Y_Back.mp4', 'robot_stimuli\\R_Base_Y_Back.mp4']",robot_stimuli\L_Base_Y_Back.mp4,10,,,,,,,,,,,,,0,30,30,30,,,,,,,,,,,,,,,,,,,1260.0207745999996,1262.0968544999996,,,1276.7407956999996,1276.7407956999996,1276.7407956999996,3,3.5184170000011363,1280.2875181,1280.2875181,1280.2875181,1280.2875181,1280.2875181,1280.2875181,1280.2875181,1280.2875181,None,None,None,,,,,,,,,,1260.0207745999996,1260.0207745999996,None,,,,1260.0207745999996,1260.0207745999996,1273.1146080999988,10,001,2024-07-29_16h03.51.019,robot_cogshifting_sign,2022.2.5,59.880669801428404,
"['L_Base_X_Back', 'L_Head_X_Back', 'R_Base_X_Back', 'L_Base_Z_For']","{'laterality': 'R_Base_X_Back', 'localisation': 'L_Head_X_Back', 'movement': 'L_Base_Z_For'}",laterality,"['laterality', 'movement']",R_Base_X_Back,2,2,robot,2,False,False,"['robot_stimuli\\L_Base_X_Back.mp4', 'robot_stimuli\\L_Head_X_Back.mp4', 'robot_stimuli\\R_Base_X_Back.mp4', 'robot_stimuli\\L_Base_Z_For.mp4']",robot_stimuli\R_Base_X_Back.mp4,10,,,,,,,,,,,,,0,31,31,31,,,,,,,,,,,,,,,,,,,1280.2875181,1282.3627864999999,,,1297.159397899999,1297.159397899999,1297.159397899999,3,2.3858899000006204,1299.5708292999989,1299.5708292999989,1299.5708292999989,1299.5708292999989,1299.5708292999989,1299.5708292999989,1299.5708292999989,1299.5708292999989,None,None,None,,,,,,,,,,1280.2875181,1280.2875181,None,,,,1280.2875181,1280.2875181,1293.5171104,10,001,2024-07-29_16h03.51.019,robot_cogshifting_sign,2022.2.5,59.880669801428404,
"['L_Torso_Z_Back', 'R_Torso_Z_Back', 'R_Base_Z_For', 'R_Torso_X_For']","{'laterality': 'L_Torso_Z_Back', 'localisation': 'R_Base_Z_For', 'movement': 'R_Torso_X_For'}",movement,"['laterality', 'movement']",R_Torso_X_For,3,2,robot,2,False,False,"['robot_stimuli\\L_Torso_Z_Back.mp4', 'robot_stimuli\\R_Torso_Z_Back.mp4', 'robot_stimuli\\R_Base_Z_For.mp4', 'robot_stimuli\\R_Torso_X_For.mp4']",robot_stimuli\R_Torso_X_For.mp4,10,,,,,,,,,,,,,0,32,32,32,,,,,,,,,,,,,,,,,,,1299.5708292999989,1301.6470727999986,,,1316.3099837999998,1316.3099837999998,1316.3099837999998,4,2.4285478000001604,1318.7707763999988,1318.7707763999988,1318.7707763999988,1318.7707763999988,1318.7707763999988,1318.7707763999988,1318.7707763999988,1318.7707763999988,None,None,None,,,,,,,,,,1299.5708292999989,1299.5708292999989,None,,,,1299.5708292999989,1299.5708292999989,1312.6815914999988,10,001,2024-07-29_16h03.51.019,robot_cogshifting_sign,2022.2.5,59.880669801428404,
"['L_Arm_Y_For', 'R_Arm_X_Back', 'L_Arm_X_Back', 'L_Base_X_Back']","{'laterality': 'R_Arm_X_Back', 'localisation': 'L_Base_X_Back', 'movement': 'L_Arm_Y_For'}",localisation,"['laterality', 'localisation']",L_Base_X_Back,3,2,robot,2,False,False,"['robot_stimuli\\L_Arm_Y_For.mp4', 'robot_stimuli\\R_Arm_X_Back.mp4', 'robot_stimuli\\L_Arm_X_Back.mp4', 'robot_stimuli\\L_Base_X_Back.mp4']",robot_stimuli\L_Base_X_Back.mp4,10,,,,,,,,,,,,,0,33,33,33,,,,,,,,,,,,,,,,,,,1318.7707763999988,1320.8596300999998,,,1335.6301421999997,1335.6301421999997,1335.6301421999997,4,1.7721450999997614,1337.4211049999994,1337.4211049999994,1337.4211049999994,1337.4211049999994,1337.4211049999994,1337.4211049999994,1337.4211049999994,1337.4211049999994,None,None,None,,,,,,,,,,1318.7707763999988,1318.7707763999988,None,,,,1318.7707763999988,1318.7707763999988,1332.0275957999984,10,001,2024-07-29_16h03.51.019,robot_cogshifting_sign,2022.2.5,59.880669801428404,
"['R_Head_X_For', 'R_Head_Y_For', 'R_Torso_Y_Back', 'L_Head_Y_Back']","{'laterality': 'L_Head_Y_Back', 'localisation': 'R_Torso_Y_Back', 'movement': 'R_Head_X_For'}",laterality,"['laterality', 'movement']",L_Head_Y_Back,3,2,robot,2,False,False,"['robot_stimuli\\R_Head_X_For.mp4', 'robot_stimuli\\R_Head_Y_For.mp4', 'robot_stimuli\\R_Torso_Y_Back.mp4', 'robot_stimuli\\L_Head_Y_Back.mp4']",robot_stimuli\L_Head_Y_Back.mp4,10,,,,,,,,,,,,,0,34,34,34,,,,,,,,,,,,,,,,,,,1337.4211049999994,1339.4932818999987,,,1354.3194906999997,1354.3194906999997,1354.3194906999997,4,2.6823658000012074,1357.0207278999987,1357.0207278999987,1357.0207278999987,1357.0207278999987,1357.0207278999987,1357.0207278999987,1357.0207278999987,1357.0207278999987,None,None,None,,,,,,,,,,1337.4211049999994,1337.4211049999994,None,,,,1337.4211049999994,1337.4211049999994,1350.6804980999987,10,001,2024-07-29_16h03.51.019,robot_cogshifting_sign,2022.2.5,59.880669801428404,
"['L_Head_Z_Back', 'L_Base_Y_For', 'R_Base_Z_For', 'L_Base_Z_Back']","{'laterality': 'R_Base_Z_For', 'localisation': 'L_Head_Z_Back', 'movement': 'L_Base_Y_For'}",movement,"['localisation', 'movement']",L_Base_Y_For,1,2,robot,2,False,True,"['robot_stimuli\\L_Head_Z_Back.mp4', 'robot_stimuli\\L_Base_Y_For.mp4', 'robot_stimuli\\R_Base_Z_For.mp4', 'robot_stimuli\\L_Base_Z_Back.mp4']",robot_stimuli\L_Base_Y_For.mp4,10,,,,,,,,,,,,,0,35,35,35,,,,,,,,,,,,,,,,,,,1357.0207278999987,1359.1100161999984,,,1373.8242398999992,1373.8242398999992,1373.8242398999992,2,3.570781700000225,1377.4459567999984,1381.3938503999998,1377.4459567999984,1381.3938503999998,1377.4459567999984,1381.3938503999998,1377.4459567999984,1381.3938503999998,36.635802469135804,2.4293340999993234,space,,,3.883691799999724,,,,,,,1357.0207278999987,1357.0207278999987,None,,,,1357.0207278999987,1357.0207278999987,1370.1893662999992,10,001,2024-07-29_16h03.51.019,robot_cogshifting_sign,2022.2.5,59.880669801428404,
"['L_Base_Y_For', 'L_Base_X_For', 'R_Base_Y_For', 'L_Torso_Y_For']","{'laterality': 'R_Base_Y_For', 'localisation': 'L_Torso_Y_For', 'movement': 'L_Base_X_For'}",localisation,['localisation'],L_Torso_Y_For,3,1,robot,2,True,False,"['robot_stimuli\\L_Base_Y_For.mp4', 'robot_stimuli\\L_Base_X_For.mp4', 'robot_stimuli\\R_Base_Y_For.mp4', 'robot_stimuli\\L_Torso_Y_For.mp4']",robot_stimuli\L_Torso_Y_For.mp4,10,,,,,,,,,,,,,0,36,36,36,,,,,,,,,,,,,,,,,,,1384.137498099999,1386.211346099999,,,1400.860340199999,1400.860340199999,1400.860340199999,4,1.389557699998477,1402.270805099999,1402.270805099999,1402.270805099999,1402.270805099999,1402.270805099999,1402.270805099999,1402.270805099999,1402.270805099999,None,None,None,,,,,,,,,,1381.3938503999998,1381.3938503999998,space,2.720764399999098,,,,,1397.2154839999985,10,001,2024-07-29_16h03.51.019,robot_cogshifting_sign,2022.2.5,59.880669801428404,
"['R_Arm_Z_For', 'R_Arm_Y_Back', 'L_Arm_Y_Back', 'R_Torso_Y_For']","{'laterality': 'L_Arm_Y_Back', 'localisation': 'R_Torso_Y_For', 'movement': 'R_Arm_Z_For'}",laterality,['laterality'],L_Arm_Y_Back,2,1,robot,2,False,False,"['robot_stimuli\\R_Arm_Z_For.mp4', 'robot_stimuli\\R_Arm_Y_Back.mp4', 'robot_stimuli\\L_Arm_Y_Back.mp4', 'robot_stimuli\\R_Torso_Y_For.mp4']",robot_stimuli\L_Arm_Y_Back.mp4,10,,,,,,,,,,,,,0,37,37,37,,,,,,,,,,,,,,,,,,,1402.270805099999,1404.3460188999998,,,1419.141575399999,1419.141575399999,1419.141575399999,3,3.9084353999987798,1423.0708912999999,1423.0708912999999,1423.0708912999999,1423.0708912999999,1423.0708912999999,1423.0708912999999,1423.0708912999999,1423.0708912999999,None,None,None,,,,,,,,,,1402.270805099999,1402.270805099999,None,,,,1402.270805099999,1402.270805099999,1415.5062775999995,10,001,2024-07-29_16h03.51.019,robot_cogshifting_sign,2022.2.5,59.880669801428404,
"['L_Base_Z_Back', 'R_Base_Z_Back', 'L_Base_Y_Back', 'L_Torso_Z_For']","{'laterality': 'R_Base_Z_Back', 'localisation': 'L_Torso_Z_For', 'movement': 'L_Base_Y_Back'}",movement,['movement'],L_Base_Y_Back,2,1,robot,2,False,False,"['robot_stimuli\\L_Base_Z_Back.mp4', 'robot_stimuli\\R_Base_Z_Back.mp4', 'robot_stimuli\\L_Base_Y_Back.mp4', 'robot_stimuli\\L_Torso_Z_For.mp4']",robot_stimuli\L_Base_Y_Back.mp4,10,,,,,,,,,,,,,0,38,38,38,,,,,,,,,,,,,,,,,,,1423.0708912999999,1425.145636199999,,,1439.7956326999993,1439.7956326999993,1439.7956326999993,3,2.199351100000058,1442.0209006999994,1442.0209006999994,1442.0209006999994,1442.0209006999994,1442.0209006999994,1442.0209006999994,1442.0209006999994,1442.0209006999994,None,None,None,,,,,,,,,,1423.0708912999999,1423.0708912999999,None,,,,1423.0708912999999,1423.0708912999999,1436.1463170999996,10,001,2024-07-29_16h03.51.019,robot_cogshifting_sign,2022.2.5,59.880669801428404,
"['L_Base_Y_Back', 'L_Arm_X_Back', 'L_Base_X_For', 'R_Base_X_Back']","{'laterality': 'R_Base_X_Back', 'localisation': 'L_Arm_X_Back', 'movement': 'L_Base_Y_Back'}",movement,['movement'],L_Base_Y_Back,0,1,robot,2,False,False,"['robot_stimuli\\L_Base_Y_Back.mp4', 'robot_stimuli\\L_Arm_X_Back.mp4', 'robot_stimuli\\L_Base_X_For.mp4', 'robot_stimuli\\R_Base_X_Back.mp4']",robot_stimuli\L_Base_Y_Back.mp4,10,,,,,,,,,,,,,0,39,39,39,,,,,,,,,,,,,,,,,,,1442.0209006999994,1444.0916640999985,,,1458.761570999999,1458.761570999999,1458.761570999999,1,1.1917496000005485,1459.9707825999994,1459.9707825999994,1459.9707825999994,1459.9707825999994,1459.9707825999994,1459.9707825999994,1459.9707825999994,1459.9707825999994,None,None,None,,,,,,,,,,1442.0209006999994,1442.0209006999994,None,,,,1442.0209006999994,1442.0209006999994,1455.1289707999986,10,001,2024-07-29_16h03.51.019,robot_cogshifting_sign,2022.2.5,59.880669801428404,
"['L_Torso_Y_Back', 'R_Torso_Y_For', 'L_Base_Y_For', 'L_Torso_Z_Back']","{'laterality': 'R_Torso_Y_For', 'localisation': 'L_Base_Y_For', 'movement': 'L_Torso_Z_Back'}",localisation,['localisation'],L_Base_Y_For,2,1,robot,2,False,False,"['robot_stimuli\\L_Torso_Y_Back.mp4', 'robot_stimuli\\R_Torso_Y_For.mp4', 'robot_stimuli\\L_Base_Y_For.mp4', 'robot_stimuli\\L_Torso_Z_Back.mp4']",robot_stimuli\L_Base_Y_For.mp4,10,,,,,,,,,,,,,0,40,40,40,,,,,,,,,,,,,,,,,,,1459.9707825999994,1462.0432625999983,,,1476.4780689,1476.4780689,1476.4780689,3,1.676198099999965,1478.1708817999988,1478.1708817999988,1478.1708817999988,1478.1708817999988,1478.1708817999988,1478.1708817999988,1478.1708817999988,1478.1708817999988,None,None,None,,,,,,,,,,1459.9707825999994,1459.9707825999994,None,,,,1459.9707825999994,1459.9707825999994,1472.9766224999985,10,001,2024-07-29_16h03.51.019,robot_cogshifting_sign,2022.2.5,59.880669801428404,
"['L_Arm_Y_Back', 'R_Arm_Y_Back', 'L_Arm_X_Back', 'L_Head_Y_Back']","{'laterality': 'R_Arm_Y_Back', 'localisation': 'L_Head_Y_Back', 'movement': 'L_Arm_X_Back'}",laterality,['laterality'],R_Arm_Y_Back,1,1,robot,2,False,False,"['robot_stimuli\\L_Arm_Y_Back.mp4', 'robot_stimuli\\R_Arm_Y_Back.mp4', 'robot_stimuli\\L_Arm_X_Back.mp4', 'robot_stimuli\\L_Head_Y_Back.mp4']",robot_stimuli\R_Arm_Y_Back.mp4,10,,,,,,,,,,,,,0,41,41,41,,,,,,,,,,,,,,,,,,,1478.1708817999988,1480.244480199999,,,1495.0484213,1495.0484213,1495.0484213,2,1.6347180000011576,1496.7042278999998,1496.7042278999998,1496.7042278999998,1496.7042278999998,1496.7042278999998,1496.7042278999998,1496.7042278999998,1496.7042278999998,None,None,None,,,,,,,,,,1478.1708817999988,1478.1708817999988,None,,,,1478.1708817999988,1478.1708817999988,1491.4128683,10,001,2024-07-29_16h03.51.019,robot_cogshifting_sign,2022.2.5,59.880669801428404,
"['L_Base_Y_For', 'R_Head_Y_For', 'L_Head_Y_For', 'L_Head_X_For']","{'laterality': 'R_Head_Y_For', 'localisation': 'L_Base_Y_For', 'movement': 'L_Head_X_For'}",localisation,['localisation'],L_Base_Y_For,0,1,robot,2,False,False,"['robot_stimuli\\L_Base_Y_For.mp4', 'robot_stimuli\\R_Head_Y_For.mp4', 'robot_stimuli\\L_Head_Y_For.mp4', 'robot_stimuli\\L_Head_X_For.mp4']",robot_stimuli\L_Base_Y_For.mp4,10,,,,,,,,,,,,,0,42,42,42,,,,,,,,,,,,,,,,,,,1496.7042278999998,1498.7803440999996,,,1513.4072008999992,1513.4072008999992,1513.4072008999992,1,1.4593083999989176,1514.8875408999993,1514.8875408999993,1514.8875408999993,1514.8875408999993,1514.8875408999993,1514.8875408999993,1514.8875408999993,1514.8875408999993,None,None,None,,,,,,,,,,1496.7042278999998,1496.7042278999998,None,,,,1496.7042278999998,1496.7042278999998,1509.838123399999,10,001,2024-07-29_16h03.51.019,robot_cogshifting_sign,2022.2.5,59.880669801428404,
"['R_Torso_Y_For', 'L_Torso_Y_Back', 'R_Head_Y_Back', 'R_Torso_X_For']","{'laterality': 'L_Torso_Y_Back', 'localisation': 'R_Head_Y_Back', 'movement': 'R_Torso_X_For'}",laterality,['laterality'],L_Torso_Y_Back,1,1,robot,2,False,False,"['robot_stimuli\\R_Torso_Y_For.mp4', 'robot_stimuli\\L_Torso_Y_Back.mp4', 'robot_stimuli\\R_Head_Y_Back.mp4', 'robot_stimuli\\R_Torso_X_For.mp4']",robot_stimuli\L_Torso_Y_Back.mp4,10,,,,,,,,,,,,,0,43,43,43,,,,,,,,,,,,,,,,,,,1514.8875408999993,1516.9602424999994,,,1531.6105027999984,1531.6105027999984,1531.6105027999984,2,2.894676600000821,1534.5376545,1534.5376545,1534.5376545,1534.5376545,1534.5376545,1534.5376545,1534.5376545,1534.5376545,None,None,None,,,,,,,,,,1514.8875408999993,1514.8875408999993,None,,,,1514.8875408999993,1514.8875408999993,1527.9760225999999,10,001,2024-07-29_16h03.51.019,robot_cogshifting_sign,2022.2.5,59.880669801428404,
"['L_Base_X_Back', 'R_Base_Z_For', 'L_Arm_Z_For', 'L_Base_Z_For']","{'laterality': 'R_Base_Z_For', 'localisation': 'L_Arm_Z_For', 'movement': 'L_Base_X_Back'}",movement,['movement'],L_Base_X_Back,0,1,robot,2,False,True,"['robot_stimuli\\L_Base_X_Back.mp4', 'robot_stimuli\\R_Base_Z_For.mp4', 'robot_stimuli\\L_Arm_Z_For.mp4', 'robot_stimuli\\L_Base_Z_For.mp4']",robot_stimuli\L_Base_X_Back.mp4,10,,,,,,,,,,,,,0,44,44,44,,,,,,,,,,,,,,,,,,,1534.5376545,1536.6083118999995,,,1551.3933336999999,1551.3933336999999,1551.3933336999999,1,1.5930846000010206,1553.0293582999984,1560.581840499999,1553.0293582999984,1560.581840499999,1553.0293582999984,1560.581840499999,1553.0293582999984,1560.581840499999,10.09259259259259,3.214290300000357,space,,,7.492554800001017,,,,,,,1534.5376545,1534.5376545,None,,,,1534.5376545,1534.5376545,1547.7489636999999,10,001,2024-07-29_16h03.51.019,robot_cogshifting_sign,2022.2.5,59.880669801428404,
"['L_Head_Z_Back', 'L_Arm_Z_Back', 'L_Head_X_Back', 'R_Head_Z_For']","{'laterality': 'R_Head_Z_For', 'localisation': 'L_Arm_Z_Back', 'movement': 'L_Head_X_Back'}",laterality,"['laterality', 'localisation', 'movement']",R_Head_Z_For,3,3,robot,2,True,False,"['robot_stimuli\\L_Head_Z_Back.mp4', 'robot_stimuli\\L_Arm_Z_Back.mp4', 'robot_stimuli\\L_Head_X_Back.mp4', 'robot_stimuli\\R_Head_Z_For.mp4']",robot_stimuli\R_Head_Z_For.mp4,10,,,,,,,,,,,,,0,45,45,45,,,,,,,,,,,,,,,,,,,1563.3876017999992,1565.4625781999985,,,1580.2600346999989,1580.2600346999989,1580.2600346999989,4,7.486462000000756,1587.7712244999984,1587.7712244999984,1587.7712244999984,1587.7712244999984,1587.7712244999984,1587.7712244999984,1587.7712244999984,1587.7712244999984,None,None,None,,,,,,,,,,1560.581840499999,1560.581840499999,space,2.787562400000752,,,,,1576.625102599999,10,001,2024-07-29_16h03.51.019,robot_cogshifting_sign,2022.2.5,59.880669801428404,
"['R_Base_Z_For', 'L_Base_X_Back', 'L_Arm_Z_Back', 'L_Base_Z_For']","{'laterality': 'R_Base_Z_For', 'localisation': 'L_Arm_Z_Back', 'movement': 'L_Base_X_Back'}",movement,"['laterality', 'localisation', 'movement']",L_Base_X_Back,1,3,robot,2,False,False,"['robot_stimuli\\R_Base_Z_For.mp4', 'robot_stimuli\\L_Base_X_Back.mp4', 'robot_stimuli\\L_Arm_Z_Back.mp4', 'robot_stimuli\\L_Base_Z_For.mp4']",robot_stimuli\L_Base_X_Back.mp4,10,,,,,,,,,,,,,0,46,46,46,,,,,,,,,,,,,,,,,,,1587.7712244999984,1589.846657099999,,,1604.6440407999999,1604.6440407999999,1604.6440407999999,1,6.038616200001343,1610.704292299999,1610.704292299999,1610.704292299999,1610.704292299999,1610.704292299999,1610.704292299999,1610.704292299999,1610.704292299999,None,None,None,,,,,,,,,,1587.7712244999984,1587.7712244999984,None,,,,1587.7712244999984,1587.7712244999984,1600.9985499999984,10,001,2024-07-29_16h03.51.019,robot_cogshifting_sign,2022.2.5,59.880669801428404,
"['L_Head_Y_Back', 'R_Torso_Y_Back', 'R_Head_Y_Back', 'R_Head_X_For']","{'laterality': 'L_Head_Y_Back', 'localisation': 'R_Torso_Y_Back', 'movement': 'R_Head_X_For'}",movement,"['laterality', 'localisation', 'movement']",R_Head_X_For,3,3,robot,2,False,False,"['robot_stimuli\\L_Head_Y_Back.mp4', 'robot_stimuli\\R_Torso_Y_Back.mp4', 'robot_stimuli\\R_Head_Y_Back.mp4', 'robot_stimuli\\R_Head_X_For.mp4']",robot_stimuli\R_Head_X_For.mp4,10,,,,,,,,,,,,,0,47,47,47,,,,,,,,,,,,,,,,,,,1610.704292299999,1612.776603299999,,,1627.611665299999,1627.611665299999,1627.611665299999,4,6.2710621999995055,1633.904268799999,1633.904268799999,1633.904268799999,1633.904268799999,1633.904268799999,1633.904268799999,1633.904268799999,1633.904268799999,None,None,None,,,,,,,,,,1610.704292299999,1610.704292299999,None,,,,1610.704292299999,1610.704292299999,1623.967075999999,10,001,2024-07-29_16h03.51.019,robot_cogshifting_sign,2022.2.5,59.880669801428404,
"['L_Head_X_Back', 'L_Base_Z_For', 'R_Base_X_For', 'L_Base_X_Back']","{'laterality': 'R_Base_X_For', 'localisation': 'L_Head_X_Back', 'movement': 'L_Base_Z_For'}",localisation,"['laterality', 'localisation', 'movement']",L_Head_X_Back,0,3,robot,2,False,False,"['robot_stimuli\\L_Head_X_Back.mp4', 'robot_stimuli\\L_Base_Z_For.mp4', 'robot_stimuli\\R_Base_X_For.mp4', 'robot_stimuli\\L_Base_X_Back.mp4']",robot_stimuli\L_Head_X_Back.mp4,10,,,,,,,,,,,,,0,48,48,48,,,,,,,,,,,,,,,,,,,1633.904268799999,1635.9802378999993,,,1650.6582940999997,1650.6582940999997,1650.6582940999997,1,4.984154899999339,1655.6709783999995,1655.6709783999995,1655.6709783999995,1655.6709783999995,1655.6709783999995,1655.6709783999995,1655.6709783999995,1655.6709783999995,None,None,None,,,,,,,,,,1633.904268799999,1633.904268799999,None,,,,1633.904268799999,1633.904268799999,1647.0571862999986,10,001,2024-07-29_16h03.51.019,robot_cogshifting_sign,2022.2.5,59.880669801428404,
"['L_Head_Z_Back', 'R_Head_Z_Back', 'L_Head_X_Back', 'L_Torso_Z_Back']","{'laterality': 'R_Head_Z_Back', 'localisation': 'L_Torso_Z_Back', 'movement': 'L_Head_X_Back'}",movement,"['laterality', 'localisation', 'movement']",L_Head_X_Back,2,3,robot,2,False,False,"['robot_stimuli\\L_Head_Z_Back.mp4', 'robot_stimuli\\R_Head_Z_Back.mp4', 'robot_stimuli\\L_Head_X_Back.mp4', 'robot_stimuli\\L_Torso_Z_Back.mp4']",robot_stimuli\L_Head_X_Back.mp4,10,,,,,,,,,,,,,0,49,49,49,,,,,,,,,,,,,,,,,,,1655.6709783999995,1657.7452316,,,1672.3957284999997,1672.3957284999997,1672.3957284999997,3,2.150704899999255,1674.570884499999,1674.570884499999,1674.570884499999,1674.570884499999,1674.570884499999,1674.570884499999,1674.570884499999,1674.570884499999,None,None,None,,,,,,,,,,1655.6709783999995,1655.6709783999995,None,,,,1655.6709783999995,1655.6709783999995,1668.8942395999984,10,001,2024-07-29_16h03.51.019,robot_cogshifting_sign,2022.2.5,59.880669801428404,
"['R_Arm_Z_For', 'R_Arm_Y_Back', 'L_Arm_Y_For', 'R_Base_Y_Back']","{'laterality': 'L_Arm_Y_For', 'localisation': 'R_Base_Y_Back', 'movement': 'R_Arm_Z_For'}",laterality,"['laterality', 'localisation', 'movement']",L_Arm_Y_For,2,3,robot,2,False,False,"['robot_stimuli\\R_Arm_Z_For.mp4', 'robot_stimuli\\R_Arm_Y_Back.mp4', 'robot_stimuli\\L_Arm_Y_For.mp4', 'robot_stimuli\\R_Base_Y_Back.mp4']",robot_stimuli\L_Arm_Y_For.mp4,10,,,,,,,,,,,,,0,50,50,50,,,,,,,,,,,,,,,,,,,1674.570884499999,1676.6447516999997,,,1691.4597304999988,1691.4597304999988,1691.4597304999988,3,2.8460223999991285,1694.3376160999997,1694.3376160999997,1694.3376160999997,1694.3376160999997,1694.3376160999997,1694.3376160999997,1694.3376160999997,1694.3376160999997,None,None,None,,,,,,,,,,1674.570884499999,1674.570884499999,None,,,,1674.570884499999,1674.570884499999,1687.814735599999,10,001,2024-07-29_16h03.51.019,robot_cogshifting_sign,2022.2.5,59.880669801428404,
"['R_Head_Z_For', 'L_Head_X_Back', 'R_Head_X_Back', 'R_Arm_X_Back']","{'laterality': 'L_Head_X_Back', 'localisation': 'R_Arm_X_Back', 'movement': 'R_Head_Z_For'}",localisation,"['laterality', 'localisation', 'movement']",R_Arm_X_Back,3,3,robot,2,False,False,"['robot_stimuli\\R_Head_Z_For.mp4', 'robot_stimuli\\L_Head_X_Back.mp4', 'robot_stimuli\\R_Head_X_Back.mp4', 'robot_stimuli\\R_Arm_X_Back.mp4']",robot_stimuli\R_Arm_X_Back.mp4,10,,,,,,,,,,,,,0,51,51,51,,,,,,,,,,,,,,,,,,,1694.3376160999997,1696.4087212999984,,,1711.227623499999,1711.227623499999,1711.227623499999,4,3.173392300001069,1714.4209204999988,1714.4209204999988,1714.4209204999988,1714.4209204999988,1714.4209204999988,1714.4209204999988,1714.4209204999988,1714.4209204999988,None,None,None,,,,,,,,,,1694.3376160999997,1694.3376160999997,None,,,,1694.3376160999997,1694.3376160999997,1707.5818020999995,10,001,2024-07-29_16h03.51.019,robot_cogshifting_sign,2022.2.5,59.880669801428404,
"['R_Base_X_Back', 'L_Arm_X_Back', 'R_Arm_X_For', 'R_Arm_Z_For']","{'laterality': 'L_Arm_X_Back', 'localisation': 'R_Base_X_Back', 'movement': 'R_Arm_Z_For'}",laterality,"['laterality', 'localisation', 'movement']",L_Arm_X_Back,1,3,robot,2,False,False,"['robot_stimuli\\R_Base_X_Back.mp4', 'robot_stimuli\\L_Arm_X_Back.mp4', 'robot_stimuli\\R_Arm_X_For.mp4', 'robot_stimuli\\R_Arm_Z_For.mp4']",robot_stimuli\L_Arm_X_Back.mp4,10,,,,,,,,,,,,,0,52,52,52,,,,,,,,,,,,,,,,,,,1714.4209204999988,1716.4908092999995,,,1731.2971486999995,1731.2971486999995,1731.2971486999995,2,4.313476100000116,1735.6377761999993,1735.6377761999993,1735.6377761999993,1735.6377761999993,1735.6377761999993,1735.6377761999993,1735.6377761999993,1735.6377761999993,None,None,None,,,,,,,,,,1714.4209204999988,1714.4209204999988,None,,,,1714.4209204999988,1714.4209204999988,1727.6526957999995,10,001,2024-07-29_16h03.51.019,robot_cogshifting_sign,2022.2.5,59.880669801428404,
"['L_Base_X_Back', 'L_Torso_Z_For', 'L_Torso_X_For', 'R_Torso_X_For']","{'laterality': 'R_Torso_X_For', 'localisation': 'L_Base_X_Back', 'movement': 'L_Torso_Z_For'}",localisation,"['laterality', 'localisation', 'movement']",L_Base_X_Back,0,3,robot,2,False,True,"['robot_stimuli\\L_Base_X_Back.mp4', 'robot_stimuli\\L_Torso_Z_For.mp4', 'robot_stimuli\\L_Torso_X_For.mp4', 'robot_stimuli\\R_Torso_X_For.mp4']",robot_stimuli\L_Base_X_Back.mp4,10,,,,,,,,,,,,,0,53,53,53,,,,,,,,,,,,,,,,,,,1735.6377761999993,1737.7134115999997,,,1752.480042199999,1752.480042199999,1752.480042199999,2,7.730197400000179,1760.2621308999987,1764.7961368999986,1760.2621308999987,1764.7961368999986,1760.2621308999987,1764.7961368999986,1760.2621308999987,1764.7961368999986,60.24691358024692,3.0096861999991233,space,,,4.4750794999999925,,,,,,,1735.6377761999993,1735.6377761999993,None,,,,1735.6377761999993,1735.6377761999993,1748.8420560999984,10,001,2024-07-29_16h03.51.019,robot_cogshifting_sign,2022.2.5,59.880669801428404,
"['red_bottom_S_0', 'blue_bottom_D_0', 'blue_bottom_F_45', 'blue_left_W_0']","{'color': 'red_bottom_S_0', 'position': 'blue_left_W_0', 'orientation': 'blue_bottom_F_45'}",orientation,"['orientation', 'position']",blue_bottom_F_45,2,2,letter,3,True,False,"['robot_stimuli\\\\filler.mp4', 'robot_stimuli\\\\filler.mp4', 'robot_stimuli\\\\filler.mp4', 'robot_stimuli\\\\filler.mp4']",robot_stimuli\\filler.mp4,10,,,,,,,,,,,,,0,54,54,54,,,,,,,,,,,,,,,,,,,2074.5543801999993,2076.613589499999,,,2085.499502499999,2085.499502499999,2085.499502499999,3,1.9740743999991537,2087.5044948999985,2087.5044948999985,2087.5044948999985,2087.5044948999985,2087.5044948999985,2087.5044948999985,2087.5044948999985,2087.5044948999985,None,None,None,,,,,,,,,,1764.7961368999986,1764.7961368999986,space,309.72609080000075,2083.2812202999994,2085.499502499999,,,,10,001,2024-07-29_16h03.51.019,robot_cogshifting_sign,2022.2.5,59.880669801428404,
"['red_bottom_V_0', 'red_bottom_S_45', 'red_left_G_45', 'blue_bottom_X_45']","{'color': 'blue_bottom_X_45', 'position': 'red_left_G_45', 'orientation': 'red_bottom_V_0'}",color,"['color', 'orientation']",blue_bottom_X_45,3,2,letter,3,False,False,"['robot_stimuli\\\\filler.mp4', 'robot_stimuli\\\\filler.mp4', 'robot_stimuli\\\\filler.mp4', 'robot_stimuli\\\\filler.mp4']",robot_stimuli\\filler.mp4,10,,,,,,,,,,,,,0,55,55,55,,,,,,,,,,,,,,,,,,,2087.5044948999985,2089.5612425,,,2098.4336757,2098.4336757,2098.4336757,4,1.455371300000479,2099.921058099999,2099.921058099999,2099.921058099999,2099.921058099999,2099.921058099999,2099.921058099999,2099.921058099999,2099.921058099999,None,None,None,,,,,,,,,,2087.5044948999985,2087.5044948999985,None,,2096.4180398999997,2098.4336757,2087.5044948999985,2087.5044948999985,,10,001,2024-07-29_16h03.51.019,robot_cogshifting_sign,2022.2.5,59.880669801428404,
"['red_left_T_45', 'red_right_X_45', 'red_right_J_0', 'blue_right_R_45']","{'color': 'blue_right_R_45', 'position': 'red_left_T_45', 'orientation': 'red_right_J_0'}",position,"['orientation', 'position']",red_left_T_45,0,2,letter,3,False,False,"['robot_stimuli\\\\filler.mp4', 'robot_stimuli\\\\filler.mp4', 'robot_stimuli\\\\filler.mp4', 'robot_stimuli\\\\filler.mp4']",robot_stimuli\\filler.mp4,10,,,,,,,,,,,,,0,56,56,56,,,,,,,,,,,,,,,,,,,2099.921058099999,2101.9745552999993,,,2110.4666334999984,2110.4666334999984,2110.4666334999984,1,1.9263984999997774,2112.420858399999,2112.420858399999,2112.420858399999,2112.420858399999,2112.420858399999,2112.420858399999,2112.420858399999,2112.420858399999,None,None,None,,,,,,,,,,2099.921058099999,2099.921058099999,None,,2108.4524226999984,2110.4666334999984,2099.921058099999,2099.921058099999,,10,001,2024-07-29_16h03.51.019,robot_cogshifting_sign,2022.2.5,59.880669801428404,
"['blue_right_L_0', 'red_right_C_45', 'blue_left_Q_45', 'blue_right_L_45']","{'color': 'red_right_C_45', 'position': 'blue_left_Q_45', 'orientation': 'blue_right_L_0'}",position,"['orientation', 'position']",blue_left_Q_45,2,2,letter,3,False,False,"['robot_stimuli\\\\filler.mp4', 'robot_stimuli\\\\filler.mp4', 'robot_stimuli\\\\filler.mp4', 'robot_stimuli\\\\filler.mp4']",robot_stimuli\\filler.mp4,10,,,,,,,,,,,,,0,57,57,57,,,,,,,,,,,,,,,,,,,2112.420858399999,2114.4759407,,,2122.970807599999,2122.970807599999,2122.970807599999,3,1.3902894000002561,2124.3875026999995,2124.3875026999995,2124.3875026999995,2124.3875026999995,2124.3875026999995,2124.3875026999995,2124.3875026999995,2124.3875026999995,None,None,None,,,,,,,,,,2112.420858399999,2112.420858399999,None,,2120.7582757,2122.970807599999,2112.420858399999,2112.420858399999,,10,001,2024-07-29_16h03.51.019,robot_cogshifting_sign,2022.2.5,59.880669801428404,
"['blue_bottom_H_45', 'blue_bottom_M_0', 'red_bottom_B_45', 'blue_right_R_45']","{'color': 'red_bottom_B_45', 'position': 'blue_right_R_45', 'orientation': 'blue_bottom_M_0'}",orientation,"['orientation', 'position']",blue_bottom_M_0,1,2,letter,3,False,False,"['robot_stimuli\\\\filler.mp4', 'robot_stimuli\\\\filler.mp4', 'robot_stimuli\\\\filler.mp4', 'robot_stimuli\\\\filler.mp4']",robot_stimuli\\filler.mp4,10,,,,,,,,,,,,,0,58,58,58,,,,,,,,,,,,,,,,,,,2124.3875026999995,2126.445358499999,,,2135.1458991,2135.1458991,2135.1458991,2,1.4149476000002323,2136.5875183999997,2136.5875183999997,2136.5875183999997,2136.5875183999997,2136.5875183999997,2136.5875183999997,2136.5875183999997,2136.5875183999997,None,None,None,,,,,,,,,,2124.3875026999995,2124.3875026999995,None,,2133.1256512,2135.1458991,2124.3875026999995,2124.3875026999995,,10,001,2024-07-29_16h03.51.019,robot_cogshifting_sign,2022.2.5,59.880669801428404,
"['red_right_V_45', 'blue_right_T_45', 'red_right_S_0', 'red_top_Z_45']","{'color': 'blue_right_T_45', 'position': 'red_top_Z_45', 'orientation': 'red_right_S_0'}",orientation,"['color', 'orientation']",red_right_S_0,2,2,letter,3,False,False,"['robot_stimuli\\\\filler.mp4', 'robot_stimuli\\\\filler.mp4', 'robot_stimuli\\\\filler.mp4', 'robot_stimuli\\\\filler.mp4']",robot_stimuli\\filler.mp4,10,,,,,,,,,,,,,0,59,59,59,,,,,,,,,,,,,,,,,,,2136.5875183999997,2138.6536885999994,,,2147.144431499999,2147.144431499999,2147.144431499999,3,1.6810506000001624,2148.854242399999,2148.854242399999,2148.854242399999,2148.854242399999,2148.854242399999,2148.854242399999,2148.854242399999,2148.854242399999,None,None,None,,,,,,,,,,2136.5875183999997,2136.5875183999997,None,,2145.1319451,2147.144431499999,2136.5875183999997,2136.5875183999997,,10,001,2024-07-29_16h03.51.019,robot_cogshifting_sign,2022.2.5,59.880669801428404,
"['blue_right_B_0', 'blue_top_M_0', 'red_top_N_0', 'blue_top_B_45']","{'color': 'red_top_N_0', 'position': 'blue_right_B_0', 'orientation': 'blue_top_B_45'}",position,"['color', 'position']",blue_right_B_0,0,2,letter,3,False,False,"['robot_stimuli\\\\filler.mp4', 'robot_stimuli\\\\filler.mp4', 'robot_stimuli\\\\filler.mp4', 'robot_stimuli\\\\filler.mp4']",robot_stimuli\\filler.mp4,10,,,,,,,,,,,,,0,60,60,60,,,,,,,,,,,,,,,,,,,2148.854242399999,2150.9206594999996,,,2159.430433899999,2159.430433899999,2159.430433899999,1,1.2995463000006566,2160.7545806,2160.7545806,2160.7545806,2160.7545806,2160.7545806,2160.7545806,2160.7545806,2160.7545806,None,None,None,,,,,,,,,,2148.854242399999,2148.854242399999,None,,2157.413645499999,2159.430433899999,2148.854242399999,2148.854242399999,,10,001,2024-07-29_16h03.51.019,robot_cogshifting_sign,2022.2.5,59.880669801428404,
"['red_left_W_45', 'blue_right_W_45', 'red_right_L_45', 'red_right_F_0']","{'color': 'blue_right_W_45', 'position': 'red_left_W_45', 'orientation': 'red_right_F_0'}",color,"['color', 'orientation']",blue_right_W_45,1,2,letter,3,False,False,"['robot_stimuli\\\\filler.mp4', 'robot_stimuli\\\\filler.mp4', 'robot_stimuli\\\\filler.mp4', 'robot_stimuli\\\\filler.mp4']",robot_stimuli\\filler.mp4,10,,,,,,,,,,,,,0,61,61,61,,,,,,,,,,,,,,,,,,,2160.7545806,2162.8118586,,,2171.908136599999,2171.908136599999,2171.908136599999,2,1.532681099999536,2173.4723231999997,2173.4723231999997,2173.4723231999997,2173.4723231999997,2173.4723231999997,2173.4723231999997,2173.4723231999997,2173.4723231999997,None,None,None,,,,,,,,,,2160.7545806,2160.7545806,None,,2169.6954269999987,2171.908136599999,2160.7545806,2160.7545806,,10,001,2024-07-29_16h03.51.019,robot_cogshifting_sign,2022.2.5,59.880669801428404,
"['blue_bottom_Z_45', 'red_bottom_N_45', 'blue_bottom_N_0', 'blue_right_H_45']","{'color': 'red_bottom_N_45', 'position': 'blue_right_H_45', 'orientation': 'blue_bottom_N_0'}",color,"['color', 'position']",red_bottom_N_45,1,2,letter,3,False,True,"['robot_stimuli\\\\filler.mp4', 'robot_stimuli\\\\filler.mp4', 'robot_stimuli\\\\filler.mp4', 'robot_stimuli\\\\filler.mp4']",robot_stimuli\\filler.mp4,10,,,,,,,,,,,,,0,62,62,62,,,,,,,,,,,,,,,,,,,2173.4723231999997,,,,2184.4399882999987,2184.4399882999987,2184.4399882999987,2,1.1859770999999455,2185.6807326999988,2190.001327599999,2185.6807326999988,2190.001327599999,2185.6807326999988,2190.001327599999,2185.6807326999988,2190.001327599999,16.11111111111111,3.203254599999127,space,,,4.25627280000117,,,,,,,2173.4723231999997,2173.4723231999997,None,,2182.222386399999,2184.4399882999987,2173.4723231999997,2173.4723231999997,,10,001,2024-07-29_16h03.51.019,robot_cogshifting_sign,2022.2.5,59.880669801428404,
"['blue_left_S_45', 'blue_top_P_45', 'blue_top_T_0', 'red_top_Z_45']","{'color': 'red_top_Z_45', 'position': 'blue_left_S_45', 'orientation': 'blue_top_T_0'}",color,"['color', 'orientation', 'position']",red_top_Z_45,3,3,letter,3,True,False,"['robot_stimuli\\\\filler.mp4', 'robot_stimuli\\\\filler.mp4', 'robot_stimuli\\\\filler.mp4', 'robot_stimuli\\\\filler.mp4']",robot_stimuli\\filler.mp4,10,,,,,,,,,,,,,0,63,63,63,,,,,,,,,,,,,,,,,,,2193.4544716,2195.5073957999994,,,2204.193756999999,2204.193756999999,2204.193756999999,4,2.392801599999075,2206.6045335,2206.6045335,2206.6045335,2206.6045335,2206.6045335,2206.6045335,2206.6045335,2206.6045335,None,None,None,,,,,,,,,,2190.001327599999,2190.001327599999,space,3.4251877999995486,2201.9769863,2204.193756999999,,,,10,001,2024-07-29_16h03.51.019,robot_cogshifting_sign,2022.2.5,59.880669801428404,
"['red_left_Z_0', 'red_left_B_45', 'red_right_N_0', 'blue_left_Z_0']","{'color': 'blue_left_Z_0', 'position': 'red_right_N_0', 'orientation': 'red_left_B_45'}",color,"['color', 'orientation', 'position']",blue_left_Z_0,3,3,letter,3,False,False,"['robot_stimuli\\\\filler.mp4', 'robot_stimuli\\\\filler.mp4', 'robot_stimuli\\\\filler.mp4', 'robot_stimuli\\\\filler.mp4']",robot_stimuli\\filler.mp4,10,,,,,,,,,,,,,0,64,64,64,,,,,,,,,,,,,,,,,,,2206.6045335,2208.662907599999,,,2217.5388114999987,2217.5388114999987,2217.5388114999987,4,1.7271657999990566,2219.287919799999,2219.287919799999,2219.287919799999,2219.287919799999,2219.287919799999,2219.287919799999,2219.287919799999,2219.287919799999,None,None,None,,,,,,,,,,2206.6045335,2206.6045335,None,,2215.3247783999996,2217.5388114999987,2206.6045335,2206.6045335,,10,001,2024-07-29_16h03.51.019,robot_cogshifting_sign,2022.2.5,59.880669801428404,
"['blue_right_D_45', 'red_right_F_0', 'red_right_M_45', 'red_left_C_45']","{'color': 'blue_right_D_45', 'position': 'red_left_C_45', 'orientation': 'red_right_F_0'}",position,"['color', 'orientation', 'position']",red_left_C_45,3,3,letter,3,False,False,"['robot_stimuli\\\\filler.mp4', 'robot_stimuli\\\\filler.mp4', 'robot_stimuli\\\\filler.mp4', 'robot_stimuli\\\\filler.mp4']",robot_stimuli\\filler.mp4,10,,,,,,,,,,,,,0,65,65,65,,,,,,,,,,,,,,,,,,,2219.287919799999,2221.3420093999994,,,2230.242882299999,2230.242882299999,2230.242882299999,4,2.006856300000436,2232.2712458999995,2232.2712458999995,2232.2712458999995,2232.2712458999995,2232.2712458999995,2232.2712458999995,2232.2712458999995,2232.2712458999995,None,None,None,,,,,,,,,,2219.287919799999,2219.287919799999,None,,2228.029795799999,2230.242882299999,2219.287919799999,2219.287919799999,,10,001,2024-07-29_16h03.51.019,robot_cogshifting_sign,2022.2.5,59.880669801428404,
"['blue_left_X_45', 'red_top_T_45', 'blue_top_H_0', 'blue_top_M_45']","{'color': 'red_top_T_45', 'position': 'blue_left_X_45', 'orientation': 'blue_top_H_0'}",position,"['color', 'orientation', 'position']",blue_left_X_45,0,3,letter,3,False,False,"['robot_stimuli\\\\filler.mp4', 'robot_stimuli\\\\filler.mp4', 'robot_stimuli\\\\filler.mp4', 'robot_stimuli\\\\filler.mp4']",robot_stimuli\\filler.mp4,10,,,,,,,,,,,,,0,66,66,66,,,,,,,,,,,,,,,,,,,2232.2712458999995,2234.328626299999,,,2243.2110064999997,2243.2110064999997,2243.2110064999997,1,2.135295899999619,2245.3712488,2245.3712488,2245.3712488,2245.3712488,2245.3712488,2245.3712488,2245.3712488,2245.3712488,None,None,None,,,,,,,,,,2232.2712458999995,2232.2712458999995,None,,2240.9958164,2243.2110064999997,2232.2712458999995,2232.2712458999995,,10,001,2024-07-29_16h03.51.019,robot_cogshifting_sign,2022.2.5,59.880669801428404,
"['red_top_D_45', 'red_left_J_0', 'red_top_M_0', 'blue_top_B_0']","{'color': 'blue_top_B_0', 'position': 'red_left_J_0', 'orientation': 'red_top_D_45'}",orientation,"['color', 'orientation', 'position']",red_top_D_45,0,3,letter,3,False,False,"['robot_stimuli\\\\filler.mp4', 'robot_stimuli\\\\filler.mp4', 'robot_stimuli\\\\filler.mp4', 'robot_stimuli\\\\filler.mp4']",robot_stimuli\\filler.mp4,10,,,,,,,,,,,,,0,67,67,67,,,,,,,,,,,,,,,,,,,2245.3712488,2247.4338872999997,,,2256.3168224,2256.3168224,2256.3168224,1,2.061396999999488,2258.4046990999996,2258.4046990999996,2258.4046990999996,2258.4046990999996,2258.4046990999996,2258.4046990999996,2258.4046990999996,2258.4046990999996,None,None,None,,,,,,,,,,2245.3712488,2245.3712488,None,,2254.0948687,2256.3168224,2245.3712488,2245.3712488,,10,001,2024-07-29_16h03.51.019,robot_cogshifting_sign,2022.2.5,59.880669801428404,
"['red_top_D_45', 'red_top_K_0', 'red_right_G_45', 'blue_top_M_45']","{'color': 'blue_top_M_45', 'position': 'red_right_G_45', 'orientation': 'red_top_K_0'}",position,"['color', 'orientation', 'position']",red_right_G_45,2,3,letter,3,False,False,"['robot_stimuli\\\\filler.mp4', 'robot_stimuli\\\\filler.mp4', 'robot_stimuli\\\\filler.mp4', 'robot_stimuli\\\\filler.mp4']",robot_stimuli\\filler.mp4,10,,,,,,,,,,,,,0,68,68,68,,,,,,,,,,,,,,,,,,,2258.4046990999996,2260.4619537,,,2269.347834799999,2269.347834799999,2269.347834799999,3,3.0225946999998996,2272.3881224999986,2272.3881224999986,2272.3881224999986,2272.3881224999986,2272.3881224999986,2272.3881224999986,2272.3881224999986,2272.3881224999986,None,None,None,,,,,,,,,,2258.4046990999996,2258.4046990999996,None,,2267.1257337999996,2269.347834799999,2258.4046990999996,2258.4046990999996,,10,001,2024-07-29_16h03.51.019,robot_cogshifting_sign,2022.2.5,59.880669801428404,
"['red_top_B_45', 'blue_top_R_0', 'blue_top_D_45', 'blue_left_W_45']","{'color': 'red_top_B_45', 'position': 'blue_left_W_45', 'orientation': 'blue_top_R_0'}",orientation,"['color', 'orientation', 'position']",blue_top_R_0,1,3,letter,3,False,False,"['robot_stimuli\\\\filler.mp4', 'robot_stimuli\\\\filler.mp4', 'robot_stimuli\\\\filler.mp4', 'robot_stimuli\\\\filler.mp4']",robot_stimuli\\filler.mp4,10,,,,,,,,,,,,,0,69,69,69,,,,,,,,,,,,,,,,,,,2272.3881224999986,2274.4500701999987,,,2282.9262199999994,2282.9262199999994,2282.9262199999994,2,1.8199355999986437,2284.7713882999997,2284.7713882999997,2284.7713882999997,2284.7713882999997,2284.7713882999997,2284.7713882999997,2284.7713882999997,2284.7713882999997,None,None,None,,,,,,,,,,2272.3881224999986,2272.3881224999986,None,,2280.9039575999996,2282.9262199999994,2272.3881224999986,2272.3881224999986,,10,001,2024-07-29_16h03.51.019,robot_cogshifting_sign,2022.2.5,59.880669801428404,
"['blue_top_L_0', 'red_right_Q_0', 'blue_right_S_0', 'blue_right_Q_45']","{'color': 'red_right_Q_0', 'position': 'blue_top_L_0', 'orientation': 'blue_right_Q_45'}",orientation,"['color', 'orientation', 'position']",blue_right_Q_45,3,3,letter,3,False,False,"['robot_stimuli\\\\filler.mp4', 'robot_stimuli\\\\filler.mp4', 'robot_stimuli\\\\filler.mp4', 'robot_stimuli\\\\filler.mp4']",robot_stimuli\\filler.mp4,10,,,,,,,,,,,,,0,70,70,70,,,,,,,,,,,,,,,,,,,2284.7713882999997,2286.8262590999984,,,2295.5023512999996,2295.5023512999996,2295.5023512999996,4,3.386970499999734,2298.921436299999,2298.921436299999,2298.921436299999,2298.921436299999,2298.921436299999,2298.921436299999,2298.921436299999,2298.921436299999,None,None,None,,,,,,,,,,2284.7713882999997,2284.7713882999997,None,,2293.2938202999994,2295.5023512999996,2284.7713882999997,2284.7713882999997,,10,001,2024-07-29_16h03.51.019,robot_cogshifting_sign,2022.2.5,59.880669801428404,
"['blue_top_X_45', 'blue_left_P_45', 'red_left_D_45', 'blue_left_X_0']","{'color': 'red_left_D_45', 'position': 'blue_top_X_45', 'orientation': 'blue_left_X_0'}",color,"['color', 'orientation', 'position']",red_left_D_45,2,3,letter,3,False,True,"['robot_stimuli\\\\filler.mp4', 'robot_stimuli\\\\filler.mp4', 'robot_stimuli\\\\filler.mp4', 'robot_stimuli\\\\filler.mp4']",robot_stimuli\\filler.mp4,10,,,,,,,,,,,,,0,71,71,71,,,,,,,,,,,,,,,,,,,2298.921436299999,2300.9827526999998,,,2309.653377499999,2309.653377499999,2309.653377499999,3,2.9331710999995266,2312.6303590999996,2318.5714708999985,2312.6303590999996,2318.5714708999985,2312.6303590999996,2318.5714708999985,2312.6303590999996,2318.5714708999985,46.358024691358025,4.575818700001037,space,,,5.883026299999983,,,,,,,2298.921436299999,2298.921436299999,None,,2307.6325151,2309.653377499999,2298.921436299999,2298.921436299999,,10,001,2024-07-29_16h03.51.019,robot_cogshifting_sign,2022.2.5,59.880669801428404,
"['blue_bottom_B_45', 'red_bottom_S_0', 'red_bottom_K_45', 'red_right_F_45']","{'color': 'blue_bottom_B_45', 'position': 'red_right_F_45', 'orientation': 'red_bottom_S_0'}",orientation,['orientation'],red_bottom_S_0,1,1,letter,3,True,False,"['robot_stimuli\\\\filler.mp4', 'robot_stimuli\\\\filler.mp4', 'robot_stimuli\\\\filler.mp4', 'robot_stimuli\\\\filler.mp4']",robot_stimuli\\filler.mp4,10,,,,,,,,,,,,,0,72,72,72,,,,,,,,,,,,,,,,,,,2320.8213542999983,2322.8758904999995,,,2331.5659220999987,2331.5659220999987,2331.5659220999987,2,1.339941700000054,2332.9380007,2332.9380007,2332.9380007,2332.9380007,2332.9380007,2332.9380007,2332.9380007,2332.9380007,None,None,None,,,,,,,,,,2318.5714708999985,2318.5714708999985,space,2.2229502000009234,2329.3451829999995,2331.5659220999987,,,,10,001,2024-07-29_16h03.51.019,robot_cogshifting_sign,2022.2.5,59.880669801428404,
"['red_bottom_H_45', 'blue_bottom_N_0', 'red_top_F_0', 'red_bottom_G_0']","{'color': 'blue_bottom_N_0', 'position': 'red_top_F_0', 'orientation': 'red_bottom_H_45'}",color,['color'],blue_bottom_N_0,1,1,letter,3,False,False,"['robot_stimuli\\\\filler.mp4', 'robot_stimuli\\\\filler.mp4', 'robot_stimuli\\\\filler.mp4', 'robot_stimuli\\\\filler.mp4']",robot_stimuli\\filler.mp4,10,,,,,,,,,,,,,0,73,73,73,,,,,,,,,,,,,,,,,,,2332.9380007,2334.9952306999985,,,2343.4930219,2343.4930219,2343.4930219,2,1.5092182999997021,2345.0214652999985,2345.0214652999985,2345.0214652999985,2345.0214652999985,2345.0214652999985,2345.0214652999985,2345.0214652999985,2345.0214652999985,None,None,None,,,,,,,,,,2332.9380007,2332.9380007,None,,2341.4715042999997,2343.4930219,2332.9380007,2332.9380007,,10,001,2024-07-29_16h03.51.019,robot_cogshifting_sign,2022.2.5,59.880669801428404,
"['blue_bottom_V_45', 'blue_bottom_R_0', 'red_bottom_B_45', 'blue_left_H_45']","{'color': 'red_bottom_B_45', 'position': 'blue_left_H_45', 'orientation': 'blue_bottom_R_0'}",position,['position'],blue_left_H_45,3,1,letter,3,False,False,"['robot_stimuli\\\\filler.mp4', 'robot_stimuli\\\\filler.mp4', 'robot_stimuli\\\\filler.mp4', 'robot_stimuli\\\\filler.mp4']",robot_stimuli\\filler.mp4,10,,,,,,,,,,,,,0,74,74,74,,,,,,,,,,,,,,,,,,,2345.0214652999985,2347.0760495999984,,,2355.5506528999995,2355.5506528999995,2355.5506528999995,4,1.7222075999998196,2357.304537099999,2357.304537099999,2357.304537099999,2357.304537099999,2357.304537099999,2357.304537099999,2357.304537099999,2357.304537099999,None,None,None,,,,,,,,,,2345.0214652999985,2345.0214652999985,None,,2353.538841399999,2355.5506528999995,2345.0214652999985,2345.0214652999985,,10,001,2024-07-29_16h03.51.019,robot_cogshifting_sign,2022.2.5,59.880669801428404,
"['blue_right_R_45', 'blue_top_G_45', 'blue_top_N_0', 'red_top_X_45']","{'color': 'red_top_X_45', 'position': 'blue_right_R_45', 'orientation': 'blue_top_N_0'}",orientation,['orientation'],blue_top_N_0,2,1,letter,3,False,False,"['robot_stimuli\\\\filler.mp4', 'robot_stimuli\\\\filler.mp4', 'robot_stimuli\\\\filler.mp4', 'robot_stimuli\\\\filler.mp4']",robot_stimuli\\filler.mp4,10,,,,,,,,,,,,,0,75,75,75,,,,,,,,,,,,,,,,,,,2357.304537099999,2359.357893999999,,,2368.0649766999995,2368.0649766999995,2368.0649766999995,2,2.784801799998604,2370.8713998999992,2370.8713998999992,2370.8713998999992,2370.8713998999992,2370.8713998999992,2370.8713998999992,2370.8713998999992,2370.8713998999992,None,None,None,,,,,,,,,,2357.304537099999,2357.304537099999,None,,2365.844084999999,2368.0649766999995,2357.304537099999,2357.304537099999,,10,001,2024-07-29_16h03.51.019,robot_cogshifting_sign,2022.2.5,59.880669801428404,
"['blue_top_S_0', 'red_bottom_M_0', 'blue_bottom_K_45', 'blue_bottom_F_0']","{'color': 'red_bottom_M_0', 'position': 'blue_top_S_0', 'orientation': 'blue_bottom_K_45'}",position,['position'],blue_top_S_0,0,1,letter,3,False,False,"['robot_stimuli\\\\filler.mp4', 'robot_stimuli\\\\filler.mp4', 'robot_stimuli\\\\filler.mp4', 'robot_stimuli\\\\filler.mp4']",robot_stimuli\\filler.mp4,10,,,,,,,,,,,,,0,76,76,76,,,,,,,,,,,,,,,,,,,2370.8713998999992,2372.9302934999996,,,2381.7927701999997,2381.7927701999997,2381.7927701999997,1,0.8560300000008283,2382.671359,2382.671359,2382.671359,2382.671359,2382.671359,2382.671359,2382.671359,2382.671359,None,None,None,,,,,,,,,,2370.8713998999992,2370.8713998999992,None,,2379.5806256999986,2381.7927701999997,2370.8713998999992,2370.8713998999992,,10,001,2024-07-29_16h03.51.019,robot_cogshifting_sign,2022.2.5,59.880669801428404,
"['blue_top_M_45', 'blue_bottom_T_0', 'blue_bottom_M_45', 'red_bottom_P_45']","{'color': 'red_bottom_P_45', 'position': 'blue_top_M_45', 'orientation': 'blue_bottom_T_0'}",position,['position'],blue_top_M_45,0,1,letter,3,False,False,"['robot_stimuli\\\\filler.mp4', 'robot_stimuli\\\\filler.mp4', 'robot_stimuli\\\\filler.mp4', 'robot_stimuli\\\\filler.mp4']",robot_stimuli\\filler.mp4,10,,,,,,,,,,,,,0,77,77,77,,,,,,,,,,,,,,,,,,,2382.671359,2384.734425999999,,,2393.4061284,2393.4061284,2393.4061284,1,0.4996482000005926,2393.9379800999995,2393.9379800999995,2393.9379800999995,2393.9379800999995,2393.9379800999995,2393.9379800999995,2393.9379800999995,2393.9379800999995,None,None,None,,,,,,,,,,2382.671359,2382.671359,None,,2391.194665699999,2393.4061284,2382.671359,2382.671359,,10,001,2024-07-29_16h03.51.019,robot_cogshifting_sign,2022.2.5,59.880669801428404,
"['red_bottom_L_0', 'blue_top_H_0', 'blue_bottom_S_0', 'blue_bottom_G_45']","{'color': 'red_bottom_L_0', 'position': 'blue_top_H_0', 'orientation': 'blue_bottom_G_45'}",color,['color'],red_bottom_L_0,0,1,letter,3,False,False,"['robot_stimuli\\\\filler.mp4', 'robot_stimuli\\\\filler.mp4', 'robot_stimuli\\\\filler.mp4', 'robot_stimuli\\\\filler.mp4']",robot_stimuli\\filler.mp4,10,,,,,,,,,,,,,0,78,78,78,,,,,,,,,,,,,,,,,,,2393.9379800999995,2395.9913452,,,2405.0779741999995,2405.0779741999995,2405.0779741999995,1,0.6198808000008285,2405.7214676999993,2405.7214676999993,2405.7214676999993,2405.7214676999993,2405.7214676999993,2405.7214676999993,2405.7214676999993,2405.7214676999993,None,None,None,,,,,,,,,,2393.9379800999995,2393.9379800999995,None,,2402.859610899999,2405.0779741999995,2393.9379800999995,2393.9379800999995,,10,001,2024-07-29_16h03.51.019,robot_cogshifting_sign,2022.2.5,59.880669801428404,
"['blue_right_B_45', 'blue_bottom_B_45', 'blue_bottom_P_0', 'red_bottom_Q_45']","{'color': 'red_bottom_Q_45', 'position': 'blue_right_B_45', 'orientation': 'blue_bottom_P_0'}",orientation,['orientation'],blue_bottom_P_0,2,1,letter,3,False,False,"['robot_stimuli\\\\filler.mp4', 'robot_stimuli\\\\filler.mp4', 'robot_stimuli\\\\filler.mp4', 'robot_stimuli\\\\filler.mp4']",robot_stimuli\\filler.mp4,10,,,,,,,,,,,,,0,79,79,79,,,,,,,,,,,,,,,,,,,2405.7214676999993,2407.7763185999993,,,2416.4740623999987,2416.4740623999987,2416.4740623999987,3,0.4084246999991592,2416.9051156999994,2416.9051156999994,2416.9051156999994,2416.9051156999994,2416.9051156999994,2416.9051156999994,2416.9051156999994,2416.9051156999994,None,None,None,,,,,,,,,,2405.7214676999993,2405.7214676999993,None,,2414.4528040999994,2416.4740623999987,2405.7214676999993,2405.7214676999993,,10,001,2024-07-29_16h03.51.019,robot_cogshifting_sign,2022.2.5,59.880669801428404,
"['blue_top_R_45', 'blue_top_B_0', 'blue_left_K_45', 'red_top_K_45']","{'color': 'red_top_K_45', 'position': 'blue_left_K_45', 'orientation': 'blue_top_B_0'}",color,['color'],red_top_K_45,3,1,letter,3,False,True,"['robot_stimuli\\\\filler.mp4', 'robot_stimuli\\\\filler.mp4', 'robot_stimuli\\\\filler.mp4', 'robot_stimuli\\\\filler.mp4']",robot_stimuli\\filler.mp4,10,,,,,,,,,,,,,0,80,80,80,,,,,,,,,,,,,,,,,,,2416.9051156999994,2418.959036299999,,,2427.840744199999,2427.840744199999,2427.840744199999,4,1.2894082000002527,2429.179639599999,2437.033082,2429.179639599999,2437.033082,2429.179639599999,2437.033082,2429.179639599999,2437.033082,11.018518518518519,6.476378999999724,space,,,7.790602500001114,,,,,,,2416.9051156999994,2416.9051156999994,None,,2425.6237391999985,2427.840744199999,2416.9051156999994,2416.9051156999994,,10,001,2024-07-29_16h03.51.019,robot_cogshifting_sign,2022.2.5,59.880669801428404,
"['L_Head_X_For', 'L_Head_Y_For', 'R_Head_X_For', 'L_Torso_X_For']","{'laterality': 'R_Head_X_For', 'localisation': 'L_Torso_X_For', 'movement': 'L_Head_Y_For'}",localisation,['localisation'],L_Torso_X_For,3,1,robot,4,True,False,"['robot_stimuli\\L_Head_X_For.mp4', 'robot_stimuli\\L_Head_Y_For.mp4', 'robot_stimuli\\R_Head_X_For.mp4', 'robot_stimuli\\L_Torso_X_For.mp4']",robot_stimuli\L_Torso_X_For.mp4,10,,,,,,,,,,,,,0,81,81,81,,,,,,,,,,,,,,,,,,,2439.8714511,2441.951723299999,,,2456.7090055999997,2456.7090055999997,2456.7090055999997,4,0.7888808000006975,2457.5214829999986,2457.5214829999986,2457.5214829999986,2457.5214829999986,2457.5214829999986,2457.5214829999986,2457.5214829999986,2457.5214829999986,None,None,None,,,,,,,,,,2437.033082,2437.033082,space,2.8088540000007924,,,,,2453.0738789999996,10,001,2024-07-29_16h03.51.019,robot_cogshifting_sign,2022.2.5,59.880669801428404,
"['L_Head_Y_For', 'L_Base_Y_Back', 'L_Base_Z_For', 'R_Base_Y_For']","{'laterality': 'R_Base_Y_For', 'localisation': 'L_Head_Y_For', 'movement': 'L_Base_Z_For'}",movement,['movement'],L_Base_Z_For,2,1,robot,4,False,False,"['robot_stimuli\\L_Head_Y_For.mp4', 'robot_stimuli\\L_Base_Y_Back.mp4', 'robot_stimuli\\L_Base_Z_For.mp4', 'robot_stimuli\\R_Base_Y_For.mp4']",robot_stimuli\L_Base_Z_For.mp4,10,,,,,,,,,,,,,0,82,82,82,,,,,,,,,,,,,,,,,,,2457.5214829999986,2459.5969836999993,,,2474.3330025999985,2474.3330025999985,2474.3330025999985,3,3.636627199999566,2477.988274199999,2477.988274199999,2477.988274199999,2477.988274199999,2477.988274199999,2477.988274199999,2477.988274199999,2477.988274199999,None,None,None,,,,,,,,,,2457.5214829999986,2457.5214829999986,None,,,,2457.5214829999986,2457.5214829999986,2470.6982738999995,10,001,2024-07-29_16h03.51.019,robot_cogshifting_sign,2022.2.5,59.880669801428404,
"['R_Arm_Y_For', 'L_Torso_Y_Back', 'R_Torso_Z_For', 'R_Torso_Y_Back']","{'laterality': 'L_Torso_Y_Back', 'localisation': 'R_Arm_Y_For', 'movement': 'R_Torso_Z_For'}",localisation,['localisation'],R_Arm_Y_For,0,1,robot,4,False,False,"['robot_stimuli\\R_Arm_Y_For.mp4', 'robot_stimuli\\L_Torso_Y_Back.mp4', 'robot_stimuli\\R_Torso_Z_For.mp4', 'robot_stimuli\\R_Torso_Y_Back.mp4']",robot_stimuli\R_Arm_Y_For.mp4,10,,,,,,,,,,,,,0,83,83,83,,,,,,,,,,,,,,,,,,,2477.988274199999,2480.068039599999,,,2494.593251299999,2494.593251299999,2494.593251299999,2,9.201385600001231,2503.8214812999995,2503.8214812999995,2503.8214812999995,2503.8214812999995,2503.8214812999995,2503.8214812999995,2503.8214812999995,2503.8214812999995,None,None,None,,,,,,,,,,2477.988274199999,2477.988274199999,None,,,,2477.988274199999,2477.988274199999,2490.9580986,10,001,2024-07-29_16h03.51.019,robot_cogshifting_sign,2022.2.5,59.880669801428404,
"['R_Base_Y_Back', 'L_Base_Y_For', 'R_Head_Y_For', 'R_Base_Z_For']","{'laterality': 'L_Base_Y_For', 'localisation': 'R_Head_Y_For', 'movement': 'R_Base_Z_For'}",laterality,['laterality'],L_Base_Y_For,1,1,robot,4,False,False,"['robot_stimuli\\R_Base_Y_Back.mp4', 'robot_stimuli\\L_Base_Y_For.mp4', 'robot_stimuli\\R_Head_Y_For.mp4', 'robot_stimuli\\R_Base_Z_For.mp4']",robot_stimuli\L_Base_Y_For.mp4,10,,,,,,,,,,,,,0,84,84,84,,,,,,,,,,,,,,,,,,,2503.8214812999995,2505.8974603999995,,,2520.6107298999996,2520.6107298999996,2520.6107298999996,2,0.43948009999985516,2521.0714746999984,2521.0714746999984,2521.0714746999984,2521.0714746999984,2521.0714746999984,2521.0714746999984,2521.0714746999984,2521.0714746999984,None,None,None,,,,,,,,,,2503.8214812999995,2503.8214812999995,None,,,,2503.8214812999995,2503.8214812999995,2516.9658822,10,001,2024-07-29_16h03.51.019,robot_cogshifting_sign,2022.2.5,59.880669801428404,
"['R_Torso_X_Back', 'R_Torso_Y_Back', 'R_Arm_Y_Back', 'L_Torso_Y_For']","{'laterality': 'L_Torso_Y_For', 'localisation': 'R_Arm_Y_Back', 'movement': 'R_Torso_X_Back'}",laterality,['laterality'],L_Torso_Y_For,3,1,robot,4,False,False,"['robot_stimuli\\R_Torso_X_Back.mp4', 'robot_stimuli\\R_Torso_Y_Back.mp4', 'robot_stimuli\\R_Arm_Y_Back.mp4', 'robot_stimuli\\L_Torso_Y_For.mp4']",robot_stimuli\L_Torso_Y_For.mp4,10,,,,,,,,,,,,,0,85,85,85,,,,,,,,,,,,,,,,,,,2521.0714746999984,2523.1483942999985,,,2537.9414115,2537.9414115,2537.9414115,4,1.564961800000674,2539.5382071999993,2539.5382071999993,2539.5382071999993,2539.5382071999993,2539.5382071999993,2539.5382071999993,2539.5382071999993,2539.5382071999993,None,None,None,,,,,,,,,,2521.0714746999984,2521.0714746999984,None,,,,2521.0714746999984,2521.0714746999984,2534.3084169999984,10,001,2024-07-29_16h03.51.019,robot_cogshifting_sign,2022.2.5,59.880669801428404,
"['R_Head_Y_For', 'R_Head_Z_Back', 'L_Head_Y_For', 'R_Arm_Y_Back']","{'laterality': 'L_Head_Y_For', 'localisation': 'R_Arm_Y_Back', 'movement': 'R_Head_Z_Back'}",laterality,['laterality'],L_Head_Y_For,2,1,robot,4,False,False,"['robot_stimuli\\R_Head_Y_For.mp4', 'robot_stimuli\\R_Head_Z_Back.mp4', 'robot_stimuli\\L_Head_Y_For.mp4', 'robot_stimuli\\R_Arm_Y_Back.mp4']",robot_stimuli\L_Head_Y_For.mp4,10,,,,,,,,,,,,,0,86,86,86,,,,,,,,,,,,,,,,,,,2539.5382071999993,2541.6143865999984,,,2556.4268224999996,2556.4268224999996,2556.4268224999996,3,2.3904719000001933,2558.8380684999993,2558.8380684999993,2558.8380684999993,2558.8380684999993,2558.8380684999993,2558.8380684999993,2558.8380684999993,2558.8380684999993,None,None,None,,,,,,,,,,2539.5382071999993,2539.5382071999993,None,,,,2539.5382071999993,2539.5382071999993,2552.780399899999,10,001,2024-07-29_16h03.51.019,robot_cogshifting_sign,2022.2.5,59.880669801428404,
