sequence,is_true,target,condition,stimuli,block,is_block_beginning,is_block_ending,sequence_fnames,target_fname,subject,retraining.thisRepN,retraining.thisTrialN,retraining.thisN,retraining.thisIndex,training.thisRepN,training.thisTrialN,training.thisN,training.thisIndex,training_sequence_loop.thisRepN,training_sequence_loop.thisTrialN,training_sequence_loop.thisN,training_sequence_loop.thisIndex,trials.thisRepN,trials.thisTrialN,trials.thisN,trials.thisIndex,sequence_loop.thisRepN,sequence_loop.thisTrialN,sequence_loop.thisN,sequence_loop.thisIndex,langage_text.started,langage_key.started,langage_key.keys,langage_key.rt,intro_text.started,intro_key.started,intro_key.keys,intro_key.rt,training_intro_text.started,training_intro_key.started,training_intro_key.keys,training_intro_key.rt,polygon.started,polygon.stopped,training_presentation_letter.started,training_presentation_letter.stopped,training_recall_letter.started,training_recall_key.started,training_recall_question.started,training_recall_answer.started,training_recall_key.keys,training_recall_key.rt,RSME_labels.started,RSME_labels.stopped,RSME_ticks.started,RSME_ticks.stopped,RSME_text.started,RSME_text.stopped,RSME_key.started,RSME_key.stopped,RSME_ticks.response,RSME_ticks.rt,RSME_key.keys,training_intro_text.stopped,training_intro_key.stopped,RSME_key.rt,training_presentation_movie.started,training_recall_movie.started,experiment_beginning_text.started,experiment_beginning_keys.started,experiment_beginning_key.started,experiment_beginning_key.keys,experiment_beginning_key.rt,block_intro_text.started,block_intro_key.started,block_intro_key.keys,block_intro_key.rt,presentation_movie.started,recall_movie.started,recall_key.started,recall_question.started,recall_answer.started,recall_key.keys,recall_key.rt,block_intro_text.stopped,block_intro_key.stopped,presentation_letter.started,presentation_letter.stopped,recall_letter.started,participant,session,date,expName,psychopyVersion,frameRate,
,,,,,,,,,,,,,,,,,,,,,,,,,,,,,,,11.644520699999987,11.644520699999987,f,1.9663462999999979,,,,,,,,,,,,,,,,,,,,,,,,,,,,,,,,,,,,,,,,,,,,,,,,,,,,,,,,19,001,2024-07-31_10h43.35.448,robot_sternberg_sign,2022.2.5,60.06251306357941,
,,,,,,,,,,,,,,,,,,,,,,,,,,,,,,,,,,,13.674586599999998,13.674586599999998,space,79.33642460000004,,,,,,,,,,,,,,,,,,,,,,,,,,,,,,,,,,,,,,,,,,,,,,,,,,,,19,001,2024-07-31_10h43.35.448,robot_sternberg_sign,2022.2.5,60.06251306357941,
"['M', 'B']",False,G,2,letter,2,True,False,"['robot_stimuli\\\\filler.mp4', 'robot_stimuli\\\\filler.mp4']",robot_stimuli\\filler.mp4,19,0,0,0,0,0,0,0,0,,,,,,,,,,,,,,,,,,,,,93.06575029999999,93.06575029999999,space,5.8012932999999975,104.5216709,105.61246000000006,102.50513290000004,104.5216709,105.61246000000006,105.61246000000006,105.61246000000006,105.61246000000006,n,1.3910467999999696,107.33654090000005,107.33654090000005,107.33654090000005,107.33654090000005,107.33654090000005,107.33654090000005,107.33654090000005,107.33654090000005,None,None,None,,,,,,,,,,,,,,,,,,,,,,,,,,,19,001,2024-07-31_10h43.35.448,robot_sternberg_sign,2022.2.5,60.06251306357941,
"['K', 'Q']",True,Q,2,letter,2,False,False,"['robot_stimuli\\\\filler.mp4', 'robot_stimuli\\\\filler.mp4']",robot_stimuli\\filler.mp4,19,0,0,0,0,0,1,1,1,,,,,,,,,,,,,,,,,,,,,107.33654090000005,107.33654090000005,None,,112.72823210000001,113.80668830000002,110.71566340000004,112.72823210000001,113.80668830000002,113.80668830000002,113.80668830000002,113.80668830000002,c,0.7961025000000177,114.83796159999997,114.83796159999997,114.83796159999997,114.83796159999997,114.83796159999997,114.83796159999997,114.83796159999997,114.83796159999997,None,None,None,107.33654090000005,107.33654090000005,,,,,,,,,,,,,,,,,,,,,,,,,19,001,2024-07-31_10h43.35.448,robot_sternberg_sign,2022.2.5,60.06251306357941,
"['G', 'N']",True,N,2,letter,2,False,True,"['robot_stimuli\\\\filler.mp4', 'robot_stimuli\\\\filler.mp4']",robot_stimuli\\filler.mp4,19,0,0,0,0,0,2,2,2,,,,,,,,,,,,,,,,,,,,,114.83796159999997,114.83796159999997,None,,120.25525679999998,121.32117119999998,118.23392530000001,120.25525679999998,121.32117119999998,121.32117119999998,121.32117119999998,121.32117119999998,c,0.9369955999999888,122.40701179999996,130.8027366,122.40701179999996,130.8027366,122.40701179999996,130.8027366,122.40701179999996,130.8027366,5.30864197530864,6.46154469999999,space,114.83796159999997,114.83796159999997,8.338538700000015,,,,,,,,,,,,,,,,,,,,,,,,19,001,2024-07-31_10h43.35.448,robot_sternberg_sign,2022.2.5,60.06251306357941,
"['N', 'M', 'C', 'K']",False,T,4,letter,2,True,False,"['robot_stimuli\\\\filler.mp4', 'robot_stimuli\\\\filler.mp4', 'robot_stimuli\\\\filler.mp4', 'robot_stimuli\\\\filler.mp4']",robot_stimuli\\filler.mp4,19,0,0,0,0,0,3,3,3,,,,,,,,,,,,,,,,,,,,,130.8027366,130.8027366,space,2.3047416999999655,142.93935969999995,144.0116686,140.9203711,142.93935969999995,144.0116686,144.0116686,144.0116686,144.0116686,n,0.7824743000000467,145.03934430000004,145.03934430000004,145.03934430000004,145.03934430000004,145.03934430000004,145.03934430000004,145.03934430000004,145.03934430000004,None,None,None,,,,,,,,,,,,,,,,,,,,,,,,,,,19,001,2024-07-31_10h43.35.448,robot_sternberg_sign,2022.2.5,60.06251306357941,
"['L', 'F', 'M', 'X']",True,M,4,letter,2,False,False,"['robot_stimuli\\\\filler.mp4', 'robot_stimuli\\\\filler.mp4', 'robot_stimuli\\\\filler.mp4', 'robot_stimuli\\\\filler.mp4']",robot_stimuli\\filler.mp4,19,0,0,0,0,0,4,4,4,,,,,,,,,,,,,,,,,,,,,145.03934430000004,145.03934430000004,None,,155.03065919999995,156.10467849999998,152.81213349999996,155.03065919999995,156.10467849999998,156.10467849999998,156.10467849999998,156.10467849999998,c,0.881151500000044,157.13410629999998,157.13410629999998,157.13410629999998,157.13410629999998,157.13410629999998,157.13410629999998,157.13410629999998,157.13410629999998,None,None,None,145.03934430000004,145.03934430000004,,,,,,,,,,,,,,,,,,,,,,,,,19,001,2024-07-31_10h43.35.448,robot_sternberg_sign,2022.2.5,60.06251306357941,
"['G', 'J', 'R', 'K']",True,K,4,letter,2,False,True,"['robot_stimuli\\\\filler.mp4', 'robot_stimuli\\\\filler.mp4', 'robot_stimuli\\\\filler.mp4', 'robot_stimuli\\\\filler.mp4']",robot_stimuli\\filler.mp4,19,0,0,0,0,0,5,5,5,,,,,,,,,,,,,,,,,,,,,157.13410629999998,157.13410629999998,None,,167.33112059999996,168.4040023,165.10800819999997,167.33112059999996,168.4040023,168.4040023,168.4040023,168.4040023,c,0.7267353000000298,169.26152820000004,174.28498000000002,169.26152820000004,174.28498000000002,169.26152820000004,174.28498000000002,169.26152820000004,174.28498000000002,9.938271604938265,3.8084901999999374,space,157.13410629999998,157.13410629999998,4.956493299999977,,,,,,,,,,,,,,,,,,,,,,,,19,001,2024-07-31_10h43.35.448,robot_sternberg_sign,2022.2.5,60.06251306357941,
"['D', 'C', 'J', 'Z', 'N', 'H']",True,D,6,letter,2,True,False,"['robot_stimuli\\\\filler.mp4', 'robot_stimuli\\\\filler.mp4', 'robot_stimuli\\\\filler.mp4', 'robot_stimuli\\\\filler.mp4', 'robot_stimuli\\\\filler.mp4', 'robot_stimuli\\\\filler.mp4']",robot_stimuli\\filler.mp4,19,0,0,0,0,0,6,6,6,,,,,,,,,,,,,,,,,,,,,174.28498000000002,174.28498000000002,space,1.686222799999939,190.60175489999995,191.66918420000002,188.38395160000005,190.60175489999995,191.66918420000002,191.66918420000002,191.66918420000002,191.66918420000002,c,0.9883140000000026,192.89735370000005,192.89735370000005,192.89735370000005,192.89735370000005,192.89735370000005,192.89735370000005,192.89735370000005,192.89735370000005,None,None,None,,,,,,,,,,,,,,,,,,,,,,,,,,,19,001,2024-07-31_10h43.35.448,robot_sternberg_sign,2022.2.5,60.06251306357941,
"['Q', 'J', 'M', 'P', 'G', 'S']",True,M,6,letter,2,False,False,"['robot_stimuli\\\\filler.mp4', 'robot_stimuli\\\\filler.mp4', 'robot_stimuli\\\\filler.mp4', 'robot_stimuli\\\\filler.mp4', 'robot_stimuli\\\\filler.mp4', 'robot_stimuli\\\\filler.mp4']",robot_stimuli\\filler.mp4,19,0,0,0,0,0,7,7,7,,,,,,,,,,,,,,,,,,,,,192.89735370000005,192.89735370000005,None,,207.27771389999998,208.34240639999996,205.0663373,207.27771389999998,208.34240639999996,208.34240639999996,208.34240639999996,208.34240639999996,c,1.5959186000000614,210.17581589999998,210.17581589999998,210.17581589999998,210.17581589999998,210.17581589999998,210.17581589999998,210.17581589999998,210.17581589999998,None,None,None,192.89735370000005,192.89735370000005,,,,,,,,,,,,,,,,,,,,,,,,,19,001,2024-07-31_10h43.35.448,robot_sternberg_sign,2022.2.5,60.06251306357941,
"['R', 'T', 'B', 'S', 'J', 'X']",False,K,6,letter,2,False,True,"['robot_stimuli\\\\filler.mp4', 'robot_stimuli\\\\filler.mp4', 'robot_stimuli\\\\filler.mp4', 'robot_stimuli\\\\filler.mp4', 'robot_stimuli\\\\filler.mp4', 'robot_stimuli\\\\filler.mp4']",robot_stimuli\\filler.mp4,19,0,0,0,0,0,8,8,8,,,,,,,,,,,,,,,,,,,,,210.17581589999998,210.17581589999998,None,,224.51097489999995,225.58774019999998,222.49004639999998,224.51097489999995,225.58774019999998,225.58774019999998,225.58774019999998,225.58774019999998,n,4.8077054000000885,230.65613050000002,239.75157019999995,230.65613050000002,239.75157019999995,230.65613050000002,239.75157019999995,230.65613050000002,239.75157019999995,36.94444444444444,6.862313599999993,space,210.17581589999998,210.17581589999998,9.026228099999969,,,,,,,,,,,,,,,,,,,,,,,,19,001,2024-07-31_10h43.35.448,robot_sternberg_sign,2022.2.5,60.06251306357941,
"['L_Torso_Y_For', 'R_Arm_X_For']",False,R_Base_Y_For,2,robot,1,True,False,"['robot_stimuli\\L_Torso_Y_For.mp4', 'robot_stimuli\\R_Arm_X_For.mp4']",robot_stimuli\R_Base_Y_For.mp4,19,0,0,0,0,0,9,9,9,,,,,,,,,,,,,,,,,,,,,239.75157019999995,239.75157019999995,space,2.443935500000009,250.68177839999998,251.7796303,,,,251.7796303,251.7796303,251.7796303,n,2.479066199999977,255.41910399999995,255.41910399999995,255.41910399999995,255.41910399999995,255.41910399999995,255.41910399999995,255.41910399999995,255.41910399999995,None,None,None,,,,247.051915,251.7796303,,,,,,,,,,,,,,,,,,,,,,19,001,2024-07-31_10h43.35.448,robot_sternberg_sign,2022.2.5,60.06251306357941,
"['L_Torso_Y_For', 'L_Base_X_For']",True,L_Base_X_For,2,robot,1,False,False,"['robot_stimuli\\L_Torso_Y_For.mp4', 'robot_stimuli\\L_Base_X_For.mp4']",robot_stimuli\L_Base_X_For.mp4,19,0,0,0,0,0,10,10,10,,,,,,,,,,,,,,,,,,,,,255.41910399999995,255.41910399999995,None,,263.78957490000005,264.87332430000004,,,,264.87332430000004,264.87332430000004,264.87332430000004,c,2.2342045999999414,268.44715440000004,268.44715440000004,268.44715440000004,268.44715440000004,268.44715440000004,268.44715440000004,268.44715440000004,268.44715440000004,None,None,None,255.41910399999995,255.41910399999995,,260.23424090000003,264.87332430000004,,,,,,,,,,,,,,,,,,,,,,19,001,2024-07-31_10h43.35.448,robot_sternberg_sign,2022.2.5,60.06251306357941,
"['R_Arm_Z_For', 'R_Head_Y_Back']",True,R_Arm_Z_For,2,robot,1,False,True,"['robot_stimuli\\R_Arm_Z_For.mp4', 'robot_stimuli\\R_Head_Y_Back.mp4']",robot_stimuli\R_Arm_Z_For.mp4,19,0,0,0,0,0,11,11,11,,,,,,,,,,,,,,,,,,,,,268.44715440000004,268.44715440000004,None,,276.90914239999995,269.53531610000005,,,,278.014495,278.014495,278.014495,c,3.4518519000000083,281.68148799999994,285.6667956,281.68148799999994,285.6667956,281.68148799999994,285.6667956,281.68148799999994,285.6667956,40.18518518518519,2.3176538000000164,space,268.44715440000004,268.44715440000004,3.936913700000048,273.27582970000003,278.014495,,,,,,,,,,,,,,,,,,,,,,19,001,2024-07-31_10h43.35.448,robot_sternberg_sign,2022.2.5,60.06251306357941,
"['R_Torso_Y_Back', 'L_Arm_Y_For', 'R_Torso_Z_Back', 'L_Base_Z_Back']",False,R_Base_X_Back,4,robot,1,True,False,"['robot_stimuli\\R_Torso_Y_Back.mp4', 'robot_stimuli\\L_Arm_Y_For.mp4', 'robot_stimuli\\R_Torso_Z_Back.mp4', 'robot_stimuli\\L_Base_Z_Back.mp4']",robot_stimuli\R_Base_X_Back.mp4,19,0,0,0,0,0,12,12,12,,,,,,,,,,,,,,,,,,,,,285.6667956,285.6667956,space,2.439723700000002,304.04253900000003,289.21907050000004,,,,305.13896750000004,305.13896750000004,305.13896750000004,n,3.1278216000000043,308.79044150000004,308.79044150000004,308.79044150000004,308.79044150000004,308.79044150000004,308.79044150000004,308.79044150000004,308.79044150000004,None,None,None,,,,300.410968,305.13896750000004,,,,,,,,,,,,,,,,,,,,,,19,001,2024-07-31_10h43.35.448,robot_sternberg_sign,2022.2.5,60.06251306357941,
"['L_Torso_Y_Back', 'L_Torso_Z_Back', 'L_Head_Y_Back', 'R_Base_Y_Back']",True,R_Base_Y_Back,4,robot,1,False,False,"['robot_stimuli\\L_Torso_Y_Back.mp4', 'robot_stimuli\\L_Torso_Z_Back.mp4', 'robot_stimuli\\L_Head_Y_Back.mp4', 'robot_stimuli\\R_Base_Y_Back.mp4']",robot_stimuli\R_Base_Y_Back.mp4,19,0,0,0,0,0,13,13,13,,,,,,,,,,,,,,,,,,,,,308.79044150000004,308.79044150000004,None,,324.4769582,325.57500430000005,,,,325.57500430000005,325.57500430000005,325.57500430000005,c,2.331376499999976,329.2169268,329.2169268,329.2169268,329.2169268,329.2169268,329.2169268,329.2169268,329.2169268,None,None,None,308.79044150000004,308.79044150000004,,320.8351215,325.57500430000005,,,,,,,,,,,,,,,,,,,,,,19,001,2024-07-31_10h43.35.448,robot_sternberg_sign,2022.2.5,60.06251306357941,
"['R_Base_Y_For', 'L_Torso_Y_For', 'L_Base_X_For', 'R_Head_Z_Back']",True,R_Base_Y_For,4,robot,1,False,True,"['robot_stimuli\\R_Base_Y_For.mp4', 'robot_stimuli\\L_Torso_Y_For.mp4', 'robot_stimuli\\L_Base_X_For.mp4', 'robot_stimuli\\R_Head_Z_Back.mp4']",robot_stimuli\R_Base_Y_For.mp4,19,0,0,0,0,0,14,14,14,,,,,,,,,,,,,,,,,,,,,329.2169268,329.2169268,None,,345.0467139,346.13420140000005,,,,346.13420140000005,346.13420140000005,346.13420140000005,n,3.636603600000001,349.8394551,355.58678870000006,349.8394551,355.58678870000006,349.8394551,355.58678870000006,349.8394551,355.58678870000006,59.4753086419753,3.4139085000000478,space,329.2169268,329.2169268,5.706338700000003,341.4161828,346.13420140000005,,,,,,,,,,,,,,,,,,,,,,19,001,2024-07-31_10h43.35.448,robot_sternberg_sign,2022.2.5,60.06251306357941,
"['R_Base_Y_Back', 'R_Torso_Y_For', 'L_Torso_Z_For', 'R_Base_Z_Back', 'R_Torso_Z_Back', 'R_Head_Y_Back']",False,R_Head_X_For,6,robot,1,True,False,"['robot_stimuli\\R_Base_Y_Back.mp4', 'robot_stimuli\\R_Torso_Y_For.mp4', 'robot_stimuli\\L_Torso_Z_For.mp4', 'robot_stimuli\\R_Base_Z_Back.mp4', 'robot_stimuli\\R_Torso_Z_Back.mp4', 'robot_stimuli\\R_Head_Y_Back.mp4']",robot_stimuli\R_Head_X_For.mp4,19,0,0,0,0,0,15,15,15,,,,,,,,,,,,,,,,,,,,,355.58678870000006,355.58678870000006,space,0.944184200000052,379.7726764,380.85114780000004,,,,380.85114780000004,380.85114780000004,380.85114780000004,n,2.158769100000029,384.48890200000005,384.48890200000005,384.48890200000005,384.48890200000005,384.48890200000005,384.48890200000005,384.48890200000005,384.48890200000005,None,None,None,,,,376.1503778,380.85114780000004,,,,,,,,,,,,,,,,,,,,,,19,001,2024-07-31_10h43.35.448,robot_sternberg_sign,2022.2.5,60.06251306357941,
"['L_Torso_Y_Back', 'R_Base_Y_Back', 'R_Head_Z_For', 'L_Base_Y_For', 'L_Torso_X_Back', 'L_Arm_Z_For']",True,L_Torso_Y_Back,6,robot,1,False,False,"['robot_stimuli\\L_Torso_Y_Back.mp4', 'robot_stimuli\\R_Base_Y_Back.mp4', 'robot_stimuli\\R_Head_Z_For.mp4', 'robot_stimuli\\L_Base_Y_For.mp4', 'robot_stimuli\\L_Torso_X_Back.mp4', 'robot_stimuli\\L_Arm_Z_For.mp4']",robot_stimuli\L_Torso_Y_Back.mp4,19,0,0,0,0,0,16,16,16,,,,,,,,,,,,,,,,,,,,,384.48890200000005,384.48890200000005,None,,407.5890584,408.6863565,,,,408.6863565,408.6863565,408.6863565,n,3.812718200000006,412.5354916,412.5354916,412.5354916,412.5354916,412.5354916,412.5354916,412.5354916,412.5354916,None,None,None,384.48890200000005,384.48890200000005,,403.9566482,408.6863565,,,,,,,,,,,,,,,,,,,,,,19,001,2024-07-31_10h43.35.448,robot_sternberg_sign,2022.2.5,60.06251306357941,
"['R_Head_X_For', 'R_Arm_Z_For', 'L_Base_X_For', 'R_Base_X_For', 'L_Head_Y_Back', 'R_Base_Y_Back']",True,R_Arm_Z_For,6,robot,1,False,True,"['robot_stimuli\\R_Head_X_For.mp4', 'robot_stimuli\\R_Arm_Z_For.mp4', 'robot_stimuli\\L_Base_X_For.mp4', 'robot_stimuli\\R_Base_X_For.mp4', 'robot_stimuli\\L_Head_Y_Back.mp4', 'robot_stimuli\\R_Base_Y_Back.mp4']",robot_stimuli\R_Arm_Z_For.mp4,19,0,0,0,0,0,17,17,17,,,,,,,,,,,,,,,,,,,,,412.5354916,412.5354916,None,,435.7440246,436.8331484,,,,436.8331484,436.8331484,436.8331484,n,2.8660584999999514,440.5028624,443.8031645,440.5028624,443.8031645,440.5028624,443.8031645,440.5028624,443.8031645,59.629629629629626,2.0624257999999145,space,412.5354916,412.5354916,3.2355254999999374,432.10231180000005,436.8331484,,,,,,,,,,,,,,,,,,,,,,19,001,2024-07-31_10h43.35.448,robot_sternberg_sign,2022.2.5,60.06251306357941,
,,,,,,,,,,,0,0,0,0,,,,,,,,,,,,,,,,,,,,,,,,,,,,,,,,,,,,,,,,,,,,,,,,,,,,,,,443.8031645,443.8031645,443.8031645,c,3.2471562000000063,,,,,,,,,,,,,,,,,19,001,2024-07-31_10h43.35.448,robot_sternberg_sign,2022.2.5,60.06251306357941,
"['R_Torso_Z_Back', 'L_Arm_X_Back', 'R_Base_X_Back', 'R_Base_Y_For', 'R_Head_X_For', 'R_Base_Z_For']",False,R_Base_X_For,6,robot,1,True,False,"['robot_stimuli\\R_Torso_Z_Back.mp4', 'robot_stimuli\\L_Arm_X_Back.mp4', 'robot_stimuli\\R_Base_X_Back.mp4', 'robot_stimuli\\R_Base_Y_For.mp4', 'robot_stimuli\\R_Head_X_For.mp4', 'robot_stimuli\\R_Base_Z_For.mp4']",robot_stimuli\R_Base_X_For.mp4,19,,,,,,,,,,,,,0,0,0,0,,,,,,,,,,,,,,,,,478.99569210000004,480.08526199999994,,,,,,,,,483.7534131,483.7534131,483.7534131,483.7534131,483.7534131,483.7534131,483.7534131,483.7534131,None,None,None,,,,,,,,,,,447.08687150000003,447.08687150000003,space,8.540540199999953,475.36571460000005,480.08526199999994,480.08526199999994,480.08526199999994,480.08526199999994,n,3.636650999999972,,,,,,19,001,2024-07-31_10h43.35.448,robot_sternberg_sign,2022.2.5,60.06251306357941,
"['L_Head_Z_Back', 'R_Torso_X_Back', 'L_Base_Y_Back', 'L_Torso_X_Back', 'R_Arm_Z_For', 'L_Base_Y_For']",False,R_Head_X_Back,6,robot,1,False,False,"['robot_stimuli\\L_Head_Z_Back.mp4', 'robot_stimuli\\R_Torso_X_Back.mp4', 'robot_stimuli\\L_Base_Y_Back.mp4', 'robot_stimuli\\L_Torso_X_Back.mp4', 'robot_stimuli\\R_Arm_Z_For.mp4', 'robot_stimuli\\L_Base_Y_For.mp4']",robot_stimuli\R_Head_X_Back.mp4,19,,,,,,,,,,,,,0,1,1,1,,,,,,,,,,,,,,,,,506.92980809999995,508.0184647,,,,,,,,,511.65699670000004,511.65699670000004,511.65699670000004,511.65699670000004,511.65699670000004,511.65699670000004,511.65699670000004,511.65699670000004,None,None,None,,,,,,,,,,,483.7534131,483.7534131,None,,503.39754919999996,508.0184647,508.0184647,508.0184647,508.0184647,n,2.6719303000000423,483.7534131,483.7534131,,,,19,001,2024-07-31_10h43.35.448,robot_sternberg_sign,2022.2.5,60.06251306357941,
"['R_Head_Y_For', 'R_Arm_Y_Back', 'L_Torso_X_Back', 'L_Arm_Z_For', 'R_Head_X_For', 'L_Base_Z_Back']",True,L_Base_Z_Back,6,robot,1,False,False,"['robot_stimuli\\R_Head_Y_For.mp4', 'robot_stimuli\\R_Arm_Y_Back.mp4', 'robot_stimuli\\L_Torso_X_Back.mp4', 'robot_stimuli\\L_Arm_Z_For.mp4', 'robot_stimuli\\R_Head_X_For.mp4', 'robot_stimuli\\L_Base_Z_Back.mp4']",robot_stimuli\L_Base_Z_Back.mp4,19,,,,,,,,,,,,,0,2,2,2,,,,,,,,,,,,,,,,,535.0103499,536.1026057,,,,,,,,,539.7520357,539.7520357,539.7520357,539.7520357,539.7520357,539.7520357,539.7520357,539.7520357,None,None,None,,,,,,,,,,,511.65699670000004,511.65699670000004,None,,531.3686409,536.1026057,536.1026057,536.1026057,536.1026057,c,2.219437300000095,511.65699670000004,511.65699670000004,,,,19,001,2024-07-31_10h43.35.448,robot_sternberg_sign,2022.2.5,60.06251306357941,
"['L_Arm_Y_For', 'R_Base_Y_For', 'R_Arm_X_For', 'R_Head_X_Back', 'L_Torso_Y_For', 'R_Base_X_For']",False,R_Torso_Y_Back,6,robot,1,False,False,"['robot_stimuli\\L_Arm_Y_For.mp4', 'robot_stimuli\\R_Base_Y_For.mp4', 'robot_stimuli\\R_Arm_X_For.mp4', 'robot_stimuli\\R_Head_X_Back.mp4', 'robot_stimuli\\L_Torso_Y_For.mp4', 'robot_stimuli\\R_Base_X_For.mp4']",robot_stimuli\R_Torso_Y_Back.mp4,19,,,,,,,,,,,,,0,3,3,3,,,,,,,,,,,,,,,,,563.0006663,564.0986657,,,,,,,,,567.7378754,567.7378754,567.7378754,567.7378754,567.7378754,567.7378754,567.7378754,567.7378754,None,None,None,,,,,,,,,,,539.7520357,539.7520357,None,,559.455342,564.0986657,564.0986657,564.0986657,564.0986657,n,3.2316913999999315,539.7520357,539.7520357,,,,19,001,2024-07-31_10h43.35.448,robot_sternberg_sign,2022.2.5,60.06251306357941,
"['R_Head_X_For', 'R_Base_X_Back', 'L_Arm_Y_Back', 'L_Arm_Y_For', 'R_Base_Y_Back', 'R_Torso_Z_Back']",False,R_Arm_X_Back,6,robot,1,False,False,"['robot_stimuli\\R_Head_X_For.mp4', 'robot_stimuli\\R_Base_X_Back.mp4', 'robot_stimuli\\L_Arm_Y_Back.mp4', 'robot_stimuli\\L_Arm_Y_For.mp4', 'robot_stimuli\\R_Base_Y_Back.mp4', 'robot_stimuli\\R_Torso_Z_Back.mp4']",robot_stimuli\R_Arm_X_Back.mp4,19,,,,,,,,,,,,,0,4,4,4,,,,,,,,,,,,,,,,,591.0618031,592.1510674,,,,,,,,,595.8020516,595.8020516,595.8020516,595.8020516,595.8020516,595.8020516,595.8020516,595.8020516,None,None,None,,,,,,,,,,,567.7378754,567.7378754,None,,587.4313413,592.1510674,592.1510674,592.1510674,592.1510674,n,3.6186623999999483,567.7378754,567.7378754,,,,19,001,2024-07-31_10h43.35.448,robot_sternberg_sign,2022.2.5,60.06251306357941,
"['R_Base_Z_Back', 'L_Head_Z_For', 'R_Base_Y_For', 'R_Torso_X_Back', 'L_Arm_Y_For', 'L_Arm_X_Back']",True,R_Base_Z_Back,6,robot,1,False,False,"['robot_stimuli\\R_Base_Z_Back.mp4', 'robot_stimuli\\L_Head_Z_For.mp4', 'robot_stimuli\\R_Base_Y_For.mp4', 'robot_stimuli\\R_Torso_X_Back.mp4', 'robot_stimuli\\L_Arm_Y_For.mp4', 'robot_stimuli\\L_Arm_X_Back.mp4']",robot_stimuli\R_Base_Z_Back.mp4,19,,,,,,,,,,,,,0,5,5,5,,,,,,,,,,,,,,,,,619.0107906000001,620.1027885999999,,,,,,,,,623.6499428,623.6499428,623.6499428,623.6499428,623.6499428,623.6499428,623.6499428,623.6499428,None,None,None,,,,,,,,,,,595.8020516,595.8020516,None,,615.3797729999999,620.1027885999999,620.1027885999999,620.1027885999999,620.1027885999999,n,2.427743300000202,595.8020516,595.8020516,,,,19,001,2024-07-31_10h43.35.448,robot_sternberg_sign,2022.2.5,60.06251306357941,
"['L_Arm_X_Back', 'R_Head_Z_For', 'R_Torso_Y_Back', 'L_Head_Z_For', 'L_Arm_Y_Back', 'L_Arm_X_For']",True,R_Head_Z_For,6,robot,1,False,False,"['robot_stimuli\\L_Arm_X_Back.mp4', 'robot_stimuli\\R_Head_Z_For.mp4', 'robot_stimuli\\R_Torso_Y_Back.mp4', 'robot_stimuli\\L_Head_Z_For.mp4', 'robot_stimuli\\L_Arm_Y_Back.mp4', 'robot_stimuli\\L_Arm_X_For.mp4']",robot_stimuli\R_Head_Z_For.mp4,19,,,,,,,,,,,,,0,6,6,6,,,,,,,,,,,,,,,,,646.9941427000001,648.0840128,,,,,,,,,651.7231435000001,651.7231435000001,651.7231435000001,651.7231435000001,651.7231435000001,651.7231435000001,651.7231435000001,651.7231435000001,None,None,None,,,,,,,,,,,623.6499428,623.6499428,None,,643.3646642000001,648.0840128,648.0840128,648.0840128,648.0840128,n,2.1256671999999526,623.6499428,623.6499428,,,,19,001,2024-07-31_10h43.35.448,robot_sternberg_sign,2022.2.5,60.06251306357941,
"['L_Arm_X_Back', 'R_Arm_X_For', 'L_Torso_Z_Back', 'R_Torso_X_For', 'L_Torso_Y_For', 'L_Base_X_For']",True,L_Arm_X_Back,6,robot,1,False,False,"['robot_stimuli\\L_Arm_X_Back.mp4', 'robot_stimuli\\R_Arm_X_For.mp4', 'robot_stimuli\\L_Torso_Z_Back.mp4', 'robot_stimuli\\R_Torso_X_For.mp4', 'robot_stimuli\\L_Torso_Y_For.mp4', 'robot_stimuli\\L_Base_X_For.mp4']",robot_stimuli\L_Arm_X_Back.mp4,19,,,,,,,,,,,,,0,7,7,7,,,,,,,,,,,,,,,,,674.8615662,675.9513827999999,,,,,,,,,679.6024078999999,679.6024078999999,679.6024078999999,679.6024078999999,679.6024078999999,679.6024078999999,679.6024078999999,679.6024078999999,None,None,None,,,,,,,,,,,651.7231435000001,651.7231435000001,None,,671.2854359999999,675.9513827999999,675.9513827999999,675.9513827999999,675.9513827999999,c,3.491346300000032,651.7231435000001,651.7231435000001,,,,19,001,2024-07-31_10h43.35.448,robot_sternberg_sign,2022.2.5,60.06251306357941,
"['L_Head_Z_For', 'L_Torso_X_For', 'R_Torso_X_Back', 'L_Torso_Y_Back', 'L_Head_Z_Back', 'R_Arm_Z_Back']",False,R_Base_Z_Back,6,robot,1,False,False,"['robot_stimuli\\L_Head_Z_For.mp4', 'robot_stimuli\\L_Torso_X_For.mp4', 'robot_stimuli\\R_Torso_X_Back.mp4', 'robot_stimuli\\L_Torso_Y_Back.mp4', 'robot_stimuli\\L_Head_Z_Back.mp4', 'robot_stimuli\\R_Arm_Z_Back.mp4']",robot_stimuli\R_Base_Z_Back.mp4,19,,,,,,,,,,,,,0,8,8,8,,,,,,,,,,,,,,,,,702.7925250999999,680.6812484,,,,,,,,,707.4227140999999,707.4227140999999,707.4227140999999,707.4227140999999,707.4227140999999,707.4227140999999,707.4227140999999,707.4227140999999,None,None,None,,,,,,,,,,,679.6024078999999,679.6024078999999,None,,699.1519986999999,703.8830515,703.8830515,703.8830515,703.8830515,n,3.15169549999996,679.6024078999999,679.6024078999999,,,,19,001,2024-07-31_10h43.35.448,robot_sternberg_sign,2022.2.5,60.06251306357941,
"['L_Base_Z_Back', 'L_Arm_X_Back', 'R_Base_Z_Back', 'R_Base_X_For', 'R_Torso_Z_For', 'R_Torso_X_For']",True,R_Torso_X_For,6,robot,1,False,True,"['robot_stimuli\\L_Base_Z_Back.mp4', 'robot_stimuli\\L_Arm_X_Back.mp4', 'robot_stimuli\\R_Base_Z_Back.mp4', 'robot_stimuli\\R_Base_X_For.mp4', 'robot_stimuli\\R_Torso_Z_For.mp4', 'robot_stimuli\\R_Torso_X_For.mp4']",robot_stimuli\R_Torso_X_For.mp4,19,,,,,,,,,,,,,0,9,9,9,,,,,,,,,,,,,,,,,730.6012444999999,731.7027315,,,,,,,,,735.3871053,738.4859114000001,735.3871053,738.4859114000001,735.3871053,738.4859114000001,735.3871053,738.4859114000001,60.092592592592595,2.2851504000000205,space,,,3.055078900000126,,,,,,,,707.4227140999999,707.4227140999999,None,,726.9681773,731.7027315,731.7027315,731.7027315,731.7027315,c,2.3234314999999697,707.4227140999999,707.4227140999999,,,,19,001,2024-07-31_10h43.35.448,robot_sternberg_sign,2022.2.5,60.06251306357941,
"['L_Head_X_Back', 'L_Torso_X_Back', 'R_Torso_Z_Back', 'R_Head_Y_For']",False,L_Head_X_For,4,robot,1,True,False,"['robot_stimuli\\L_Head_X_Back.mp4', 'robot_stimuli\\L_Torso_X_Back.mp4', 'robot_stimuli\\R_Torso_Z_Back.mp4', 'robot_stimuli\\R_Head_Y_For.mp4']",robot_stimuli\L_Head_X_For.mp4,19,,,,,,,,,,,,,0,10,10,10,,,,,,,,,,,,,,,,,755.9270933,757.0181405999999,,,,,,,,,760.5813025,760.5813025,760.5813025,760.5813025,760.5813025,760.5813025,760.5813025,760.5813025,None,None,None,,,,,,,,,,,738.4859114000001,738.4859114000001,space,1.5237165000000914,752.2856343000001,757.0181405999999,757.0181405999999,757.0181405999999,757.0181405999999,c,2.304077799999959,,,,,,19,001,2024-07-31_10h43.35.448,robot_sternberg_sign,2022.2.5,60.06251306357941,
"['R_Arm_Y_Back', 'L_Arm_Y_For', 'L_Torso_X_For', 'L_Torso_Y_Back']",False,R_Head_X_For,4,robot,1,False,False,"['robot_stimuli\\R_Arm_Y_Back.mp4', 'robot_stimuli\\L_Arm_Y_For.mp4', 'robot_stimuli\\L_Torso_X_For.mp4', 'robot_stimuli\\L_Torso_Y_Back.mp4']",robot_stimuli\R_Head_X_For.mp4,19,,,,,,,,,,,,,0,11,11,11,,,,,,,,,,,,,,,,,776.3246790000001,761.6644398000001,,,,,,,,,781.0548756999999,781.0548756999999,781.0548756999999,781.0548756999999,781.0548756999999,781.0548756999999,781.0548756999999,781.0548756999999,None,None,None,,,,,,,,,,,760.5813025,760.5813025,None,,772.8270726000001,777.4166445999999,777.4166445999999,777.4166445999999,777.4166445999999,n,1.6410362000001442,760.5813025,760.5813025,,,,19,001,2024-07-31_10h43.35.448,robot_sternberg_sign,2022.2.5,60.06251306357941,
"['R_Arm_Y_Back', 'L_Arm_X_Back', 'R_Arm_Y_For', 'L_Arm_Y_For']",False,R_Base_Z_For,4,robot,1,False,False,"['robot_stimuli\\R_Arm_Y_Back.mp4', 'robot_stimuli\\L_Arm_X_Back.mp4', 'robot_stimuli\\R_Arm_Y_For.mp4', 'robot_stimuli\\L_Arm_Y_For.mp4']",robot_stimuli\R_Base_Z_For.mp4,19,,,,,,,,,,,,,0,12,12,12,,,,,,,,,,,,,,,,,796.8097679,782.1321172999999,,,,,,,,,801.5318258,801.5318258,801.5318258,801.5318258,801.5318258,801.5318258,801.5318258,801.5318258,None,None,None,,,,,,,,,,,781.0548756999999,781.0548756999999,None,,793.1790802999999,797.9014866,797.9014866,797.9014866,797.9014866,n,2.3412266000000272,781.0548756999999,781.0548756999999,,,,19,001,2024-07-31_10h43.35.448,robot_sternberg_sign,2022.2.5,60.06251306357941,
"['R_Head_Y_For', 'R_Arm_X_Back', 'L_Arm_X_Back', 'R_Base_Z_Back']",True,R_Base_Z_Back,4,robot,1,False,False,"['robot_stimuli\\R_Head_Y_For.mp4', 'robot_stimuli\\R_Arm_X_Back.mp4', 'robot_stimuli\\L_Arm_X_Back.mp4', 'robot_stimuli\\R_Base_Z_Back.mp4']",robot_stimuli\R_Base_Z_Back.mp4,19,,,,,,,,,,,,,0,13,13,13,,,,,,,,,,,,,,,,,817.2895693,818.3683802999999,,,,,,,,,821.8998299,821.8998299,821.8998299,821.8998299,821.8998299,821.8998299,821.8998299,821.8998299,None,None,None,,,,,,,,,,,801.5318258,801.5318258,None,,813.7676637,818.3683802999999,818.3683802999999,818.3683802999999,818.3683802999999,c,2.0830756000000292,801.5318258,801.5318258,,,,19,001,2024-07-31_10h43.35.448,robot_sternberg_sign,2022.2.5,60.06251306357941,
"['L_Arm_X_Back', 'R_Arm_Y_Back', 'L_Head_Y_For', 'R_Torso_X_Back']",True,R_Arm_Y_Back,4,robot,1,False,False,"['robot_stimuli\\L_Arm_X_Back.mp4', 'robot_stimuli\\R_Arm_Y_Back.mp4', 'robot_stimuli\\L_Head_Y_For.mp4', 'robot_stimuli\\R_Torso_X_Back.mp4']",robot_stimuli\R_Arm_Y_Back.mp4,19,,,,,,,,,,,,,0,14,14,14,,,,,,,,,,,,,,,,,837.7964558000001,838.8848753,,,,,,,,,842.5148297999999,842.5148297999999,842.5148297999999,842.5148297999999,842.5148297999999,842.5148297999999,842.5148297999999,842.5148297999999,None,None,None,,,,,,,,,,,821.8998299,821.8998299,None,,834.1645489,838.8848753,838.8848753,838.8848753,838.8848753,n,3.108625399999937,821.8998299,821.8998299,,,,19,001,2024-07-31_10h43.35.448,robot_sternberg_sign,2022.2.5,60.06251306357941,
"['R_Arm_X_For', 'L_Base_Y_Back', 'R_Arm_Z_Back', 'R_Head_X_For']",False,R_Base_Y_Back,4,robot,1,False,False,"['robot_stimuli\\R_Arm_X_For.mp4', 'robot_stimuli\\L_Base_Y_Back.mp4', 'robot_stimuli\\R_Arm_Z_Back.mp4', 'robot_stimuli\\R_Head_X_For.mp4']",robot_stimuli\R_Base_Y_Back.mp4,19,,,,,,,,,,,,,0,15,15,15,,,,,,,,,,,,,,,,,858.3321378999999,859.4186004999999,,,,,,,,,863.0699130999999,863.0699130999999,863.0699130999999,863.0699130999999,863.0699130999999,863.0699130999999,863.0699130999999,863.0699130999999,None,None,None,,,,,,,,,,,842.5148297999999,842.5148297999999,None,,854.7009038000001,859.4186004999999,859.4186004999999,859.4186004999999,859.4186004999999,c,2.7034732000001895,842.5148297999999,842.5148297999999,,,,19,001,2024-07-31_10h43.35.448,robot_sternberg_sign,2022.2.5,60.06251306357941,
"['R_Head_X_Back', 'R_Arm_Z_Back', 'L_Head_Y_Back', 'L_Arm_Z_For']",False,R_Arm_Z_For,4,robot,1,False,False,"['robot_stimuli\\R_Head_X_Back.mp4', 'robot_stimuli\\R_Arm_Z_Back.mp4', 'robot_stimuli\\L_Head_Y_Back.mp4', 'robot_stimuli\\L_Arm_Z_For.mp4']",robot_stimuli\R_Arm_Z_For.mp4,19,,,,,,,,,,,,,0,16,16,16,,,,,,,,,,,,,,,,,878.9410696,864.1490785000001,,,,,,,,,883.6855808,883.6855808,883.6855808,883.6855808,883.6855808,883.6855808,883.6855808,883.6855808,None,None,None,,,,,,,,,,,863.0699130999999,863.0699130999999,None,,875.3112911000001,880.0364078,880.0364078,880.0364078,880.0364078,n,2.8064038000002256,863.0699130999999,863.0699130999999,,,,19,001,2024-07-31_10h43.35.448,robot_sternberg_sign,2022.2.5,60.06251306357941,
"['L_Head_X_For', 'R_Base_Z_Back', 'R_Base_X_Back', 'R_Torso_X_For']",True,R_Torso_X_For,4,robot,1,False,False,"['robot_stimuli\\L_Head_X_For.mp4', 'robot_stimuli\\R_Base_Z_Back.mp4', 'robot_stimuli\\R_Base_X_Back.mp4', 'robot_stimuli\\R_Torso_X_For.mp4']",robot_stimuli\R_Torso_X_For.mp4,19,,,,,,,,,,,,,0,17,17,17,,,,,,,,,,,,,,,,,899.4133592999999,900.5045376,,,,,,,,,904.1555175000001,904.1555175000001,904.1555175000001,904.1555175000001,904.1555175000001,904.1555175000001,904.1555175000001,904.1555175000001,None,None,None,,,,,,,,,,,883.6855808,883.6855808,None,,895.781966,900.5045376,900.5045376,900.5045376,900.5045376,c,2.361978399999998,883.6855808,883.6855808,,,,19,001,2024-07-31_10h43.35.448,robot_sternberg_sign,2022.2.5,60.06251306357941,
"['L_Arm_Y_Back', 'L_Base_Z_Back', 'L_Head_X_Back', 'R_Arm_X_For']",True,L_Arm_Y_Back,4,robot,1,False,False,"['robot_stimuli\\L_Arm_Y_Back.mp4', 'robot_stimuli\\L_Base_Z_Back.mp4', 'robot_stimuli\\L_Head_X_Back.mp4', 'robot_stimuli\\R_Arm_X_For.mp4']",robot_stimuli\L_Arm_Y_Back.mp4,19,,,,,,,,,,,,,0,18,18,18,,,,,,,,,,,,,,,,,920.0478369,921.1358931,,,,,,,,,924.789706,924.789706,924.789706,924.789706,924.789706,924.789706,924.789706,924.789706,None,None,None,,,,,,,,,,,904.1555175000001,904.1555175000001,None,,916.4076594999999,921.1358931,921.1358931,921.1358931,921.1358931,n,3.4416807000000063,904.1555175000001,904.1555175000001,,,,19,001,2024-07-31_10h43.35.448,robot_sternberg_sign,2022.2.5,60.06251306357941,
"['R_Base_Z_For', 'L_Base_X_Back', 'R_Torso_X_For', 'L_Arm_Y_For']",True,L_Base_X_Back,4,robot,1,False,True,"['robot_stimuli\\R_Base_Z_For.mp4', 'robot_stimuli\\L_Base_X_Back.mp4', 'robot_stimuli\\R_Torso_X_For.mp4', 'robot_stimuli\\L_Arm_Y_For.mp4']",robot_stimuli\L_Base_X_Back.mp4,19,,,,,,,,,,,,,0,19,19,19,,,,,,,,,,,,,,,,,940.64573,941.7498877999999,,,,,,,,,945.3876304999999,953.6674109,945.3876304999999,953.6674109,945.3876304999999,953.6674109,945.3876304999999,953.6674109,46.97530864197531,5.120789699999932,space,,,8.23895790000006,,,,,,,,924.789706,924.789706,None,,937.0087825999999,941.7498877999999,941.7498877999999,941.7498877999999,941.7498877999999,n,2.476564000000053,924.789706,924.789706,,,,19,001,2024-07-31_10h43.35.448,robot_sternberg_sign,2022.2.5,60.06251306357941,
"['R_Arm_X_Back', 'R_Torso_X_For']",True,R_Arm_X_Back,2,robot,1,True,False,"['robot_stimuli\\R_Arm_X_Back.mp4', 'robot_stimuli\\R_Torso_X_For.mp4']",robot_stimuli\R_Arm_X_Back.mp4,19,,,,,,,,,,,,,0,20,20,20,,,,,,,,,,,,,,,,,965.0765532999999,957.7176632000001,,,,,,,,,969.7981382999999,969.7981382999999,969.7981382999999,969.7981382999999,969.7981382999999,969.7981382999999,969.7981382999999,969.7981382999999,None,None,None,,,,,,,,,,,953.6674109,953.6674109,space,2.9439618999999766,961.4368896999999,966.1681464999999,966.1681464999999,966.1681464999999,966.1681464999999,c,2.6989187000001493,,,,,,19,001,2024-07-31_10h43.35.448,robot_sternberg_sign,2022.2.5,60.06251306357941,
"['L_Torso_Z_Back', 'L_Base_Z_Back']",False,R_Arm_Y_For,2,robot,1,False,False,"['robot_stimuli\\L_Torso_Z_Back.mp4', 'robot_stimuli\\L_Base_Z_Back.mp4']",robot_stimuli\R_Arm_Y_For.mp4,19,,,,,,,,,,,,,0,21,21,21,,,,,,,,,,,,,,,,,978.1269138,979.2221896000001,,,,,,,,,982.7377514,982.7377514,982.7377514,982.7377514,982.7377514,982.7377514,982.7377514,982.7377514,None,None,None,,,,,,,,,,,969.7981382999999,969.7981382999999,None,,974.4878223999999,979.2221896000001,979.2221896000001,979.2221896000001,979.2221896000001,n,1.5807517000000644,969.7981382999999,969.7981382999999,,,,19,001,2024-07-31_10h43.35.448,robot_sternberg_sign,2022.2.5,60.06251306357941,
"['R_Arm_Z_Back', 'R_Torso_Z_Back']",True,R_Arm_Z_Back,2,robot,1,False,False,"['robot_stimuli\\R_Arm_Z_Back.mp4', 'robot_stimuli\\R_Torso_Z_Back.mp4']",robot_stimuli\R_Arm_Z_Back.mp4,19,,,,,,,,,,,,,0,22,22,22,,,,,,,,,,,,,,,,,991.1766715000001,983.8149332,,,,,,,,,995.9219691999999,995.9219691999999,995.9219691999999,995.9219691999999,995.9219691999999,995.9219691999999,995.9219691999999,995.9219691999999,None,None,None,,,,,,,,,,,982.7377514,982.7377514,None,,987.5373141,992.2695332999999,992.2695332999999,992.2695332999999,992.2695332999999,c,1.9242152000001624,982.7377514,982.7377514,,,,19,001,2024-07-31_10h43.35.448,robot_sternberg_sign,2022.2.5,60.06251306357941,
"['R_Arm_X_For', 'L_Torso_X_For']",False,L_Arm_Z_Back,2,robot,1,False,False,"['robot_stimuli\\R_Arm_X_For.mp4', 'robot_stimuli\\L_Torso_X_For.mp4']",robot_stimuli\L_Arm_Z_Back.mp4,19,,,,,,,,,,,,,0,23,23,23,,,,,,,,,,,,,,,,,1004.3608577,1005.4507369999999,,,,,,,,,1009.0806557000001,1009.0806557000001,1009.0806557000001,1009.0806557000001,1009.0806557000001,1009.0806557000001,1009.0806557000001,1009.0806557000001,None,None,None,,,,,,,,,,,995.9219691999999,995.9219691999999,None,,1000.7224093,1005.4507369999999,1005.4507369999999,1005.4507369999999,1005.4507369999999,n,1.7676728000001276,995.9219691999999,995.9219691999999,,,,19,001,2024-07-31_10h43.35.448,robot_sternberg_sign,2022.2.5,60.06251306357941,
"['L_Head_X_Back', 'R_Torso_Z_For']",False,R_Arm_Y_For,2,robot,1,False,False,"['robot_stimuli\\L_Head_X_Back.mp4', 'robot_stimuli\\R_Torso_Z_For.mp4']",robot_stimuli\R_Arm_Y_For.mp4,19,,,,,,,,,,,,,0,24,24,24,,,,,,,,,,,,,,,,,1017.5742144999999,1018.6559542,,,,,,,,,1022.1743200000001,1022.1743200000001,1022.1743200000001,1022.1743200000001,1022.1743200000001,1022.1743200000001,1022.1743200000001,1022.1743200000001,None,None,None,,,,,,,,,,,1009.0806557000001,1009.0806557000001,None,,1013.9456034,1018.6559542,1018.6559542,1018.6559542,1018.6559542,n,3.1064536000001226,1009.0806557000001,1009.0806557000001,,,,19,001,2024-07-31_10h43.35.448,robot_sternberg_sign,2022.2.5,60.06251306357941,
"['L_Arm_Y_Back', 'R_Torso_Y_For']",True,L_Arm_Y_Back,2,robot,1,False,False,"['robot_stimuli\\L_Arm_Y_Back.mp4', 'robot_stimuli\\R_Torso_Y_For.mp4']",robot_stimuli\L_Arm_Y_Back.mp4,19,,,,,,,,,,,,,0,25,25,25,,,,,,,,,,,,,,,,,1030.611473,1031.7019122,,,,,,,,,1035.3440746,1035.3440746,1035.3440746,1035.3440746,1035.3440746,1035.3440746,1035.3440746,1035.3440746,None,None,None,,,,,,,,,,,1022.1743200000001,1022.1743200000001,None,,1026.971378,1031.7019122,1031.7019122,1031.7019122,1031.7019122,c,2.389600300000211,1022.1743200000001,1022.1743200000001,,,,19,001,2024-07-31_10h43.35.448,robot_sternberg_sign,2022.2.5,60.06251306357941,
"['L_Head_Y_For', 'R_Arm_Y_For']",True,L_Head_Y_For,2,robot,1,False,False,"['robot_stimuli\\L_Head_Y_For.mp4', 'robot_stimuli\\R_Arm_Y_For.mp4']",robot_stimuli\L_Head_Y_For.mp4,19,,,,,,,,,,,,,0,26,26,26,,,,,,,,,,,,,,,,,1043.6643022,1044.751729,,,,,,,,,1048.3906664,1048.3906664,1048.3906664,1048.3906664,1048.3906664,1048.3906664,1048.3906664,1048.3906664,None,None,None,,,,,,,,,,,1035.3440746,1035.3440746,None,,1040.1720008,1044.751729,1044.751729,1044.751729,1044.751729,c,2.4339359000000513,1035.3440746,1035.3440746,,,,19,001,2024-07-31_10h43.35.448,robot_sternberg_sign,2022.2.5,60.06251306357941,
"['R_Base_Y_For', 'R_Arm_X_Back']",False,L_Torso_Z_For,2,robot,1,False,False,"['robot_stimuli\\R_Base_Y_For.mp4', 'robot_stimuli\\R_Arm_X_Back.mp4']",robot_stimuli\L_Torso_Z_For.mp4,19,,,,,,,,,,,,,0,27,27,27,,,,,,,,,,,,,,,,,1056.8149079,1057.9002055,,,,,,,,,1061.5397843,1061.5397843,1061.5397843,1061.5397843,1061.5397843,1061.5397843,1061.5397843,1061.5397843,None,None,None,,,,,,,,,,,1048.3906664,1048.3906664,None,,1053.18987,1057.9002055,1057.9002055,1057.9002055,1057.9002055,n,1.4297378000001117,1048.3906664,1048.3906664,,,,19,001,2024-07-31_10h43.35.448,robot_sternberg_sign,2022.2.5,60.06251306357941,
"['L_Torso_Y_For', 'L_Head_Y_For']",False,R_Head_Y_For,2,robot,1,False,False,"['robot_stimuli\\L_Torso_Y_For.mp4', 'robot_stimuli\\L_Head_Y_For.mp4']",robot_stimuli\R_Head_Y_For.mp4,19,,,,,,,,,,,,,0,28,28,28,,,,,,,,,,,,,,,,,1069.9571366,1071.0354347,,,,,,,,,1074.6742234,1074.6742234,1074.6742234,1074.6742234,1074.6742234,1074.6742234,1074.6742234,1074.6742234,None,None,None,,,,,,,,,,,1061.5397843,1061.5397843,None,,1066.3360134,1071.0354347,1071.0354347,1071.0354347,1071.0354347,n,1.3109900000001744,1061.5397843,1061.5397843,,,,19,001,2024-07-31_10h43.35.448,robot_sternberg_sign,2022.2.5,60.06251306357941,
"['L_Torso_Y_Back', 'L_Head_X_Back']",True,L_Head_X_Back,2,robot,1,False,True,"['robot_stimuli\\L_Torso_Y_Back.mp4', 'robot_stimuli\\L_Head_X_Back.mp4']",robot_stimuli\L_Head_X_Back.mp4,19,,,,,,,,,,,,,0,29,29,29,,,,,,,,,,,,,,,,,1082.9811723,1084.0693317,,,,,,,,,1087.7482083,1094.9094028,1087.7482083,1094.9094028,1087.7482083,1094.9094028,1087.7482083,1094.9094028,19.351851851851848,5.055057699999907,space,,,7.10195490000001,,,,,,,,1074.6742234,1074.6742234,None,,1079.3522953,1084.0693317,1084.0693317,1084.0693317,1084.0693317,c,1.6610849000001053,1074.6742234,1074.6742234,,,,19,001,2024-07-31_10h43.35.448,robot_sternberg_sign,2022.2.5,60.06251306357941,
"['H', 'C', 'V', 'Q', 'F', 'D']",False,L,6,letter,2,True,False,"['robot_stimuli\\\\filler.mp4', 'robot_stimuli\\\\filler.mp4', 'robot_stimuli\\\\filler.mp4', 'robot_stimuli\\\\filler.mp4', 'robot_stimuli\\\\filler.mp4', 'robot_stimuli\\\\filler.mp4']",robot_stimuli\\filler.mp4,19,,,,,,,,,,,,,0,30,30,30,,,,,,,,,,,,,,,,,1121.3845547,1122.4445377,,,,,,,,,1123.2653785,1123.2653785,1123.2653785,1123.2653785,1123.2653785,1123.2653785,1123.2653785,1123.2653785,None,None,None,,,,,,,,,,,1094.9094028,1094.9094028,space,12.157355000000052,,,1122.4445377,1122.4445377,1122.4445377,n,0.710019099999954,,,1119.366962,1121.3845547,1122.4445377,19,001,2024-07-31_10h43.35.448,robot_sternberg_sign,2022.2.5,60.06251306357941,
"['M', 'X', 'R', 'N', 'J', 'H']",False,L,6,letter,2,False,False,"['robot_stimuli\\\\filler.mp4', 'robot_stimuli\\\\filler.mp4', 'robot_stimuli\\\\filler.mp4', 'robot_stimuli\\\\filler.mp4', 'robot_stimuli\\\\filler.mp4', 'robot_stimuli\\\\filler.mp4']",robot_stimuli\\filler.mp4,19,,,,,,,,,,,,,0,31,31,31,,,,,,,,,,,,,,,,,1137.3710524,1138.4268679,,,,,,,,,1139.2580502,1139.2580502,1139.2580502,1139.2580502,1139.2580502,1139.2580502,1139.2580502,1139.2580502,None,None,None,,,,,,,,,,,1123.2653785,1123.2653785,None,,,,1138.4268679,1138.4268679,1138.4268679,n,0.6874897000000146,1123.2653785,1123.2653785,1135.3486861,1137.3710524,1138.4268679,19,001,2024-07-31_10h43.35.448,robot_sternberg_sign,2022.2.5,60.06251306357941,
"['Z', 'M', 'C', 'F', 'T', 'W']",False,J,6,letter,2,False,False,"['robot_stimuli\\\\filler.mp4', 'robot_stimuli\\\\filler.mp4', 'robot_stimuli\\\\filler.mp4', 'robot_stimuli\\\\filler.mp4', 'robot_stimuli\\\\filler.mp4', 'robot_stimuli\\\\filler.mp4']",robot_stimuli\\filler.mp4,19,,,,,,,,,,,,,0,32,32,32,,,,,,,,,,,,,,,,,1152.9667273,1154.0366804,,,,,,,,,1155.270385,1155.270385,1155.270385,1155.270385,1155.270385,1155.270385,1155.270385,1155.270385,None,None,None,,,,,,,,,,,1139.2580502,1139.2580502,None,,,,1154.0366804,1154.0366804,1154.0366804,n,0.9892580000000635,1139.2580502,1139.2580502,1150.9533829,1152.9667273,1154.0366804,19,001,2024-07-31_10h43.35.448,robot_sternberg_sign,2022.2.5,60.06251306357941,
"['P', 'K', 'S', 'R', 'J', 'Z']",True,K,6,letter,2,False,False,"['robot_stimuli\\\\filler.mp4', 'robot_stimuli\\\\filler.mp4', 'robot_stimuli\\\\filler.mp4', 'robot_stimuli\\\\filler.mp4', 'robot_stimuli\\\\filler.mp4', 'robot_stimuli\\\\filler.mp4']",robot_stimuli\\filler.mp4,19,,,,,,,,,,,,,0,33,33,33,,,,,,,,,,,,,,,,,1169.3986245,1170.4629157,,,,,,,,,1172.0869858,1172.0869858,1172.0869858,1172.0869858,1172.0869858,1172.0869858,1172.0869858,1172.0869858,None,None,None,,,,,,,,,,,1155.270385,1155.270385,None,,,,1170.4629157,1170.4629157,1170.4629157,c,1.5232367000000977,1155.270385,1155.270385,1167.3863716,1169.3986245,1170.4629157,19,001,2024-07-31_10h43.35.448,robot_sternberg_sign,2022.2.5,60.06251306357941,
"['L', 'F', 'G', 'W', 'R', 'H']",False,T,6,letter,2,False,False,"['robot_stimuli\\\\filler.mp4', 'robot_stimuli\\\\filler.mp4', 'robot_stimuli\\\\filler.mp4', 'robot_stimuli\\\\filler.mp4', 'robot_stimuli\\\\filler.mp4', 'robot_stimuli\\\\filler.mp4']",robot_stimuli\\filler.mp4,19,,,,,,,,,,,,,0,34,34,34,,,,,,,,,,,,,,,,,1186.5750331,1173.1452278,,,,,,,,,1188.6765986,1188.6765986,1188.6765986,1188.6765986,1188.6765986,1188.6765986,1188.6765986,1188.6765986,None,None,None,,,,,,,,,,,1172.0869858,1172.0869858,None,,,,1187.6478442,1187.6478442,1187.6478442,n,0.8101197999999386,1172.0869858,1172.0869858,1184.3593074999999,1186.5750331,1187.6478442,19,001,2024-07-31_10h43.35.448,robot_sternberg_sign,2022.2.5,60.06251306357941,
"['L', 'T', 'W', 'C', 'J', 'Z']",True,T,6,letter,2,False,False,"['robot_stimuli\\\\filler.mp4', 'robot_stimuli\\\\filler.mp4', 'robot_stimuli\\\\filler.mp4', 'robot_stimuli\\\\filler.mp4', 'robot_stimuli\\\\filler.mp4', 'robot_stimuli\\\\filler.mp4']",robot_stimuli\\filler.mp4,19,,,,,,,,,,,,,0,35,35,35,,,,,,,,,,,,,,,,,1202.7904599,1203.8428456,,,,,,,,,1204.874428,1204.874428,1204.874428,1204.874428,1204.874428,1204.874428,1204.874428,1204.874428,None,None,None,,,,,,,,,,,1188.6765986,1188.6765986,None,,,,1203.8428456,1203.8428456,1203.8428456,c,0.8882662000000892,1188.6765986,1188.6765986,1200.5769256,1202.7904599,1203.8428456,19,001,2024-07-31_10h43.35.448,robot_sternberg_sign,2022.2.5,60.06251306357941,
"['L', 'J', 'D', 'Q', 'B', 'X']",True,Q,6,letter,2,False,False,"['robot_stimuli\\\\filler.mp4', 'robot_stimuli\\\\filler.mp4', 'robot_stimuli\\\\filler.mp4', 'robot_stimuli\\\\filler.mp4', 'robot_stimuli\\\\filler.mp4', 'robot_stimuli\\\\filler.mp4']",robot_stimuli\\filler.mp4,19,,,,,,,,,,,,,0,36,36,36,,,,,,,,,,,,,,,,,1218.5644025,1219.6272671,,,,,,,,,1220.6550607,1220.6550607,1220.6550607,1220.6550607,1220.6550607,1220.6550607,1220.6550607,1220.6550607,None,None,None,,,,,,,,,,,1204.874428,1204.874428,None,,,,1219.6272671,1219.6272671,1219.6272671,c,0.8160597000000962,1204.874428,1204.874428,1216.5502263,1218.5644025,1219.6272671,19,001,2024-07-31_10h43.35.448,robot_sternberg_sign,2022.2.5,60.06251306357941,
"['K', 'X', 'D', 'Q', 'R', 'M']",True,K,6,letter,2,False,False,"['robot_stimuli\\\\filler.mp4', 'robot_stimuli\\\\filler.mp4', 'robot_stimuli\\\\filler.mp4', 'robot_stimuli\\\\filler.mp4', 'robot_stimuli\\\\filler.mp4', 'robot_stimuli\\\\filler.mp4']",robot_stimuli\\filler.mp4,19,,,,,,,,,,,,,0,37,37,37,,,,,,,,,,,,,,,,,1235.1486223,1236.2111599,,,,,,,,,1237.0357018,1237.0357018,1237.0357018,1237.0357018,1237.0357018,1237.0357018,1237.0357018,1237.0357018,None,None,None,,,,,,,,,,,1220.6550607,1220.6550607,None,,,,1236.2111599,1236.2111599,1236.2111599,c,0.7592251000000942,1220.6550607,1220.6550607,1233.1300026,1235.1486223,1236.2111599,19,001,2024-07-31_10h43.35.448,robot_sternberg_sign,2022.2.5,60.06251306357941,
"['P', 'H', 'X', 'V', 'W', 'C']",False,Q,6,letter,2,False,False,"['robot_stimuli\\\\filler.mp4', 'robot_stimuli\\\\filler.mp4', 'robot_stimuli\\\\filler.mp4', 'robot_stimuli\\\\filler.mp4', 'robot_stimuli\\\\filler.mp4', 'robot_stimuli\\\\filler.mp4']",robot_stimuli\\filler.mp4,19,,,,,,,,,,,,,0,38,38,38,,,,,,,,,,,,,,,,,1250.9509307,1252.012827,,,,,,,,,1253.2343423,1253.2343423,1253.2343423,1253.2343423,1253.2343423,1253.2343423,1253.2343423,1253.2343423,None,None,None,,,,,,,,,,,1237.0357018,1237.0357018,None,,,,1252.012827,1252.012827,1252.012827,n,1.0624579000000267,1237.0357018,1237.0357018,1248.7481414,1250.9509307,1252.012827,19,001,2024-07-31_10h43.35.448,robot_sternberg_sign,2022.2.5,60.06251306357941,
"['G', 'H', 'J', 'B', 'P', 'F']",True,G,6,letter,2,False,True,"['robot_stimuli\\\\filler.mp4', 'robot_stimuli\\\\filler.mp4', 'robot_stimuli\\\\filler.mp4', 'robot_stimuli\\\\filler.mp4', 'robot_stimuli\\\\filler.mp4', 'robot_stimuli\\\\filler.mp4']",robot_stimuli\\filler.mp4,19,,,,,,,,,,,,,0,39,39,39,,,,,,,,,,,,,,,,,1266.9501244,1268.0164525,,,,,,,,,1269.0722283,1275.2824388,1269.0722283,1275.2824388,1269.0722283,1275.2824388,1269.0722283,1275.2824388,29.999999999999993,3.297899599999937,space,,,6.153410799999847,,,,,,,,1253.2343423,1253.2343423,None,,,,1268.0164525,1268.0164525,1268.0164525,c,0.7941965999998502,1253.2343423,1253.2343423,1264.9354593,1266.9501244,1268.0164525,19,001,2024-07-31_10h43.35.448,robot_sternberg_sign,2022.2.5,60.06251306357941,
"['H', 'D', 'Z', 'T']",True,D,4,letter,2,True,False,"['robot_stimuli\\\\filler.mp4', 'robot_stimuli\\\\filler.mp4', 'robot_stimuli\\\\filler.mp4', 'robot_stimuli\\\\filler.mp4']",robot_stimuli\\filler.mp4,19,,,,,,,,,,,,,0,40,40,40,,,,,,,,,,,,,,,,,1287.5789249,1288.647825,,,,,,,,,1289.6690327,1289.6690327,1289.6690327,1289.6690327,1289.6690327,1289.6690327,1289.6690327,1289.6690327,None,None,None,,,,,,,,,,,1275.2824388,1275.2824388,space,2.5363796000001457,,,1288.647825,1288.647825,1288.647825,c,0.9469005000000834,,,1285.5630063,1287.5789249,1288.647825,19,001,2024-07-31_10h43.35.448,robot_sternberg_sign,2022.2.5,60.06251306357941,
"['P', 'G', 'J', 'Z']",False,D,4,letter,2,False,False,"['robot_stimuli\\\\filler.mp4', 'robot_stimuli\\\\filler.mp4', 'robot_stimuli\\\\filler.mp4', 'robot_stimuli\\\\filler.mp4']",robot_stimuli\\filler.mp4,19,,,,,,,,,,,,,0,41,41,41,,,,,,,,,,,,,,,,,1299.4043418,1300.4582496,,,,,,,,,1301.6876005,1301.6876005,1301.6876005,1301.6876005,1301.6876005,1301.6876005,1301.6876005,1301.6876005,None,None,None,,,,,,,,,,,1289.6690327,1289.6690327,None,,,,1300.4582496,1300.4582496,1300.4582496,n,1.0164077000001726,1289.6690327,1289.6690327,1297.391384,1299.4043418,1300.4582496,19,001,2024-07-31_10h43.35.448,robot_sternberg_sign,2022.2.5,60.06251306357941,
"['N', 'Z', 'B', 'J']",False,T,4,letter,2,False,False,"['robot_stimuli\\\\filler.mp4', 'robot_stimuli\\\\filler.mp4', 'robot_stimuli\\\\filler.mp4', 'robot_stimuli\\\\filler.mp4']",robot_stimuli\\filler.mp4,19,,,,,,,,,,,,,0,42,42,42,,,,,,,,,,,,,,,,,1311.4207424,1312.4796729,,,,,,,,,1313.1011174,1313.1011174,1313.1011174,1313.1011174,1313.1011174,1313.1011174,1313.1011174,1313.1011174,None,None,None,,,,,,,,,,,1301.6876005,1301.6876005,None,,,,1312.4796729,1312.4796729,1312.4796729,n,0.5700583000000279,1301.6876005,1301.6876005,1309.2082293,1311.4207424,1312.4796729,19,001,2024-07-31_10h43.35.448,robot_sternberg_sign,2022.2.5,60.06251306357941,
"['B', 'G', 'T', 'Z']",True,B,4,letter,2,False,False,"['robot_stimuli\\\\filler.mp4', 'robot_stimuli\\\\filler.mp4', 'robot_stimuli\\\\filler.mp4', 'robot_stimuli\\\\filler.mp4']",robot_stimuli\\filler.mp4,19,,,,,,,,,,,,,0,43,43,43,,,,,,,,,,,,,,,,,1322.6356981,1323.6960504,,,,,,,,,1324.3208,1324.3208,1324.3208,1324.3208,1324.3208,1324.3208,1324.3208,1324.3208,None,None,None,,,,,,,,,,,1313.1011174,1313.1011174,None,,,,1323.6960504,1323.6960504,1323.6960504,c,0.5299267000000327,1313.1011174,1313.1011174,1320.6243332,1322.6356981,1323.6960504,19,001,2024-07-31_10h43.35.448,robot_sternberg_sign,2022.2.5,60.06251306357941,
"['S', 'W', 'M', 'L']",True,M,4,letter,2,False,False,"['robot_stimuli\\\\filler.mp4', 'robot_stimuli\\\\filler.mp4', 'robot_stimuli\\\\filler.mp4', 'robot_stimuli\\\\filler.mp4']",robot_stimuli\\filler.mp4,19,,,,,,,,,,,,,0,44,44,44,,,,,,,,,,,,,,,,,1334.0463897,1335.1132621,,,,,,,,,1336.1435667,1336.1435667,1336.1435667,1336.1435667,1336.1435667,1336.1435667,1336.1435667,1336.1435667,None,None,None,,,,,,,,,,,1324.3208,1324.3208,None,,,,1335.1132621,1335.1132621,1335.1132621,c,0.8964863999999579,1324.3208,1324.3208,1332.040362,1334.0463897,1335.1132621,19,001,2024-07-31_10h43.35.448,robot_sternberg_sign,2022.2.5,60.06251306357941,
"['K', 'Q', 'N', 'T']",False,Z,4,letter,2,False,False,"['robot_stimuli\\\\filler.mp4', 'robot_stimuli\\\\filler.mp4', 'robot_stimuli\\\\filler.mp4', 'robot_stimuli\\\\filler.mp4']",robot_stimuli\\filler.mp4,19,,,,,,,,,,,,,0,45,45,45,,,,,,,,,,,,,,,,,1346.0929519,,,,,,,,,,1347.9881359,1347.9881359,1347.9881359,1347.9881359,1347.9881359,1347.9881359,1347.9881359,1347.9881359,None,None,None,,,,,,,,,,,1336.1435667,1336.1435667,None,,,,1347.160912,1347.160912,1347.160912,n,0.6575964000001022,1336.1435667,1336.1435667,1343.8791196,1346.0929519,1347.160912,19,001,2024-07-31_10h43.35.448,robot_sternberg_sign,2022.2.5,60.06251306357941,
"['G', 'T', 'S', 'W']",False,H,4,letter,2,False,False,"['robot_stimuli\\\\filler.mp4', 'robot_stimuli\\\\filler.mp4', 'robot_stimuli\\\\filler.mp4', 'robot_stimuli\\\\filler.mp4']",robot_stimuli\\filler.mp4,19,,,,,,,,,,,,,0,46,46,46,,,,,,,,,,,,,,,,,1357.5208897,1358.580773,,,,,,,,,1359.402133,1359.402133,1359.402133,1359.402133,1359.402133,1359.402133,1359.402133,1359.402133,None,None,None,,,,,,,,,,,1347.9881359,1347.9881359,None,,,,1358.580773,1358.580773,1358.580773,n,0.6307404000001497,1347.9881359,1347.9881359,1355.5058862,1357.5208897,1358.580773,19,001,2024-07-31_10h43.35.448,robot_sternberg_sign,2022.2.5,60.06251306357941,
"['R', 'X', 'W', 'B']",False,C,4,letter,2,False,False,"['robot_stimuli\\\\filler.mp4', 'robot_stimuli\\\\filler.mp4', 'robot_stimuli\\\\filler.mp4', 'robot_stimuli\\\\filler.mp4']",robot_stimuli\\filler.mp4,19,,,,,,,,,,,,,0,47,47,47,,,,,,,,,,,,,,,,,1369.5499268,1370.6126458,,,,,,,,,1371.2376302,1371.2376302,1371.2376302,1371.2376302,1371.2376302,1371.2376302,1371.2376302,1371.2376302,None,None,None,,,,,,,,,,,1359.402133,1359.402133,None,,,,1370.6126458,1370.6126458,1370.6126458,n,0.5740713000002415,1359.402133,1359.402133,1367.3551848,1369.5499268,1370.6126458,19,001,2024-07-31_10h43.35.448,robot_sternberg_sign,2022.2.5,60.06251306357941,
"['Z', 'K', 'N', 'W']",True,W,4,letter,2,False,False,"['robot_stimuli\\\\filler.mp4', 'robot_stimuli\\\\filler.mp4', 'robot_stimuli\\\\filler.mp4', 'robot_stimuli\\\\filler.mp4']",robot_stimuli\\filler.mp4,19,,,,,,,,,,,,,0,48,48,48,,,,,,,,,,,,,,,,,1380.787914,1381.8463493,,,,,,,,,1382.6769816,1382.6769816,1382.6769816,1382.6769816,1382.6769816,1382.6769816,1382.6769816,1382.6769816,None,None,None,,,,,,,,,,,1371.2376302,1371.2376302,None,,,,1381.8463493,1381.8463493,1381.8463493,c,0.7331817000001593,1371.2376302,1371.2376302,1378.7656352,1380.787914,1381.8463493,19,001,2024-07-31_10h43.35.448,robot_sternberg_sign,2022.2.5,60.06251306357941,
"['V', 'X', 'G', 'C']",True,V,4,letter,2,False,True,"['robot_stimuli\\\\filler.mp4', 'robot_stimuli\\\\filler.mp4', 'robot_stimuli\\\\filler.mp4', 'robot_stimuli\\\\filler.mp4']",robot_stimuli\\filler.mp4,19,,,,,,,,,,,,,0,49,49,49,,,,,,,,,,,,,,,,,1392.4331708,1393.508795,,,,,,,,,1394.1574511,1399.3774925,1394.1574511,1399.3774925,1394.1574511,1399.3774925,1394.1574511,1399.3774925,24.753086419753085,3.103993199999877,space,,,5.172309300000052,,,,,,,,1382.6769816,1382.6769816,None,,,,1393.508795,1393.508795,1393.508795,c,0.5817197999999735,1382.6769816,1382.6769816,1390.208201,1392.4331708,1393.508795,19,001,2024-07-31_10h43.35.448,robot_sternberg_sign,2022.2.5,60.06251306357941,
"['J', 'T']",False,M,2,letter,2,True,False,"['robot_stimuli\\\\filler.mp4', 'robot_stimuli\\\\filler.mp4']",robot_stimuli\\filler.mp4,19,,,,,,,,,,,,,0,50,50,50,,,,,,,,,,,,,,,,,1406.1456056,1407.2127053,,,,,,,,,1407.8365155,1407.8365155,1407.8365155,1407.8365155,1407.8365155,1407.8365155,1407.8365155,1407.8365155,None,None,None,,,,,,,,,,,1399.3774925,1399.3774925,space,1.1937336000000869,,,1407.2127053,1407.2127053,1407.2127053,n,0.4936557000000903,,,1403.9309035,1406.1456056,1407.2127053,19,001,2024-07-31_10h43.35.448,robot_sternberg_sign,2022.2.5,60.06251306357941,
"['L', 'F']",False,G,2,letter,2,False,False,"['robot_stimuli\\\\filler.mp4', 'robot_stimuli\\\\filler.mp4']",robot_stimuli\\filler.mp4,19,,,,,,,,,,,,,0,51,51,51,,,,,,,,,,,,,,,,,1413.2051354,1414.2630718,,,,,,,,,1414.8904621,1414.8904621,1414.8904621,1414.8904621,1414.8904621,1414.8904621,1414.8904621,1414.8904621,None,None,None,,,,,,,,,,,1407.8365155,1407.8365155,None,,,,1414.2630718,1414.2630718,1414.2630718,n,0.500462700000071,1407.8365155,1407.8365155,1411.1835184,1413.2051354,1414.2630718,19,001,2024-07-31_10h43.35.448,robot_sternberg_sign,2022.2.5,60.06251306357941,
"['C', 'G']",False,J,2,letter,2,False,False,"['robot_stimuli\\\\filler.mp4', 'robot_stimuli\\\\filler.mp4']",robot_stimuli\\filler.mp4,19,,,,,,,,,,,,,0,52,52,52,,,,,,,,,,,,,,,,,1420.2529594,1421.3135392,,,,,,,,,1421.9400295,1421.9400295,1421.9400295,1421.9400295,1421.9400295,1421.9400295,1421.9400295,1421.9400295,None,None,None,,,,,,,,,,,1414.8904621,1414.8904621,None,,,,1421.3135392,1421.3135392,1421.3135392,n,0.5364191000001028,1414.8904621,1414.8904621,1418.2392176,1420.2529594,1421.3135392,19,001,2024-07-31_10h43.35.448,robot_sternberg_sign,2022.2.5,60.06251306357941,
"['K', 'L']",True,L,2,letter,2,False,False,"['robot_stimuli\\\\filler.mp4', 'robot_stimuli\\\\filler.mp4']",robot_stimuli\\filler.mp4,19,,,,,,,,,,,,,0,53,53,53,,,,,,,,,,,,,,,,,1427.3040515,1428.3622966,,,,,,,,,1429.184157,1429.184157,1429.184157,1429.184157,1429.184157,1429.184157,1429.184157,1429.184157,None,None,None,,,,,,,,,,,1421.9400295,1421.9400295,None,,,,1428.3622966,1428.3622966,1428.3622966,c,0.6481837000001178,1421.9400295,1421.9400295,1425.2903438,1427.3040515,1428.3622966,19,001,2024-07-31_10h43.35.448,robot_sternberg_sign,2022.2.5,60.06251306357941,
"['Q', 'B']",True,B,2,letter,2,False,False,"['robot_stimuli\\\\filler.mp4', 'robot_stimuli\\\\filler.mp4']",robot_stimuli\\filler.mp4,19,,,,,,,,,,,,,0,54,54,54,,,,,,,,,,,,,,,,,1434.7512467,1435.8118482,,,,,,,,,1436.4397661,1436.4397661,1436.4397661,1436.4397661,1436.4397661,1436.4397661,1436.4397661,1436.4397661,None,None,None,,,,,,,,,,,1429.184157,1429.184157,None,,,,1435.8118482,1435.8118482,1435.8118482,c,0.5110939000001054,1429.184157,1429.184157,1432.5332114,1434.7512467,1435.8118482,19,001,2024-07-31_10h43.35.448,robot_sternberg_sign,2022.2.5,60.06251306357941,
"['C', 'K']",False,L,2,letter,2,False,False,"['robot_stimuli\\\\filler.mp4', 'robot_stimuli\\\\filler.mp4']",robot_stimuli\\filler.mp4,19,,,,,,,,,,,,,0,55,55,55,,,,,,,,,,,,,,,,,1441.5991849,1442.6629844,,,,,,,,,1443.4837493,1443.4837493,1443.4837493,1443.4837493,1443.4837493,1443.4837493,1443.4837493,1443.4837493,None,None,None,,,,,,,,,,,1436.4397661,1436.4397661,None,,,,1442.6629844,1442.6629844,1442.6629844,n,0.5884026999999605,1436.4397661,1436.4397661,1439.5894435,1441.5991849,1442.6629844,19,001,2024-07-31_10h43.35.448,robot_sternberg_sign,2022.2.5,60.06251306357941,
"['G', 'W']",True,G,2,letter,2,False,False,"['robot_stimuli\\\\filler.mp4', 'robot_stimuli\\\\filler.mp4']",robot_stimuli\\filler.mp4,19,,,,,,,,,,,,,0,56,56,56,,,,,,,,,,,,,,,,,1448.8535783,1449.9113947,,,,,,,,,1450.5344413,1450.5344413,1450.5344413,1450.5344413,1450.5344413,1450.5344413,1450.5344413,1450.5344413,None,None,None,,,,,,,,,,,1443.4837493,1443.4837493,None,,,,1449.9113947,1449.9113947,1449.9113947,c,0.5639565000001312,1443.4837493,1443.4837493,1446.8382012,1448.8535783,1449.9113947,19,001,2024-07-31_10h43.35.448,robot_sternberg_sign,2022.2.5,60.06251306357941,
"['T', 'B']",False,J,2,letter,2,False,False,"['robot_stimuli\\\\filler.mp4', 'robot_stimuli\\\\filler.mp4']",robot_stimuli\\filler.mp4,19,,,,,,,,,,,,,0,57,57,57,,,,,,,,,,,,,,,,,1455.8992803,1456.9617488,,,,,,,,,1457.5874608,1457.5874608,1457.5874608,1457.5874608,1457.5874608,1457.5874608,1457.5874608,1457.5874608,None,None,None,,,,,,,,,,,1450.5344413,1450.5344413,None,,,,1456.9617488,1456.9617488,1456.9617488,n,0.47258959999999206,1450.5344413,1450.5344413,1453.8849905,1455.8992803,1456.9617488,19,001,2024-07-31_10h43.35.448,robot_sternberg_sign,2022.2.5,60.06251306357941,
"['B', 'S']",True,S,2,letter,2,False,False,"['robot_stimuli\\\\filler.mp4', 'robot_stimuli\\\\filler.mp4']",robot_stimuli\\filler.mp4,19,,,,,,,,,,,,,0,58,58,58,,,,,,,,,,,,,,,,,1462.9492869,1464.015567,,,,,,,,,1464.8345374,1464.8345374,1464.8345374,1464.8345374,1464.8345374,1464.8345374,1464.8345374,1464.8345374,None,None,None,,,,,,,,,,,1457.5874608,1457.5874608,None,,,,1464.015567,1464.015567,1464.015567,c,0.5787921000001006,1457.5874608,1457.5874608,1460.9380359,1462.9492869,1464.015567,19,001,2024-07-31_10h43.35.448,robot_sternberg_sign,2022.2.5,60.06251306357941,
"['X', 'D']",True,D,2,letter,2,False,True,"['robot_stimuli\\\\filler.mp4', 'robot_stimuli\\\\filler.mp4']",robot_stimuli\\filler.mp4,19,,,,,,,,,,,,,0,59,59,59,,,,,,,,,,,,,,,,,1470.4005755,1471.4607821,,,,,,,,,1472.1144382,1475.7405768,1472.1144382,1475.7405768,1472.1144382,1475.7405768,1472.1144382,1475.7405768,12.87037037037037,2.259999099999959,space,,,3.5754874000001564,,,,,,,,1464.8345374,1464.8345374,None,,,,1471.4607821,1471.4607821,1471.4607821,c,0.5103994000000966,1464.8345374,1464.8345374,1468.1833119,1470.4005755,1471.4607821,19,001,2024-07-31_10h43.35.448,robot_sternberg_sign,2022.2.5,60.06251306357941,
"['L_Head_Y_Back', 'L_Arm_Y_For', 'R_Base_Y_Back', 'L_Head_X_For', 'R_Arm_Y_Back', 'R_Torso_X_For']",True,R_Base_Y_Back,6,robot,3,True,False,"['robot_stimuli\\L_Head_Y_Back.mp4', 'robot_stimuli\\L_Arm_Y_For.mp4', 'robot_stimuli\\R_Base_Y_Back.mp4', 'robot_stimuli\\L_Head_X_For.mp4', 'robot_stimuli\\R_Arm_Y_Back.mp4', 'robot_stimuli\\R_Torso_X_For.mp4']",robot_stimuli\R_Base_Y_Back.mp4,19,,,,,,,,,,,,,0,60,60,60,,,,,,,,,,,,,,,,,1512.1819117,1513.2850686,,,,,,,,,1516.9238872,1516.9238872,1516.9238872,1516.9238872,1516.9238872,1516.9238872,1516.9238872,1516.9238872,None,None,None,,,,,,,,,,,1475.7405768,1475.7405768,space,13.143018800000164,1508.53551,1513.2850686,1513.2850686,1513.2850686,1513.2850686,n,2.397896400000036,,,,,,19,001,2024-07-31_10h43.35.448,robot_sternberg_sign,2022.2.5,60.06251306357941,
"['R_Arm_X_For', 'R_Head_X_For', 'L_Base_Z_Back', 'L_Torso_Z_Back', 'L_Base_Y_Back', 'L_Head_Y_Back']",True,L_Torso_Z_Back,6,robot,3,False,False,"['robot_stimuli\\R_Arm_X_For.mp4', 'robot_stimuli\\R_Head_X_For.mp4', 'robot_stimuli\\L_Base_Z_Back.mp4', 'robot_stimuli\\L_Torso_Z_Back.mp4', 'robot_stimuli\\L_Base_Y_Back.mp4', 'robot_stimuli\\L_Head_Y_Back.mp4']",robot_stimuli\L_Torso_Z_Back.mp4,19,,,,,,,,,,,,,0,61,61,61,,,,,,,,,,,,,,,,,1540.0481018,1541.1412994,,,,,,,,,1544.6506424,1544.6506424,1544.6506424,1544.6506424,1544.6506424,1544.6506424,1544.6506424,1544.6506424,None,None,None,,,,,,,,,,,1516.9238872,1516.9238872,None,,1536.4156751,1541.1412994,1541.1412994,1541.1412994,1541.1412994,c,1.829776000000038,1516.9238872,1516.9238872,,,,19,001,2024-07-31_10h43.35.448,robot_sternberg_sign,2022.2.5,60.06251306357941,
"['R_Arm_Z_Back', 'L_Arm_Y_For', 'R_Torso_X_For', 'R_Torso_Z_For', 'L_Torso_Y_For', 'L_Base_X_Back']",True,R_Torso_Z_For,6,robot,3,False,False,"['robot_stimuli\\R_Arm_Z_Back.mp4', 'robot_stimuli\\L_Arm_Y_For.mp4', 'robot_stimuli\\R_Torso_X_For.mp4', 'robot_stimuli\\R_Torso_Z_For.mp4', 'robot_stimuli\\L_Torso_Y_For.mp4', 'robot_stimuli\\L_Base_X_Back.mp4']",robot_stimuli\R_Torso_Z_For.mp4,19,,,,,,,,,,,,,0,62,62,62,,,,,,,,,,,,,,,,,1567.915988,1569.0028511,,,,,,,,,1572.6452755,1572.6452755,1572.6452755,1572.6452755,1572.6452755,1572.6452755,1572.6452755,1572.6452755,None,None,None,,,,,,,,,,,1544.6506424,1544.6506424,None,,1564.317432,1569.0028511,1569.0028511,1569.0028511,1569.0028511,c,2.535947300000089,1544.6506424,1544.6506424,,,,19,001,2024-07-31_10h43.35.448,robot_sternberg_sign,2022.2.5,60.06251306357941,
"['R_Torso_Y_Back', 'L_Torso_Y_Back', 'R_Base_Z_For', 'R_Base_Z_Back', 'R_Torso_Z_For', 'R_Torso_X_Back']",True,R_Torso_X_Back,6,robot,3,False,False,"['robot_stimuli\\R_Torso_Y_Back.mp4', 'robot_stimuli\\L_Torso_Y_Back.mp4', 'robot_stimuli\\R_Base_Z_For.mp4', 'robot_stimuli\\R_Base_Z_Back.mp4', 'robot_stimuli\\R_Torso_Z_For.mp4', 'robot_stimuli\\R_Torso_X_Back.mp4']",robot_stimuli\R_Torso_X_Back.mp4,19,,,,,,,,,,,,,0,63,63,63,,,,,,,,,,,,,,,,,1595.7622492,1596.8516198,,,,,,,,,1600.4912645,1600.4912645,1600.4912645,1600.4912645,1600.4912645,1600.4912645,1600.4912645,1600.4912645,None,None,None,,,,,,,,,,,1572.6452755,1572.6452755,None,,1592.1233476,1596.8516198,1596.8516198,1596.8516198,1596.8516198,c,2.2780345000001034,1572.6452755,1572.6452755,,,,19,001,2024-07-31_10h43.35.448,robot_sternberg_sign,2022.2.5,60.06251306357941,
"['R_Arm_Y_Back', 'L_Base_Y_Back', 'R_Base_X_Back', 'R_Torso_X_Back', 'R_Arm_Z_For', 'L_Base_X_Back']",False,L_Base_Y_For,6,robot,3,False,False,"['robot_stimuli\\R_Arm_Y_Back.mp4', 'robot_stimuli\\L_Base_Y_Back.mp4', 'robot_stimuli\\R_Base_X_Back.mp4', 'robot_stimuli\\R_Torso_X_Back.mp4', 'robot_stimuli\\R_Arm_Z_For.mp4', 'robot_stimuli\\L_Base_X_Back.mp4']",robot_stimuli\L_Base_Y_For.mp4,19,,,,,,,,,,,,,0,64,64,64,,,,,,,,,,,,,,,,,1623.713176,1624.801122,,,,,,,,,1628.3399504,1628.3399504,1628.3399504,1628.3399504,1628.3399504,1628.3399504,1628.3399504,1628.3399504,None,None,None,,,,,,,,,,,1600.4912645,1600.4912645,None,,1620.1152976,1624.801122,1624.801122,1624.801122,1624.801122,n,2.568505800000139,1600.4912645,1600.4912645,,,,19,001,2024-07-31_10h43.35.448,robot_sternberg_sign,2022.2.5,60.06251306357941,
"['L_Head_Z_For', 'L_Head_Y_For', 'R_Torso_Y_Back', 'L_Torso_Y_Back', 'R_Head_Z_For', 'L_Head_Z_Back']",False,L_Torso_Z_For,6,robot,3,False,False,"['robot_stimuli\\L_Head_Z_For.mp4', 'robot_stimuli\\L_Head_Y_For.mp4', 'robot_stimuli\\R_Torso_Y_Back.mp4', 'robot_stimuli\\L_Torso_Y_Back.mp4', 'robot_stimuli\\R_Head_Z_For.mp4', 'robot_stimuli\\L_Head_Z_Back.mp4']",robot_stimuli\L_Torso_Z_For.mp4,19,,,,,,,,,,,,,0,65,65,65,,,,,,,,,,,,,,,,,1651.5659895,1652.6523899,,,,,,,,,1656.2927373000002,1656.2927373000002,1656.2927373000002,1656.2927373000002,1656.2927373000002,1656.2927373000002,1656.2927373000002,1656.2927373000002,None,None,None,,,,,,,,,,,1628.3399504,1628.3399504,None,,1647.9352832999998,1652.6523899,1652.6523899,1652.6523899,1652.6523899,n,2.438026900000068,1628.3399504,1628.3399504,,,,19,001,2024-07-31_10h43.35.448,robot_sternberg_sign,2022.2.5,60.06251306357941,
"['R_Base_Z_Back', 'R_Torso_Z_For', 'R_Torso_X_For', 'R_Arm_Y_For', 'R_Base_X_For', 'R_Base_X_Back']",False,L_Head_Y_For,6,robot,3,False,False,"['robot_stimuli\\R_Base_Z_Back.mp4', 'robot_stimuli\\R_Torso_Z_For.mp4', 'robot_stimuli\\R_Torso_X_For.mp4', 'robot_stimuli\\R_Arm_Y_For.mp4', 'robot_stimuli\\R_Base_X_For.mp4', 'robot_stimuli\\R_Base_X_Back.mp4']",robot_stimuli\L_Head_Y_For.mp4,19,,,,,,,,,,,,,0,66,66,66,,,,,,,,,,,,,,,,,1679.2976531,1680.3872993,,,,,,,,,1684.0386841,1684.0386841,1684.0386841,1684.0386841,1684.0386841,1684.0386841,1684.0386841,1684.0386841,None,None,None,,,,,,,,,,,1656.2927373000002,1656.2927373000002,None,,1675.6657701,1680.3872993,1680.3872993,1680.3872993,1680.3872993,n,1.9906265000001895,1656.2927373000002,1656.2927373000002,,,,19,001,2024-07-31_10h43.35.448,robot_sternberg_sign,2022.2.5,60.06251306357941,
"['R_Arm_X_Back', 'L_Torso_Y_For', 'R_Head_Y_For', 'L_Torso_X_For', 'L_Head_Y_For', 'L_Torso_Z_For']",False,R_Head_X_For,6,robot,3,False,False,"['robot_stimuli\\R_Arm_X_Back.mp4', 'robot_stimuli\\L_Torso_Y_For.mp4', 'robot_stimuli\\R_Head_Y_For.mp4', 'robot_stimuli\\L_Torso_X_For.mp4', 'robot_stimuli\\L_Head_Y_For.mp4', 'robot_stimuli\\L_Torso_Z_For.mp4']",robot_stimuli\R_Head_X_For.mp4,19,,,,,,,,,,,,,0,67,67,67,,,,,,,,,,,,,,,,,1707.3266336000002,1685.1172649,,,,,,,,,1712.0579687,1712.0579687,1712.0579687,1712.0579687,1712.0579687,1712.0579687,1712.0579687,1712.0579687,None,None,None,,,,,,,,,,,1684.0386841,1684.0386841,None,,1703.6953847999998,1708.4184590999998,1708.4184590999998,1708.4184590999998,1708.4184590999998,n,1.7033710000002884,1684.0386841,1684.0386841,,,,19,001,2024-07-31_10h43.35.448,robot_sternberg_sign,2022.2.5,60.06251306357941,
"['L_Head_X_For', 'R_Head_X_Back', 'R_Arm_Y_Back', 'R_Base_Y_For', 'L_Base_Z_For', 'L_Arm_X_For']",False,L_Torso_Y_Back,6,robot,3,False,False,"['robot_stimuli\\L_Head_X_For.mp4', 'robot_stimuli\\R_Head_X_Back.mp4', 'robot_stimuli\\R_Arm_Y_Back.mp4', 'robot_stimuli\\R_Base_Y_For.mp4', 'robot_stimuli\\L_Base_Z_For.mp4', 'robot_stimuli\\L_Arm_X_For.mp4']",robot_stimuli\L_Torso_Y_Back.mp4,19,,,,,,,,,,,,,0,68,68,68,,,,,,,,,,,,,,,,,1735.293991,1713.1320934,,,,,,,,,1739.8915570999998,1739.8915570999998,1739.8915570999998,1739.8915570999998,1739.8915570999998,1739.8915570999998,1739.8915570999998,1739.8915570999998,None,None,None,,,,,,,,,,,1712.0579687,1712.0579687,None,,1731.6607476999998,1736.3849802999998,1736.3849802999998,1736.3849802999998,1736.3849802999998,n,2.417393299999958,1712.0579687,1712.0579687,,,,19,001,2024-07-31_10h43.35.448,robot_sternberg_sign,2022.2.5,60.06251306357941,
"['L_Head_X_Back', 'L_Arm_Z_Back', 'L_Torso_Z_Back', 'L_Base_Z_Back', 'R_Head_Z_For', 'L_Head_Y_For']",True,L_Arm_Z_Back,6,robot,3,False,True,"['robot_stimuli\\L_Head_X_Back.mp4', 'robot_stimuli\\L_Arm_Z_Back.mp4', 'robot_stimuli\\L_Torso_Z_Back.mp4', 'robot_stimuli\\L_Base_Z_Back.mp4', 'robot_stimuli\\R_Head_Z_For.mp4', 'robot_stimuli\\L_Head_Y_For.mp4']",robot_stimuli\L_Arm_Z_Back.mp4,19,,,,,,,,,,,,,0,69,69,69,,,,,,,,,,,,,,,,,1763.0648652,1764.1529074,,,,,,,,,1767.8169438999998,1773.5820417999998,1767.8169438999998,1773.5820417999998,1767.8169438999998,1773.5820417999998,1767.8169438999998,1773.5820417999998,86.94444444444444,4.535224199999902,space,,,5.705338999999867,,,,,,,,1739.8915570999998,1739.8915570999998,None,,1759.4316482,1764.1529074,1764.1529074,1764.1529074,1764.1529074,c,2.7774505999998382,1739.8915570999998,1739.8915570999998,,,,19,001,2024-07-31_10h43.35.448,robot_sternberg_sign,2022.2.5,60.06251306357941,
"['R_Arm_Z_For', 'R_Head_Z_For']",False,R_Torso_X_Back,2,robot,3,True,False,"['robot_stimuli\\R_Arm_Z_For.mp4', 'robot_stimuli\\R_Head_Z_For.mp4']",robot_stimuli\R_Torso_X_Back.mp4,19,,,,,,,,,,,,,0,70,70,70,,,,,,,,,,,,,,,,,1786.4490381,1787.5366196999998,,,,,,,,,1791.1648415,1791.1648415,1791.1648415,1791.1648415,1791.1648415,1791.1648415,1791.1648415,1791.1648415,None,None,None,,,,,,,,,,,1773.5820417999998,1773.5820417999998,space,4.420566700000336,1782.8206444000002,1787.5366196999998,1787.5366196999998,1787.5366196999998,1787.5366196999998,n,1.4346055000003162,,,,,,19,001,2024-07-31_10h43.35.448,robot_sternberg_sign,2022.2.5,60.06251306357941,
"['L_Base_Y_Back', 'R_Arm_Z_Back']",False,L_Base_X_For,2,robot,3,False,False,"['robot_stimuli\\L_Base_Y_Back.mp4', 'robot_stimuli\\R_Arm_Z_Back.mp4']",robot_stimuli\L_Base_X_For.mp4,19,,,,,,,,,,,,,0,71,71,71,,,,,,,,,,,,,,,,,1799.5508028999998,1800.6516754,,,,,,,,,1805.0796160999998,1805.0796160999998,1805.0796160999998,1805.0796160999998,1805.0796160999998,1805.0796160999998,1805.0796160999998,1805.0796160999998,None,None,None,,,,,,,,,,,1791.1648415,1791.1648415,None,,1795.9082790000002,1800.6516754,1800.6516754,1800.6516754,1800.6516754,n,4.390726099999711,1791.1648415,1791.1648415,,,,19,001,2024-07-31_10h43.35.448,robot_sternberg_sign,2022.2.5,60.06251306357941,
"['L_Torso_Y_Back', 'L_Base_Z_For']",False,R_Torso_Y_Back,2,robot,3,False,False,"['robot_stimuli\\L_Torso_Y_Back.mp4', 'robot_stimuli\\L_Base_Z_For.mp4']",robot_stimuli\R_Torso_Y_Back.mp4,19,,,,,,,,,,,,,0,72,72,72,,,,,,,,,,,,,,,,,1813.3968602,1814.4847107,,,,,,,,,1818.1242212000002,1818.1242212000002,1818.1242212000002,1818.1242212000002,1818.1242212000002,1818.1242212000002,1818.1242212000002,1818.1242212000002,None,None,None,,,,,,,,,,,1805.0796160999998,1805.0796160999998,None,,1809.7672082,1814.4847107,1814.4847107,1814.4847107,1814.4847107,n,1.1890270000001237,1805.0796160999998,1805.0796160999998,,,,19,001,2024-07-31_10h43.35.448,robot_sternberg_sign,2022.2.5,60.06251306357941,
"['R_Head_X_For', 'L_Arm_Y_For']",False,L_Head_Y_For,2,robot,3,False,False,"['robot_stimuli\\R_Head_X_For.mp4', 'robot_stimuli\\L_Arm_Y_For.mp4']",robot_stimuli\L_Head_Y_For.mp4,19,,,,,,,,,,,,,0,73,73,73,,,,,,,,,,,,,,,,,1826.5486504,1827.6369774,,,,,,,,,1831.2867129,1831.2867129,1831.2867129,1831.2867129,1831.2867129,1831.2867129,1831.2867129,1831.2867129,None,None,None,,,,,,,,,,,1818.1242212000002,1818.1242212000002,None,,1822.9204368,1827.6369774,1827.6369774,1827.6369774,1827.6369774,n,1.19738620000021,1818.1242212000002,1818.1242212000002,,,,19,001,2024-07-31_10h43.35.448,robot_sternberg_sign,2022.2.5,60.06251306357941,
"['L_Torso_Y_For', 'R_Base_Y_For']",True,R_Base_Y_For,2,robot,3,False,False,"['robot_stimuli\\L_Torso_Y_For.mp4', 'robot_stimuli\\R_Base_Y_For.mp4']",robot_stimuli\R_Base_Y_For.mp4,19,,,,,,,,,,,,,0,74,74,74,,,,,,,,,,,,,,,,,1839.7240793,1840.8021146,,,,,,,,,1844.4412195,1844.4412195,1844.4412195,1844.4412195,1844.4412195,1844.4412195,1844.4412195,1844.4412195,None,None,None,,,,,,,,,,,1831.2867129,1831.2867129,None,,1836.1049105000002,1840.8021146,1840.8021146,1840.8021146,1840.8021146,c,1.9850867000002381,1831.2867129,1831.2867129,,,,19,001,2024-07-31_10h43.35.448,robot_sternberg_sign,2022.2.5,60.06251306357941,
"['L_Base_X_For', 'R_Head_Z_For']",True,L_Base_X_For,2,robot,3,False,False,"['robot_stimuli\\L_Base_X_For.mp4', 'robot_stimuli\\R_Head_Z_For.mp4']",robot_stimuli\L_Base_X_For.mp4,19,,,,,,,,,,,,,0,75,75,75,,,,,,,,,,,,,,,,,1852.7911471000002,1853.8693896999998,,,,,,,,,1857.4327409000002,1857.4327409000002,1857.4327409000002,1857.4327409000002,1857.4327409000002,1857.4327409000002,1857.4327409000002,1857.4327409000002,None,None,None,,,,,,,,,,,1844.4412195,1844.4412195,None,,1849.1722885,1853.8693896999998,1853.8693896999998,1853.8693896999998,1853.8693896999998,c,1.8927265999998326,1844.4412195,1844.4412195,,,,19,001,2024-07-31_10h43.35.448,robot_sternberg_sign,2022.2.5,60.06251306357941,
"['L_Torso_Y_For', 'R_Arm_Y_For']",False,L_Head_Y_For,2,robot,3,False,False,"['robot_stimuli\\L_Torso_Y_For.mp4', 'robot_stimuli\\R_Arm_Y_For.mp4']",robot_stimuli\L_Head_Y_For.mp4,19,,,,,,,,,,,,,0,76,76,76,,,,,,,,,,,,,,,,,1865.7325240999999,1866.8200557,,,,,,,,,1870.4704966999998,1870.4704966999998,1870.4704966999998,1870.4704966999998,1870.4704966999998,1870.4704966999998,1870.4704966999998,1870.4704966999998,None,None,None,,,,,,,,,,,1857.4327409000002,1857.4327409000002,None,,1862.2373456999999,1866.8200557,1866.8200557,1866.8200557,1866.8200557,n,1.2311075000000073,1857.4327409000002,1857.4327409000002,,,,19,001,2024-07-31_10h43.35.448,robot_sternberg_sign,2022.2.5,60.06251306357941,
"['R_Head_Z_Back', 'L_Arm_Z_For']",True,R_Head_Z_Back,2,robot,3,False,False,"['robot_stimuli\\R_Head_Z_Back.mp4', 'robot_stimuli\\L_Arm_Z_For.mp4']",robot_stimuli\R_Head_Z_Back.mp4,19,,,,,,,,,,,,,0,77,77,77,,,,,,,,,,,,,,,,,1878.9123373000002,1880.0037222,,,,,,,,,1883.6394567000002,1883.6394567000002,1883.6394567000002,1883.6394567000002,1883.6394567000002,1883.6394567000002,1883.6394567000002,1883.6394567000002,None,None,None,,,,,,,,,,,1870.4704966999998,1870.4704966999998,None,,1875.2716602,1880.0037222,1880.0037222,1880.0037222,1880.0037222,c,2.1679388000000017,1870.4704966999998,1870.4704966999998,,,,19,001,2024-07-31_10h43.35.448,robot_sternberg_sign,2022.2.5,60.06251306357941,
"['R_Base_Y_For', 'R_Base_X_For']",True,R_Base_Y_For,2,robot,3,False,False,"['robot_stimuli\\R_Base_Y_For.mp4', 'robot_stimuli\\R_Base_X_For.mp4']",robot_stimuli\R_Base_Y_For.mp4,19,,,,,,,,,,,,,0,78,78,78,,,,,,,,,,,,,,,,,1891.9821164,1893.0705348000001,,,,,,,,,1896.7195425999998,1896.7195425999998,1896.7195425999998,1896.7195425999998,1896.7195425999998,1896.7195425999998,1896.7195425999998,1896.7195425999998,None,None,None,,,,,,,,,,,1883.6394567000002,1883.6394567000002,None,,1888.4421222,1893.0705348000001,1893.0705348000001,1893.0705348000001,1893.0705348000001,c,2.2842204000000947,1883.6394567000002,1883.6394567000002,,,,19,001,2024-07-31_10h43.35.448,robot_sternberg_sign,2022.2.5,60.06251306357941,
"['L_Torso_Y_Back', 'L_Torso_Y_For']",True,L_Torso_Y_For,2,robot,3,False,True,"['robot_stimuli\\L_Torso_Y_Back.mp4', 'robot_stimuli\\L_Torso_Y_For.mp4']",robot_stimuli\L_Torso_Y_For.mp4,19,,,,,,,,,,,,,0,79,79,79,,,,,,,,,,,,,,,,,1905.0314979,1906.1231045,,,,,,,,,1909.8038735999999,1914.8247735,1909.8038735999999,1914.8247735,1909.8038735999999,1914.8247735,1909.8038735999999,1914.8247735,39.5679012345679,2.5828765000001113,space,,,4.967262099999743,,,,,,,,1896.7195425999998,1896.7195425999998,None,,1901.3916809000002,1906.1231045,1906.1231045,1906.1231045,1906.1231045,c,1.832314600000018,1896.7195425999998,1896.7195425999998,,,,19,001,2024-07-31_10h43.35.448,robot_sternberg_sign,2022.2.5,60.06251306357941,
"['L_Torso_X_For', 'R_Arm_X_Back', 'L_Torso_Z_Back', 'R_Base_Z_Back']",True,R_Base_Z_Back,4,robot,3,True,False,"['robot_stimuli\\L_Torso_X_For.mp4', 'robot_stimuli\\R_Arm_X_Back.mp4', 'robot_stimuli\\L_Torso_Z_Back.mp4', 'robot_stimuli\\R_Base_Z_Back.mp4']",robot_stimuli\R_Base_Z_Back.mp4,19,,,,,,,,,,,,,0,80,80,80,,,,,,,,,,,,,,,,,1931.914682,1933.0046459,,,,,,,,,1936.5559758999998,1936.5559758999998,1936.5559758999998,1936.5559758999998,1936.5559758999998,1936.5559758999998,1936.5559758999998,1936.5559758999998,None,None,None,,,,,,,,,,,1914.8247735,1914.8247735,space,1.418465100000276,1928.3823140999998,1933.0046459,1933.0046459,1933.0046459,1933.0046459,c,2.230647699999963,,,,,,19,001,2024-07-31_10h43.35.448,robot_sternberg_sign,2022.2.5,60.06251306357941,
"['R_Torso_Y_For', 'L_Torso_Z_For', 'L_Arm_X_For', 'R_Arm_Z_For']",False,L_Base_Z_For,4,robot,3,False,False,"['robot_stimuli\\R_Torso_Y_For.mp4', 'robot_stimuli\\L_Torso_Z_For.mp4', 'robot_stimuli\\L_Arm_X_For.mp4', 'robot_stimuli\\R_Arm_Z_For.mp4']",robot_stimuli\L_Base_Z_For.mp4,19,,,,,,,,,,,,,0,81,81,81,,,,,,,,,,,,,,,,,1952.4270738,1937.6346236999998,,,,,,,,,1957.1580881999998,1957.1580881999998,1957.1580881999998,1957.1580881999998,1957.1580881999998,1957.1580881999998,1957.1580881999998,1957.1580881999998,None,None,None,,,,,,,,,,,1936.5559758999998,1936.5559758999998,None,,1948.7971526000001,1953.5183943000002,1953.5183943000002,1953.5183943000002,1953.5183943000002,c,2.444819099999904,1936.5559758999998,1936.5559758999998,,,,19,001,2024-07-31_10h43.35.448,robot_sternberg_sign,2022.2.5,60.06251306357941,
"['R_Base_Z_For', 'L_Base_Z_For', 'R_Arm_X_For', 'R_Head_Z_For']",True,R_Base_Z_For,4,robot,3,False,False,"['robot_stimuli\\R_Base_Z_For.mp4', 'robot_stimuli\\L_Base_Z_For.mp4', 'robot_stimuli\\R_Arm_X_For.mp4', 'robot_stimuli\\R_Head_Z_For.mp4']",robot_stimuli\R_Base_Z_For.mp4,19,,,,,,,,,,,,,0,82,82,82,,,,,,,,,,,,,,,,,1973.0337939,1974.1199038,,,,,,,,,1977.7496483,1977.7496483,1977.7496483,1977.7496483,1977.7496483,1977.7496483,1977.7496483,1977.7496483,None,None,None,,,,,,,,,,,1957.1580881999998,1957.1580881999998,None,,1969.4019824000002,1974.1199038,1974.1199038,1974.1199038,1974.1199038,c,2.4353495000002567,1957.1580881999998,1957.1580881999998,,,,19,001,2024-07-31_10h43.35.448,robot_sternberg_sign,2022.2.5,60.06251306357941,
"['R_Head_Y_For', 'L_Arm_Y_Back', 'L_Base_Z_Back', 'R_Arm_X_For']",False,L_Arm_Y_For,4,robot,3,False,False,"['robot_stimuli\\R_Head_Y_For.mp4', 'robot_stimuli\\L_Arm_Y_Back.mp4', 'robot_stimuli\\L_Base_Z_Back.mp4', 'robot_stimuli\\R_Arm_X_For.mp4']",robot_stimuli\L_Arm_Y_For.mp4,19,,,,,,,,,,,,,0,83,83,83,,,,,,,,,,,,,,,,,1993.6413554,1994.7196377999999,,,,,,,,,1998.3498851,1998.3498851,1998.3498851,1998.3498851,1998.3498851,1998.3498851,1998.3498851,1998.3498851,None,None,None,,,,,,,,,,,1977.7496483,1977.7496483,None,,1990.0195026000001,1994.7196377999999,1994.7196377999999,1994.7196377999999,1994.7196377999999,n,2.8998807000000397,1977.7496483,1977.7496483,,,,19,001,2024-07-31_10h43.35.448,robot_sternberg_sign,2022.2.5,60.06251306357941,
"['L_Head_X_Back', 'L_Arm_Z_For', 'R_Base_Z_Back', 'L_Base_X_Back']",False,L_Base_Z_Back,4,robot,3,False,False,"['robot_stimuli\\L_Head_X_Back.mp4', 'robot_stimuli\\L_Arm_Z_For.mp4', 'robot_stimuli\\R_Base_Z_Back.mp4', 'robot_stimuli\\L_Base_X_Back.mp4']",robot_stimuli\L_Base_Z_Back.mp4,19,,,,,,,,,,,,,0,84,84,84,,,,,,,,,,,,,,,,,2014.0911916999999,2015.1707760999998,,,,,,,,,2018.8200296999998,2018.8200296999998,2018.8200296999998,2018.8200296999998,2018.8200296999998,2018.8200296999998,2018.8200296999998,2018.8200296999998,None,None,None,,,,,,,,,,,1998.3498851,1998.3498851,None,,2010.5031626999998,2015.1707760999998,2015.1707760999998,2015.1707760999998,2015.1707760999998,n,2.342901000000211,1998.3498851,1998.3498851,,,,19,001,2024-07-31_10h43.35.448,robot_sternberg_sign,2022.2.5,60.06251306357941,
"['R_Base_Y_For', 'R_Torso_Z_Back', 'R_Base_X_For', 'R_Torso_X_Back']",False,L_Arm_X_Back,4,robot,3,False,False,"['robot_stimuli\\R_Base_Y_For.mp4', 'robot_stimuli\\R_Torso_Z_Back.mp4', 'robot_stimuli\\R_Base_X_For.mp4', 'robot_stimuli\\R_Torso_X_Back.mp4']",robot_stimuli\L_Arm_X_Back.mp4,19,,,,,,,,,,,,,0,85,85,85,,,,,,,,,,,,,,,,,2034.5919857,2035.6703655000001,,,,,,,,,2039.3043692,2039.3043692,2039.3043692,2039.3043692,2039.3043692,2039.3043692,2039.3043692,2039.3043692,None,None,None,,,,,,,,,,,2018.8200296999998,2018.8200296999998,None,,2030.9612467000002,2035.6703655000001,2035.6703655000001,2035.6703655000001,2035.6703655000001,n,2.645238400000153,2018.8200296999998,2018.8200296999998,,,,19,001,2024-07-31_10h43.35.448,robot_sternberg_sign,2022.2.5,60.06251306357941,
"['L_Base_Y_For', 'R_Arm_Y_For', 'R_Head_Z_Back', 'R_Torso_X_Back']",False,L_Base_Z_For,4,robot,3,False,False,"['robot_stimuli\\L_Base_Y_For.mp4', 'robot_stimuli\\R_Arm_Y_For.mp4', 'robot_stimuli\\R_Head_Z_Back.mp4', 'robot_stimuli\\R_Torso_X_Back.mp4']",robot_stimuli\L_Base_Z_For.mp4,19,,,,,,,,,,,,,0,86,86,86,,,,,,,,,,,,,,,,,2054.9614819,2040.3974576,,,,,,,,,2059.7040015,2059.7040015,2059.7040015,2059.7040015,2059.7040015,2059.7040015,2059.7040015,2059.7040015,None,None,None,,,,,,,,,,,2039.3043692,2039.3043692,None,,2051.3277696,2056.0555906,2056.0555906,2056.0555906,2056.0555906,n,2.3479232999998203,2039.3043692,2039.3043692,,,,19,001,2024-07-31_10h43.35.448,robot_sternberg_sign,2022.2.5,60.06251306357941,
"['R_Head_Z_Back', 'R_Arm_Y_Back', 'L_Head_Z_Back', 'L_Head_Y_Back']",True,R_Arm_Y_Back,4,robot,3,False,False,"['robot_stimuli\\R_Head_Z_Back.mp4', 'robot_stimuli\\R_Arm_Y_Back.mp4', 'robot_stimuli\\L_Head_Z_Back.mp4', 'robot_stimuli\\L_Head_Y_Back.mp4']",robot_stimuli\R_Arm_Y_Back.mp4,19,,,,,,,,,,,,,0,87,87,87,,,,,,,,,,,,,,,,,2075.5746272,2076.6528839,,,,,,,,,2080.2846373,2080.2846373,2080.2846373,2080.2846373,2080.2846373,2080.2846373,2080.2846373,2080.2846373,None,None,None,,,,,,,,,,,2059.7040015,2059.7040015,None,,2071.9527062,2076.6528839,2076.6528839,2076.6528839,2076.6528839,c,3.365551299999879,2059.7040015,2059.7040015,,,,19,001,2024-07-31_10h43.35.448,robot_sternberg_sign,2022.2.5,60.06251306357941,
"['L_Arm_X_Back', 'L_Head_Y_Back', 'L_Arm_Z_For', 'L_Torso_X_For']",True,L_Arm_Z_For,4,robot,3,False,False,"['robot_stimuli\\L_Arm_X_Back.mp4', 'robot_stimuli\\L_Head_Y_Back.mp4', 'robot_stimuli\\L_Arm_Z_For.mp4', 'robot_stimuli\\L_Torso_X_For.mp4']",robot_stimuli\L_Arm_Z_For.mp4,19,,,,,,,,,,,,,0,88,88,88,,,,,,,,,,,,,,,,,2096.1659171,2097.2533258,,,,,,,,,2100.8906862,2100.8906862,2100.8906862,2100.8906862,2100.8906862,2100.8906862,2100.8906862,2100.8906862,None,None,None,,,,,,,,,,,2080.2846373,2080.2846373,None,,2092.5347051,2097.2533258,2097.2533258,2097.2533258,2097.2533258,c,3.117914899999505,2080.2846373,2080.2846373,,,,19,001,2024-07-31_10h43.35.448,robot_sternberg_sign,2022.2.5,60.06251306357941,
"['R_Arm_X_Back', 'R_Head_X_For', 'L_Base_X_Back', 'R_Torso_Y_Back']",True,R_Arm_X_Back,4,robot,3,False,True,"['robot_stimuli\\R_Arm_X_Back.mp4', 'robot_stimuli\\R_Head_X_For.mp4', 'robot_stimuli\\L_Base_X_Back.mp4', 'robot_stimuli\\R_Torso_Y_Back.mp4']",robot_stimuli\R_Arm_X_Back.mp4,19,,,,,,,,,,,,,0,89,89,89,,,,,,,,,,,,,,,,,2116.729037,2117.8199386,,,,,,,,,2121.4863818,2125.3169571,2121.4863818,2125.3169571,2121.4863818,2125.3169571,2121.4863818,2125.3169571,53.148148148148145,2.572407699999985,space,,,3.7877315999999155,,,,,,,,2100.8906862,2100.8906862,None,,2113.0875833,2117.8199386,2117.8199386,2117.8199386,2117.8199386,n,2.7512581999999384,2100.8906862,2100.8906862,,,,19,001,2024-07-31_10h43.35.448,robot_sternberg_sign,2022.2.5,60.06251306357941,
"['W', 'Q', 'G', 'B']",True,W,4,letter,4,True,False,"['robot_stimuli\\\\filler.mp4', 'robot_stimuli\\\\filler.mp4', 'robot_stimuli\\\\filler.mp4', 'robot_stimuli\\\\filler.mp4']",robot_stimuli\\filler.mp4,19,,,,,,,,,,,,,0,90,90,90,,,,,,,,,,,,,,,,,2137.2962339,2138.3630867,,,,,,,,,2139.1898079,2139.1898079,2139.1898079,2139.1898079,2139.1898079,2139.1898079,2139.1898079,2139.1898079,None,None,None,,,,,,,,,,,2125.3169571,2125.3169571,space,2.00510660000009,,,2138.3630867,2138.3630867,2138.3630867,c,0.7603088000000753,,,2135.0793616,2137.2962339,2138.3630867,19,001,2024-07-31_10h43.35.448,robot_sternberg_sign,2022.2.5,60.06251306357941,
"['M', 'B', 'H', 'F']",True,M,4,letter,4,False,False,"['robot_stimuli\\\\filler.mp4', 'robot_stimuli\\\\filler.mp4', 'robot_stimuli\\\\filler.mp4', 'robot_stimuli\\\\filler.mp4']",robot_stimuli\\filler.mp4,19,,,,,,,,,,,,,0,91,91,91,,,,,,,,,,,,,,,,,2149.1333587,2150.1964803,,,,,,,,,2150.8192318,2150.8192318,2150.8192318,2150.8192318,2150.8192318,2150.8192318,2150.8192318,2150.8192318,None,None,None,,,,,,,,,,,2139.1898079,2139.1898079,None,,,,2150.1964803,2150.1964803,2150.1964803,c,0.4936288999997487,2139.1898079,2139.1898079,2146.9129093,2149.1333587,2150.1964803,19,001,2024-07-31_10h43.35.448,robot_sternberg_sign,2022.2.5,60.06251306357941,
"['D', 'P', 'H', 'V']",False,L,4,letter,4,False,False,"['robot_stimuli\\\\filler.mp4', 'robot_stimuli\\\\filler.mp4', 'robot_stimuli\\\\filler.mp4', 'robot_stimuli\\\\filler.mp4']",robot_stimuli\\filler.mp4,19,,,,,,,,,,,,,0,92,92,92,,,,,,,,,,,,,,,,,2160.1691023,2161.2411945,,,,,,,,,2162.0623742,2162.0623742,2162.0623742,2162.0623742,2162.0623742,2162.0623742,2162.0623742,2162.0623742,None,None,None,,,,,,,,,,,2150.8192318,2150.8192318,None,,,,2161.2411945,2161.2411945,2161.2411945,n,0.5927013999998962,2150.8192318,2150.8192318,2158.155349,2160.1691023,2161.2411945,19,001,2024-07-31_10h43.35.448,robot_sternberg_sign,2022.2.5,60.06251306357941,
"['D', 'H', 'N', 'F']",False,R,4,letter,4,False,False,"['robot_stimuli\\\\filler.mp4', 'robot_stimuli\\\\filler.mp4', 'robot_stimuli\\\\filler.mp4', 'robot_stimuli\\\\filler.mp4']",robot_stimuli\\filler.mp4,19,,,,,,,,,,,,,0,93,93,93,,,,,,,,,,,,,,,,,2171.6026022,2172.6622857,,,,,,,,,2173.4880724,2173.4880724,2173.4880724,2173.4880724,2173.4880724,2173.4880724,2173.4880724,2173.4880724,None,None,None,,,,,,,,,,,2162.0623742,2162.0623742,None,,,,2172.6622857,2172.6622857,2172.6622857,n,0.6121057000000292,2162.0623742,2162.0623742,2169.3951805,2171.6026022,2172.6622857,19,001,2024-07-31_10h43.35.448,robot_sternberg_sign,2022.2.5,60.06251306357941,
"['F', 'T', 'G', 'H']",False,X,4,letter,4,False,False,"['robot_stimuli\\\\filler.mp4', 'robot_stimuli\\\\filler.mp4', 'robot_stimuli\\\\filler.mp4', 'robot_stimuli\\\\filler.mp4']",robot_stimuli\\filler.mp4,19,,,,,,,,,,,,,0,94,94,94,,,,,,,,,,,,,,,,,2183.2219337,2184.2794173,,,,,,,,,2185.1077185,2185.1077185,2185.1077185,2185.1077185,2185.1077185,2185.1077185,2185.1077185,2185.1077185,None,None,None,,,,,,,,,,,2173.4880724,2173.4880724,None,,,,2184.2794173,2184.2794173,2184.2794173,n,0.6357921999997416,2173.4880724,2173.4880724,2181.2009282,2183.2219337,2184.2794173,19,001,2024-07-31_10h43.35.448,robot_sternberg_sign,2022.2.5,60.06251306357941,
"['G', 'P', 'Z', 'V']",False,W,4,letter,4,False,False,"['robot_stimuli\\\\filler.mp4', 'robot_stimuli\\\\filler.mp4', 'robot_stimuli\\\\filler.mp4', 'robot_stimuli\\\\filler.mp4']",robot_stimuli\\filler.mp4,19,,,,,,,,,,,,,0,95,95,95,,,,,,,,,,,,,,,,,2194.8356532,2195.8975352,,,,,,,,,2196.9185873,2196.9185873,2196.9185873,2196.9185873,2196.9185873,2196.9185873,2196.9185873,2196.9185873,None,None,None,,,,,,,,,,,2185.1077185,2185.1077185,None,,,,2195.8975352,2195.8975352,2195.8975352,n,0.8974431000001459,2185.1077185,2185.1077185,2192.6136455,2194.8356532,2195.8975352,19,001,2024-07-31_10h43.35.448,robot_sternberg_sign,2022.2.5,60.06251306357941,
"['P', 'K', 'V', 'T']",True,P,4,letter,4,False,False,"['robot_stimuli\\\\filler.mp4', 'robot_stimuli\\\\filler.mp4', 'robot_stimuli\\\\filler.mp4', 'robot_stimuli\\\\filler.mp4']",robot_stimuli\\filler.mp4,19,,,,,,,,,,,,,0,96,96,96,,,,,,,,,,,,,,,,,2206.8669518,2207.9297732,,,,,,,,,2208.5563704,2208.5563704,2208.5563704,2208.5563704,2208.5563704,2208.5563704,2208.5563704,2208.5563704,None,None,None,,,,,,,,,,,2196.9185873,2196.9185873,None,,,,2207.9297732,2207.9297732,2207.9297732,c,0.5536936999997124,2196.9185873,2196.9185873,2204.8549002,2206.8669518,2207.9297732,19,001,2024-07-31_10h43.35.448,robot_sternberg_sign,2022.2.5,60.06251306357941,
"['Z', 'C', 'D', 'K']",True,D,4,letter,4,False,False,"['robot_stimuli\\\\filler.mp4', 'robot_stimuli\\\\filler.mp4', 'robot_stimuli\\\\filler.mp4', 'robot_stimuli\\\\filler.mp4']",robot_stimuli\\filler.mp4,19,,,,,,,,,,,,,0,97,97,97,,,,,,,,,,,,,,,,,2218.5008972,2219.5621617,,,,,,,,,2220.5911163,2220.5911163,2220.5911163,2220.5911163,2220.5911163,2220.5911163,2220.5911163,2220.5911163,None,None,None,,,,,,,,,,,2208.5563704,2208.5563704,None,,,,2219.5621617,2219.5621617,2219.5621617,c,0.8875262999999904,2208.5563704,2208.5563704,2216.4828837,2218.5008972,2219.5621617,19,001,2024-07-31_10h43.35.448,robot_sternberg_sign,2022.2.5,60.06251306357941,
"['L', 'V', 'X', 'P']",True,L,4,letter,4,False,False,"['robot_stimuli\\\\filler.mp4', 'robot_stimuli\\\\filler.mp4', 'robot_stimuli\\\\filler.mp4', 'robot_stimuli\\\\filler.mp4']",robot_stimuli\\filler.mp4,19,,,,,,,,,,,,,0,98,98,98,,,,,,,,,,,,,,,,,2230.3027367,2231.3645028,,,,,,,,,2232.3896942,2232.3896942,2232.3896942,2232.3896942,2232.3896942,2232.3896942,2232.3896942,2232.3896942,None,None,None,,,,,,,,,,,2220.5911163,2220.5911163,None,,,,2231.3645028,2231.3645028,2231.3645028,c,0.8305747999997948,2220.5911163,2220.5911163,2228.2888013,2230.3027367,2231.3645028,19,001,2024-07-31_10h43.35.448,robot_sternberg_sign,2022.2.5,60.06251306357941,
"['P', 'K', 'D', 'F']",False,N,4,letter,4,False,True,"['robot_stimuli\\\\filler.mp4', 'robot_stimuli\\\\filler.mp4', 'robot_stimuli\\\\filler.mp4', 'robot_stimuli\\\\filler.mp4']",robot_stimuli\\filler.mp4,19,,,,,,,,,,,,,0,99,99,99,,,,,,,,,,,,,,,,,2241.930437,2242.9979254,,,,,,,,,2243.6539776,2249.1025408,2243.6539776,2249.1025408,2243.6539776,2249.1025408,2243.6539776,2249.1025408,25.216049382716037,3.3833967999999004,space,,,5.38851139999997,,,,,,,,2232.3896942,2232.3896942,None,,,,2242.9979254,2242.9979254,2242.9979254,n,0.5565681999996741,2232.3896942,2232.3896942,2239.7097055,2241.930437,2242.9979254,19,001,2024-07-31_10h43.35.448,robot_sternberg_sign,2022.2.5,60.06251306357941,
"['H', 'Q', 'G', 'X', 'N', 'L']",False,K,6,letter,4,True,False,"['robot_stimuli\\\\filler.mp4', 'robot_stimuli\\\\filler.mp4', 'robot_stimuli\\\\filler.mp4', 'robot_stimuli\\\\filler.mp4', 'robot_stimuli\\\\filler.mp4', 'robot_stimuli\\\\filler.mp4']",robot_stimuli\\filler.mp4,19,,,,,,,,,,,,,0,100,100,100,,,,,,,,,,,,,,,,,2264.1993829,2265.2654586,,,,,,,,,2266.8886658,2266.8886658,2266.8886658,2266.8886658,2266.8886658,2266.8886658,2266.8886658,2266.8886658,None,None,None,,,,,,,,,,,2249.1025408,2249.1025408,space,1.3718884999998409,,,2265.2654586,2265.2654586,2265.2654586,n,1.4175298999998631,,,2262.1739843,2264.1993829,2265.2654586,19,001,2024-07-31_10h43.35.448,robot_sternberg_sign,2022.2.5,60.06251306357941,
"['L', 'F', 'X', 'N', 'V', 'B']",False,K,6,letter,4,False,False,"['robot_stimuli\\\\filler.mp4', 'robot_stimuli\\\\filler.mp4', 'robot_stimuli\\\\filler.mp4', 'robot_stimuli\\\\filler.mp4', 'robot_stimuli\\\\filler.mp4', 'robot_stimuli\\\\filler.mp4']",robot_stimuli\\filler.mp4,19,,,,,,,,,,,,,0,101,101,101,,,,,,,,,,,,,,,,,2280.9808978,2282.0460002,,,,,,,,,2283.070402,2283.070402,2283.070402,2283.070402,2283.070402,2283.070402,2283.070402,2283.070402,None,None,None,,,,,,,,,,,2266.8886658,2266.8886658,None,,,,2282.0460002,2282.0460002,2282.0460002,n,0.7890509999997448,2266.8886658,2266.8886658,2278.7614875,2280.9808978,2282.0460002,19,001,2024-07-31_10h43.35.448,robot_sternberg_sign,2022.2.5,60.06251306357941,
"['K', 'M', 'D', 'Z', 'P', 'C']",False,F,6,letter,4,False,False,"['robot_stimuli\\\\filler.mp4', 'robot_stimuli\\\\filler.mp4', 'robot_stimuli\\\\filler.mp4', 'robot_stimuli\\\\filler.mp4', 'robot_stimuli\\\\filler.mp4', 'robot_stimuli\\\\filler.mp4']",robot_stimuli\\filler.mp4,19,,,,,,,,,,,,,0,102,102,102,,,,,,,,,,,,,,,,,2296.7718159,2297.8309376,,,,,,,,,2298.6560241,2298.6560241,2298.6560241,2298.6560241,2298.6560241,2298.6560241,2298.6560241,2298.6560241,None,None,None,,,,,,,,,,,2283.070402,2283.070402,None,,,,2297.8309376,2297.8309376,2297.8309376,n,0.7723919999998543,2283.070402,2283.070402,2294.7561086,2296.7718159,2297.8309376,19,001,2024-07-31_10h43.35.448,robot_sternberg_sign,2022.2.5,60.06251306357941,
"['N', 'D', 'Z', 'W', 'F', 'C']",True,W,6,letter,4,False,False,"['robot_stimuli\\\\filler.mp4', 'robot_stimuli\\\\filler.mp4', 'robot_stimuli\\\\filler.mp4', 'robot_stimuli\\\\filler.mp4', 'robot_stimuli\\\\filler.mp4', 'robot_stimuli\\\\filler.mp4']",robot_stimuli\\filler.mp4,19,,,,,,,,,,,,,0,103,103,103,,,,,,,,,,,,,,,,,2312.5676577,2313.6298936,,,,,,,,,2314.6517406,2314.6517406,2314.6517406,2314.6517406,2314.6517406,2314.6517406,2314.6517406,2314.6517406,None,None,None,,,,,,,,,,,2298.6560241,2298.6560241,None,,,,2313.6298936,2313.6298936,2313.6298936,c,0.8842939999999544,2298.6560241,2298.6560241,2310.3467185,2312.5676577,2313.6298936,19,001,2024-07-31_10h43.35.448,robot_sternberg_sign,2022.2.5,60.06251306357941,
"['Z', 'N', 'T', 'B', 'L', 'Q']",True,T,6,letter,4,False,False,"['robot_stimuli\\\\filler.mp4', 'robot_stimuli\\\\filler.mp4', 'robot_stimuli\\\\filler.mp4', 'robot_stimuli\\\\filler.mp4', 'robot_stimuli\\\\filler.mp4', 'robot_stimuli\\\\filler.mp4']",robot_stimuli\\filler.mp4,19,,,,,,,,,,,,,0,104,104,104,,,,,,,,,,,,,,,,,2328.9854094,2330.0458452,,,,,,,,,2331.2685563,2331.2685563,2331.2685563,2331.2685563,2331.2685563,2331.2685563,2331.2685563,2331.2685563,None,None,None,,,,,,,,,,,2314.6517406,2314.6517406,None,,,,2330.0458452,2330.0458452,2330.0458452,n,1.1257426000001942,2314.6517406,2314.6517406,2326.7617073,2328.9854094,2330.0458452,19,001,2024-07-31_10h43.35.448,robot_sternberg_sign,2022.2.5,60.06251306357941,
"['C', 'Z', 'L', 'P', 'B', 'M']",True,P,6,letter,4,False,False,"['robot_stimuli\\\\filler.mp4', 'robot_stimuli\\\\filler.mp4', 'robot_stimuli\\\\filler.mp4', 'robot_stimuli\\\\filler.mp4', 'robot_stimuli\\\\filler.mp4', 'robot_stimuli\\\\filler.mp4']",robot_stimuli\\filler.mp4,19,,,,,,,,,,,,,0,105,105,105,,,,,,,,,,,,,,,,,2345.3975179,2346.4624512,,,,,,,,,2347.2907649,2347.2907649,2347.2907649,2347.2907649,2347.2907649,2347.2907649,2347.2907649,2347.2907649,None,None,None,,,,,,,,,,,2331.2685563,2331.2685563,None,,,,2346.4624512,2346.4624512,2346.4624512,c,0.6927525999994941,2331.2685563,2331.2685563,2343.1766418,2345.3975179,2346.4624512,19,001,2024-07-31_10h43.35.448,robot_sternberg_sign,2022.2.5,60.06251306357941,
"['N', 'Z', 'T', 'D', 'K', 'G']",True,T,6,letter,4,False,False,"['robot_stimuli\\\\filler.mp4', 'robot_stimuli\\\\filler.mp4', 'robot_stimuli\\\\filler.mp4', 'robot_stimuli\\\\filler.mp4', 'robot_stimuli\\\\filler.mp4', 'robot_stimuli\\\\filler.mp4']",robot_stimuli\\filler.mp4,19,,,,,,,,,,,,,0,106,106,106,,,,,,,,,,,,,,,,,2361.3925299,2362.4454242,,,,,,,,,2363.267398,2363.267398,2363.267398,2363.267398,2363.267398,2363.267398,2363.267398,2363.267398,None,None,None,,,,,,,,,,,2347.2907649,2347.2907649,None,,,,2362.4454242,2362.4454242,2362.4454242,c,0.5971098999998503,2347.2907649,2347.2907649,2359.1774195,2361.3925299,2362.4454242,19,001,2024-07-31_10h43.35.448,robot_sternberg_sign,2022.2.5,60.06251306357941,
"['V', 'L', 'M', 'Q', 'J', 'T']",False,X,6,letter,4,False,False,"['robot_stimuli\\\\filler.mp4', 'robot_stimuli\\\\filler.mp4', 'robot_stimuli\\\\filler.mp4', 'robot_stimuli\\\\filler.mp4', 'robot_stimuli\\\\filler.mp4', 'robot_stimuli\\\\filler.mp4']",robot_stimuli\\filler.mp4,19,,,,,,,,,,,,,0,107,107,107,,,,,,,,,,,,,,,,,2377.3721061,2378.433053,,,,,,,,,2379.4604053,2379.4604053,2379.4604053,2379.4604053,2379.4604053,2379.4604053,2379.4604053,2379.4604053,None,None,None,,,,,,,,,,,2363.267398,2363.267398,None,,,,2378.433053,2378.433053,2378.433053,n,0.9214296999998624,2363.267398,2363.267398,2375.3560181,2377.3721061,2378.433053,19,001,2024-07-31_10h43.35.448,robot_sternberg_sign,2022.2.5,60.06251306357941,
"['H', 'J', 'T', 'V', 'S', 'F']",False,G,6,letter,4,False,False,"['robot_stimuli\\\\filler.mp4', 'robot_stimuli\\\\filler.mp4', 'robot_stimuli\\\\filler.mp4', 'robot_stimuli\\\\filler.mp4', 'robot_stimuli\\\\filler.mp4', 'robot_stimuli\\\\filler.mp4']",robot_stimuli\\filler.mp4,19,,,,,,,,,,,,,0,108,108,108,,,,,,,,,,,,,,,,,2393.3703875,2394.4387025,,,,,,,,,2396.2669581,2396.2669581,2396.2669581,2396.2669581,2396.2669581,2396.2669581,2396.2669581,2396.2669581,None,None,None,,,,,,,,,,,2379.4604053,2379.4604053,None,,,,2394.4387025,2394.4387025,2394.4387025,n,1.6353802999997242,2379.4604053,2379.4604053,2391.3508037,2393.3703875,2394.4387025,19,001,2024-07-31_10h43.35.448,robot_sternberg_sign,2022.2.5,60.06251306357941,
"['M', 'B', 'N', 'R', 'Q', 'D']",True,Q,6,letter,4,False,True,"['robot_stimuli\\\\filler.mp4', 'robot_stimuli\\\\filler.mp4', 'robot_stimuli\\\\filler.mp4', 'robot_stimuli\\\\filler.mp4', 'robot_stimuli\\\\filler.mp4', 'robot_stimuli\\\\filler.mp4']",robot_stimuli\\filler.mp4,19,,,,,,,,,,,,,0,109,109,109,,,,,,,,,,,,,,,,,2410.1730157,2411.2292169,,,,,,,,,2412.0849322,2420.6307425,2412.0849322,2420.6307425,2412.0849322,2420.6307425,2412.0849322,2420.6307425,43.73456790123457,6.099136600000293,space,,,8.49354459999995,,,,,,,,2396.2669581,2396.2669581,None,,,,2411.2292169,2411.2292169,2411.2292169,c,0.7103146999997989,2396.2669581,2396.2669581,2408.158893,2410.1730157,2411.2292169,19,001,2024-07-31_10h43.35.448,robot_sternberg_sign,2022.2.5,60.06251306357941,
"['N', 'W']",False,R,2,letter,4,True,False,"['robot_stimuli\\\\filler.mp4', 'robot_stimuli\\\\filler.mp4']",robot_stimuli\\filler.mp4,19,,,,,,,,,,,,,0,110,110,110,,,,,,,,,,,,,,,,,2428.2137762,2429.2806523,,,,,,,,,2429.9082094,2429.9082094,2429.9082094,2429.9082094,2429.9082094,2429.9082094,2429.9082094,2429.9082094,None,None,None,,,,,,,,,,,2420.6307425,2420.6307425,space,1.9958040999999866,,,2429.2806523,2429.2806523,2429.2806523,n,0.49726579999969545,,,2425.9947087,2428.2137762,2429.2806523,19,001,2024-07-31_10h43.35.448,robot_sternberg_sign,2022.2.5,60.06251306357941,
"['V', 'Q']",True,Q,2,letter,4,False,False,"['robot_stimuli\\\\filler.mp4', 'robot_stimuli\\\\filler.mp4']",robot_stimuli\\filler.mp4,19,,,,,,,,,,,,,0,111,111,111,,,,,,,,,,,,,,,,,2435.2708059,2436.3292517,,,,,,,,,2436.9536428,2436.9536428,2436.9536428,2436.9536428,2436.9536428,2436.9536428,2436.9536428,2436.9536428,None,None,None,,,,,,,,,,,2429.9082094,2429.9082094,None,,,,2436.3292517,2436.3292517,2436.3292517,c,0.5773244999995768,2429.9082094,2429.9082094,2433.250863,2435.2708059,2436.3292517,19,001,2024-07-31_10h43.35.448,robot_sternberg_sign,2022.2.5,60.06251306357941,
"['Z', 'K']",False,G,2,letter,4,False,False,"['robot_stimuli\\\\filler.mp4', 'robot_stimuli\\\\filler.mp4']",robot_stimuli\\filler.mp4,19,,,,,,,,,,,,,0,112,112,112,,,,,,,,,,,,,,,,,2442.5139186,2443.5798713,,,,,,,,,2444.4079172,2444.4079172,2444.4079172,2444.4079172,2444.4079172,2444.4079172,2444.4079172,2444.4079172,None,None,None,,,,,,,,,,,2436.9536428,2436.9536428,None,,,,2443.5798713,2443.5798713,2443.5798713,n,0.7340032999995856,2436.9536428,2436.9536428,2440.2974186,2442.5139186,2443.5798713,19,001,2024-07-31_10h43.35.448,robot_sternberg_sign,2022.2.5,60.06251306357941,
"['W', 'Q']",True,W,2,letter,4,False,False,"['robot_stimuli\\\\filler.mp4', 'robot_stimuli\\\\filler.mp4']",robot_stimuli\\filler.mp4,19,,,,,,,,,,,,,0,113,113,113,,,,,,,,,,,,,,,,,2449.7718332,2450.8302901,,,,,,,,,2451.6588803,2451.6588803,2451.6588803,2451.6588803,2451.6588803,2451.6588803,2451.6588803,2451.6588803,None,None,None,,,,,,,,,,,2444.4079172,2444.4079172,None,,,,2450.8302901,2450.8302901,2450.8302901,c,0.5966950000001816,2444.4079172,2444.4079172,2447.7515525,2449.7718332,2450.8302901,19,001,2024-07-31_10h43.35.448,robot_sternberg_sign,2022.2.5,60.06251306357941,
"['H', 'Q']",True,H,2,letter,4,False,False,"['robot_stimuli\\\\filler.mp4', 'robot_stimuli\\\\filler.mp4']",robot_stimuli\\filler.mp4,19,,,,,,,,,,,,,0,114,114,114,,,,,,,,,,,,,,,,,2457.2304376,2458.2985043,,,,,,,,,2459.122569,2459.122569,2459.122569,2459.122569,2459.122569,2459.122569,2459.122569,2459.122569,None,None,None,,,,,,,,,,,2451.6588803,2451.6588803,None,,,,2458.2985043,2458.2985043,2458.2985043,c,0.6246981999997843,2451.6588803,2451.6588803,2455.0129304,2457.2304376,2458.2985043,19,001,2024-07-31_10h43.35.448,robot_sternberg_sign,2022.2.5,60.06251306357941,
"['B', 'S']",False,F,2,letter,4,False,False,"['robot_stimuli\\\\filler.mp4', 'robot_stimuli\\\\filler.mp4']",robot_stimuli\\filler.mp4,19,,,,,,,,,,,,,0,115,115,115,,,,,,,,,,,,,,,,,2464.4835653,2465.5468514,,,,,,,,,2466.1702806,2466.1702806,2466.1702806,2466.1702806,2466.1702806,2466.1702806,2466.1702806,2466.1702806,None,None,None,,,,,,,,,,,2459.122569,2459.122569,None,,,,2465.5468514,2465.5468514,2465.5468514,n,0.5606723000000784,2459.122569,2459.122569,2462.4701805,2464.4835653,2465.5468514,19,001,2024-07-31_10h43.35.448,robot_sternberg_sign,2022.2.5,60.06251306357941,
"['G', 'P']",True,G,2,letter,4,False,False,"['robot_stimuli\\\\filler.mp4', 'robot_stimuli\\\\filler.mp4']",robot_stimuli\\filler.mp4,19,,,,,,,,,,,,,0,116,116,116,,,,,,,,,,,,,,,,,2471.5391949,2472.5964136,,,,,,,,,2473.424433,2473.424433,2473.424433,2473.424433,2473.424433,2473.424433,2473.424433,2473.424433,None,None,None,,,,,,,,,,,2466.1702806,2466.1702806,None,,,,2472.5964136,2472.5964136,2472.5964136,c,0.6462234000000535,2466.1702806,2466.1702806,2469.5200313,2471.5391949,2472.5964136,19,001,2024-07-31_10h43.35.448,robot_sternberg_sign,2022.2.5,60.06251306357941,
