sequence,is_target,condition,stimuli,block,is_block_beginning,is_block_ending,fname,subject,retraining.thisRepN,retraining.thisTrialN,retraining.thisN,retraining.thisIndex,training.thisRepN,training.thisTrialN,training.thisN,training.thisIndex,trials.thisRepN,trials.thisTrialN,trials.thisN,trials.thisIndex,langage_text.started,langage_key.started,langage_key.keys,langage_key.rt,intro_text.started,intro_key.started,intro_key.keys,intro_key.rt,training_robot_intro_text.started,training_robot_intro_key.started,training_robot_intro_key.keys,training_robot_intro_key.rt,cross.started,cross.stopped,training_letter.started,training_robot_key.started,training_robot_question.started,training_robot_keys.started,training_letter.stopped,training_robot_key.keys,RSME_labels.started,RSME_labels.stopped,RSME_ticks.started,RSME_ticks.stopped,RSME_text.started,RSME_text.stopped,RSME_key.started,RSME_key.stopped,RSME_ticks.response,RSME_ticks.rt,RSME_key.keys,training_robot_intro_text.stopped,training_robot_intro_key.stopped,training_robot_key.rt,RSME_key.rt,training_robot_movie.started,experiment_beginning_text.started,experiment_beginning_keys.started,experiment_beginning_key.started,experiment_beginning_key.keys,experiment_beginning_key.rt,block_intro_text.started,block_intro_key.started,block_intro_key.keys,block_intro_key.rt,letter.started,key.started,letter.stopped,key.keys,block_intro_text.stopped,block_intro_key.stopped,key.rt,movie.started,participant,session,date,expName,psychopyVersion,frameRate,
,,,,,,,,,,,,,,,,,,,,,15.990609700000022,15.990609700000022,f,1138.226468,,,,,,,,,,,,,,,,,,,,,,,,,,,,,,,,,,,,,,,,,,,,,,,,,,2,001,2024-05-27_15h22.40.989,robot_nback_sign,2022.2.5,59.99872802696631,
,,,,,,,,,,,,,,,,,,,,,,,,,1154.2754786,1154.2754786,space,26.86323960000007,,,,,,,,,,,,,,,,,,,,,,,,,,,,,,,,,,,,,,,,,,,,,,2,001,2024-05-27_15h22.40.989,robot_nback_sign,2022.2.5,59.99872802696631,
L,False,1,letter,1,True,False,robot_stimuli\\filler.mp4,2,0,0,0,0,0,0,0,0,,,,,,,,,,,,,1181.1975481,1181.1975481,space,17.22052450000004,1198.4367592,1199.9500808,1199.9500808,1199.9500808,1199.9500808,1199.9500808,1202.25545,None,1202.25545,1202.25545,1202.25545,1202.25545,1202.25545,1202.25545,1202.25545,1202.25545,None,None,None,,,,,,,,,,,,,,,,,,,,,,,2,001,2024-05-27_15h22.40.989,robot_nback_sign,2022.2.5,59.99872802696631,
L,True,1,letter,1,False,False,robot_stimuli\\filler.mp4,2,0,0,0,0,0,1,1,1,,,,,,,,,,,,,1202.25545,1202.25545,None,,1202.25545,,1203.3335054000001,1203.3335054000001,1203.3335054000001,1203.3335054000001,1205.3693414,None,1205.3693414,1205.3693414,1205.3693414,1205.3693414,1205.3693414,1205.3693414,1205.3693414,1205.3693414,None,None,None,1202.25545,1202.25545,,,,,,,,,,,,,,,,,,,,,2,001,2024-05-27_15h22.40.989,robot_nback_sign,2022.2.5,59.99872802696631,
B,False,1,letter,1,False,False,robot_stimuli\\filler.mp4,2,0,0,0,0,0,2,2,2,,,,,,,,,,,,,1205.3693414,1205.3693414,None,,1205.3693414,1206.4379266,1206.4379266,1206.4379266,1206.4379266,1206.4379266,1208.6688116,n,1208.6688116,1208.6688116,1208.6688116,1208.6688116,1208.6688116,1208.6688116,1208.6688116,1208.6688116,None,None,None,1205.3693414,1205.3693414,0.9246492000000046,,,,,,,,,,,,,,,,,,,,2,001,2024-05-27_15h22.40.989,robot_nback_sign,2022.2.5,59.99872802696631,
B,True,1,letter,1,False,False,robot_stimuli\\filler.mp4,2,0,0,0,0,0,3,3,3,,,,,,,,,,,,,1208.6688116,1208.6688116,None,,1208.6688116,1209.7333427,1209.7333427,1209.7333427,1209.7333427,1209.7333427,1211.7682035,c,1211.7682035,1211.7682035,1211.7682035,1211.7682035,1211.7682035,1211.7682035,1211.7682035,1211.7682035,None,None,None,1208.6688116,1208.6688116,1.0922726999999952,,,,,,,,,,,,,,,,,,,,2,001,2024-05-27_15h22.40.989,robot_nback_sign,2022.2.5,59.99872802696631,
Z,False,1,letter,1,False,False,robot_stimuli\\filler.mp4,2,0,0,0,0,0,4,4,4,,,,,,,,,,,,,1211.7682035,1211.7682035,None,,1211.7682035,1212.8407803,1212.8407803,1212.8407803,1212.8407803,1212.8407803,1215.0731005,n,1215.0731005,1215.0731005,1215.0731005,1215.0731005,1215.0731005,1215.0731005,1215.0731005,1215.0731005,None,None,None,1211.7682035,1211.7682035,0.7531220999999562,,,,,,,,,,,,,,,,,,,,2,001,2024-05-27_15h22.40.989,robot_nback_sign,2022.2.5,59.99872802696631,
T,False,1,letter,1,False,False,robot_stimuli\\filler.mp4,2,0,0,0,0,0,5,5,5,,,,,,,,,,,,,1215.0731005,1215.0731005,None,,1215.0731005,1216.1581322,1216.1581322,1216.1581322,1216.1581322,1216.1581322,1218.3888809,n,1218.3888809,1218.3888809,1218.3888809,1218.3888809,1218.3888809,1218.3888809,1218.3888809,1218.3888809,None,None,None,1215.0731005,1215.0731005,1.4359153999999137,,,,,,,,,,,,,,,,,,,,2,001,2024-05-27_15h22.40.989,robot_nback_sign,2022.2.5,59.99872802696631,
G,False,1,letter,1,False,False,robot_stimuli\\filler.mp4,2,0,0,0,0,0,6,6,6,,,,,,,,,,,,,1218.3888809,1218.3888809,None,,1218.3888809,,1219.4717539,1219.4717539,1219.4717539,1219.4717539,1221.7019413,n,1221.7019413,1221.7019413,1221.7019413,1221.7019413,1221.7019413,1221.7019413,1221.7019413,1221.7019413,None,None,None,1218.3888809,1218.3888809,1.1459261000000254,,,,,,,,,,,,,,,,,,,,2,001,2024-05-27_15h22.40.989,robot_nback_sign,2022.2.5,59.99872802696631,
G,True,1,letter,1,False,False,robot_stimuli\\filler.mp4,2,0,0,0,0,0,7,7,7,,,,,,,,,,,,,1221.7019413,1221.7019413,None,,1221.7019413,1222.7709191000001,1222.7709191000001,1222.7709191000001,1222.7709191000001,1222.7709191000001,1224.8031182,c,1224.8031182,1224.8031182,1224.8031182,1224.8031182,1224.8031182,1224.8031182,1224.8031182,1224.8031182,None,None,None,1221.7019413,1221.7019413,0.7673155000000236,,,,,,,,,,,,,,,,,,,,2,001,2024-05-27_15h22.40.989,robot_nback_sign,2022.2.5,59.99872802696631,
N,False,1,letter,1,False,True,robot_stimuli\\filler.mp4,2,0,0,0,0,0,8,8,8,,,,,,,,,,,,,1224.8031182,1224.8031182,None,,1224.8031182,1225.8717171,1225.8717171,1225.8717171,1225.8717171,1225.8717171,1228.16624,n,1228.16624,1242.2745643,1228.16624,1242.2745643,1228.16624,1242.2745643,1228.16624,1242.2745643,30.15432098765432,12.368044699999928,space,1224.8031182,1224.8031182,1.7938868999999897,14.043495899999954,,,,,,,,,,,,,,,,,,,2,001,2024-05-27_15h22.40.989,robot_nback_sign,2022.2.5,59.99872802696631,
C,False,2,letter,1,True,False,robot_stimuli\\filler.mp4,2,0,0,0,0,0,9,9,9,,,,,,,,,,,,,1242.2745643,1242.2745643,space,6.35015249999995,1248.653321,1249.7294177,1249.7294177,1249.7294177,1249.7294177,1249.7294177,1251.9606157,n,1251.9606157,1251.9606157,1251.9606157,1251.9606157,1251.9606157,1251.9606157,1251.9606157,1251.9606157,None,None,None,,,0.8726315000001534,,,,,,,,,,,,,,,,,,,,2,001,2024-05-27_15h22.40.989,robot_nback_sign,2022.2.5,59.99872802696631,
M,False,2,letter,1,False,False,robot_stimuli\\filler.mp4,2,0,0,0,0,0,10,10,10,,,,,,,,,,,,,1251.9606157,1251.9606157,None,,1251.9606157,1253.038204,1253.038204,1253.038204,1253.038204,1253.038204,1255.0724613,n,1255.0724613,1255.0724613,1255.0724613,1255.0724613,1255.0724613,1255.0724613,1255.0724613,1255.0724613,None,None,None,1251.9606157,1251.9606157,0.9637792000001184,,,,,,,,,,,,,,,,,,,,2,001,2024-05-27_15h22.40.989,robot_nback_sign,2022.2.5,59.99872802696631,
Q,False,2,letter,1,False,False,robot_stimuli\\filler.mp4,2,0,0,0,0,0,11,11,11,,,,,,,,,,,,,1255.0724613,1255.0724613,None,,1255.0724613,,1256.1556679,1256.1556679,1256.1556679,1256.1556679,1258.3829190000001,n,1258.3829190000001,1258.3829190000001,1258.3829190000001,1258.3829190000001,1258.3829190000001,1258.3829190000001,1258.3829190000001,1258.3829190000001,None,None,None,1255.0724613,1255.0724613,1.0868660999999804,,,,,,,,,,,,,,,,,,,,2,001,2024-05-27_15h22.40.989,robot_nback_sign,2022.2.5,59.99872802696631,
M,True,2,letter,1,False,False,robot_stimuli\\filler.mp4,2,0,0,0,0,0,12,12,12,,,,,,,,,,,,,1258.3829190000001,1258.3829190000001,None,,1258.3829190000001,1259.4565631,1259.4565631,1259.4565631,1259.4565631,1259.4565631,1261.6883304,c,1261.6883304,1261.6883304,1261.6883304,1261.6883304,1261.6883304,1261.6883304,1261.6883304,1261.6883304,None,None,None,1258.3829190000001,1258.3829190000001,0.9620385999999428,,,,,,,,,,,,,,,,,,,,2,001,2024-05-27_15h22.40.989,robot_nback_sign,2022.2.5,59.99872802696631,
Q,True,2,letter,1,False,False,robot_stimuli\\filler.mp4,2,0,0,0,0,0,13,13,13,,,,,,,,,,,,,1261.6883304,1261.6883304,None,,1261.6883304,,1262.7668742,1262.7668742,1262.7668742,1262.7668742,1264.7961676,c,1264.7961676,1264.7961676,1264.7961676,1264.7961676,1264.7961676,1264.7961676,1264.7961676,1264.7961676,None,None,None,1261.6883304,1261.6883304,1.0107479999999498,,,,,,,,,,,,,,,,,,,,2,001,2024-05-27_15h22.40.989,robot_nback_sign,2022.2.5,59.99872802696631,
Q,False,2,letter,1,False,False,robot_stimuli\\filler.mp4,2,0,0,0,0,0,14,14,14,,,,,,,,,,,,,1264.7961676,1264.7961676,None,,1264.7961676,1265.8717332,1265.8717332,1265.8717332,1265.8717332,1265.8717332,1268.1018829,None,1268.1018829,1268.1018829,1268.1018829,1268.1018829,1268.1018829,1268.1018829,1268.1018829,1268.1018829,None,None,None,1264.7961676,1264.7961676,,,,,,,,,,,,,,,,,,,,,2,001,2024-05-27_15h22.40.989,robot_nback_sign,2022.2.5,59.99872802696631,
Z,False,2,letter,1,False,False,robot_stimuli\\filler.mp4,2,0,0,0,0,0,15,15,15,,,,,,,,,,,,,1268.1018829,1268.1018829,None,,1268.1018829,1269.1687683,1269.1687683,1269.1687683,1269.1687683,1269.1687683,1271.2017469,n,1271.2017469,1271.2017469,1271.2017469,1271.2017469,1271.2017469,1271.2017469,1271.2017469,1271.2017469,None,None,None,1268.1018829,1268.1018829,1.1526862999999423,,,,,,,,,,,,,,,,,,,,2,001,2024-05-27_15h22.40.989,robot_nback_sign,2022.2.5,59.99872802696631,
Z,False,2,letter,1,False,False,robot_stimuli\\filler.mp4,2,0,0,0,0,0,16,16,16,,,,,,,,,,,,,1271.2017469,1271.2017469,None,,1271.2017469,1272.2673454,1272.2673454,1272.2673454,1272.2673454,1272.2673454,1274.2928069,n,1274.2928069,1274.2928069,1274.2928069,1274.2928069,1274.2928069,1274.2928069,1274.2928069,1274.2928069,None,None,None,1271.2017469,1271.2017469,1.9016360000000816,,,,,,,,,,,,,,,,,,,,2,001,2024-05-27_15h22.40.989,robot_nback_sign,2022.2.5,59.99872802696631,
Z,True,2,letter,1,False,True,robot_stimuli\\filler.mp4,2,0,0,0,0,0,17,17,17,,,,,,,,,,,,,1274.2928069,1274.2928069,None,,1274.2928069,1275.3710288,1275.3710288,1275.3710288,1275.3710288,1275.3710288,1277.4319863,n,1277.4319863,1282.7029313,1277.4319863,1282.7029313,1277.4319863,1282.7029313,1277.4319863,1282.7029313,40.03086419753087,2.8768574999999146,space,1274.2928069,1274.2928069,1.3500945000000968,5.225084599999974,,,,,,,,,,,,,,,,,,,2,001,2024-05-27_15h22.40.989,robot_nback_sign,2022.2.5,59.99872802696631,
Q,False,3,letter,1,True,False,robot_stimuli\\filler.mp4,2,0,0,0,0,0,18,18,18,,,,,,,,,,,,,1282.7029313,1282.7029313,space,1.3067820999999924,1284.0366063000001,1285.1083447,1285.1083447,1285.1083447,1285.1083447,1285.1083447,1287.3371446,n,1287.3371446,1287.3371446,1287.3371446,1287.3371446,1287.3371446,1287.3371446,1287.3371446,1287.3371446,None,None,None,,,0.6705589000000884,,,,,,,,,,,,,,,,,,,,2,001,2024-05-27_15h22.40.989,robot_nback_sign,2022.2.5,59.99872802696631,
V,False,3,letter,1,False,False,robot_stimuli\\filler.mp4,2,0,0,0,0,0,19,19,19,,,,,,,,,,,,,1287.3371446,1287.3371446,None,,1287.3371446,1288.4042424,1288.4042424,1288.4042424,1288.4042424,1288.4042424,1290.4363621,n,1290.4363621,1290.4363621,1290.4363621,1290.4363621,1290.4363621,1290.4363621,1290.4363621,1290.4363621,None,None,None,1287.3371446,1287.3371446,0.7105206999999893,,,,,,,,,,,,,,,,,,,,2,001,2024-05-27_15h22.40.989,robot_nback_sign,2022.2.5,59.99872802696631,
R,False,3,letter,1,False,False,robot_stimuli\\filler.mp4,2,0,0,0,0,0,20,20,20,,,,,,,,,,,,,1290.4363621,1290.4363621,None,,1290.4363621,1291.5051055000001,1291.5051055000001,1291.5051055000001,1291.5051055000001,1291.5051055000001,1293.7347301,n,1293.7347301,1293.7347301,1293.7347301,1293.7347301,1293.7347301,1293.7347301,1293.7347301,1293.7347301,None,None,None,1290.4363621,1290.4363621,0.7052292999999565,,,,,,,,,,,,,,,,,,,,2,001,2024-05-27_15h22.40.989,robot_nback_sign,2022.2.5,59.99872802696631,
D,False,3,letter,1,False,False,robot_stimuli\\filler.mp4,2,0,0,0,0,0,21,21,21,,,,,,,,,,,,,1293.7347301,1293.7347301,None,,1293.7347301,1294.8056845,1294.8056845,1294.8056845,1294.8056845,1294.8056845,1297.0330069000001,n,1297.0330069000001,1297.0330069000001,1297.0330069000001,1297.0330069000001,1297.0330069000001,1297.0330069000001,1297.0330069000001,1297.0330069000001,None,None,None,1293.7347301,1293.7347301,0.9324387000001764,,,,,,,,,,,,,,,,,,,,2,001,2024-05-27_15h22.40.989,robot_nback_sign,2022.2.5,59.99872802696631,
V,True,3,letter,1,False,False,robot_stimuli\\filler.mp4,2,0,0,0,0,0,22,22,22,,,,,,,,,,,,,1297.0330069000001,1297.0330069000001,None,,1297.0330069000001,1298.1020932000001,1298.1020932000001,1298.1020932000001,1298.1020932000001,1298.1020932000001,1300.1371431,n,1300.1371431,1300.1371431,1300.1371431,1300.1371431,1300.1371431,1300.1371431,1300.1371431,1300.1371431,None,None,None,1297.0330069000001,1297.0330069000001,1.6832224000000053,,,,,,,,,,,,,,,,,,,,2,001,2024-05-27_15h22.40.989,robot_nback_sign,2022.2.5,59.99872802696631,
D,False,3,letter,1,False,False,robot_stimuli\\filler.mp4,2,0,0,0,0,0,23,23,23,,,,,,,,,,,,,1300.1371431,1300.1371431,None,,1300.1371431,1301.2025646,1301.2025646,1301.2025646,1301.2025646,1301.2025646,1303.234418,None,1303.234418,1303.234418,1303.234418,1303.234418,1303.234418,1303.234418,1303.234418,1303.234418,None,None,None,1300.1371431,1300.1371431,,,,,,,,,,,,,,,,,,,,,2,001,2024-05-27_15h22.40.989,robot_nback_sign,2022.2.5,59.99872802696631,
D,True,3,letter,1,False,False,robot_stimuli\\filler.mp4,2,0,0,0,0,0,24,24,24,,,,,,,,,,,,,1303.234418,1303.234418,None,,1303.234418,1304.3040378,1304.3040378,1304.3040378,1304.3040378,1304.3040378,1306.3383809,c,1306.3383809,1306.3383809,1306.3383809,1306.3383809,1306.3383809,1306.3383809,1306.3383809,1306.3383809,None,None,None,1303.234418,1303.234418,1.8100557999999012,,,,,,,,,,,,,,,,,,,,2,001,2024-05-27_15h22.40.989,robot_nback_sign,2022.2.5,59.99872802696631,
G,False,3,letter,1,False,False,robot_stimuli\\filler.mp4,2,0,0,0,0,0,25,25,25,,,,,,,,,,,,,1306.3383809,1306.3383809,None,,1306.3383809,,1307.4181876,1307.4181876,1307.4181876,1307.4181876,1309.4514088,n,1309.4514088,1309.4514088,1309.4514088,1309.4514088,1309.4514088,1309.4514088,1309.4514088,1309.4514088,None,None,None,1306.3383809,1306.3383809,0.7599666999999783,,,,,,,,,,,,,,,,,,,,2,001,2024-05-27_15h22.40.989,robot_nback_sign,2022.2.5,59.99872802696631,
D,True,3,letter,1,False,True,robot_stimuli\\filler.mp4,2,0,0,0,0,0,26,26,26,,,,,,,,,,,,,1309.4514088,1309.4514088,None,,1309.4514088,1310.517813,1310.517813,1310.517813,1310.517813,1310.517813,1312.5798029,c,1312.5798029,1316.3921889,1312.5798029,1316.3921889,1312.5798029,1316.3921889,1312.5798029,1316.3921889,39.72222222222223,2.740587400000095,space,1309.4514088,1309.4514088,1.6442758999999398,3.7493600000000527,,,,,,,,,,,,,,,,,,,2,001,2024-05-27_15h22.40.989,robot_nback_sign,2022.2.5,59.99872802696631,
R_Base_X_Back,False,1,robot,2,True,False,robot_stimuli\R_Base_X_Back.mp4,2,0,0,0,0,0,27,27,27,,,,,,,,,,,,,1316.3921889,1316.3921889,space,6.120635800000201,1322.5367033,1323.651503,,1323.651503,1323.651503,1323.651503,,None,1327.2831147,1327.2831147,1327.2831147,1327.2831147,1327.2831147,1327.2831147,1327.2831147,1327.2831147,None,None,None,,,,,1323.651503,,,,,,,,,,,,,,,,,,2,001,2024-05-27_15h22.40.989,robot_nback_sign,2022.2.5,59.99872802696631,
L_Torso_Z_For,False,1,robot,2,False,False,robot_stimuli\L_Torso_Z_For.mp4,2,0,0,0,0,0,28,28,28,,,,,,,,,,,,,1327.2831147,1327.2831147,None,,1327.2831147,1328.3844368,,1328.3844368,1328.3844368,1328.3844368,,None,1332.0366223,1332.0366223,1332.0366223,1332.0366223,1332.0366223,1332.0366223,1332.0366223,1332.0366223,None,None,None,1327.2831147,1327.2831147,,,1328.3844368,,,,,,,,,,,,,,,,,,2,001,2024-05-27_15h22.40.989,robot_nback_sign,2022.2.5,59.99872802696631,
L_Torso_Z_For,True,1,robot,2,False,False,robot_stimuli\L_Torso_Z_For.mp4,2,0,0,0,0,0,29,29,29,,,,,,,,,,,,,1332.0366223,1332.0366223,None,,1332.0366223,1333.1282315,,1333.1282315,1333.1282315,1333.1282315,,c,1336.771265,1336.771265,1336.771265,1336.771265,1336.771265,1336.771265,1336.771265,1336.771265,None,None,None,1332.0366223,1332.0366223,2.537374999999912,,1333.1282315,,,,,,,,,,,,,,,,,,2,001,2024-05-27_15h22.40.989,robot_nback_sign,2022.2.5,59.99872802696631,
L_Torso_Z_For,True,1,robot,2,False,False,robot_stimuli\L_Torso_Z_For.mp4,2,0,0,0,0,0,30,30,30,,,,,,,,,,,,,1336.771265,1336.771265,None,,1336.771265,,,1337.8769786,1337.8769786,1337.8769786,,c,1341.5198648,1341.5198648,1341.5198648,1341.5198648,1341.5198648,1341.5198648,1341.5198648,1341.5198648,None,None,None,1336.771265,1336.771265,2.595898300000073,,1337.8769786,,,,,,,,,,,,,,,,,,2,001,2024-05-27_15h22.40.989,robot_nback_sign,2022.2.5,59.99872802696631,
R_Arm_Z_Back,False,1,robot,2,False,False,robot_stimuli\R_Arm_Z_Back.mp4,2,0,0,0,0,0,31,31,31,,,,,,,,,,,,,1341.5198648,1341.5198648,None,,1341.5198648,1342.6192457,,1342.6192457,1342.6192457,1342.6192457,,n,1346.2742155,1346.2742155,1346.2742155,1346.2742155,1346.2742155,1346.2742155,1346.2742155,1346.2742155,None,None,None,1341.5198648,1341.5198648,3.2784265000000516,,1342.6192457,,,,,,,,,,,,,,,,,,2,001,2024-05-27_15h22.40.989,robot_nback_sign,2022.2.5,59.99872802696631,
L_Head_X_For,False,1,robot,2,False,False,robot_stimuli\L_Head_X_For.mp4,2,0,0,0,0,0,32,32,32,,,,,,,,,,,,,1346.2742155,1346.2742155,None,,1346.2742155,1347.3835907,,1347.3835907,1347.3835907,1347.3835907,,n,1351.0646239,1351.0646239,1351.0646239,1351.0646239,1351.0646239,1351.0646239,1351.0646239,1351.0646239,None,None,None,1346.2742155,1346.2742155,2.6584144999999637,,1347.3835907,,,,,,,,,,,,,,,,,,2,001,2024-05-27_15h22.40.989,robot_nback_sign,2022.2.5,59.99872802696631,
L_Head_X_For,True,1,robot,2,False,False,robot_stimuli\L_Head_X_For.mp4,2,0,0,0,0,0,33,33,33,,,,,,,,,,,,,1351.0646239,1351.0646239,None,,1351.0646239,1352.1504096,,1352.1504096,1352.1504096,1352.1504096,,c,1355.8386585,1355.8386585,1355.8386585,1355.8386585,1355.8386585,1355.8386585,1355.8386585,1355.8386585,None,None,None,1351.0646239,1351.0646239,3.45178039999999,,1352.1504096,,,,,,,,,,,,,,,,,,2,001,2024-05-27_15h22.40.989,robot_nback_sign,2022.2.5,59.99872802696631,
L_Torso_Z_Back,False,1,robot,2,False,False,robot_stimuli\L_Torso_Z_Back.mp4,2,0,0,0,0,0,34,34,34,,,,,,,,,,,,,1355.8386585,1355.8386585,None,,1355.8386585,,,1356.9454843,1356.9454843,1356.9454843,,None,1360.585824,1360.585824,1360.585824,1360.585824,1360.585824,1360.585824,1360.585824,1360.585824,None,None,None,1355.8386585,1355.8386585,,,1356.9454843,,,,,,,,,,,,,,,,,,2,001,2024-05-27_15h22.40.989,robot_nback_sign,2022.2.5,59.99872802696631,
R_Base_Y_For,False,1,robot,2,False,True,robot_stimuli\R_Base_Y_For.mp4,2,0,0,0,0,0,35,35,35,,,,,,,,,,,,,1360.585824,1360.585824,None,,1360.585824,1361.6712671,,1361.6712671,1361.6712671,1361.6712671,,n,1365.3411698,1372.7472389,1365.3411698,1372.7472389,1365.3411698,1372.7472389,1365.3411698,1372.7472389,49.75308641975309,4.3133212000000185,space,1360.585824,1360.585824,3.594142200000107,7.356050699999997,1361.6712671,,,,,,,,,,,,,,,,,,2,001,2024-05-27_15h22.40.989,robot_nback_sign,2022.2.5,59.99872802696631,
L_Torso_X_Back,False,2,robot,2,True,False,robot_stimuli\L_Torso_X_Back.mp4,2,0,0,0,0,0,36,36,36,,,,,,,,,,,,,1372.7472389,1372.7472389,space,4.34176840000012,1377.120023,1378.2063787,,1378.2063787,1378.2063787,1378.2063787,,n,1381.8532495,1381.8532495,1381.8532495,1381.8532495,1381.8532495,1381.8532495,1381.8532495,1381.8532495,None,None,None,,,2.2671577999999784,,1378.2063787,,,,,,,,,,,,,,,,,,2,001,2024-05-27_15h22.40.989,robot_nback_sign,2022.2.5,59.99872802696631,
L_Torso_X_Back,False,2,robot,2,False,False,robot_stimuli\L_Torso_X_Back.mp4,2,0,0,0,0,0,37,37,37,,,,,,,,,,,,,1381.8532495,1381.8532495,None,,1381.8532495,1382.9308965,,1382.9308965,1382.9308965,1382.9308965,,n,1386.5724930000001,1386.5724930000001,1386.5724930000001,1386.5724930000001,1386.5724930000001,1386.5724930000001,1386.5724930000001,1386.5724930000001,None,None,None,1381.8532495,1381.8532495,2.8220377999998902,,1382.9308965,,,,,,,,,,,,,,,,,,2,001,2024-05-27_15h22.40.989,robot_nback_sign,2022.2.5,59.99872802696631,
L_Torso_X_Back,True,2,robot,2,False,False,robot_stimuli\L_Torso_X_Back.mp4,2,0,0,0,0,0,38,38,38,,,,,,,,,,,,,1386.5724930000001,1386.5724930000001,None,,1386.5724930000001,,,1387.6644475,1387.6644475,1387.6644475,,c,1391.2980541,1391.2980541,1391.2980541,1391.2980541,1391.2980541,1391.2980541,1391.2980541,1391.2980541,None,None,None,1386.5724930000001,1386.5724930000001,1.8017863000000318,,1387.6644475,,,,,,,,,,,,,,,,,,2,001,2024-05-27_15h22.40.989,robot_nback_sign,2022.2.5,59.99872802696631,
L_Torso_X_Back,True,2,robot,2,False,False,robot_stimuli\L_Torso_X_Back.mp4,2,0,0,0,0,0,39,39,39,,,,,,,,,,,,,1391.2980541,1391.2980541,None,,1391.2980541,1392.3978281,,1392.3978281,1392.3978281,1392.3978281,,c,1396.0404689,1396.0404689,1396.0404689,1396.0404689,1396.0404689,1396.0404689,1396.0404689,1396.0404689,None,None,None,1391.2980541,1391.2980541,3.220113899999916,,1392.3978281,,,,,,,,,,,,,,,,,,2,001,2024-05-27_15h22.40.989,robot_nback_sign,2022.2.5,59.99872802696631,
R_Head_Y_Back,False,2,robot,2,False,False,robot_stimuli\R_Head_Y_Back.mp4,2,0,0,0,0,0,40,40,40,,,,,,,,,,,,,1396.0404689,1396.0404689,None,,1396.0404689,1397.1473576,,1397.1473576,1397.1473576,1397.1473576,,n,1400.7862003,1400.7862003,1400.7862003,1400.7862003,1400.7862003,1400.7862003,1400.7862003,1400.7862003,None,None,None,1396.0404689,1396.0404689,1.0873323000000994,,1397.1473576,,,,,,,,,,,,,,,,,,2,001,2024-05-27_15h22.40.989,robot_nback_sign,2022.2.5,59.99872802696631,
L_Torso_Z_Back,False,2,robot,2,False,False,robot_stimuli\L_Torso_Z_Back.mp4,2,0,0,0,0,0,41,41,41,,,,,,,,,,,,,1400.7862003,1400.7862003,None,,1400.7862003,1401.8710634000001,,1401.8710634000001,1401.8710634000001,1401.8710634000001,,n,1405.5205865,1405.5205865,1405.5205865,1405.5205865,1405.5205865,1405.5205865,1405.5205865,1405.5205865,None,None,None,1400.7862003,1400.7862003,3.026647200000099,,1401.8710634000001,,,,,,,,,,,,,,,,,,2,001,2024-05-27_15h22.40.989,robot_nback_sign,2022.2.5,59.99872802696631,
R_Arm_X_Back,False,2,robot,2,False,False,robot_stimuli\R_Arm_X_Back.mp4,2,0,0,0,0,0,42,42,42,,,,,,,,,,,,,1405.5205865,1405.5205865,None,,1405.5205865,1406.6032706,,1406.6032706,1406.6032706,1406.6032706,,n,1410.2537241,1410.2537241,1410.2537241,1410.2537241,1410.2537241,1410.2537241,1410.2537241,1410.2537241,None,None,None,1405.5205865,1405.5205865,1.89474229999999,,1406.6032706,,,,,,,,,,,,,,,,,,2,001,2024-05-27_15h22.40.989,robot_nback_sign,2022.2.5,59.99872802696631,
R_Head_Z_Back,False,2,robot,2,False,False,robot_stimuli\R_Head_Z_Back.mp4,2,0,0,0,0,0,43,43,43,,,,,,,,,,,,,1410.2537241,1410.2537241,None,,1410.2537241,1411.3372853,,1411.3372853,1411.3372853,1411.3372853,,None,1414.9800018,1414.9800018,1414.9800018,1414.9800018,1414.9800018,1414.9800018,1414.9800018,1414.9800018,None,None,None,1410.2537241,1410.2537241,,,1411.3372853,,,,,,,,,,,,,,,,,,2,001,2024-05-27_15h22.40.989,robot_nback_sign,2022.2.5,59.99872802696631,
R_Arm_X_Back,True,2,robot,2,False,True,robot_stimuli\R_Arm_X_Back.mp4,2,0,0,0,0,0,44,44,44,,,,,,,,,,,,,1414.9800018,1414.9800018,None,,1414.9800018,1416.070296,,1416.070296,1416.070296,1416.070296,,c,1419.7496159,1424.1977436,1419.7496159,1424.1977436,1419.7496159,1424.1977436,1419.7496159,1424.1977436,40.956790123456784,4.301030999999966,space,1414.9800018,1414.9800018,1.715317499999884,4.395598000000092,1416.070296,,,,,,,,,,,,,,,,,,2,001,2024-05-27_15h22.40.989,robot_nback_sign,2022.2.5,59.99872802696631,
R_Torso_Y_For,False,3,robot,2,True,False,robot_stimuli\R_Torso_Y_For.mp4,2,0,0,0,0,0,45,45,45,,,,,,,,,,,,,1424.1977436,1424.1977436,space,0.9472919999998624,1425.1702375,1426.2541428,,1426.2541428,1426.2541428,1426.2541428,,n,1429.9026531,1429.9026531,1429.9026531,1429.9026531,1429.9026531,1429.9026531,1429.9026531,1429.9026531,None,None,None,,,1.9628252999998779,,1426.2541428,,,,,,,,,,,,,,,,,,2,001,2024-05-27_15h22.40.989,robot_nback_sign,2022.2.5,59.99872802696631,
R_Base_Z_For,False,3,robot,2,False,False,robot_stimuli\R_Base_Z_For.mp4,2,0,0,0,0,0,46,46,46,,,,,,,,,,,,,1429.9026531,1429.9026531,None,,1429.9026531,1430.9874736,,1430.9874736,1430.9874736,1430.9874736,,n,1434.6375579,1434.6375579,1434.6375579,1434.6375579,1434.6375579,1434.6375579,1434.6375579,1434.6375579,None,None,None,1429.9026531,1429.9026531,2.3976940000000297,,1430.9874736,,,,,,,,,,,,,,,,,,2,001,2024-05-27_15h22.40.989,robot_nback_sign,2022.2.5,59.99872802696631,
L_Base_Y_For,False,3,robot,2,False,False,robot_stimuli\L_Base_Y_For.mp4,2,0,0,0,0,0,47,47,47,,,,,,,,,,,,,1434.6375579,1434.6375579,None,,1434.6375579,1435.7205133,,1435.7205133,1435.7205133,1435.7205133,,n,1439.3720217,1439.3720217,1439.3720217,1439.3720217,1439.3720217,1439.3720217,1439.3720217,1439.3720217,None,None,None,1434.6375579,1434.6375579,2.961989000000159,,1435.7205133,,,,,,,,,,,,,,,,,,2,001,2024-05-27_15h22.40.989,robot_nback_sign,2022.2.5,59.99872802696631,
R_Torso_Y_For,True,3,robot,2,False,False,robot_stimuli\R_Torso_Y_For.mp4,2,0,0,0,0,0,48,48,48,,,,,,,,,,,,,1439.3720217,1439.3720217,None,,1439.3720217,,,1440.4695173,1440.4695173,1440.4695173,,c,1444.1202097,1444.1202097,1444.1202097,1444.1202097,1444.1202097,1444.1202097,1444.1202097,1444.1202097,None,None,None,1439.3720217,1439.3720217,2.6128703000001963,,1440.4695173,,,,,,,,,,,,,,,,,,2,001,2024-05-27_15h22.40.989,robot_nback_sign,2022.2.5,59.99872802696631,
R_Base_Z_For,True,3,robot,2,False,False,robot_stimuli\R_Base_Z_For.mp4,2,0,0,0,0,0,49,49,49,,,,,,,,,,,,,1444.1202097,1444.1202097,None,,1444.1202097,1445.2002504,,1445.2002504,1445.2002504,1445.2002504,,c,1448.8533778,1448.8533778,1448.8533778,1448.8533778,1448.8533778,1448.8533778,1448.8533778,1448.8533778,None,None,None,1444.1202097,1444.1202097,2.4900024999999744,,1445.2002504,,,,,,,,,,,,,,,,,,2,001,2024-05-27_15h22.40.989,robot_nback_sign,2022.2.5,59.99872802696631,
R_Head_X_Back,False,3,robot,2,False,False,robot_stimuli\R_Head_X_Back.mp4,2,0,0,0,0,0,50,50,50,,,,,,,,,,,,,1448.8533778,1448.8533778,None,,1448.8533778,1449.9472853,,1449.9472853,1449.9472853,1449.9472853,,n,1453.5853361,1453.5853361,1453.5853361,1453.5853361,1453.5853361,1453.5853361,1453.5853361,1453.5853361,None,None,None,1448.8533778,1448.8533778,1.4786777000001905,,1449.9472853,,,,,,,,,,,,,,,,,,2,001,2024-05-27_15h22.40.989,robot_nback_sign,2022.2.5,59.99872802696631,
L_Torso_X_For,False,3,robot,2,False,False,robot_stimuli\L_Torso_X_For.mp4,2,0,0,0,0,0,51,51,51,,,,,,,,,,,,,1453.5853361,1453.5853361,None,,1453.5853361,1454.6659229,,1454.6659229,1454.6659229,1454.6659229,,n,1458.3050716,1458.3050716,1458.3050716,1458.3050716,1458.3050716,1458.3050716,1458.3050716,1458.3050716,None,None,None,1453.5853361,1453.5853361,2.9593058000000667,,1454.6659229,,,,,,,,,,,,,,,,,,2,001,2024-05-27_15h22.40.989,robot_nback_sign,2022.2.5,59.99872802696631,
L_Torso_X_Back,False,3,robot,2,False,False,robot_stimuli\L_Torso_X_Back.mp4,2,0,0,0,0,0,52,52,52,,,,,,,,,,,,,1458.3050716,1458.3050716,None,,1458.3050716,,,1459.4007594,1459.4007594,1459.4007594,,None,1463.0528055,1463.0528055,1463.0528055,1463.0528055,1463.0528055,1463.0528055,1463.0528055,1463.0528055,None,None,None,1458.3050716,1458.3050716,,,1459.4007594,,,,,,,,,,,,,,,,,,2,001,2024-05-27_15h22.40.989,robot_nback_sign,2022.2.5,59.99872802696631,
R_Head_X_Back,True,3,robot,2,False,True,robot_stimuli\R_Head_X_Back.mp4,2,0,0,0,0,0,53,53,53,,,,,,,,,,,,,1463.0528055,1463.0528055,None,,1463.0528055,1464.1378634,,1464.1378634,1464.1378634,1464.1378634,,c,1467.8176151,1470.8685888,1467.8176151,1470.8685888,1467.8176151,1470.8685888,1467.8176151,1470.8685888,50.21604938271606,1.963642899999968,space,1463.0528055,1463.0528055,2.4879979000000105,2.983453200000014,1464.1378634,,,,,,,,,,,,,,,,,,2,001,2024-05-27_15h22.40.989,robot_nback_sign,2022.2.5,59.99872802696631,
,,,,,,,,,0,0,0,0,,,,,,,,,,,,,,,,,,,,,,,,,,,,,,,,,,,,,,,,,,,,,1470.8685888,1470.8685888,1470.8685888,c,4.709434899999934,,,,,,,,,,,,,2,001,2024-05-27_15h22.40.989,robot_nback_sign,2022.2.5,59.99872802696631,
G,False,3,letter,1,True,False,robot_stimuli\\filler.mp4,2,,,,,,,,,0,0,0,0,,,,,,,,,,,,,1479.1703915,1480.228929,,,,,,,1482.4500892,1482.4500892,1482.4500892,1482.4500892,1482.4500892,1482.4500892,1482.4500892,1482.4500892,None,None,None,,,,,,,,,,,1475.6572115000001,1475.6572115000001,space,3.4812801999999294,1480.228929,1480.228929,1482.4500892,None,,,,,2,001,2024-05-27_15h22.40.989,robot_nback_sign,2022.2.5,59.99872802696631,
G,False,3,letter,1,False,False,robot_stimuli\\filler.mp4,2,,,,,,,,,0,1,1,1,,,,,,,,,,,,,1482.4500892,1483.5062006,,,,,,,1485.5417508,1485.5417508,1485.5417508,1485.5417508,1485.5417508,1485.5417508,1485.5417508,1485.5417508,None,None,None,,,,,,,,,,,1482.4500892,1482.4500892,None,,1483.5062006,1483.5062006,1485.5417508,c,1482.4500892,1482.4500892,1.5041412000000776,,2,001,2024-05-27_15h22.40.989,robot_nback_sign,2022.2.5,59.99872802696631,
Q,False,3,letter,1,False,False,robot_stimuli\\filler.mp4,2,,,,,,,,,0,2,2,2,,,,,,,,,,,,,1485.5417508,1486.6103351,,,,,,,1488.8401165,1488.8401165,1488.8401165,1488.8401165,1488.8401165,1488.8401165,1488.8401165,1488.8401165,None,None,None,,,,,,,,,,,1485.5417508,1485.5417508,None,,1486.6103351,1486.6103351,1488.8401165,None,1485.5417508,1485.5417508,,,2,001,2024-05-27_15h22.40.989,robot_nback_sign,2022.2.5,59.99872802696631,
R,False,3,letter,1,False,False,robot_stimuli\\filler.mp4,2,,,,,,,,,0,3,3,3,,,,,,,,,,,,,1488.8401165,,,,,,,,1491.9510043,1491.9510043,1491.9510043,1491.9510043,1491.9510043,1491.9510043,1491.9510043,1491.9510043,None,None,None,,,,,,,,,,,1488.8401165,1488.8401165,None,,1489.920714,1489.920714,1491.9510043,None,1488.8401165,1488.8401165,,,2,001,2024-05-27_15h22.40.989,robot_nback_sign,2022.2.5,59.99872802696631,
F,False,3,letter,1,False,False,robot_stimuli\\filler.mp4,2,,,,,,,,,0,4,4,4,,,,,,,,,,,,,1491.9510043,1493.0217336,,,,,,,1495.2512351,1495.2512351,1495.2512351,1495.2512351,1495.2512351,1495.2512351,1495.2512351,1495.2512351,None,None,None,,,,,,,,,,,1491.9510043,1491.9510043,None,,1493.0217336,1493.0217336,1495.2512351,n,1491.9510043,1491.9510043,1.5242448000001616,,2,001,2024-05-27_15h22.40.989,robot_nback_sign,2022.2.5,59.99872802696631,
K,False,3,letter,1,False,False,robot_stimuli\\filler.mp4,2,,,,,,,,,0,5,5,5,,,,,,,,,,,,,1495.2512351,1496.3121371,,,,,,,1498.3416745,1498.3416745,1498.3416745,1498.3416745,1498.3416745,1498.3416745,1498.3416745,1498.3416745,None,None,None,,,,,,,,,,,1495.2512351,1495.2512351,None,,1496.3121371,1496.3121371,1498.3416745,n,1495.2512351,1495.2512351,1.4005999999999688,,2,001,2024-05-27_15h22.40.989,robot_nback_sign,2022.2.5,59.99872802696631,
M,False,3,letter,1,False,False,robot_stimuli\\filler.mp4,2,,,,,,,,,0,6,6,6,,,,,,,,,,,,,1498.3416745,1499.4097162,,,,,,,1501.6307589,1501.6307589,1501.6307589,1501.6307589,1501.6307589,1501.6307589,1501.6307589,1501.6307589,None,None,None,,,,,,,,,,,1498.3416745,1498.3416745,None,,1499.4097162,1499.4097162,1501.6307589,None,1498.3416745,1498.3416745,,,2,001,2024-05-27_15h22.40.989,robot_nback_sign,2022.2.5,59.99872802696631,
H,False,3,letter,1,False,False,robot_stimuli\\filler.mp4,2,,,,,,,,,0,7,7,7,,,,,,,,,,,,,1501.6307589,1502.6901381,,,,,,,1504.9166779,1504.9166779,1504.9166779,1504.9166779,1504.9166779,1504.9166779,1504.9166779,1504.9166779,None,None,None,,,,,,,,,,,1501.6307589,1501.6307589,None,,1502.6901381,1502.6901381,1504.9166779,None,1501.6307589,1501.6307589,,,2,001,2024-05-27_15h22.40.989,robot_nback_sign,2022.2.5,59.99872802696631,
K,True,3,letter,1,False,False,robot_stimuli\\filler.mp4,2,,,,,,,,,0,8,8,8,,,,,,,,,,,,,1504.9166779,1505.9774957,,,,,,,1508.0035699,1508.0035699,1508.0035699,1508.0035699,1508.0035699,1508.0035699,1508.0035699,1508.0035699,None,None,None,,,,,,,,,,,1504.9166779,1504.9166779,None,,1505.9774957,1505.9774957,1508.0035699,c,1504.9166779,1504.9166779,1.72128990000013,,2,001,2024-05-27_15h22.40.989,robot_nback_sign,2022.2.5,59.99872802696631,
M,True,3,letter,1,False,False,robot_stimuli\\filler.mp4,2,,,,,,,,,0,9,9,9,,,,,,,,,,,,,1508.0035699,1509.0570091,,,,,,,1511.0853318,1511.0853318,1511.0853318,1511.0853318,1511.0853318,1511.0853318,1511.0853318,1511.0853318,None,None,None,,,,,,,,,,,1508.0035699,1508.0035699,None,,1509.0570091,1509.0570091,1511.0853318,c,1508.0035699,1508.0035699,1.7537475000001734,,2,001,2024-05-27_15h22.40.989,robot_nback_sign,2022.2.5,59.99872802696631,
F,False,3,letter,1,False,False,robot_stimuli\\filler.mp4,2,,,,,,,,,0,10,10,10,,,,,,,,,,,,,1511.0853318,1512.1438505,,,,,,,1514.1730802,1514.1730802,1514.1730802,1514.1730802,1514.1730802,1514.1730802,1514.1730802,1514.1730802,None,None,None,,,,,,,,,,,1511.0853318,1511.0853318,None,,1512.1438505,1512.1438505,1514.1730802,n,1511.0853318,1511.0853318,1.2897875999999826,,2,001,2024-05-27_15h22.40.989,robot_nback_sign,2022.2.5,59.99872802696631,
B,False,3,letter,1,False,False,robot_stimuli\\filler.mp4,2,,,,,,,,,0,11,11,11,,,,,,,,,,,,,1514.1730802,,,,,,,,1517.4680261,1517.4680261,1517.4680261,1517.4680261,1517.4680261,1517.4680261,1517.4680261,1517.4680261,None,None,None,,,,,,,,,,,1514.1730802,1514.1730802,None,,1515.2399256,1515.2399256,1517.4680261,n,1514.1730802,1514.1730802,0.8184853000000487,,2,001,2024-05-27_15h22.40.989,robot_nback_sign,2022.2.5,59.99872802696631,
M,True,3,letter,1,False,False,robot_stimuli\\filler.mp4,2,,,,,,,,,0,12,12,12,,,,,,,,,,,,,1517.4680261,1518.5316158,,,,,,,1520.5562141,1520.5562141,1520.5562141,1520.5562141,1520.5562141,1520.5562141,1520.5562141,1520.5562141,None,None,None,,,,,,,,,,,1517.4680261,1517.4680261,None,,1518.5316158,1518.5316158,1520.5562141,c,1517.4680261,1517.4680261,1.0544162000001336,,2,001,2024-05-27_15h22.40.989,robot_nback_sign,2022.2.5,59.99872802696631,
D,False,3,letter,1,False,False,robot_stimuli\\filler.mp4,2,,,,,,,,,0,13,13,13,,,,,,,,,,,,,1520.5562141,,,,,,,,1523.6595347,1523.6595347,1523.6595347,1523.6595347,1523.6595347,1523.6595347,1523.6595347,1523.6595347,None,None,None,,,,,,,,,,,1520.5562141,1520.5562141,None,,1521.6336637,1521.6336637,1523.6595347,n,1520.5562141,1520.5562141,0.8879239000000609,,2,001,2024-05-27_15h22.40.989,robot_nback_sign,2022.2.5,59.99872802696631,
L,False,3,letter,1,False,False,robot_stimuli\\filler.mp4,2,,,,,,,,,0,14,14,14,,,,,,,,,,,,,1523.6595347,1524.7282325,,,,,,,1526.9532528,1526.9532528,1526.9532528,1526.9532528,1526.9532528,1526.9532528,1526.9532528,1526.9532528,None,None,None,,,,,,,,,,,1523.6595347,1523.6595347,None,,1524.7282325,1524.7282325,1526.9532528,n,1523.6595347,1523.6595347,0.8171772999999405,,2,001,2024-05-27_15h22.40.989,robot_nback_sign,2022.2.5,59.99872802696631,
J,False,3,letter,1,False,False,robot_stimuli\\filler.mp4,2,,,,,,,,,0,15,15,15,,,,,,,,,,,,,1526.9532528,1528.0089099,,,,,,,1530.0389009,1530.0389009,1530.0389009,1530.0389009,1530.0389009,1530.0389009,1530.0389009,1530.0389009,None,None,None,,,,,,,,,,,1526.9532528,1526.9532528,None,,1528.0089099,1528.0089099,1530.0389009,n,1526.9532528,1526.9532528,0.7534643000001608,,2,001,2024-05-27_15h22.40.989,robot_nback_sign,2022.2.5,59.99872802696631,
B,False,3,letter,1,False,False,robot_stimuli\\filler.mp4,2,,,,,,,,,0,16,16,16,,,,,,,,,,,,,1530.0389009,,,,,,,,1533.1320577000001,1533.1320577000001,1533.1320577000001,1533.1320577000001,1533.1320577000001,1533.1320577000001,1533.1320577000001,1533.1320577000001,None,None,None,,,,,,,,,,,1530.0389009,1530.0389009,None,,1531.11022,1531.11022,1533.1320577000001,c,1530.0389009,1530.0389009,1.3228750000000957,,2,001,2024-05-27_15h22.40.989,robot_nback_sign,2022.2.5,59.99872802696631,
Z,False,3,letter,1,False,False,robot_stimuli\\filler.mp4,2,,,,,,,,,0,17,17,17,,,,,,,,,,,,,1533.1320577000001,1534.1926476,,,,,,,1536.4121406,1536.4121406,1536.4121406,1536.4121406,1536.4121406,1536.4121406,1536.4121406,1536.4121406,None,None,None,,,,,,,,,,,1533.1320577000001,1533.1320577000001,None,,1534.1926476,1534.1926476,1536.4121406,n,1533.1320577000001,1533.1320577000001,0.9379016999999124,,2,001,2024-05-27_15h22.40.989,robot_nback_sign,2022.2.5,59.99872802696631,
J,True,3,letter,1,False,False,robot_stimuli\\filler.mp4,2,,,,,,,,,0,18,18,18,,,,,,,,,,,,,1536.4121406,1537.4777256,,,,,,,1539.5025761,1539.5025761,1539.5025761,1539.5025761,1539.5025761,1539.5025761,1539.5025761,1539.5025761,None,None,None,,,,,,,,,,,1536.4121406,1536.4121406,None,,1537.4777256,1537.4777256,1539.5025761,c,1536.4121406,1536.4121406,1.1652043000001697,,2,001,2024-05-27_15h22.40.989,robot_nback_sign,2022.2.5,59.99872802696631,
K,False,3,letter,1,False,False,robot_stimuli\\filler.mp4,2,,,,,,,,,0,19,19,19,,,,,,,,,,,,,1539.5025761,1540.5585858,,,,,,,1542.7893434,1542.7893434,1542.7893434,1542.7893434,1542.7893434,1542.7893434,1542.7893434,1542.7893434,None,None,None,,,,,,,,,,,1539.5025761,1539.5025761,None,,1540.5585858,1540.5585858,1542.7893434,n,1539.5025761,1539.5025761,0.9864741000001516,,2,001,2024-05-27_15h22.40.989,robot_nback_sign,2022.2.5,59.99872802696631,
N,False,3,letter,1,False,False,robot_stimuli\\filler.mp4,2,,,,,,,,,0,20,20,20,,,,,,,,,,,,,1542.7893434,,,,,,,,1546.0889695,1546.0889695,1546.0889695,1546.0889695,1546.0889695,1546.0889695,1546.0889695,1546.0889695,None,None,None,,,,,,,,,,,1542.7893434,1542.7893434,None,,1543.8603051,1543.8603051,1546.0889695,n,1542.7893434,1542.7893434,0.8218414999999197,,2,001,2024-05-27_15h22.40.989,robot_nback_sign,2022.2.5,59.99872802696631,
B,False,3,letter,1,False,False,robot_stimuli\\filler.mp4,2,,,,,,,,,0,21,21,21,,,,,,,,,,,,,1546.0889695,,,,,,,,1549.3896126,1549.3896126,1549.3896126,1549.3896126,1549.3896126,1549.3896126,1549.3896126,1549.3896126,None,None,None,,,,,,,,,,,1546.0889695,1546.0889695,None,,1547.1566109,1547.1566109,1549.3896126,n,1546.0889695,1546.0889695,0.7169873000000564,,2,001,2024-05-27_15h22.40.989,robot_nback_sign,2022.2.5,59.99872802696631,
R,False,3,letter,1,False,False,robot_stimuli\\filler.mp4,2,,,,,,,,,0,22,22,22,,,,,,,,,,,,,1549.3896126,,,,,,,,1552.4880872,1552.4880872,1552.4880872,1552.4880872,1552.4880872,1552.4880872,1552.4880872,1552.4880872,None,None,None,,,,,,,,,,,1549.3896126,1549.3896126,None,,1550.461555,1550.461555,1552.4880872,n,1549.3896126,1549.3896126,0.8436703999998656,,2,001,2024-05-27_15h22.40.989,robot_nback_sign,2022.2.5,59.99872802696631,
S,False,3,letter,1,False,False,robot_stimuli\\filler.mp4,2,,,,,,,,,0,23,23,23,,,,,,,,,,,,,1552.4880872,,,,,,,,1555.584548,1555.584548,1555.584548,1555.584548,1555.584548,1555.584548,1555.584548,1555.584548,None,None,None,,,,,,,,,,,1552.4880872,1552.4880872,None,,1553.5650914,1553.5650914,1555.584548,n,1552.4880872,1552.4880872,1.2856911000001503,,2,001,2024-05-27_15h22.40.989,robot_nback_sign,2022.2.5,59.99872802696631,
B,True,3,letter,1,False,False,robot_stimuli\\filler.mp4,2,,,,,,,,,0,24,24,24,,,,,,,,,,,,,1555.584548,1556.6409692,,,,,,,1558.6747539,1558.6747539,1558.6747539,1558.6747539,1558.6747539,1558.6747539,1558.6747539,1558.6747539,None,None,None,,,,,,,,,,,1555.584548,1555.584548,None,,1556.6409692,1556.6409692,1558.6747539,c,1555.584548,1555.584548,1.1921653000001982,,2,001,2024-05-27_15h22.40.989,robot_nback_sign,2022.2.5,59.99872802696631,
P,False,3,letter,1,False,False,robot_stimuli\\filler.mp4,2,,,,,,,,,0,25,25,25,,,,,,,,,,,,,1558.6747539,1559.7444146,,,,,,,1561.7706251,1561.7706251,1561.7706251,1561.7706251,1561.7706251,1561.7706251,1561.7706251,1561.7706251,None,None,None,,,,,,,,,,,1558.6747539,1558.6747539,None,,1559.7444146,1559.7444146,1561.7706251,n,1558.6747539,1558.6747539,1.3934921000000315,,2,001,2024-05-27_15h22.40.989,robot_nback_sign,2022.2.5,59.99872802696631,
S,True,3,letter,1,False,False,robot_stimuli\\filler.mp4,2,,,,,,,,,0,26,26,26,,,,,,,,,,,,,1561.7706251,1562.8355449,,,,,,,1564.8594983,1564.8594983,1564.8594983,1564.8594983,1564.8594983,1564.8594983,1564.8594983,1564.8594983,None,None,None,,,,,,,,,,,1561.7706251,1561.7706251,None,,1562.8355449,1562.8355449,1564.8594983,c,1561.7706251,1561.7706251,1.3662750000001154,,2,001,2024-05-27_15h22.40.989,robot_nback_sign,2022.2.5,59.99872802696631,
Z,False,3,letter,1,False,False,robot_stimuli\\filler.mp4,2,,,,,,,,,0,27,27,27,,,,,,,,,,,,,1564.8594983,1565.9237727,,,,,,,1567.9569978,1567.9569978,1567.9569978,1567.9569978,1567.9569978,1567.9569978,1567.9569978,1567.9569978,None,None,None,,,,,,,,,,,1564.8594983,1564.8594983,None,,1565.9237727,1565.9237727,1567.9569978,n,1564.8594983,1564.8594983,1.2385279999998886,,2,001,2024-05-27_15h22.40.989,robot_nback_sign,2022.2.5,59.99872802696631,
G,False,3,letter,1,False,False,robot_stimuli\\filler.mp4,2,,,,,,,,,0,28,28,28,,,,,,,,,,,,,1567.9569978,,,,,,,,1571.0585925,1571.0585925,1571.0585925,1571.0585925,1571.0585925,1571.0585925,1571.0585925,1571.0585925,None,None,None,,,,,,,,,,,1567.9569978,1567.9569978,None,,1569.0367556,1569.0367556,1571.0585925,None,1567.9569978,1567.9569978,,,2,001,2024-05-27_15h22.40.989,robot_nback_sign,2022.2.5,59.99872802696631,
S,True,3,letter,1,False,False,robot_stimuli\\filler.mp4,2,,,,,,,,,0,29,29,29,,,,,,,,,,,,,1571.0585925,1572.1237209,,,,,,,1574.1563368,1574.1563368,1574.1563368,1574.1563368,1574.1563368,1574.1563368,1574.1563368,1574.1563368,None,None,None,,,,,,,,,,,1571.0585925,1571.0585925,None,,1572.1237209,1572.1237209,1574.1563368,c,1571.0585925,1571.0585925,1.062175999999937,,2,001,2024-05-27_15h22.40.989,robot_nback_sign,2022.2.5,59.99872802696631,
Z,True,3,letter,1,False,False,robot_stimuli\\filler.mp4,2,,,,,,,,,0,30,30,30,,,,,,,,,,,,,1574.1563368,,,,,,,,1577.2508097,1577.2508097,1577.2508097,1577.2508097,1577.2508097,1577.2508097,1577.2508097,1577.2508097,None,None,None,,,,,,,,,,,1574.1563368,1574.1563368,None,,1575.2250537,1575.2250537,1577.2508097,None,1574.1563368,1574.1563368,,,2,001,2024-05-27_15h22.40.989,robot_nback_sign,2022.2.5,59.99872802696631,
J,False,3,letter,1,False,False,robot_stimuli\\filler.mp4,2,,,,,,,,,0,31,31,31,,,,,,,,,,,,,1577.2508097,1578.3072088000001,,,,,,,1580.3405917,1580.3405917,1580.3405917,1580.3405917,1580.3405917,1580.3405917,1580.3405917,1580.3405917,None,None,None,,,,,,,,,,,1577.2508097,1577.2508097,None,,1578.3072088000001,1578.3072088000001,1580.3405917,n,1577.2508097,1577.2508097,1.84660379999994,,2,001,2024-05-27_15h22.40.989,robot_nback_sign,2022.2.5,59.99872802696631,
S,True,3,letter,1,False,False,robot_stimuli\\filler.mp4,2,,,,,,,,,0,32,32,32,,,,,,,,,,,,,1580.3405917,1581.4078703,,,,,,,1583.4382398,1583.4382398,1583.4382398,1583.4382398,1583.4382398,1583.4382398,1583.4382398,1583.4382398,None,None,None,,,,,,,,,,,1580.3405917,1580.3405917,None,,1581.4078703,1581.4078703,1583.4382398,None,1580.3405917,1580.3405917,,,2,001,2024-05-27_15h22.40.989,robot_nback_sign,2022.2.5,59.99872802696631,
G,False,3,letter,1,False,False,robot_stimuli\\filler.mp4,2,,,,,,,,,0,33,33,33,,,,,,,,,,,,,1583.4382398,,,,,,,,1586.7367355000001,1586.7367355000001,1586.7367355000001,1586.7367355000001,1586.7367355000001,1586.7367355000001,1586.7367355000001,1586.7367355000001,None,None,None,,,,,,,,,,,1583.4382398,1583.4382398,None,,1584.5065691,1584.5065691,1586.7367355000001,n,1583.4382398,1583.4382398,1.7604472000000726,,2,001,2024-05-27_15h22.40.989,robot_nback_sign,2022.2.5,59.99872802696631,
R,False,3,letter,1,False,False,robot_stimuli\\filler.mp4,2,,,,,,,,,0,34,34,34,,,,,,,,,,,,,1586.7367355000001,1587.7916616,,,,,,,1589.8273246,1589.8273246,1589.8273246,1589.8273246,1589.8273246,1589.8273246,1589.8273246,1589.8273246,None,None,None,,,,,,,,,,,1586.7367355000001,1586.7367355000001,None,,1587.7916616,1587.7916616,1589.8273246,n,1586.7367355000001,1586.7367355000001,1.2099078999999904,,2,001,2024-05-27_15h22.40.989,robot_nback_sign,2022.2.5,59.99872802696631,
S,True,3,letter,1,False,False,robot_stimuli\\filler.mp4,2,,,,,,,,,0,35,35,35,,,,,,,,,,,,,1589.8273246,1590.8929268,,,,,,,1592.9266646,1592.9266646,1592.9266646,1592.9266646,1592.9266646,1592.9266646,1592.9266646,1592.9266646,None,None,None,,,,,,,,,,,1589.8273246,1589.8273246,None,,1590.8929268,1590.8929268,1592.9266646,c,1589.8273246,1589.8273246,1.141190600000101,,2,001,2024-05-27_15h22.40.989,robot_nback_sign,2022.2.5,59.99872802696631,
X,False,3,letter,1,False,False,robot_stimuli\\filler.mp4,2,,,,,,,,,0,36,36,36,,,,,,,,,,,,,1592.9266646,1594.0005651000001,,,,,,,1596.0255224,1596.0255224,1596.0255224,1596.0255224,1596.0255224,1596.0255224,1596.0255224,1596.0255224,None,None,None,,,,,,,,,,,1592.9266646,1592.9266646,None,,1594.0005651000001,1594.0005651000001,1596.0255224,n,1592.9266646,1592.9266646,0.7048482000000433,,2,001,2024-05-27_15h22.40.989,robot_nback_sign,2022.2.5,59.99872802696631,
J,False,3,letter,1,False,False,robot_stimuli\\filler.mp4,2,,,,,,,,,0,37,37,37,,,,,,,,,,,,,1596.0255224,1597.0894649,,,,,,,1599.3169973000001,1599.3169973000001,1599.3169973000001,1599.3169973000001,1599.3169973000001,1599.3169973000001,1599.3169973000001,1599.3169973000001,None,None,None,,,,,,,,,,,1596.0255224,1596.0255224,None,,1597.0894649,1597.0894649,1599.3169973000001,n,1596.0255224,1596.0255224,1.1449851000002411,,2,001,2024-05-27_15h22.40.989,robot_nback_sign,2022.2.5,59.99872802696631,
S,True,3,letter,1,False,False,robot_stimuli\\filler.mp4,2,,,,,,,,,0,38,38,38,,,,,,,,,,,,,1599.3169973000001,1600.3742004,,,,,,,1602.4051096,1602.4051096,1602.4051096,1602.4051096,1602.4051096,1602.4051096,1602.4051096,1602.4051096,None,None,None,,,,,,,,,,,1599.3169973000001,1599.3169973000001,None,,1600.3742004,1600.3742004,1602.4051096,c,1599.3169973000001,1599.3169973000001,0.8279507999998543,,2,001,2024-05-27_15h22.40.989,robot_nback_sign,2022.2.5,59.99872802696631,
V,False,3,letter,1,False,False,robot_stimuli\\filler.mp4,2,,,,,,,,,0,39,39,39,,,,,,,,,,,,,1602.4051096,,,,,,,,1605.6988027,1605.6988027,1605.6988027,1605.6988027,1605.6988027,1605.6988027,1605.6988027,1605.6988027,None,None,None,,,,,,,,,,,1602.4051096,1602.4051096,None,,1603.4737715,1603.4737715,1605.6988027,n,1602.4051096,1602.4051096,1.0552029000000687,,2,001,2024-05-27_15h22.40.989,robot_nback_sign,2022.2.5,59.99872802696631,
C,False,3,letter,1,False,False,robot_stimuli\\filler.mp4,2,,,,,,,,,0,40,40,40,,,,,,,,,,,,,1605.6988027,1606.7575569,,,,,,,1608.7876227,1608.7876227,1608.7876227,1608.7876227,1608.7876227,1608.7876227,1608.7876227,1608.7876227,None,None,None,,,,,,,,,,,1605.6988027,1605.6988027,None,,1606.7575569,1606.7575569,1608.7876227,n,1605.6988027,1605.6988027,0.9396636000001592,,2,001,2024-05-27_15h22.40.989,robot_nback_sign,2022.2.5,59.99872802696631,
S,True,3,letter,1,False,False,robot_stimuli\\filler.mp4,2,,,,,,,,,0,41,41,41,,,,,,,,,,,,,1608.7876227,1609.839852,,,,,,,1612.0716742,1612.0716742,1612.0716742,1612.0716742,1612.0716742,1612.0716742,1612.0716742,1612.0716742,None,None,None,,,,,,,,,,,1608.7876227,1608.7876227,None,,1609.839852,1609.839852,1612.0716742,None,1608.7876227,1608.7876227,,,2,001,2024-05-27_15h22.40.989,robot_nback_sign,2022.2.5,59.99872802696631,
M,False,3,letter,1,False,False,robot_stimuli\\filler.mp4,2,,,,,,,,,0,42,42,42,,,,,,,,,,,,,1612.0716742,,,,,,,,1615.3684631,1615.3684631,1615.3684631,1615.3684631,1615.3684631,1615.3684631,1615.3684631,1615.3684631,None,None,None,,,,,,,,,,,1612.0716742,1612.0716742,None,,1613.1408821,1613.1408821,1615.3684631,None,1612.0716742,1612.0716742,,,2,001,2024-05-27_15h22.40.989,robot_nback_sign,2022.2.5,59.99872802696631,
B,False,3,letter,1,False,False,robot_stimuli\\filler.mp4,2,,,,,,,,,0,43,43,43,,,,,,,,,,,,,1615.3684631,1616.4233455,,,,,,,1618.6547905,1618.6547905,1618.6547905,1618.6547905,1618.6547905,1618.6547905,1618.6547905,1618.6547905,None,None,None,,,,,,,,,,,1615.3684631,1615.3684631,None,,1616.4233455,1616.4233455,1618.6547905,n,1615.3684631,1615.3684631,1.0915680000000805,,2,001,2024-05-27_15h22.40.989,robot_nback_sign,2022.2.5,59.99872802696631,
T,False,3,letter,1,False,False,robot_stimuli\\filler.mp4,2,,,,,,,,,0,44,44,44,,,,,,,,,,,,,1618.6547905,,,,,,,,1621.958093,1621.958093,1621.958093,1621.958093,1621.958093,1621.958093,1621.958093,1621.958093,None,None,None,,,,,,,,,,,1618.6547905,1618.6547905,None,,1619.7232625000001,1619.7232625000001,1621.958093,n,1618.6547905,1618.6547905,0.4950374000000295,,2,001,2024-05-27_15h22.40.989,robot_nback_sign,2022.2.5,59.99872802696631,
M,True,3,letter,1,False,False,robot_stimuli\\filler.mp4,2,,,,,,,,,0,45,45,45,,,,,,,,,,,,,1621.958093,1623.0226313,,,,,,,1625.257485,1625.257485,1625.257485,1625.257485,1625.257485,1625.257485,1625.257485,1625.257485,None,None,None,,,,,,,,,,,1621.958093,1621.958093,None,,1623.0226313,1623.0226313,1625.257485,None,1621.958093,1621.958093,,,2,001,2024-05-27_15h22.40.989,robot_nback_sign,2022.2.5,59.99872802696631,
G,False,3,letter,1,False,False,robot_stimuli\\filler.mp4,2,,,,,,,,,0,46,46,46,,,,,,,,,,,,,1625.257485,1626.3244416,,,,,,,1628.3564071,1628.3564071,1628.3564071,1628.3564071,1628.3564071,1628.3564071,1628.3564071,1628.3564071,None,None,None,,,,,,,,,,,1625.257485,1625.257485,None,,1626.3244416,1626.3244416,1628.3564071,n,1625.257485,1625.257485,0.9576890999999534,,2,001,2024-05-27_15h22.40.989,robot_nback_sign,2022.2.5,59.99872802696631,
Z,False,3,letter,1,False,False,robot_stimuli\\filler.mp4,2,,,,,,,,,0,47,47,47,,,,,,,,,,,,,1628.3564071,,,,,,,,1631.4502627,1631.4502627,1631.4502627,1631.4502627,1631.4502627,1631.4502627,1631.4502627,1631.4502627,None,None,None,,,,,,,,,,,1628.3564071,1628.3564071,None,,1629.4229043,1629.4229043,1631.4502627,n,1628.3564071,1628.3564071,0.6903152000000148,,2,001,2024-05-27_15h22.40.989,robot_nback_sign,2022.2.5,59.99872802696631,
Z,False,3,letter,1,False,False,robot_stimuli\\filler.mp4,2,,,,,,,,,0,48,48,48,,,,,,,,,,,,,1631.4502627,1632.5066309000001,,,,,,,1634.7399901,1634.7399901,1634.7399901,1634.7399901,1634.7399901,1634.7399901,1634.7399901,1634.7399901,None,None,None,,,,,,,,,,,1631.4502627,1631.4502627,None,,1632.5066309000001,1632.5066309000001,1634.7399901,n,1631.4502627,1631.4502627,0.991971900000209,,2,001,2024-05-27_15h22.40.989,robot_nback_sign,2022.2.5,59.99872802696631,
M,False,3,letter,1,False,False,robot_stimuli\\filler.mp4,2,,,,,,,,,0,49,49,49,,,,,,,,,,,,,1634.7399901,,,,,,,,1637.8447785,1637.8447785,1637.8447785,1637.8447785,1637.8447785,1637.8447785,1637.8447785,1637.8447785,None,None,None,,,,,,,,,,,1634.7399901,1634.7399901,None,,1635.807922,1635.807922,1637.8447785,c,1634.7399901,1634.7399901,1.473287000000056,,2,001,2024-05-27_15h22.40.989,robot_nback_sign,2022.2.5,59.99872802696631,
J,False,3,letter,1,False,False,robot_stimuli\\filler.mp4,2,,,,,,,,,0,50,50,50,,,,,,,,,,,,,1637.8447785,1638.9179602,,,,,,,1640.9488209,1640.9488209,1640.9488209,1640.9488209,1640.9488209,1640.9488209,1640.9488209,1640.9488209,None,None,None,,,,,,,,,,,1637.8447785,1637.8447785,None,,1638.9179602,1638.9179602,1640.9488209,c,1637.8447785,1637.8447785,1.195089999999965,,2,001,2024-05-27_15h22.40.989,robot_nback_sign,2022.2.5,59.99872802696631,
C,False,3,letter,1,False,False,robot_stimuli\\filler.mp4,2,,,,,,,,,0,51,51,51,,,,,,,,,,,,,1640.9488209,1642.0081114,,,,,,,1644.034898,1644.034898,1644.034898,1644.034898,1644.034898,1644.034898,1644.034898,1644.034898,None,None,None,,,,,,,,,,,1640.9488209,1640.9488209,None,,1642.0081114,1642.0081114,1644.034898,n,1640.9488209,1640.9488209,1.0348926000001768,,2,001,2024-05-27_15h22.40.989,robot_nback_sign,2022.2.5,59.99872802696631,
V,False,3,letter,1,False,False,robot_stimuli\\filler.mp4,2,,,,,,,,,0,52,52,52,,,,,,,,,,,,,1644.034898,1645.0913541,,,,,,,1647.1292546,1647.1292546,1647.1292546,1647.1292546,1647.1292546,1647.1292546,1647.1292546,1647.1292546,None,None,None,,,,,,,,,,,1644.034898,1644.034898,None,,1645.0913541,1645.0913541,1647.1292546,n,1644.034898,1644.034898,0.9748697000000277,,2,001,2024-05-27_15h22.40.989,robot_nback_sign,2022.2.5,59.99872802696631,
W,False,3,letter,1,False,False,robot_stimuli\\filler.mp4,2,,,,,,,,,0,53,53,53,,,,,,,,,,,,,1647.1292546,1648.1935206,,,,,,,1650.2228373,1650.2228373,1650.2228373,1650.2228373,1650.2228373,1650.2228373,1650.2228373,1650.2228373,None,None,None,,,,,,,,,,,1647.1292546,1647.1292546,None,,1648.1935206,1648.1935206,1650.2228373,n,1647.1292546,1647.1292546,0.8795450000000358,,2,001,2024-05-27_15h22.40.989,robot_nback_sign,2022.2.5,59.99872802696631,
V,False,3,letter,1,False,False,robot_stimuli\\filler.mp4,2,,,,,,,,,0,54,54,54,,,,,,,,,,,,,1650.2228373,,,,,,,,1653.5249512,1653.5249512,1653.5249512,1653.5249512,1653.5249512,1653.5249512,1653.5249512,1653.5249512,None,None,None,,,,,,,,,,,1650.2228373,1650.2228373,None,,1651.290756,1651.290756,1653.5249512,None,1650.2228373,1650.2228373,,,2,001,2024-05-27_15h22.40.989,robot_nback_sign,2022.2.5,59.99872802696631,
V,True,3,letter,1,False,False,robot_stimuli\\filler.mp4,2,,,,,,,,,0,55,55,55,,,,,,,,,,,,,1653.5249512,1654.5896515,,,,,,,1656.8205203,1656.8205203,1656.8205203,1656.8205203,1656.8205203,1656.8205203,1656.8205203,1656.8205203,None,None,None,,,,,,,,,,,1653.5249512,1653.5249512,None,,1654.5896515,1654.5896515,1656.8205203,c,1653.5249512,1653.5249512,1.0594647999999154,,2,001,2024-05-27_15h22.40.989,robot_nback_sign,2022.2.5,59.99872802696631,
W,True,3,letter,1,False,False,robot_stimuli\\filler.mp4,2,,,,,,,,,0,56,56,56,,,,,,,,,,,,,1656.8205203,1657.8763639000001,,,,,,,1659.9136178,1659.9136178,1659.9136178,1659.9136178,1659.9136178,1659.9136178,1659.9136178,1659.9136178,None,None,None,,,,,,,,,,,1656.8205203,1656.8205203,None,,1657.8763639000001,1657.8763639000001,1659.9136178,c,1656.8205203,1656.8205203,1.25378270000013,,2,001,2024-05-27_15h22.40.989,robot_nback_sign,2022.2.5,59.99872802696631,
G,False,3,letter,1,False,False,robot_stimuli\\filler.mp4,2,,,,,,,,,0,57,57,57,,,,,,,,,,,,,1659.9136178,1660.9732689,,,,,,,1663.2003528,1663.2003528,1663.2003528,1663.2003528,1663.2003528,1663.2003528,1663.2003528,1663.2003528,None,None,None,,,,,,,,,,,1659.9136178,1659.9136178,None,,1660.9732689,1660.9732689,1663.2003528,n,1659.9136178,1659.9136178,1.0282344999998543,,2,001,2024-05-27_15h22.40.989,robot_nback_sign,2022.2.5,59.99872802696631,
V,True,3,letter,1,False,False,robot_stimuli\\filler.mp4,2,,,,,,,,,0,58,58,58,,,,,,,,,,,,,1663.2003528,1664.2598776,,,,,,,1666.2895017,1666.2895017,1666.2895017,1666.2895017,1666.2895017,1666.2895017,1666.2895017,1666.2895017,None,None,None,,,,,,,,,,,1663.2003528,1663.2003528,None,,1664.2598776,1664.2598776,1666.2895017,c,1663.2003528,1663.2003528,1.2854519000000266,,2,001,2024-05-27_15h22.40.989,robot_nback_sign,2022.2.5,59.99872802696631,
K,False,3,letter,1,False,False,robot_stimuli\\filler.mp4,2,,,,,,,,,0,59,59,59,,,,,,,,,,,,,1666.2895017,,,,,,,,1669.3894988,1669.3894988,1669.3894988,1669.3894988,1669.3894988,1669.3894988,1669.3894988,1669.3894988,None,None,None,,,,,,,,,,,1666.2895017,1666.2895017,None,,1667.3581792,1667.3581792,1669.3894988,n,1666.2895017,1666.2895017,1.260157499999906,,2,001,2024-05-27_15h22.40.989,robot_nback_sign,2022.2.5,59.99872802696631,
D,False,3,letter,1,False,False,robot_stimuli\\filler.mp4,2,,,,,,,,,0,60,60,60,,,,,,,,,,,,,1669.3894988,,,,,,,,1672.4978174,1672.4978174,1672.4978174,1672.4978174,1672.4978174,1672.4978174,1672.4978174,1672.4978174,None,None,None,,,,,,,,,,,1669.3894988,1669.3894988,None,,1670.4657117,1670.4657117,1672.4978174,n,1669.3894988,1669.3894988,0.7688257000000078,,2,001,2024-05-27_15h22.40.989,robot_nback_sign,2022.2.5,59.99872802696631,
Z,False,3,letter,1,False,False,robot_stimuli\\filler.mp4,2,,,,,,,,,0,61,61,61,,,,,,,,,,,,,1672.4978174,1673.5557882,,,,,,,1675.7849925,1675.7849925,1675.7849925,1675.7849925,1675.7849925,1675.7849925,1675.7849925,1675.7849925,None,None,None,,,,,,,,,,,1672.4978174,1672.4978174,None,,1673.5557882,1673.5557882,1675.7849925,n,1672.4978174,1672.4978174,1.4788696999999331,,2,001,2024-05-27_15h22.40.989,robot_nback_sign,2022.2.5,59.99872802696631,
J,False,3,letter,1,False,False,robot_stimuli\\filler.mp4,2,,,,,,,,,0,62,62,62,,,,,,,,,,,,,1675.7849925,1676.8403666,,,,,,,1678.8672826,1678.8672826,1678.8672826,1678.8672826,1678.8672826,1678.8672826,1678.8672826,1678.8672826,None,None,None,,,,,,,,,,,1675.7849925,1675.7849925,None,,1676.8403666,1676.8403666,1678.8672826,n,1675.7849925,1675.7849925,1.0018157000002077,,2,001,2024-05-27_15h22.40.989,robot_nback_sign,2022.2.5,59.99872802696631,
X,False,3,letter,1,False,False,robot_stimuli\\filler.mp4,2,,,,,,,,,0,63,63,63,,,,,,,,,,,,,1678.8672826,1679.9243171,,,,,,,1682.1509599,1682.1509599,1682.1509599,1682.1509599,1682.1509599,1682.1509599,1682.1509599,1682.1509599,None,None,None,,,,,,,,,,,1678.8672826,1678.8672826,None,,1679.9243171,1679.9243171,1682.1509599,n,1678.8672826,1678.8672826,0.7337623999999607,,2,001,2024-05-27_15h22.40.989,robot_nback_sign,2022.2.5,59.99872802696631,
N,False,3,letter,1,False,False,robot_stimuli\\filler.mp4,2,,,,,,,,,0,64,64,64,,,,,,,,,,,,,1682.1509599,1683.2100849,,,,,,,1685.4342956,1685.4342956,1685.4342956,1685.4342956,1685.4342956,1685.4342956,1685.4342956,1685.4342956,None,None,None,,,,,,,,,,,1682.1509599,1682.1509599,None,,1683.2100849,1683.2100849,1685.4342956,n,1682.1509599,1682.1509599,0.40080590000005145,,2,001,2024-05-27_15h22.40.989,robot_nback_sign,2022.2.5,59.99872802696631,
F,False,3,letter,1,False,False,robot_stimuli\\filler.mp4,2,,,,,,,,,0,65,65,65,,,,,,,,,,,,,1685.4342956,1686.4919641000001,,,,,,,1688.5223227000001,1688.5223227000001,1688.5223227000001,1688.5223227000001,1688.5223227000001,1688.5223227000001,1688.5223227000001,1688.5223227000001,None,None,None,,,,,,,,,,,1685.4342956,1685.4342956,None,,1686.4919641000001,1686.4919641000001,1688.5223227000001,None,1685.4342956,1685.4342956,,,2,001,2024-05-27_15h22.40.989,robot_nback_sign,2022.2.5,59.99872802696631,
Q,False,3,letter,1,False,False,robot_stimuli\\filler.mp4,2,,,,,,,,,0,66,66,66,,,,,,,,,,,,,1688.5223227000001,,,,,,,,1691.8151931,1691.8151931,1691.8151931,1691.8151931,1691.8151931,1691.8151931,1691.8151931,1691.8151931,None,None,None,,,,,,,,,,,1688.5223227000001,1688.5223227000001,None,,1689.5904308000001,1689.5904308000001,1691.8151931,None,1688.5223227000001,1688.5223227000001,,,2,001,2024-05-27_15h22.40.989,robot_nback_sign,2022.2.5,59.99872802696631,
T,False,3,letter,1,False,False,robot_stimuli\\filler.mp4,2,,,,,,,,,0,67,67,67,,,,,,,,,,,,,1691.8151931,1692.8736861,,,,,,,1695.1025483,1695.1025483,1695.1025483,1695.1025483,1695.1025483,1695.1025483,1695.1025483,1695.1025483,None,None,None,,,,,,,,,,,1691.8151931,1691.8151931,None,,1692.8736861,1692.8736861,1695.1025483,n,1691.8151931,1691.8151931,0.7679412000000241,,2,001,2024-05-27_15h22.40.989,robot_nback_sign,2022.2.5,59.99872802696631,
P,False,3,letter,1,False,False,robot_stimuli\\filler.mp4,2,,,,,,,,,0,68,68,68,,,,,,,,,,,,,1695.1025483,1696.1615291,,,,,,,1698.1886964,1698.1886964,1698.1886964,1698.1886964,1698.1886964,1698.1886964,1698.1886964,1698.1886964,None,None,None,,,,,,,,,,,1695.1025483,1695.1025483,None,,1696.1615291,1696.1615291,1698.1886964,n,1695.1025483,1695.1025483,0.5448765999999807,,2,001,2024-05-27_15h22.40.989,robot_nback_sign,2022.2.5,59.99872802696631,
T,False,3,letter,1,False,False,robot_stimuli\\filler.mp4,2,,,,,,,,,0,69,69,69,,,,,,,,,,,,,1698.1886964,,,,,,,,1701.2916939,1701.2916939,1701.2916939,1701.2916939,1701.2916939,1701.2916939,1701.2916939,1701.2916939,None,None,None,,,,,,,,,,,1698.1886964,1698.1886964,None,,1699.25857,1699.25857,1701.2916939,n,1698.1886964,1698.1886964,1.5916073999999583,,2,001,2024-05-27_15h22.40.989,robot_nback_sign,2022.2.5,59.99872802696631,
L,False,3,letter,1,False,False,robot_stimuli\\filler.mp4,2,,,,,,,,,0,70,70,70,,,,,,,,,,,,,1701.2916939,1702.3576674,,,,,,,1704.3856863,1704.3856863,1704.3856863,1704.3856863,1704.3856863,1704.3856863,1704.3856863,1704.3856863,None,None,None,,,,,,,,,,,1701.2916939,1701.2916939,None,,1702.3576674,1702.3576674,1704.3856863,n,1701.2916939,1701.2916939,0.8608958000000086,,2,001,2024-05-27_15h22.40.989,robot_nback_sign,2022.2.5,59.99872802696631,
P,True,3,letter,1,False,False,robot_stimuli\\filler.mp4,2,,,,,,,,,0,71,71,71,,,,,,,,,,,,,1704.3856863,1705.440057,,,,,,,1707.6654699,1707.6654699,1707.6654699,1707.6654699,1707.6654699,1707.6654699,1707.6654699,1707.6654699,None,None,None,,,,,,,,,,,1704.3856863,1704.3856863,None,,1705.440057,1705.440057,1707.6654699,c,1704.3856863,1704.3856863,0.6257006999999533,,2,001,2024-05-27_15h22.40.989,robot_nback_sign,2022.2.5,59.99872802696631,
P,False,3,letter,1,False,False,robot_stimuli\\filler.mp4,2,,,,,,,,,0,72,72,72,,,,,,,,,,,,,1707.6654699,1708.7244072,,,,,,,1710.7493607000001,1710.7493607000001,1710.7493607000001,1710.7493607000001,1710.7493607000001,1710.7493607000001,1710.7493607000001,1710.7493607000001,None,None,None,,,,,,,,,,,1707.6654699,1707.6654699,None,,1708.7244072,1708.7244072,1710.7493607000001,None,1707.6654699,1707.6654699,,,2,001,2024-05-27_15h22.40.989,robot_nback_sign,2022.2.5,59.99872802696631,
Q,False,3,letter,1,False,False,robot_stimuli\\filler.mp4,2,,,,,,,,,0,73,73,73,,,,,,,,,,,,,1710.7493607000001,1711.8112849000001,,,,,,,1713.8417468,1713.8417468,1713.8417468,1713.8417468,1713.8417468,1713.8417468,1713.8417468,1713.8417468,None,None,None,,,,,,,,,,,1710.7493607000001,1710.7493607000001,None,,1711.8112849000001,1711.8112849000001,1713.8417468,n,1710.7493607000001,1710.7493607000001,1.1104844000001606,,2,001,2024-05-27_15h22.40.989,robot_nback_sign,2022.2.5,59.99872802696631,
K,False,3,letter,1,False,False,robot_stimuli\\filler.mp4,2,,,,,,,,,0,74,74,74,,,,,,,,,,,,,1713.8417468,1714.9086746,,,,,,,1716.9406754000001,1716.9406754000001,1716.9406754000001,1716.9406754000001,1716.9406754000001,1716.9406754000001,1716.9406754000001,1716.9406754000001,None,None,None,,,,,,,,,,,1713.8417468,1713.8417468,None,,1714.9086746,1714.9086746,1716.9406754000001,n,1713.8417468,1713.8417468,0.7811011000001429,,2,001,2024-05-27_15h22.40.989,robot_nback_sign,2022.2.5,59.99872802696631,
B,False,3,letter,1,False,False,robot_stimuli\\filler.mp4,2,,,,,,,,,0,75,75,75,,,,,,,,,,,,,1716.9406754000001,1718.0069469,,,,,,,1720.2331677,1720.2331677,1720.2331677,1720.2331677,1720.2331677,1720.2331677,1720.2331677,1720.2331677,None,None,None,,,,,,,,,,,1716.9406754000001,1716.9406754000001,None,,1718.0069469,1718.0069469,1720.2331677,n,1716.9406754000001,1716.9406754000001,1.3468180000002405,,2,001,2024-05-27_15h22.40.989,robot_nback_sign,2022.2.5,59.99872802696631,
B,False,3,letter,1,False,False,robot_stimuli\\filler.mp4,2,,,,,,,,,0,76,76,76,,,,,,,,,,,,,1720.2331677,1721.2891991000001,,,,,,,1723.5177183,1723.5177183,1723.5177183,1723.5177183,1723.5177183,1723.5177183,1723.5177183,1723.5177183,None,None,None,,,,,,,,,,,1720.2331677,1720.2331677,None,,1721.2891991000001,1721.2891991000001,1723.5177183,n,1720.2331677,1720.2331677,1.1358186000000217,,2,001,2024-05-27_15h22.40.989,robot_nback_sign,2022.2.5,59.99872802696631,
M,False,3,letter,1,False,False,robot_stimuli\\filler.mp4,2,,,,,,,,,0,77,77,77,,,,,,,,,,,,,1723.5177183,1724.5736551,,,,,,,1726.6066082,1726.6066082,1726.6066082,1726.6066082,1726.6066082,1726.6066082,1726.6066082,1726.6066082,None,None,None,,,,,,,,,,,1723.5177183,1723.5177183,None,,1724.5736551,1724.5736551,1726.6066082,n,1723.5177183,1723.5177183,1.003373699999912,,2,001,2024-05-27_15h22.40.989,robot_nback_sign,2022.2.5,59.99872802696631,
Z,False,3,letter,1,False,False,robot_stimuli\\filler.mp4,2,,,,,,,,,0,78,78,78,,,,,,,,,,,,,1726.6066082,,,,,,,,1729.9005129,1729.9005129,1729.9005129,1729.9005129,1729.9005129,1729.9005129,1729.9005129,1729.9005129,None,None,None,,,,,,,,,,,1726.6066082,1726.6066082,None,,1727.6734057,1727.6734057,1729.9005129,n,1726.6066082,1726.6066082,0.7043357000000299,,2,001,2024-05-27_15h22.40.989,robot_nback_sign,2022.2.5,59.99872802696631,
T,False,3,letter,1,False,False,robot_stimuli\\filler.mp4,2,,,,,,,,,0,79,79,79,,,,,,,,,,,,,1729.9005129,1730.9564684,,,,,,,1733.1831417,1733.1831417,1733.1831417,1733.1831417,1733.1831417,1733.1831417,1733.1831417,1733.1831417,None,None,None,,,,,,,,,,,1729.9005129,1729.9005129,None,,1730.9564684,1730.9564684,1733.1831417,None,1729.9005129,1729.9005129,,,2,001,2024-05-27_15h22.40.989,robot_nback_sign,2022.2.5,59.99872802696631,
M,True,3,letter,1,False,False,robot_stimuli\\filler.mp4,2,,,,,,,,,0,80,80,80,,,,,,,,,,,,,1733.1831417,1734.2415780000001,,,,,,,1736.2657207,1736.2657207,1736.2657207,1736.2657207,1736.2657207,1736.2657207,1736.2657207,1736.2657207,None,None,None,,,,,,,,,,,1733.1831417,1733.1831417,None,,1734.2415780000001,1734.2415780000001,1736.2657207,None,1733.1831417,1733.1831417,,,2,001,2024-05-27_15h22.40.989,robot_nback_sign,2022.2.5,59.99872802696631,
W,False,3,letter,1,False,False,robot_stimuli\\filler.mp4,2,,,,,,,,,0,81,81,81,,,,,,,,,,,,,1736.2657207,1737.327144,,,,,,,1739.3511958000001,1739.3511958000001,1739.3511958000001,1739.3511958000001,1739.3511958000001,1739.3511958000001,1739.3511958000001,1739.3511958000001,None,None,None,,,,,,,,,,,1736.2657207,1736.2657207,None,,1737.327144,1737.327144,1739.3511958000001,n,1736.2657207,1736.2657207,0.915043900000029,,2,001,2024-05-27_15h22.40.989,robot_nback_sign,2022.2.5,59.99872802696631,
P,False,3,letter,1,False,False,robot_stimuli\\filler.mp4,2,,,,,,,,,0,82,82,82,,,,,,,,,,,,,1739.3511958000001,1740.4119549,,,,,,,1742.4423813,1742.4423813,1742.4423813,1742.4423813,1742.4423813,1742.4423813,1742.4423813,1742.4423813,None,None,None,,,,,,,,,,,1739.3511958000001,1739.3511958000001,None,,1740.4119549,1740.4119549,1742.4423813,n,1739.3511958000001,1739.3511958000001,0.7498535000002278,,2,001,2024-05-27_15h22.40.989,robot_nback_sign,2022.2.5,59.99872802696631,
D,False,3,letter,1,False,False,robot_stimuli\\filler.mp4,2,,,,,,,,,0,83,83,83,,,,,,,,,,,,,1742.4423813,1743.5091387,,,,,,,1745.5373867,1745.5373867,1745.5373867,1745.5373867,1745.5373867,1745.5373867,1745.5373867,1745.5373867,None,None,None,,,,,,,,,,,1742.4423813,1742.4423813,None,,1743.5091387,1743.5091387,1745.5373867,n,1742.4423813,1742.4423813,1.0772396000000128,,2,001,2024-05-27_15h22.40.989,robot_nback_sign,2022.2.5,59.99872802696631,
H,False,3,letter,1,False,False,robot_stimuli\\filler.mp4,2,,,,,,,,,0,84,84,84,,,,,,,,,,,,,1745.5373867,1746.6003598,,,,,,,1748.6228135000001,1748.6228135000001,1748.6228135000001,1748.6228135000001,1748.6228135000001,1748.6228135000001,1748.6228135000001,1748.6228135000001,None,None,None,,,,,,,,,,,1745.5373867,1745.5373867,None,,1746.6003598,1746.6003598,1748.6228135000001,n,1745.5373867,1745.5373867,1.0013394999998866,,2,001,2024-05-27_15h22.40.989,robot_nback_sign,2022.2.5,59.99872802696631,
P,True,3,letter,1,False,False,robot_stimuli\\filler.mp4,2,,,,,,,,,0,85,85,85,,,,,,,,,,,,,1748.6228135000001,,,,,,,,1751.9155493,1751.9155493,1751.9155493,1751.9155493,1751.9155493,1751.9155493,1751.9155493,1751.9155493,None,None,None,,,,,,,,,,,1748.6228135000001,1748.6228135000001,None,,1749.6906236,1749.6906236,1751.9155493,c,1748.6228135000001,1748.6228135000001,0.9990875000001154,,2,001,2024-05-27_15h22.40.989,robot_nback_sign,2022.2.5,59.99872802696631,
K,False,3,letter,1,False,False,robot_stimuli\\filler.mp4,2,,,,,,,,,0,86,86,86,,,,,,,,,,,,,1751.9155493,1752.9734061000001,,,,,,,1755.2052314,1755.2052314,1755.2052314,1755.2052314,1755.2052314,1755.2052314,1755.2052314,1755.2052314,None,None,None,,,,,,,,,,,1751.9155493,1751.9155493,None,,1752.9734061000001,1752.9734061000001,1755.2052314,n,1751.9155493,1751.9155493,1.1651487000001737,,2,001,2024-05-27_15h22.40.989,robot_nback_sign,2022.2.5,59.99872802696631,
L,False,3,letter,1,False,False,robot_stimuli\\filler.mp4,2,,,,,,,,,0,87,87,87,,,,,,,,,,,,,1755.2052314,,,,,,,,1758.3020514,1758.3020514,1758.3020514,1758.3020514,1758.3020514,1758.3020514,1758.3020514,1758.3020514,None,None,None,,,,,,,,,,,1755.2052314,1755.2052314,None,,1756.2739034,1756.2739034,1758.3020514,n,1755.2052314,1755.2052314,1.3207890000001328,,2,001,2024-05-27_15h22.40.989,robot_nback_sign,2022.2.5,59.99872802696631,
S,False,3,letter,1,False,False,robot_stimuli\\filler.mp4,2,,,,,,,,,0,88,88,88,,,,,,,,,,,,,1758.3020514,1759.3582592,,,,,,,1761.3928051,1761.3928051,1761.3928051,1761.3928051,1761.3928051,1761.3928051,1761.3928051,1761.3928051,None,None,None,,,,,,,,,,,1758.3020514,1758.3020514,None,,1759.3582592,1759.3582592,1761.3928051,None,1758.3020514,1758.3020514,,,2,001,2024-05-27_15h22.40.989,robot_nback_sign,2022.2.5,59.99872802696631,
K,True,3,letter,1,False,False,robot_stimuli\\filler.mp4,2,,,,,,,,,0,89,89,89,,,,,,,,,,,,,1761.3928051,1762.457903,,,,,,,1764.6883971,1764.6883971,1764.6883971,1764.6883971,1764.6883971,1764.6883971,1764.6883971,1764.6883971,None,None,None,,,,,,,,,,,1761.3928051,1761.3928051,None,,1762.457903,1762.457903,1764.6883971,c,1761.3928051,1761.3928051,1.0805673999998646,,2,001,2024-05-27_15h22.40.989,robot_nback_sign,2022.2.5,59.99872802696631,
K,False,3,letter,1,False,False,robot_stimuli\\filler.mp4,2,,,,,,,,,0,90,90,90,,,,,,,,,,,,,1764.6883971,,,,,,,,1767.9829062000001,1767.9829062000001,1767.9829062000001,1767.9829062000001,1767.9829062000001,1767.9829062000001,1767.9829062000001,1767.9829062000001,None,None,None,,,,,,,,,,,1764.6883971,1764.6883971,None,,1765.7563737,1765.7563737,1767.9829062000001,n,1764.6883971,1764.6883971,1.1582215999999619,,2,001,2024-05-27_15h22.40.989,robot_nback_sign,2022.2.5,59.99872802696631,
H,False,3,letter,1,False,False,robot_stimuli\\filler.mp4,2,,,,,,,,,0,91,91,91,,,,,,,,,,,,,1767.9829062000001,1769.0420797,,,,,,,1771.0660435,1771.0660435,1771.0660435,1771.0660435,1771.0660435,1771.0660435,1771.0660435,1771.0660435,None,None,None,,,,,,,,,,,1767.9829062000001,1767.9829062000001,None,,1769.0420797,1769.0420797,1771.0660435,n,1767.9829062000001,1767.9829062000001,1.0881035999998687,,2,001,2024-05-27_15h22.40.989,robot_nback_sign,2022.2.5,59.99872802696631,
G,False,3,letter,1,False,False,robot_stimuli\\filler.mp4,2,,,,,,,,,0,92,92,92,,,,,,,,,,,,,1771.0660435,1772.1252632,,,,,,,1774.1497464000001,1774.1497464000001,1774.1497464000001,1774.1497464000001,1774.1497464000001,1774.1497464000001,1774.1497464000001,1774.1497464000001,None,None,None,,,,,,,,,,,1771.0660435,1771.0660435,None,,1772.1252632,1772.1252632,1774.1497464000001,None,1771.0660435,1771.0660435,,,2,001,2024-05-27_15h22.40.989,robot_nback_sign,2022.2.5,59.99872802696631,
H,False,3,letter,1,False,False,robot_stimuli\\filler.mp4,2,,,,,,,,,0,93,93,93,,,,,,,,,,,,,1774.1497464000001,1775.2074164,,,,,,,1777.2330398000001,1777.2330398000001,1777.2330398000001,1777.2330398000001,1777.2330398000001,1777.2330398000001,1777.2330398000001,1777.2330398000001,None,None,None,,,,,,,,,,,1774.1497464000001,1774.1497464000001,None,,1775.2074164,1775.2074164,1777.2330398000001,c,1774.1497464000001,1774.1497464000001,0.9790046000000814,,2,001,2024-05-27_15h22.40.989,robot_nback_sign,2022.2.5,59.99872802696631,
L,False,3,letter,1,False,False,robot_stimuli\\filler.mp4,2,,,,,,,,,0,94,94,94,,,,,,,,,,,,,1777.2330398000001,1778.2901323,,,,,,,1780.3192751000001,1780.3192751000001,1780.3192751000001,1780.3192751000001,1780.3192751000001,1780.3192751000001,1780.3192751000001,1780.3192751000001,None,None,None,,,,,,,,,,,1777.2330398000001,1777.2330398000001,None,,1778.2901323,1778.2901323,1780.3192751000001,n,1777.2330398000001,1777.2330398000001,1.5283665000002031,,2,001,2024-05-27_15h22.40.989,robot_nback_sign,2022.2.5,59.99872802696631,
Z,False,3,letter,1,False,False,robot_stimuli\\filler.mp4,2,,,,,,,,,0,95,95,95,,,,,,,,,,,,,1780.3192751000001,1781.3738816,,,,,,,1783.4021874,1783.4021874,1783.4021874,1783.4021874,1783.4021874,1783.4021874,1783.4021874,1783.4021874,None,None,None,,,,,,,,,,,1780.3192751000001,1780.3192751000001,None,,1781.3738816,1781.3738816,1783.4021874,n,1780.3192751000001,1780.3192751000001,1.0201113000000817,,2,001,2024-05-27_15h22.40.989,robot_nback_sign,2022.2.5,59.99872802696631,
R,False,3,letter,1,False,False,robot_stimuli\\filler.mp4,2,,,,,,,,,0,96,96,96,,,,,,,,,,,,,1783.4021874,1784.4577976,,,,,,,1786.4904248,1786.4904248,1786.4904248,1786.4904248,1786.4904248,1786.4904248,1786.4904248,1786.4904248,None,None,None,,,,,,,,,,,1783.4021874,1783.4021874,None,,1784.4577976,1784.4577976,1786.4904248,n,1783.4021874,1783.4021874,0.7051694000001874,,2,001,2024-05-27_15h22.40.989,robot_nback_sign,2022.2.5,59.99872802696631,
S,False,3,letter,1,False,False,robot_stimuli\\filler.mp4,2,,,,,,,,,0,97,97,97,,,,,,,,,,,,,1786.4904248,,,,,,,,1789.5928244,1789.5928244,1789.5928244,1789.5928244,1789.5928244,1789.5928244,1789.5928244,1789.5928244,None,None,None,,,,,,,,,,,1786.4904248,1786.4904248,None,,1787.5563198,1787.5563198,1789.5928244,n,1786.4904248,1786.4904248,0.5335256000001039,,2,001,2024-05-27_15h22.40.989,robot_nback_sign,2022.2.5,59.99872802696631,
P,False,3,letter,1,False,False,robot_stimuli\\filler.mp4,2,,,,,,,,,0,98,98,98,,,,,,,,,,,,,1789.5928244,1790.6695236,,,,,,,1792.6991712000001,1792.6991712000001,1792.6991712000001,1792.6991712000001,1792.6991712000001,1792.6991712000001,1792.6991712000001,1792.6991712000001,None,None,None,,,,,,,,,,,1789.5928244,1789.5928244,None,,1790.6695236,1790.6695236,1792.6991712000001,n,1789.5928244,1789.5928244,0.7798381000000347,,2,001,2024-05-27_15h22.40.989,robot_nback_sign,2022.2.5,59.99872802696631,
X,False,3,letter,1,False,True,robot_stimuli\\filler.mp4,2,,,,,,,,,0,99,99,99,,,,,,,,,,,,,1792.6991712000001,1793.7566461000001,,,,,,,1796.0153972,1800.4127665,1796.0153972,1800.4127665,1796.0153972,1800.4127665,1796.0153972,1800.4127665,69.96913580246914,3.1170488000000205,space,,,,4.337455500000061,,,,,,,1792.6991712000001,1792.6991712000001,None,,1793.7566461000001,1793.7566461000001,1796.0153972,n,1792.6991712000001,1792.6991712000001,0.725455999999923,,2,001,2024-05-27_15h22.40.989,robot_nback_sign,2022.2.5,59.99872802696631,
G,False,1,letter,1,True,False,robot_stimuli\\filler.mp4,2,,,,,,,,,0,100,100,100,,,,,,,,,,,,,1884.3709752,1885.4259299999999,,,,,,,1887.6510131,1887.6510131,1887.6510131,1887.6510131,1887.6510131,1887.6510131,1887.6510131,1887.6510131,None,None,None,,,,,,,,,,,1800.4127665,1800.4127665,space,83.9408228,1885.4259299999999,1885.4259299999999,1887.6510131,n,,,1.0718404999998086,,2,001,2024-05-27_15h22.40.989,robot_nback_sign,2022.2.5,59.99872802696631,
R,False,1,letter,1,False,False,robot_stimuli\\filler.mp4,2,,,,,,,,,0,101,101,101,,,,,,,,,,,,,1887.6510131,1888.7077765,,,,,,,1890.9374468,1890.9374468,1890.9374468,1890.9374468,1890.9374468,1890.9374468,1890.9374468,1890.9374468,None,None,None,,,,,,,,,,,1887.6510131,1887.6510131,None,,1888.7077765,1888.7077765,1890.9374468,n,1887.6510131,1887.6510131,0.822781100000185,,2,001,2024-05-27_15h22.40.989,robot_nback_sign,2022.2.5,59.99872802696631,
R,True,1,letter,1,False,False,robot_stimuli\\filler.mp4,2,,,,,,,,,0,102,102,102,,,,,,,,,,,,,1890.9374468,1891.9979561,,,,,,,1894.0289159,1894.0289159,1894.0289159,1894.0289159,1894.0289159,1894.0289159,1894.0289159,1894.0289159,None,None,None,,,,,,,,,,,1890.9374468,1890.9374468,None,,1891.9979561,1891.9979561,1894.0289159,c,1890.9374468,1890.9374468,0.6277470000000278,,2,001,2024-05-27_15h22.40.989,robot_nback_sign,2022.2.5,59.99872802696631,
R,True,1,letter,1,False,False,robot_stimuli\\filler.mp4,2,,,,,,,,,0,103,103,103,,,,,,,,,,,,,1894.0289159,1895.0893603,,,,,,,1897.3144571000003,1897.3144571000003,1897.3144571000003,1897.3144571000003,1897.3144571000003,1897.3144571000003,1897.3144571000003,1897.3144571000003,None,None,None,,,,,,,,,,,1894.0289159,1894.0289159,None,,1895.0893603,1895.0893603,1897.3144571000003,c,1894.0289159,1894.0289159,0.6888755000000231,,2,001,2024-05-27_15h22.40.989,robot_nback_sign,2022.2.5,59.99872802696631,
P,False,1,letter,1,False,False,robot_stimuli\\filler.mp4,2,,,,,,,,,0,104,104,104,,,,,,,,,,,,,1897.3144571000003,1898.3739897,,,,,,,1900.5987061,1900.5987061,1900.5987061,1900.5987061,1900.5987061,1900.5987061,1900.5987061,1900.5987061,None,None,None,,,,,,,,,,,1897.3144571000003,1897.3144571000003,None,,1898.3739897,1898.3739897,1900.5987061,n,1897.3144571000003,1897.3144571000003,0.5630850000002567,,2,001,2024-05-27_15h22.40.989,robot_nback_sign,2022.2.5,59.99872802696631,
S,False,1,letter,1,False,False,robot_stimuli\\filler.mp4,2,,,,,,,,,0,105,105,105,,,,,,,,,,,,,1900.5987061,1901.6582626,,,,,,,1903.8911733,1903.8911733,1903.8911733,1903.8911733,1903.8911733,1903.8911733,1903.8911733,1903.8911733,None,None,None,,,,,,,,,,,1900.5987061,1900.5987061,None,,1901.6582626,1901.6582626,1903.8911733,n,1900.5987061,1900.5987061,0.5040464999997596,,2,001,2024-05-27_15h22.40.989,robot_nback_sign,2022.2.5,59.99872802696631,
T,False,1,letter,1,False,False,robot_stimuli\\filler.mp4,2,,,,,,,,,0,106,106,106,,,,,,,,,,,,,1903.8911733,1904.9601696,,,,,,,1906.9916842000002,1906.9916842000002,1906.9916842000002,1906.9916842000002,1906.9916842000002,1906.9916842000002,1906.9916842000002,1906.9916842000002,None,None,None,,,,,,,,,,,1903.8911733,1903.8911733,None,,1904.9601696,1904.9601696,1906.9916842000002,n,1903.8911733,1903.8911733,0.5621659000003376,,2,001,2024-05-27_15h22.40.989,robot_nback_sign,2022.2.5,59.99872802696631,
T,True,1,letter,1,False,False,robot_stimuli\\filler.mp4,2,,,,,,,,,0,107,107,107,,,,,,,,,,,,,1906.9916842000002,1908.0574802,,,,,,,1910.2824482,1910.2824482,1910.2824482,1910.2824482,1910.2824482,1910.2824482,1910.2824482,1910.2824482,None,None,None,,,,,,,,,,,1906.9916842000002,1906.9916842000002,None,,1908.0574802,1908.0574802,1910.2824482,c,1906.9916842000002,1906.9916842000002,0.6877116000000854,,2,001,2024-05-27_15h22.40.989,robot_nback_sign,2022.2.5,59.99872802696631,
T,True,1,letter,1,False,False,robot_stimuli\\filler.mp4,2,,,,,,,,,0,108,108,108,,,,,,,,,,,,,1910.2824482,1911.3391874,,,,,,,1913.5686930000002,1913.5686930000002,1913.5686930000002,1913.5686930000002,1913.5686930000002,1913.5686930000002,1913.5686930000002,1913.5686930000002,None,None,None,,,,,,,,,,,1910.2824482,1910.2824482,None,,1911.3391874,1911.3391874,1913.5686930000002,c,1910.2824482,1910.2824482,0.5666291000002559,,2,001,2024-05-27_15h22.40.989,robot_nback_sign,2022.2.5,59.99872802696631,
B,False,1,letter,1,False,False,robot_stimuli\\filler.mp4,2,,,,,,,,,0,109,109,109,,,,,,,,,,,,,1913.5686930000002,1914.6243301,,,,,,,1916.8540131,1916.8540131,1916.8540131,1916.8540131,1916.8540131,1916.8540131,1916.8540131,1916.8540131,None,None,None,,,,,,,,,,,1913.5686930000002,1913.5686930000002,None,,1914.6243301,1914.6243301,1916.8540131,n,1913.5686930000002,1913.5686930000002,0.6014207000003182,,2,001,2024-05-27_15h22.40.989,robot_nback_sign,2022.2.5,59.99872802696631,
L,False,1,letter,1,False,False,robot_stimuli\\filler.mp4,2,,,,,,,,,0,110,110,110,,,,,,,,,,,,,1916.8540131,1917.9079341000001,,,,,,,1920.1396366,1920.1396366,1920.1396366,1920.1396366,1920.1396366,1920.1396366,1920.1396366,1920.1396366,None,None,None,,,,,,,,,,,1916.8540131,1916.8540131,None,,1917.9079341000001,1917.9079341000001,1920.1396366,n,1916.8540131,1916.8540131,0.6452930000000663,,2,001,2024-05-27_15h22.40.989,robot_nback_sign,2022.2.5,59.99872802696631,
L,True,1,letter,1,False,False,robot_stimuli\\filler.mp4,2,,,,,,,,,0,111,111,111,,,,,,,,,,,,,1920.1396366,,,,,,,,1923.4343702,1923.4343702,1923.4343702,1923.4343702,1923.4343702,1923.4343702,1923.4343702,1923.4343702,None,None,None,,,,,,,,,,,1920.1396366,1920.1396366,None,,1921.2053970000002,1921.2053970000002,1923.4343702,c,1920.1396366,1920.1396366,0.7650873000002605,,2,001,2024-05-27_15h22.40.989,robot_nback_sign,2022.2.5,59.99872802696631,
L,True,1,letter,1,False,False,robot_stimuli\\filler.mp4,2,,,,,,,,,0,112,112,112,,,,,,,,,,,,,1923.4343702,1924.4897707,,,,,,,1926.7260649999998,1926.7260649999998,1926.7260649999998,1926.7260649999998,1926.7260649999998,1926.7260649999998,1926.7260649999998,1926.7260649999998,None,None,None,,,,,,,,,,,1923.4343702,1923.4343702,None,,1924.4897707,1924.4897707,1926.7260649999998,c,1923.4343702,1923.4343702,0.695955400000031,,2,001,2024-05-27_15h22.40.989,robot_nback_sign,2022.2.5,59.99872802696631,
D,False,1,letter,1,False,False,robot_stimuli\\filler.mp4,2,,,,,,,,,0,113,113,113,,,,,,,,,,,,,1926.7260649999998,1927.7911417,,,,,,,1929.8153916,1929.8153916,1929.8153916,1929.8153916,1929.8153916,1929.8153916,1929.8153916,1929.8153916,None,None,None,,,,,,,,,,,1926.7260649999998,1926.7260649999998,None,,1927.7911417,1927.7911417,1929.8153916,n,1926.7260649999998,1926.7260649999998,0.5540225000000021,,2,001,2024-05-27_15h22.40.989,robot_nback_sign,2022.2.5,59.99872802696631,
W,False,1,letter,1,False,False,robot_stimuli\\filler.mp4,2,,,,,,,,,0,114,114,114,,,,,,,,,,,,,1929.8153916,1930.8745714000001,,,,,,,1933.1013776999998,1933.1013776999998,1933.1013776999998,1933.1013776999998,1933.1013776999998,1933.1013776999998,1933.1013776999998,1933.1013776999998,None,None,None,,,,,,,,,,,1929.8153916,1929.8153916,None,,1930.8745714000001,1930.8745714000001,1933.1013776999998,n,1929.8153916,1929.8153916,0.6240201999999329,,2,001,2024-05-27_15h22.40.989,robot_nback_sign,2022.2.5,59.99872802696631,
Q,False,1,letter,1,False,False,robot_stimuli\\filler.mp4,2,,,,,,,,,0,115,115,115,,,,,,,,,,,,,1933.1013776999998,1934.1618987000002,,,,,,,1936.1898327,1936.1898327,1936.1898327,1936.1898327,1936.1898327,1936.1898327,1936.1898327,1936.1898327,None,None,None,,,,,,,,,,,1933.1013776999998,1933.1013776999998,None,,1934.1618987000002,1934.1618987000002,1936.1898327,n,1933.1013776999998,1933.1013776999998,0.39216260000014813,,2,001,2024-05-27_15h22.40.989,robot_nback_sign,2022.2.5,59.99872802696631,
P,False,1,letter,1,False,False,robot_stimuli\\filler.mp4,2,,,,,,,,,0,116,116,116,,,,,,,,,,,,,1936.1898327,,,,,,,,1939.2817513,1939.2817513,1939.2817513,1939.2817513,1939.2817513,1939.2817513,1939.2817513,1939.2817513,None,None,None,,,,,,,,,,,1936.1898327,1936.1898327,None,,1937.2575065,1937.2575065,1939.2817513,n,1936.1898327,1936.1898327,0.5765670999999486,,2,001,2024-05-27_15h22.40.989,robot_nback_sign,2022.2.5,59.99872802696631,
P,True,1,letter,1,False,False,robot_stimuli\\filler.mp4,2,,,,,,,,,0,117,117,117,,,,,,,,,,,,,1939.2817513,1940.3399424,,,,,,,1942.5678504000002,1942.5678504000002,1942.5678504000002,1942.5678504000002,1942.5678504000002,1942.5678504000002,1942.5678504000002,1942.5678504000002,None,None,None,,,,,,,,,,,1939.2817513,1939.2817513,None,,1940.3399424,1940.3399424,1942.5678504000002,c,1939.2817513,1939.2817513,0.5971327000002304,,2,001,2024-05-27_15h22.40.989,robot_nback_sign,2022.2.5,59.99872802696631,
B,False,1,letter,1,False,False,robot_stimuli\\filler.mp4,2,,,,,,,,,0,118,118,118,,,,,,,,,,,,,1942.5678504000002,1943.6252,,,,,,,1945.8585404,1945.8585404,1945.8585404,1945.8585404,1945.8585404,1945.8585404,1945.8585404,1945.8585404,None,None,None,,,,,,,,,,,1942.5678504000002,1942.5678504000002,None,,1943.6252,1943.6252,1945.8585404,n,1942.5678504000002,1942.5678504000002,0.5695946000001015,,2,001,2024-05-27_15h22.40.989,robot_nback_sign,2022.2.5,59.99872802696631,
W,False,1,letter,1,False,False,robot_stimuli\\filler.mp4,2,,,,,,,,,0,119,119,119,,,,,,,,,,,,,1945.8585404,1946.9264220999999,,,,,,,1948.9508234,1948.9508234,1948.9508234,1948.9508234,1948.9508234,1948.9508234,1948.9508234,1948.9508234,None,None,None,,,,,,,,,,,1945.8585404,1945.8585404,None,,1946.9264220999999,1946.9264220999999,1948.9508234,n,1945.8585404,1945.8585404,0.5153167000003407,,2,001,2024-05-27_15h22.40.989,robot_nback_sign,2022.2.5,59.99872802696631,
P,False,1,letter,1,False,False,robot_stimuli\\filler.mp4,2,,,,,,,,,0,120,120,120,,,,,,,,,,,,,1948.9508234,1950.0077400999999,,,,,,,1952.2372681000002,1952.2372681000002,1952.2372681000002,1952.2372681000002,1952.2372681000002,1952.2372681000002,1952.2372681000002,1952.2372681000002,None,None,None,,,,,,,,,,,1948.9508234,1948.9508234,None,,1950.0077400999999,1950.0077400999999,1952.2372681000002,n,1948.9508234,1948.9508234,0.4427934000000562,,2,001,2024-05-27_15h22.40.989,robot_nback_sign,2022.2.5,59.99872802696631,
V,False,1,letter,1,False,False,robot_stimuli\\filler.mp4,2,,,,,,,,,0,121,121,121,,,,,,,,,,,,,1952.2372681000002,1953.2923549000002,,,,,,,1955.3259084000001,1955.3259084000001,1955.3259084000001,1955.3259084000001,1955.3259084000001,1955.3259084000001,1955.3259084000001,1955.3259084000001,None,None,None,,,,,,,,,,,1952.2372681000002,1952.2372681000002,None,,1953.2923549000002,1953.2923549000002,1955.3259084000001,n,1952.2372681000002,1952.2372681000002,0.46141020000007416,,2,001,2024-05-27_15h22.40.989,robot_nback_sign,2022.2.5,59.99872802696631,
W,False,1,letter,1,False,False,robot_stimuli\\filler.mp4,2,,,,,,,,,0,122,122,122,,,,,,,,,,,,,1955.3259084000001,1956.393952,,,,,,,1958.4196898999999,1958.4196898999999,1958.4196898999999,1958.4196898999999,1958.4196898999999,1958.4196898999999,1958.4196898999999,1958.4196898999999,None,None,None,,,,,,,,,,,1955.3259084000001,1955.3259084000001,None,,1956.393952,1956.393952,1958.4196898999999,n,1955.3259084000001,1955.3259084000001,0.8080897000000107,,2,001,2024-05-27_15h22.40.989,robot_nback_sign,2022.2.5,59.99872802696631,
N,False,1,letter,1,False,False,robot_stimuli\\filler.mp4,2,,,,,,,,,0,123,123,123,,,,,,,,,,,,,1958.4196898999999,1959.4744723,,,,,,,1961.7069126000001,1961.7069126000001,1961.7069126000001,1961.7069126000001,1961.7069126000001,1961.7069126000001,1961.7069126000001,1961.7069126000001,None,None,None,,,,,,,,,,,1958.4196898999999,1958.4196898999999,None,,1959.4744723,1959.4744723,1961.7069126000001,n,1958.4196898999999,1958.4196898999999,0.8479413000000307,,2,001,2024-05-27_15h22.40.989,robot_nback_sign,2022.2.5,59.99872802696631,
P,False,1,letter,1,False,False,robot_stimuli\\filler.mp4,2,,,,,,,,,0,124,124,124,,,,,,,,,,,,,1961.7069126000001,,,,,,,,1965.0065442999999,1965.0065442999999,1965.0065442999999,1965.0065442999999,1965.0065442999999,1965.0065442999999,1965.0065442999999,1965.0065442999999,None,None,None,,,,,,,,,,,1961.7069126000001,1961.7069126000001,None,,1962.7779768999999,1962.7779768999999,1965.0065442999999,n,1961.7069126000001,1961.7069126000001,0.4566004999997233,,2,001,2024-05-27_15h22.40.989,robot_nback_sign,2022.2.5,59.99872802696631,
P,True,1,letter,1,False,False,robot_stimuli\\filler.mp4,2,,,,,,,,,0,125,125,125,,,,,,,,,,,,,1965.0065442999999,,,,,,,,1968.3083437,1968.3083437,1968.3083437,1968.3083437,1968.3083437,1968.3083437,1968.3083437,1968.3083437,None,None,None,,,,,,,,,,,1965.0065442999999,1965.0065442999999,None,,1966.0736852999999,1966.0736852999999,1968.3083437,c,1965.0065442999999,1965.0065442999999,0.7770362000001398,,2,001,2024-05-27_15h22.40.989,robot_nback_sign,2022.2.5,59.99872802696631,
P,True,1,letter,1,False,False,robot_stimuli\\filler.mp4,2,,,,,,,,,0,126,126,126,,,,,,,,,,,,,1968.3083437,1969.3733849999999,,,,,,,1971.6046741,1971.6046741,1971.6046741,1971.6046741,1971.6046741,1971.6046741,1971.6046741,1971.6046741,None,None,None,,,,,,,,,,,1968.3083437,1968.3083437,None,,1969.3733849999999,1969.3733849999999,1971.6046741,c,1968.3083437,1968.3083437,0.5962826000000234,,2,001,2024-05-27_15h22.40.989,robot_nback_sign,2022.2.5,59.99872802696631,
J,False,1,letter,1,False,False,robot_stimuli\\filler.mp4,2,,,,,,,,,0,127,127,127,,,,,,,,,,,,,1971.6046741,1972.6582285,,,,,,,1974.8896561000001,1974.8896561000001,1974.8896561000001,1974.8896561000001,1974.8896561000001,1974.8896561000001,1974.8896561000001,1974.8896561000001,None,None,None,,,,,,,,,,,1971.6046741,1971.6046741,None,,1972.6582285,1972.6582285,1974.8896561000001,n,1971.6046741,1971.6046741,0.5677405000001556,,2,001,2024-05-27_15h22.40.989,robot_nback_sign,2022.2.5,59.99872802696631,
H,False,1,letter,1,False,False,robot_stimuli\\filler.mp4,2,,,,,,,,,0,128,128,128,,,,,,,,,,,,,1974.8896561000001,,,,,,,,1978.1854509,1978.1854509,1978.1854509,1978.1854509,1978.1854509,1978.1854509,1978.1854509,1978.1854509,None,None,None,,,,,,,,,,,1974.8896561000001,1974.8896561000001,None,,1975.9591536000003,1975.9591536000003,1978.1854509,n,1974.8896561000001,1974.8896561000001,0.5779173000001094,,2,001,2024-05-27_15h22.40.989,robot_nback_sign,2022.2.5,59.99872802696631,
B,False,1,letter,1,False,False,robot_stimuli\\filler.mp4,2,,,,,,,,,0,129,129,129,,,,,,,,,,,,,1978.1854509,1979.2406636,,,,,,,1981.2740623,1981.2740623,1981.2740623,1981.2740623,1981.2740623,1981.2740623,1981.2740623,1981.2740623,None,None,None,,,,,,,,,,,1978.1854509,1978.1854509,None,,1979.2406636,1979.2406636,1981.2740623,n,1978.1854509,1978.1854509,0.632595000000066,,2,001,2024-05-27_15h22.40.989,robot_nback_sign,2022.2.5,59.99872802696631,
T,False,1,letter,1,False,False,robot_stimuli\\filler.mp4,2,,,,,,,,,0,130,130,130,,,,,,,,,,,,,1981.2740623,,,,,,,,1984.3680542000002,1984.3680542000002,1984.3680542000002,1984.3680542000002,1984.3680542000002,1984.3680542000002,1984.3680542000002,1984.3680542000002,None,None,None,,,,,,,,,,,1981.2740623,1981.2740623,None,,1982.3409928,1982.3409928,1984.3680542000002,n,1981.2740623,1981.2740623,0.541318099999927,,2,001,2024-05-27_15h22.40.989,robot_nback_sign,2022.2.5,59.99872802696631,
V,False,1,letter,1,False,False,robot_stimuli\\filler.mp4,2,,,,,,,,,0,131,131,131,,,,,,,,,,,,,1984.3680542000002,1985.4252425,,,,,,,1987.4595920000002,1987.4595920000002,1987.4595920000002,1987.4595920000002,1987.4595920000002,1987.4595920000002,1987.4595920000002,1987.4595920000002,None,None,None,,,,,,,,,,,1984.3680542000002,1984.3680542000002,None,,1985.4252425,1985.4252425,1987.4595920000002,n,1984.3680542000002,1984.3680542000002,0.47201670000006857,,2,001,2024-05-27_15h22.40.989,robot_nback_sign,2022.2.5,59.99872802696631,
C,False,1,letter,1,False,False,robot_stimuli\\filler.mp4,2,,,,,,,,,0,132,132,132,,,,,,,,,,,,,1987.4595920000002,1988.5244219,,,,,,,1990.5532558999998,1990.5532558999998,1990.5532558999998,1990.5532558999998,1990.5532558999998,1990.5532558999998,1990.5532558999998,1990.5532558999998,None,None,None,,,,,,,,,,,1987.4595920000002,1987.4595920000002,None,,1988.5244219,1988.5244219,1990.5532558999998,n,1987.4595920000002,1987.4595920000002,0.49437399999990816,,2,001,2024-05-27_15h22.40.989,robot_nback_sign,2022.2.5,59.99872802696631,
T,False,1,letter,1,False,False,robot_stimuli\\filler.mp4,2,,,,,,,,,0,133,133,133,,,,,,,,,,,,,1990.5532558999998,1991.6090554000002,,,,,,,1993.6403119000001,1993.6403119000001,1993.6403119000001,1993.6403119000001,1993.6403119000001,1993.6403119000001,1993.6403119000001,1993.6403119000001,None,None,None,,,,,,,,,,,1990.5532558999998,1990.5532558999998,None,,1991.6090554000002,1991.6090554000002,1993.6403119000001,n,1990.5532558999998,1990.5532558999998,0.6892887999997868,,2,001,2024-05-27_15h22.40.989,robot_nback_sign,2022.2.5,59.99872802696631,
T,True,1,letter,1,False,False,robot_stimuli\\filler.mp4,2,,,,,,,,,0,134,134,134,,,,,,,,,,,,,1993.6403119000001,,,,,,,,1996.7374045000001,1996.7374045000001,1996.7374045000001,1996.7374045000001,1996.7374045000001,1996.7374045000001,1996.7374045000001,1996.7374045000001,None,None,None,,,,,,,,,,,1993.6403119000001,1993.6403119000001,None,,1994.7042836,1994.7042836,1996.7374045000001,c,1993.6403119000001,1993.6403119000001,0.6824974999999824,,2,001,2024-05-27_15h22.40.989,robot_nback_sign,2022.2.5,59.99872802696631,
Z,False,1,letter,1,False,False,robot_stimuli\\filler.mp4,2,,,,,,,,,0,135,135,135,,,,,,,,,,,,,1996.7374045000001,1997.7923255,,,,,,,1999.8265581,1999.8265581,1999.8265581,1999.8265581,1999.8265581,1999.8265581,1999.8265581,1999.8265581,None,None,None,,,,,,,,,,,1996.7374045000001,1996.7374045000001,None,,1997.7923255,1997.7923255,1999.8265581,n,1996.7374045000001,1996.7374045000001,0.9224999000003038,,2,001,2024-05-27_15h22.40.989,robot_nback_sign,2022.2.5,59.99872802696631,
K,False,1,letter,1,False,False,robot_stimuli\\filler.mp4,2,,,,,,,,,0,136,136,136,,,,,,,,,,,,,1999.8265581,2000.8913143,,,,,,,2003.1182924999998,2003.1182924999998,2003.1182924999998,2003.1182924999998,2003.1182924999998,2003.1182924999998,2003.1182924999998,2003.1182924999998,None,None,None,,,,,,,,,,,1999.8265581,1999.8265581,None,,2000.8913143,2000.8913143,2003.1182924999998,n,1999.8265581,1999.8265581,0.4938244000000225,,2,001,2024-05-27_15h22.40.989,robot_nback_sign,2022.2.5,59.99872802696631,
K,True,1,letter,1,False,False,robot_stimuli\\filler.mp4,2,,,,,,,,,0,137,137,137,,,,,,,,,,,,,2003.1182924999998,2004.1749685,,,,,,,2006.1982873000002,2006.1982873000002,2006.1982873000002,2006.1982873000002,2006.1982873000002,2006.1982873000002,2006.1982873000002,2006.1982873000002,None,None,None,,,,,,,,,,,2003.1182924999998,2003.1182924999998,None,,2004.1749685,2004.1749685,2006.1982873000002,c,2003.1182924999998,2003.1182924999998,0.6273163999999554,,2,001,2024-05-27_15h22.40.989,robot_nback_sign,2022.2.5,59.99872802696631,
B,False,1,letter,1,False,False,robot_stimuli\\filler.mp4,2,,,,,,,,,0,138,138,138,,,,,,,,,,,,,2006.1982873000002,2007.2598984,,,,,,,2009.2857712,2009.2857712,2009.2857712,2009.2857712,2009.2857712,2009.2857712,2009.2857712,2009.2857712,None,None,None,,,,,,,,,,,2006.1982873000002,2006.1982873000002,None,,2007.2598984,2007.2598984,2009.2857712,n,2006.1982873000002,2006.1982873000002,0.4702723000000617,,2,001,2024-05-27_15h22.40.989,robot_nback_sign,2022.2.5,59.99872802696631,
R,False,1,letter,1,False,False,robot_stimuli\\filler.mp4,2,,,,,,,,,0,139,139,139,,,,,,,,,,,,,2009.2857712,2010.3478819000002,,,,,,,2012.3739724000002,2012.3739724000002,2012.3739724000002,2012.3739724000002,2012.3739724000002,2012.3739724000002,2012.3739724000002,2012.3739724000002,None,None,None,,,,,,,,,,,2009.2857712,2009.2857712,None,,2010.3478819000002,2010.3478819000002,2012.3739724000002,n,2009.2857712,2009.2857712,0.5346382000002734,,2,001,2024-05-27_15h22.40.989,robot_nback_sign,2022.2.5,59.99872802696631,
V,False,1,letter,1,False,False,robot_stimuli\\filler.mp4,2,,,,,,,,,0,140,140,140,,,,,,,,,,,,,2012.3739724000002,,,,,,,,2015.6663029000001,2015.6663029000001,2015.6663029000001,2015.6663029000001,2015.6663029000001,2015.6663029000001,2015.6663029000001,2015.6663029000001,None,None,None,,,,,,,,,,,2012.3739724000002,2012.3739724000002,None,,2013.4410957999999,2013.4410957999999,2015.6663029000001,n,2012.3739724000002,2012.3739724000002,0.593855399999967,,2,001,2024-05-27_15h22.40.989,robot_nback_sign,2022.2.5,59.99872802696631,
M,False,1,letter,1,False,False,robot_stimuli\\filler.mp4,2,,,,,,,,,0,141,141,141,,,,,,,,,,,,,2015.6663029000001,2016.7254256,,,,,,,2018.7599111,2018.7599111,2018.7599111,2018.7599111,2018.7599111,2018.7599111,2018.7599111,2018.7599111,None,None,None,,,,,,,,,,,2015.6663029000001,2015.6663029000001,None,,2016.7254256,2016.7254256,2018.7599111,n,2015.6663029000001,2015.6663029000001,0.5563978000000418,,2,001,2024-05-27_15h22.40.989,robot_nback_sign,2022.2.5,59.99872802696631,
V,False,1,letter,1,False,False,robot_stimuli\\filler.mp4,2,,,,,,,,,0,142,142,142,,,,,,,,,,,,,2018.7599111,2019.8260421,,,,,,,2021.8560929,2021.8560929,2021.8560929,2021.8560929,2021.8560929,2021.8560929,2021.8560929,2021.8560929,None,None,None,,,,,,,,,,,2018.7599111,2018.7599111,None,,2019.8260421,2019.8260421,2021.8560929,n,2018.7599111,2018.7599111,0.8725031999997839,,2,001,2024-05-27_15h22.40.989,robot_nback_sign,2022.2.5,59.99872802696631,
L,False,1,letter,1,False,False,robot_stimuli\\filler.mp4,2,,,,,,,,,0,143,143,143,,,,,,,,,,,,,2021.8560929,,,,,,,,2025.1497192000002,2025.1497192000002,2025.1497192000002,2025.1497192000002,2025.1497192000002,2025.1497192000002,2025.1497192000002,2025.1497192000002,None,None,None,,,,,,,,,,,2021.8560929,2021.8560929,None,,2022.9245197,2022.9245197,2025.1497192000002,n,2021.8560929,2021.8560929,0.6378201000002548,,2,001,2024-05-27_15h22.40.989,robot_nback_sign,2022.2.5,59.99872802696631,
L,True,1,letter,1,False,False,robot_stimuli\\filler.mp4,2,,,,,,,,,0,144,144,144,,,,,,,,,,,,,2025.1497192000002,2026.206478,,,,,,,2028.434515,2028.434515,2028.434515,2028.434515,2028.434515,2028.434515,2028.434515,2028.434515,None,None,None,,,,,,,,,,,2025.1497192000002,2025.1497192000002,None,,2026.206478,2026.206478,2028.434515,c,2025.1497192000002,2025.1497192000002,0.7085183999998037,,2,001,2024-05-27_15h22.40.989,robot_nback_sign,2022.2.5,59.99872802696631,
L,True,1,letter,1,False,False,robot_stimuli\\filler.mp4,2,,,,,,,,,0,145,145,145,,,,,,,,,,,,,2028.434515,2029.4894384,,,,,,,2031.7211984,2031.7211984,2031.7211984,2031.7211984,2031.7211984,2031.7211984,2031.7211984,2031.7211984,None,None,None,,,,,,,,,,,2028.434515,2028.434515,None,,2029.4894384,2029.4894384,2031.7211984,c,2028.434515,2028.434515,0.5613528999997754,,2,001,2024-05-27_15h22.40.989,robot_nback_sign,2022.2.5,59.99872802696631,
R,False,1,letter,1,False,False,robot_stimuli\\filler.mp4,2,,,,,,,,,0,146,146,146,,,,,,,,,,,,,2031.7211984,2032.7753536,,,,,,,2034.8017258,2034.8017258,2034.8017258,2034.8017258,2034.8017258,2034.8017258,2034.8017258,2034.8017258,None,None,None,,,,,,,,,,,2031.7211984,2031.7211984,None,,2032.7753536,2032.7753536,2034.8017258,n,2031.7211984,2031.7211984,0.5300996999999654,,2,001,2024-05-27_15h22.40.989,robot_nback_sign,2022.2.5,59.99872802696631,
M,False,1,letter,1,False,False,robot_stimuli\\filler.mp4,2,,,,,,,,,0,147,147,147,,,,,,,,,,,,,2034.8017258,2035.8583551000002,,,,,,,2038.0913424,2038.0913424,2038.0913424,2038.0913424,2038.0913424,2038.0913424,2038.0913424,2038.0913424,None,None,None,,,,,,,,,,,2034.8017258,2034.8017258,None,,2035.8583551000002,2035.8583551000002,2038.0913424,n,2034.8017258,2034.8017258,0.35213640000031887,,2,001,2024-05-27_15h22.40.989,robot_nback_sign,2022.2.5,59.99872802696631,
P,False,1,letter,1,False,False,robot_stimuli\\filler.mp4,2,,,,,,,,,0,148,148,148,,,,,,,,,,,,,2038.0913424,2039.1681558999999,,,,,,,2041.2001025,2041.2001025,2041.2001025,2041.2001025,2041.2001025,2041.2001025,2041.2001025,2041.2001025,None,None,None,,,,,,,,,,,2038.0913424,2038.0913424,None,,2039.1681558999999,2039.1681558999999,2041.2001025,n,2038.0913424,2038.0913424,0.48283810000023664,,2,001,2024-05-27_15h22.40.989,robot_nback_sign,2022.2.5,59.99872802696631,
C,False,1,letter,1,False,False,robot_stimuli\\filler.mp4,2,,,,,,,,,0,149,149,149,,,,,,,,,,,,,2041.2001025,2042.2586313000002,,,,,,,2044.2824044,2044.2824044,2044.2824044,2044.2824044,2044.2824044,2044.2824044,2044.2824044,2044.2824044,None,None,None,,,,,,,,,,,2041.2001025,2041.2001025,None,,2042.2586313000002,2042.2586313000002,2044.2824044,n,2041.2001025,2041.2001025,0.455664999999982,,2,001,2024-05-27_15h22.40.989,robot_nback_sign,2022.2.5,59.99872802696631,
T,False,1,letter,1,False,False,robot_stimuli\\filler.mp4,2,,,,,,,,,0,150,150,150,,,,,,,,,,,,,2044.2824044,2045.3410586999998,,,,,,,2047.5660987,2047.5660987,2047.5660987,2047.5660987,2047.5660987,2047.5660987,2047.5660987,2047.5660987,None,None,None,,,,,,,,,,,2044.2824044,2044.2824044,None,,2045.3410586999998,2045.3410586999998,2047.5660987,n,2044.2824044,2044.2824044,0.5895093999997982,,2,001,2024-05-27_15h22.40.989,robot_nback_sign,2022.2.5,59.99872802696631,
G,False,1,letter,1,False,False,robot_stimuli\\filler.mp4,2,,,,,,,,,0,151,151,151,,,,,,,,,,,,,2047.5660987,2048.6244321,,,,,,,2050.8503389,2050.8503389,2050.8503389,2050.8503389,2050.8503389,2050.8503389,2050.8503389,2050.8503389,None,None,None,,,,,,,,,,,2047.5660987,2047.5660987,None,,2048.6244321,2048.6244321,2050.8503389,n,2047.5660987,2047.5660987,0.5206219000001795,,2,001,2024-05-27_15h22.40.989,robot_nback_sign,2022.2.5,59.99872802696631,
K,False,1,letter,1,False,False,robot_stimuli\\filler.mp4,2,,,,,,,,,0,152,152,152,,,,,,,,,,,,,2050.8503389,2051.9069587,,,,,,,2054.14137,2054.14137,2054.14137,2054.14137,2054.14137,2054.14137,2054.14137,2054.14137,None,None,None,,,,,,,,,,,2050.8503389,2050.8503389,None,,2051.9069587,2051.9069587,2054.14137,n,2050.8503389,2050.8503389,0.45483980000020097,,2,001,2024-05-27_15h22.40.989,robot_nback_sign,2022.2.5,59.99872802696631,
K,True,1,letter,1,False,False,robot_stimuli\\filler.mp4,2,,,,,,,,,0,153,153,153,,,,,,,,,,,,,2054.14137,2055.2079423,,,,,,,2057.2382696,2057.2382696,2057.2382696,2057.2382696,2057.2382696,2057.2382696,2057.2382696,2057.2382696,None,None,None,,,,,,,,,,,2054.14137,2054.14137,None,,2055.2079423,2055.2079423,2057.2382696,c,2054.14137,2054.14137,0.9309343999998703,,2,001,2024-05-27_15h22.40.989,robot_nback_sign,2022.2.5,59.99872802696631,
J,False,1,letter,1,False,False,robot_stimuli\\filler.mp4,2,,,,,,,,,0,154,154,154,,,,,,,,,,,,,2057.2382696,2058.2950341,,,,,,,2060.3196998,2060.3196998,2060.3196998,2060.3196998,2060.3196998,2060.3196998,2060.3196998,2060.3196998,None,None,None,,,,,,,,,,,2057.2382696,2057.2382696,None,,2058.2950341,2058.2950341,2060.3196998,n,2057.2382696,2057.2382696,0.6673096999998336,,2,001,2024-05-27_15h22.40.989,robot_nback_sign,2022.2.5,59.99872802696631,
