sequence,is_target,condition,stimuli,block,is_block_beginning,is_block_ending,fname,subject,retraining.thisRepN,retraining.thisTrialN,retraining.thisN,retraining.thisIndex,training.thisRepN,training.thisTrialN,training.thisN,training.thisIndex,trials.thisRepN,trials.thisTrialN,trials.thisN,trials.thisIndex,langage_text.started,langage_key.started,langage_key.keys,langage_key.rt,intro_text.started,intro_key.started,intro_key.keys,intro_key.rt,training_robot_intro_text.started,training_robot_intro_key.started,training_robot_intro_key.keys,training_robot_intro_key.rt,cross.started,cross.stopped,training_letter.started,training_robot_key.started,training_robot_question.started,training_robot_keys.started,training_letter.stopped,training_robot_key.keys,RSME_labels.started,RSME_labels.stopped,RSME_ticks.started,RSME_ticks.stopped,RSME_text.started,RSME_text.stopped,RSME_key.started,RSME_key.stopped,RSME_ticks.response,RSME_ticks.rt,RSME_key.keys,training_robot_intro_text.stopped,training_robot_intro_key.stopped,RSME_key.rt,training_robot_key.rt,training_robot_movie.started,experiment_beginning_text.started,experiment_beginning_keys.started,experiment_beginning_key.started,experiment_beginning_key.keys,experiment_beginning_key.rt,block_intro_text.started,block_intro_key.started,block_intro_key.keys,block_intro_key.rt,movie.started,key.started,key.keys,key.rt,block_intro_text.stopped,block_intro_key.stopped,letter.started,letter.stopped,participant,session,date,expName,psychopyVersion,frameRate,
,,,,,,,,,,,,,,,,,,,,,27.08798929999466,27.08798929999466,f,2039.6500141000142,,,,,,,,,,,,,,,,,,,,,,,,,,,,,,,,,,,,,,,,,,,,,,,,,,3,001,2024-06-05_09h33.18.786,robot_nback_sign,2022.2.5,60.05703015661584,
,,,,,,,,,,,,,,,,,,,,,,,,,2066.803298499988,2066.803298499988,space,170.46280330000445,,,,,,,,,,,,,,,,,,,,,,,,,,,,,,,,,,,,,,,,,,,,,,3,001,2024-06-05_09h33.18.786,robot_nback_sign,2022.2.5,60.05703015661584,
V,False,1,letter,2,True,False,robot_stimuli\\filler.mp4,3,0,0,0,0,0,0,0,0,,,,,,,,,,,,,2237.2966177999915,2237.2966177999915,space,4.386593900009757,2241.7151975999877,2243.113971899991,2243.113971899991,2243.113971899991,2243.113971899991,2243.113971899991,2245.4118216999923,None,2245.4118216999923,2245.4118216999923,2245.4118216999923,2245.4118216999923,2245.4118216999923,2245.4118216999923,2245.4118216999923,2245.4118216999923,None,None,None,,,,,,,,,,,,,,,,,,,,,,,3,001,2024-06-05_09h33.18.786,robot_nback_sign,2022.2.5,60.05703015661584,
F,False,1,letter,2,False,False,robot_stimuli\\filler.mp4,3,0,0,0,0,0,1,1,1,,,,,,,,,,,,,2245.4118216999923,2245.4118216999923,None,,2245.4118216999923,2246.4835773000086,2246.4835773000086,2246.4835773000086,2246.4835773000086,2246.4835773000086,2248.717127700016,None,2248.717127700016,2248.717127700016,2248.717127700016,2248.717127700016,2248.717127700016,2248.717127700016,2248.717127700016,2248.717127700016,None,None,None,2245.4118216999923,2245.4118216999923,,,,,,,,,,,,,,,,,,,,,3,001,2024-06-05_09h33.18.786,robot_nback_sign,2022.2.5,60.05703015661584,
Z,False,1,letter,2,False,False,robot_stimuli\\filler.mp4,3,0,0,0,0,0,2,2,2,,,,,,,,,,,,,2248.717127700016,2248.717127700016,None,,2248.717127700016,,2249.7994330000074,2249.7994330000074,2249.7994330000074,2249.7994330000074,2251.8399644000165,None,2251.8399644000165,2251.8399644000165,2251.8399644000165,2251.8399644000165,2251.8399644000165,2251.8399644000165,2251.8399644000165,2251.8399644000165,None,None,None,2248.717127700016,2248.717127700016,,,,,,,,,,,,,,,,,,,,,3,001,2024-06-05_09h33.18.786,robot_nback_sign,2022.2.5,60.05703015661584,
Z,True,1,letter,2,False,False,robot_stimuli\\filler.mp4,3,0,0,0,0,0,3,3,3,,,,,,,,,,,,,2251.8399644000165,2251.8399644000165,None,,2251.8399644000165,2252.9116317000007,2252.9116317000007,2252.9116317000007,2252.9116317000007,2252.9116317000007,2254.942028199992,None,2254.942028199992,2254.942028199992,2254.942028199992,2254.942028199992,2254.942028199992,2254.942028199992,2254.942028199992,2254.942028199992,None,None,None,2251.8399644000165,2251.8399644000165,,,,,,,,,,,,,,,,,,,,,3,001,2024-06-05_09h33.18.786,robot_nback_sign,2022.2.5,60.05703015661584,
Z,True,1,letter,2,False,False,robot_stimuli\\filler.mp4,3,0,0,0,0,0,4,4,4,,,,,,,,,,,,,2254.942028199992,2254.942028199992,None,,2254.942028199992,2256.017133599991,2256.017133599991,2256.017133599991,2256.017133599991,2256.017133599991,2258.2424293000076,None,2258.2424293000076,2258.2424293000076,2258.2424293000076,2258.2424293000076,2258.2424293000076,2258.2424293000076,2258.2424293000076,2258.2424293000076,None,None,None,2254.942028199992,2254.942028199992,,,,,,,,,,,,,,,,,,,,,3,001,2024-06-05_09h33.18.786,robot_nback_sign,2022.2.5,60.05703015661584,
B,False,1,letter,2,False,True,robot_stimuli\\filler.mp4,3,0,0,0,0,0,5,5,5,,,,,,,,,,,,,2258.2424293000076,2258.2424293000076,None,,2258.2424293000076,2259.320802400005,2259.320802400005,2259.320802400005,2259.320802400005,2259.320802400005,2261.4156917000073,None,2261.4156917000073,2297.6768987000105,2261.4156917000073,2297.6768987000105,2261.4156917000073,2297.6768987000105,2261.4156917000073,2297.6768987000105,40.18518518518519,34.60148300000583,space,2258.2424293000076,2258.2424293000076,36.2026298000128,,,,,,,,,,,,,,,,,,,,3,001,2024-06-05_09h33.18.786,robot_nback_sign,2022.2.5,60.05703015661584,
V,False,2,letter,2,True,False,robot_stimuli\\filler.mp4,3,0,0,0,0,0,6,6,6,,,,,,,,,,,,,2297.6768987000105,2297.6768987000105,space,7.20610549999401,2304.915379400016,2305.9874022000004,2305.9874022000004,2305.9874022000004,2305.9874022000004,2305.9874022000004,2308.2181146999937,n,2308.2181146999937,2308.2181146999937,2308.2181146999937,2308.2181146999937,2308.2181146999937,2308.2181146999937,2308.2181146999937,2308.2181146999937,None,None,None,,,,1.3992538999882527,,,,,,,,,,,,,,,,,,,3,001,2024-06-05_09h33.18.786,robot_nback_sign,2022.2.5,60.05703015661584,
W,False,2,letter,2,False,False,robot_stimuli\\filler.mp4,3,0,0,0,0,0,7,7,7,,,,,,,,,,,,,2308.2181146999937,2308.2181146999937,None,,2308.2181146999937,,2309.3006883999915,2309.3006883999915,2309.3006883999915,2309.3006883999915,2311.5367890000052,n,2311.5367890000052,2311.5367890000052,2311.5367890000052,2311.5367890000052,2311.5367890000052,2311.5367890000052,2311.5367890000052,2311.5367890000052,None,None,None,2308.2181146999937,2308.2181146999937,,1.7099884999915957,,,,,,,,,,,,,,,,,,,3,001,2024-06-05_09h33.18.786,robot_nback_sign,2022.2.5,60.05703015661584,
K,False,2,letter,2,False,False,robot_stimuli\\filler.mp4,3,0,0,0,0,0,8,8,8,,,,,,,,,,,,,2311.5367890000052,2311.5367890000052,None,,2311.5367890000052,2312.617814600002,2312.617814600002,2312.617814600002,2312.617814600002,2312.617814600002,2314.8445977999945,n,2314.8445977999945,2314.8445977999945,2314.8445977999945,2314.8445977999945,2314.8445977999945,2314.8445977999945,2314.8445977999945,2314.8445977999945,None,None,None,2311.5367890000052,2311.5367890000052,,0.8415361999941524,,,,,,,,,,,,,,,,,,,3,001,2024-06-05_09h33.18.786,robot_nback_sign,2022.2.5,60.05703015661584,
W,True,2,letter,2,False,False,robot_stimuli\\filler.mp4,3,0,0,0,0,0,9,9,9,,,,,,,,,,,,,2314.8445977999945,2314.8445977999945,None,,2314.8445977999945,2315.913403000013,2315.913403000013,2315.913403000013,2315.913403000013,2315.913403000013,2317.94706820001,c,2317.94706820001,2317.94706820001,2317.94706820001,2317.94706820001,2317.94706820001,2317.94706820001,2317.94706820001,2317.94706820001,None,None,None,2314.8445977999945,2314.8445977999945,,1.1934055000019725,,,,,,,,,,,,,,,,,,,3,001,2024-06-05_09h33.18.786,robot_nback_sign,2022.2.5,60.05703015661584,
K,True,2,letter,2,False,False,robot_stimuli\\filler.mp4,3,0,0,0,0,0,10,10,10,,,,,,,,,,,,,2317.94706820001,2317.94706820001,None,,2317.94706820001,2319.01399040001,2319.01399040001,2319.01399040001,2319.01399040001,2319.01399040001,2321.0419886000163,c,2321.0419886000163,2321.0419886000163,2321.0419886000163,2321.0419886000163,2321.0419886000163,2321.0419886000163,2321.0419886000163,2321.0419886000163,None,None,None,2317.94706820001,2317.94706820001,,1.332050299999537,,,,,,,,,,,,,,,,,,,3,001,2024-06-05_09h33.18.786,robot_nback_sign,2022.2.5,60.05703015661584,
N,False,2,letter,2,False,True,robot_stimuli\\filler.mp4,3,0,0,0,0,0,11,11,11,,,,,,,,,,,,,2321.0419886000163,2321.0419886000163,None,,2321.0419886000163,2322.1154345000105,2322.1154345000105,2322.1154345000105,2322.1154345000105,2322.1154345000105,2324.183891499997,n,2324.183891499997,2331.4124566999963,2324.183891499997,2331.4124566999963,2324.183891499997,2331.4124566999963,2324.183891499997,2331.4124566999963,36.94444444444444,6.100897900003474,space,2321.0419886000163,2321.0419886000163,7.1856353000039235,1.735046899993904,,,,,,,,,,,,,,,,,,,3,001,2024-06-05_09h33.18.786,robot_nback_sign,2022.2.5,60.05703015661584,
H,False,3,letter,2,True,False,robot_stimuli\\filler.mp4,3,0,0,0,0,0,12,12,12,,,,,,,,,,,,,2331.4124566999963,2331.4124566999963,space,8.117629599990323,2339.548760100006,2340.620534000016,2340.620534000016,2340.620534000016,2340.620534000016,2340.620534000016,2342.8443229999975,n,2342.8443229999975,2342.8443229999975,2342.8443229999975,2342.8443229999975,2342.8443229999975,2342.8443229999975,2342.8443229999975,2342.8443229999975,None,None,None,,,,1.3341167999897152,,,,,,,,,,,,,,,,,,,3,001,2024-06-05_09h33.18.786,robot_nback_sign,2022.2.5,60.05703015661584,
C,False,3,letter,2,False,False,robot_stimuli\\filler.mp4,3,0,0,0,0,0,13,13,13,,,,,,,,,,,,,2342.8443229999975,2342.8443229999975,None,,2342.8443229999975,2343.9203564999916,2343.9203564999916,2343.9203564999916,2343.9203564999916,2343.9203564999916,2346.1507820000115,n,2346.1507820000115,2346.1507820000115,2346.1507820000115,2346.1507820000115,2346.1507820000115,2346.1507820000115,2346.1507820000115,2346.1507820000115,None,None,None,2342.8443229999975,2342.8443229999975,,0.8426812999823596,,,,,,,,,,,,,,,,,,,3,001,2024-06-05_09h33.18.786,robot_nback_sign,2022.2.5,60.05703015661584,
Z,False,3,letter,2,False,False,robot_stimuli\\filler.mp4,3,0,0,0,0,0,14,14,14,,,,,,,,,,,,,2346.1507820000115,2346.1507820000115,None,,2346.1507820000115,,2347.230505399988,2347.230505399988,2347.230505399988,2347.230505399988,2349.2595045999915,n,2349.2595045999915,2349.2595045999915,2349.2595045999915,2349.2595045999915,2349.2595045999915,2349.2595045999915,2349.2595045999915,2349.2595045999915,None,None,None,2346.1507820000115,2346.1507820000115,,1.132705399999395,,,,,,,,,,,,,,,,,,,3,001,2024-06-05_09h33.18.786,robot_nback_sign,2022.2.5,60.05703015661584,
T,False,3,letter,2,False,False,robot_stimuli\\filler.mp4,3,0,0,0,0,0,15,15,15,,,,,,,,,,,,,2349.2595045999915,2349.2595045999915,None,,2349.2595045999915,2350.333951800014,2350.333951800014,2350.333951800014,2350.333951800014,2350.333951800014,2352.5702894999995,n,2352.5702894999995,2352.5702894999995,2352.5702894999995,2352.5702894999995,2352.5702894999995,2352.5702894999995,2352.5702894999995,2352.5702894999995,None,None,None,2349.2595045999915,2349.2595045999915,,0.9890785999887157,,,,,,,,,,,,,,,,,,,3,001,2024-06-05_09h33.18.786,robot_nback_sign,2022.2.5,60.05703015661584,
C,True,3,letter,2,False,False,robot_stimuli\\filler.mp4,3,0,0,0,0,0,16,16,16,,,,,,,,,,,,,2352.5702894999995,2352.5702894999995,None,,2352.5702894999995,2353.647713400016,2353.647713400016,2353.647713400016,2353.647713400016,2353.647713400016,2355.6820679999946,c,2355.6820679999946,2355.6820679999946,2355.6820679999946,2355.6820679999946,2355.6820679999946,2355.6820679999946,2355.6820679999946,2355.6820679999946,None,None,None,2352.5702894999995,2352.5702894999995,,1.0192899999965448,,,,,,,,,,,,,,,,,,,3,001,2024-06-05_09h33.18.786,robot_nback_sign,2022.2.5,60.05703015661584,
Z,True,3,letter,2,False,True,robot_stimuli\\filler.mp4,3,0,0,0,0,0,17,17,17,,,,,,,,,,,,,2355.6820679999946,2355.6820679999946,None,,2355.6820679999946,2356.7459706999944,2356.7459706999944,2356.7459706999944,2356.7459706999944,2356.7459706999944,2358.809459500015,c,2358.809459500015,2362.900797200011,2358.809459500015,2362.900797200011,2358.809459500015,2362.900797200011,2358.809459500015,2362.900797200011,25.216049382716037,3.19608760002302,space,2355.6820679999946,2355.6820679999946,4.048311799997464,0.8094147999945562,,,,,,,,,,,,,,,,,,,3,001,2024-06-05_09h33.18.786,robot_nback_sign,2022.2.5,60.05703015661584,
R_Torso_X_For,False,1,robot,1,True,False,robot_stimuli\R_Torso_X_For.mp4,3,0,0,0,0,0,18,18,18,,,,,,,,,,,,,2362.900797200011,2362.900797200011,space,3.3329916000075173,2366.2655124000157,2367.377997600008,,2367.377997600008,2367.377997600008,2367.377997600008,,n,2371.0114803999895,2371.0114803999895,2371.0114803999895,2371.0114803999895,2371.0114803999895,2371.0114803999895,2371.0114803999895,2371.0114803999895,None,None,None,,,,1.991743199992925,2367.377997600008,,,,,,,,,,,,,,,,,,3,001,2024-06-05_09h33.18.786,robot_nback_sign,2022.2.5,60.05703015661584,
R_Torso_X_For,True,1,robot,1,False,False,robot_stimuli\R_Torso_X_For.mp4,3,0,0,0,0,0,19,19,19,,,,,,,,,,,,,2371.0114803999895,2371.0114803999895,None,,2371.0114803999895,2372.106595999998,,2372.106595999998,2372.106595999998,2372.106595999998,,c,2375.7517932000046,2375.7517932000046,2375.7517932000046,2375.7517932000046,2375.7517932000046,2375.7517932000046,2375.7517932000046,2375.7517932000046,None,None,None,2371.0114803999895,2371.0114803999895,,1.4880704000242986,2372.106595999998,,,,,,,,,,,,,,,,,,3,001,2024-06-05_09h33.18.786,robot_nback_sign,2022.2.5,60.05703015661584,
L_Base_Z_For,False,1,robot,1,False,False,robot_stimuli\L_Base_Z_For.mp4,3,0,0,0,0,0,20,20,20,,,,,,,,,,,,,2375.7517932000046,2375.7517932000046,None,,2375.7517932000046,,,2376.8625029000104,2376.8625029000104,2376.8625029000104,,n,2380.5171346999996,2380.5171346999996,2380.5171346999996,2380.5171346999996,2380.5171346999996,2380.5171346999996,2380.5171346999996,2380.5171346999996,None,None,None,2375.7517932000046,2375.7517932000046,,3.4285994000092614,2376.8625029000104,,,,,,,,,,,,,,,,,,3,001,2024-06-05_09h33.18.786,robot_nback_sign,2022.2.5,60.05703015661584,
L_Base_Z_For,True,1,robot,1,False,False,robot_stimuli\L_Base_Z_For.mp4,3,0,0,0,0,0,21,21,21,,,,,,,,,,,,,2380.5171346999996,2380.5171346999996,None,,2380.5171346999996,,,2381.621923700004,2381.621923700004,2381.621923700004,,c,2385.2660988999996,2385.2660988999996,2385.2660988999996,2385.2660988999996,2385.2660988999996,2385.2660988999996,2385.2660988999996,2385.2660988999996,None,None,None,2380.5171346999996,2380.5171346999996,,1.9960141999763437,2381.621923700004,,,,,,,,,,,,,,,,,,3,001,2024-06-05_09h33.18.786,robot_nback_sign,2022.2.5,60.05703015661584,
R_Torso_Y_For,False,1,robot,1,False,False,robot_stimuli\R_Torso_Y_For.mp4,3,0,0,0,0,0,22,22,22,,,,,,,,,,,,,2385.2660988999996,2385.2660988999996,None,,2385.2660988999996,2386.3606633000018,,2386.3606633000018,2386.3606633000018,2386.3606633000018,,None,2389.992861800012,2389.992861800012,2389.992861800012,2389.992861800012,2389.992861800012,2389.992861800012,2389.992861800012,2389.992861800012,None,None,None,2385.2660988999996,2385.2660988999996,,,2386.3606633000018,,,,,,,,,,,,,,,,,,3,001,2024-06-05_09h33.18.786,robot_nback_sign,2022.2.5,60.05703015661584,
R_Head_Z_For,False,1,robot,1,False,True,robot_stimuli\R_Head_Z_For.mp4,3,0,0,0,0,0,23,23,23,,,,,,,,,,,,,2389.992861800012,2389.992861800012,None,,2389.992861800012,2391.0944832999958,,2391.0944832999958,2391.0944832999958,2391.0944832999958,,n,2394.755900499993,2400.088670900004,2394.755900499993,2400.088670900004,2394.755900499993,2400.088670900004,2394.755900499993,2400.088670900004,40.648148148148145,4.1742155000101775,space,2389.992861800012,2389.992861800012,5.286421099997824,1.7644537999876775,2391.0944832999958,,,,,,,,,,,,,,,,,,3,001,2024-06-05_09h33.18.786,robot_nback_sign,2022.2.5,60.05703015661584,
L_Arm_X_Back,False,2,robot,1,True,False,robot_stimuli\L_Arm_X_Back.mp4,3,0,0,0,0,0,24,24,24,,,,,,,,,,,,,2400.088670900004,2400.088670900004,space,8.290153899986763,2408.3990522999957,2409.5000421000004,,2409.5000421000004,2409.5000421000004,2409.5000421000004,,n,2413.1522973999963,2413.1522973999963,2413.1522973999963,2413.1522973999963,2413.1522973999963,2413.1522973999963,2413.1522973999963,2413.1522973999963,None,None,None,,,,3.1025969000183977,2409.5000421000004,,,,,,,,,,,,,,,,,,3,001,2024-06-05_09h33.18.786,robot_nback_sign,2022.2.5,60.05703015661584,
L_Base_X_For,False,2,robot,1,False,False,robot_stimuli\L_Base_X_For.mp4,3,0,0,0,0,0,25,25,25,,,,,,,,,,,,,2413.1522973999963,2413.1522973999963,None,,2413.1522973999963,,,2414.260202800011,2414.260202800011,2414.260202800011,,n,2417.827601500001,2417.827601500001,2417.827601500001,2417.827601500001,2417.827601500001,2417.827601500001,2417.827601500001,2417.827601500001,None,None,None,2413.1522973999963,2413.1522973999963,,1.9991109000111464,2414.260202800011,,,,,,,,,,,,,,,,,,3,001,2024-06-05_09h33.18.786,robot_nback_sign,2022.2.5,60.05703015661584,
L_Torso_Z_Back,False,2,robot,1,False,False,robot_stimuli\L_Torso_Z_Back.mp4,3,0,0,0,0,0,26,26,26,,,,,,,,,,,,,2417.827601500001,2417.827601500001,None,,2417.827601500001,2418.925850700005,,2418.925850700005,2418.925850700005,2418.925850700005,,n,2422.4353510999936,2422.4353510999936,2422.4353510999936,2422.4353510999936,2422.4353510999936,2422.4353510999936,2422.4353510999936,2422.4353510999936,None,None,None,2417.827601500001,2417.827601500001,,2.0532600000151433,2418.925850700005,,,,,,,,,,,,,,,,,,3,001,2024-06-05_09h33.18.786,robot_nback_sign,2022.2.5,60.05703015661584,
R_Head_Y_For,False,2,robot,1,False,False,robot_stimuli\R_Head_Y_For.mp4,3,0,0,0,0,0,27,27,27,,,,,,,,,,,,,2422.4353510999936,2422.4353510999936,None,,2422.4353510999936,,,2423.5428455999936,2423.5428455999936,2423.5428455999936,,n,2427.1856810000027,2427.1856810000027,2427.1856810000027,2427.1856810000027,2427.1856810000027,2427.1856810000027,2427.1856810000027,2427.1856810000027,None,None,None,2422.4353510999936,2422.4353510999936,,2.124391099991044,2423.5428455999936,,,,,,,,,,,,,,,,,,3,001,2024-06-05_09h33.18.786,robot_nback_sign,2022.2.5,60.05703015661584,
L_Torso_Z_Back,True,2,robot,1,False,False,robot_stimuli\L_Torso_Z_Back.mp4,3,0,0,0,0,0,28,28,28,,,,,,,,,,,,,2427.1856810000027,2427.1856810000027,None,,2427.1856810000027,2428.294404699991,,2428.294404699991,2428.294404699991,2428.294404699991,,c,2431.81422629999,2431.81422629999,2431.81422629999,2431.81422629999,2431.81422629999,2431.81422629999,2431.81422629999,2431.81422629999,None,None,None,2427.1856810000027,2427.1856810000027,,1.964728400023887,2428.294404699991,,,,,,,,,,,,,,,,,,3,001,2024-06-05_09h33.18.786,robot_nback_sign,2022.2.5,60.05703015661584,
R_Head_Y_For,True,2,robot,1,False,True,robot_stimuli\R_Head_Y_For.mp4,3,0,0,0,0,0,29,29,29,,,,,,,,,,,,,2431.81422629999,2431.81422629999,None,,2431.81422629999,2432.910287000006,,2432.910287000006,2432.910287000006,2432.910287000006,,c,2436.570268200012,2441.5775492000103,2436.570268200012,2441.5775492000103,2436.570268200012,2441.5775492000103,2436.570268200012,2441.5775492000103,39.413580246913575,3.6948257999902125,space,2431.81422629999,2431.81422629999,4.935615399997914,1.677248599997256,2432.910287000006,,,,,,,,,,,,,,,,,,3,001,2024-06-05_09h33.18.786,robot_nback_sign,2022.2.5,60.05703015661584,
R_Base_Z_Back,False,3,robot,1,True,False,robot_stimuli\R_Base_Z_Back.mp4,3,0,0,0,0,0,30,30,30,,,,,,,,,,,,,2441.5775492000103,2441.5775492000103,space,2.7050367000047117,2444.299146800011,2445.3815495000163,,2445.3815495000163,2445.3815495000163,2445.3815495000163,,n,2448.929142000008,2448.929142000008,2448.929142000008,2448.929142000008,2448.929142000008,2448.929142000008,2448.929142000008,2448.929142000008,None,None,None,,,,2.500115699978778,2445.3815495000163,,,,,,,,,,,,,,,,,,3,001,2024-06-05_09h33.18.786,robot_nback_sign,2022.2.5,60.05703015661584,
L_Torso_X_For,False,3,robot,1,False,False,robot_stimuli\L_Torso_X_For.mp4,3,0,0,0,0,0,31,31,31,,,,,,,,,,,,,2448.929142000008,2448.929142000008,None,,2448.929142000008,2450.024716100015,,2450.024716100015,2450.024716100015,2450.024716100015,,n,2453.6619936999923,2453.6619936999923,2453.6619936999923,2453.6619936999923,2453.6619936999923,2453.6619936999923,2453.6619936999923,2453.6619936999923,None,None,None,2448.929142000008,2448.929142000008,,3.3070303999993484,2450.024716100015,,,,,,,,,,,,,,,,,,3,001,2024-06-05_09h33.18.786,robot_nback_sign,2022.2.5,60.05703015661584,
R_Arm_X_Back,False,3,robot,1,False,False,robot_stimuli\R_Arm_X_Back.mp4,3,0,0,0,0,0,32,32,32,,,,,,,,,,,,,2453.6619936999923,2453.6619936999923,None,,2453.6619936999923,2454.749710300006,,2454.749710300006,2454.749710300006,2454.749710300006,,n,2458.392277600011,2458.392277600011,2458.392277600011,2458.392277600011,2458.392277600011,2458.392277600011,2458.392277600011,2458.392277600011,None,None,None,2453.6619936999923,2453.6619936999923,,1.8450433000107296,2454.749710300006,,,,,,,,,,,,,,,,,,3,001,2024-06-05_09h33.18.786,robot_nback_sign,2022.2.5,60.05703015661584,
R_Base_Z_Back,True,3,robot,1,False,False,robot_stimuli\R_Base_Z_Back.mp4,3,0,0,0,0,0,33,33,33,,,,,,,,,,,,,2458.392277600011,2458.392277600011,None,,2458.392277600011,2459.4782729000144,,2459.4782729000144,2459.4782729000144,2459.4782729000144,,c,2463.032001000014,2463.032001000014,2463.032001000014,2463.032001000014,2463.032001000014,2463.032001000014,2463.032001000014,2463.032001000014,None,None,None,2458.392277600011,2458.392277600011,,2.6518841999932192,2459.4782729000144,,,,,,,,,,,,,,,,,,3,001,2024-06-05_09h33.18.786,robot_nback_sign,2022.2.5,60.05703015661584,
L_Torso_X_For,True,3,robot,1,False,False,robot_stimuli\L_Torso_X_For.mp4,3,0,0,0,0,0,34,34,34,,,,,,,,,,,,,2463.032001000014,2463.032001000014,None,,2463.032001000014,2464.1243313000014,,2464.1243313000014,2464.1243313000014,2464.1243313000014,,n,2467.766078399989,2467.766078399989,2467.766078399989,2467.766078399989,2467.766078399989,2467.766078399989,2467.766078399989,2467.766078399989,None,None,None,2463.032001000014,2463.032001000014,,3.229655200004345,2464.1243313000014,,,,,,,,,,,,,,,,,,3,001,2024-06-05_09h33.18.786,robot_nback_sign,2022.2.5,60.05703015661584,
R_Torso_X_For,False,3,robot,1,False,True,robot_stimuli\R_Torso_X_For.mp4,3,0,0,0,0,0,35,35,35,,,,,,,,,,,,,2467.766078399989,2467.766078399989,None,,2467.766078399989,2468.848038099997,,2468.848038099997,2468.848038099997,2468.848038099997,,c,2472.5289904999954,2477.0186485000013,2472.5289904999954,2477.0186485000013,2472.5289904999954,2477.0186485000013,2472.5289904999954,2477.0186485000013,36.172839506172835,3.304633899999317,space,2467.766078399989,2467.766078399989,4.424533900019014,2.594126600015443,2468.848038099997,,,,,,,,,,,,,,,,,,3,001,2024-06-05_09h33.18.786,robot_nback_sign,2022.2.5,60.05703015661584,
,,,,,,,,,0,0,0,0,,,,,,,,,,,,,,,,,,,,,,,,,,,,,,,,,,,,,,,,,,,,,2477.0186485000013,2477.0186485000013,2477.0186485000013,c,20.864728599990485,,,,,,,,,,,,,3,001,2024-06-05_09h33.18.786,robot_nback_sign,2022.2.5,60.05703015661584,
L_Arm_Z_Back,False,3,robot,1,True,False,robot_stimuli\L_Arm_Z_Back.mp4,3,,,,,,,,,0,0,0,0,,,,,,,,,,,,,2503.1824593000056,2504.2690778000106,,,,,,,2507.922535699996,2507.922535699996,2507.922535699996,2507.922535699996,2507.922535699996,2507.922535699996,2507.922535699996,2507.922535699996,None,None,None,,,,,,,,,,,2497.9543103000033,2497.9543103000033,space,5.2001915000146255,2504.2690778000106,2504.2690778000106,n,3.501205200009281,,,,,3,001,2024-06-05_09h33.18.786,robot_nback_sign,2022.2.5,60.05703015661584,
R_Base_X_Back,False,3,robot,1,False,False,robot_stimuli\R_Base_X_Back.mp4,3,,,,,,,,,0,1,1,1,,,,,,,,,,,,,2507.922535699996,2509.025381000014,,,,,,,2512.670951600012,2512.670951600012,2512.670951600012,2512.670951600012,2512.670951600012,2512.670951600012,2512.670951600012,2512.670951600012,None,None,None,,,,,,,,,,,2507.922535699996,2507.922535699996,None,,2509.025381000014,2509.025381000014,None,,2507.922535699996,2507.922535699996,,,3,001,2024-06-05_09h33.18.786,robot_nback_sign,2022.2.5,60.05703015661584,
R_Head_Y_Back,False,3,robot,1,False,False,robot_stimuli\R_Head_Y_Back.mp4,3,,,,,,,,,0,2,2,2,,,,,,,,,,,,,2512.670951600012,2513.775897399988,,,,,,,2517.4073164,2517.4073164,2517.4073164,2517.4073164,2517.4073164,2517.4073164,2517.4073164,2517.4073164,None,None,None,,,,,,,,,,,2512.670951600012,2512.670951600012,None,,2513.775897399988,2513.775897399988,n,2.4744571000046562,2512.670951600012,2512.670951600012,,,3,001,2024-06-05_09h33.18.786,robot_nback_sign,2022.2.5,60.05703015661584,
L_Head_Y_For,False,3,robot,1,False,False,robot_stimuli\L_Head_Y_For.mp4,3,,,,,,,,,0,3,3,3,,,,,,,,,,,,,2517.4073164,2518.4934587999887,,,,,,,2522.1321799000143,2522.1321799000143,2522.1321799000143,2522.1321799000143,2522.1321799000143,2522.1321799000143,2522.1321799000143,2522.1321799000143,None,None,None,,,,,,,,,,,2517.4073164,2517.4073164,None,,2518.4934587999887,2518.4934587999887,n,2.8762839999981225,2517.4073164,2517.4073164,,,3,001,2024-06-05_09h33.18.786,robot_nback_sign,2022.2.5,60.05703015661584,
L_Arm_X_For,False,3,robot,1,False,False,robot_stimuli\L_Arm_X_For.mp4,3,,,,,,,,,0,4,4,4,,,,,,,,,,,,,2522.1321799000143,2523.210680499993,,,,,,,2526.860402899998,2526.860402899998,2526.860402899998,2526.860402899998,2526.860402899998,2526.860402899998,2526.860402899998,2526.860402899998,None,None,None,,,,,,,,,,,2522.1321799000143,2522.1321799000143,None,,2523.210680499993,2523.210680499993,n,3.432402699982049,2522.1321799000143,2522.1321799000143,,,3,001,2024-06-05_09h33.18.786,robot_nback_sign,2022.2.5,60.05703015661584,
R_Head_Y_Back,True,3,robot,1,False,False,robot_stimuli\R_Head_Y_Back.mp4,3,,,,,,,,,0,5,5,5,,,,,,,,,,,,,2526.860402899998,2527.9458673000045,,,,,,,2531.595948400005,2531.595948400005,2531.595948400005,2531.595948400005,2531.595948400005,2531.595948400005,2531.595948400005,2531.595948400005,None,None,None,,,,,,,,,,,2526.860402899998,2526.860402899998,None,,2527.9458673000045,2527.9458673000045,c,2.9523340000014286,2526.860402899998,2526.860402899998,,,3,001,2024-06-05_09h33.18.786,robot_nback_sign,2022.2.5,60.05703015661584,
L_Torso_Y_Back,False,3,robot,1,False,False,robot_stimuli\L_Torso_Y_Back.mp4,3,,,,,,,,,0,6,6,6,,,,,,,,,,,,,2531.595948400005,2532.6784124000114,,,,,,,2536.198033499997,2536.198033499997,2536.198033499997,2536.198033499997,2536.198033499997,2536.198033499997,2536.198033499997,2536.198033499997,None,None,None,,,,,,,,,,,2531.595948400005,2531.595948400005,None,,2532.6784124000114,2532.6784124000114,c,2.9402760000084527,2531.595948400005,2531.595948400005,,,3,001,2024-06-05_09h33.18.786,robot_nback_sign,2022.2.5,60.05703015661584,
R_Arm_Y_Back,False,3,robot,1,False,False,robot_stimuli\R_Arm_Y_Back.mp4,3,,,,,,,,,0,7,7,7,,,,,,,,,,,,,2536.198033499997,2537.278977500013,,,,,,,2540.9294463999977,2540.9294463999977,2540.9294463999977,2540.9294463999977,2540.9294463999977,2540.9294463999977,2540.9294463999977,2540.9294463999977,None,None,None,,,,,,,,,,,2536.198033499997,2536.198033499997,None,,2537.278977500013,2537.278977500013,n,2.9234157000028063,2536.198033499997,2536.198033499997,,,3,001,2024-06-05_09h33.18.786,robot_nback_sign,2022.2.5,60.05703015661584,
L_Base_Z_For,False,3,robot,1,False,False,robot_stimuli\L_Base_Z_For.mp4,3,,,,,,,,,0,8,8,8,,,,,,,,,,,,,2540.9294463999977,2542.0099974999903,,,,,,,2545.649576399999,2545.649576399999,2545.649576399999,2545.649576399999,2545.649576399999,2545.649576399999,2545.649576399999,2545.649576399999,None,None,None,,,,,,,,,,,2540.9294463999977,2540.9294463999977,None,,2542.0099974999903,2542.0099974999903,c,2.5048508000036236,2540.9294463999977,2540.9294463999977,,,3,001,2024-06-05_09h33.18.786,robot_nback_sign,2022.2.5,60.05703015661584,
L_Head_Z_Back,False,3,robot,1,False,False,robot_stimuli\L_Head_Z_Back.mp4,3,,,,,,,,,0,9,9,9,,,,,,,,,,,,,2545.649576399999,2546.7281312000123,,,,,,,2550.3791531999887,2550.3791531999887,2550.3791531999887,2550.3791531999887,2550.3791531999887,2550.3791531999887,2550.3791531999887,2550.3791531999887,None,None,None,,,,,,,,,,,2545.649576399999,2545.649576399999,None,,2546.7281312000123,2546.7281312000123,c,2.4348921999917366,2545.649576399999,2545.649576399999,,,3,001,2024-06-05_09h33.18.786,robot_nback_sign,2022.2.5,60.05703015661584,
L_Head_Z_Back,False,3,robot,1,False,False,robot_stimuli\L_Head_Z_Back.mp4,3,,,,,,,,,0,10,10,10,,,,,,,,,,,,,2550.3791531999887,2551.4569768999936,,,,,,,2555.0952245999943,2555.0952245999943,2555.0952245999943,2555.0952245999943,2555.0952245999943,2555.0952245999943,2555.0952245999943,2555.0952245999943,None,None,None,,,,,,,,,,,2550.3791531999887,2550.3791531999887,None,,2551.4569768999936,2551.4569768999936,c,2.40200889998232,2550.3791531999887,2550.3791531999887,,,3,001,2024-06-05_09h33.18.786,robot_nback_sign,2022.2.5,60.05703015661584,
R_Head_Y_For,False,3,robot,1,False,False,robot_stimuli\R_Head_Y_For.mp4,3,,,,,,,,,0,11,11,11,,,,,,,,,,,,,2555.0952245999943,2556.1765492999984,,,,,,,2559.8075616999995,2559.8075616999995,2559.8075616999995,2559.8075616999995,2559.8075616999995,2559.8075616999995,2559.8075616999995,2559.8075616999995,None,None,None,,,,,,,,,,,2555.0952245999943,2555.0952245999943,None,,2556.1765492999984,2556.1765492999984,c,2.186007200012682,2555.0952245999943,2555.0952245999943,,,3,001,2024-06-05_09h33.18.786,robot_nback_sign,2022.2.5,60.05703015661584,
L_Arm_X_For,False,3,robot,1,False,False,robot_stimuli\L_Arm_X_For.mp4,3,,,,,,,,,0,12,12,12,,,,,,,,,,,,,2559.8075616999995,2560.893479999999,,,,,,,2564.533901899995,2564.533901899995,2564.533901899995,2564.533901899995,2564.533901899995,2564.533901899995,2564.533901899995,2564.533901899995,None,None,None,,,,,,,,,,,2559.8075616999995,2559.8075616999995,None,,2560.893479999999,2560.893479999999,n,2.7884164999995846,2559.8075616999995,2559.8075616999995,,,3,001,2024-06-05_09h33.18.786,robot_nback_sign,2022.2.5,60.05703015661584,
L_Head_Z_Back,True,3,robot,1,False,False,robot_stimuli\L_Head_Z_Back.mp4,3,,,,,,,,,0,13,13,13,,,,,,,,,,,,,2564.533901899995,,,,,,,,2569.2801000000036,2569.2801000000036,2569.2801000000036,2569.2801000000036,2569.2801000000036,2569.2801000000036,2569.2801000000036,2569.2801000000036,None,None,None,,,,,,,,,,,2564.533901899995,2564.533901899995,None,,2565.6296045999916,2565.6296045999916,None,,2564.533901899995,2564.533901899995,,,3,001,2024-06-05_09h33.18.786,robot_nback_sign,2022.2.5,60.05703015661584,
R_Base_X_For,False,3,robot,1,False,False,robot_stimuli\R_Base_X_For.mp4,3,,,,,,,,,0,14,14,14,,,,,,,,,,,,,2569.2801000000036,2570.3610664000153,,,,,,,2573.900750200002,2573.900750200002,2573.900750200002,2573.900750200002,2573.900750200002,2573.900750200002,2573.900750200002,2573.900750200002,None,None,None,,,,,,,,,,,2569.2801000000036,2569.2801000000036,None,,2570.3610664000153,2570.3610664000153,None,,2569.2801000000036,2569.2801000000036,,,3,001,2024-06-05_09h33.18.786,robot_nback_sign,2022.2.5,60.05703015661584,
L_Arm_X_For,True,3,robot,1,False,False,robot_stimuli\L_Arm_X_For.mp4,3,,,,,,,,,0,15,15,15,,,,,,,,,,,,,2573.900750200002,,,,,,,,2578.6323858000105,2578.6323858000105,2578.6323858000105,2578.6323858000105,2578.6323858000105,2578.6323858000105,2578.6323858000105,2578.6323858000105,None,None,None,,,,,,,,,,,2573.900750200002,2573.900750200002,None,,2574.993304100004,2574.993304100004,None,,2573.900750200002,2573.900750200002,,,3,001,2024-06-05_09h33.18.786,robot_nback_sign,2022.2.5,60.05703015661584,
R_Head_Y_For,False,3,robot,1,False,False,robot_stimuli\R_Head_Y_For.mp4,3,,,,,,,,,0,16,16,16,,,,,,,,,,,,,2578.6323858000105,2579.710339100013,,,,,,,2583.35050890001,2583.35050890001,2583.35050890001,2583.35050890001,2583.35050890001,2583.35050890001,2583.35050890001,2583.35050890001,None,None,None,,,,,,,,,,,2578.6323858000105,2578.6323858000105,None,,2579.710339100013,2579.710339100013,None,,2578.6323858000105,2578.6323858000105,,,3,001,2024-06-05_09h33.18.786,robot_nback_sign,2022.2.5,60.05703015661584,
L_Head_Z_Back,False,3,robot,1,False,False,robot_stimuli\L_Head_Z_Back.mp4,3,,,,,,,,,0,17,17,17,,,,,,,,,,,,,2583.35050890001,,,,,,,,2588.095311000012,2588.095311000012,2588.095311000012,2588.095311000012,2588.095311000012,2588.095311000012,2588.095311000012,2588.095311000012,None,None,None,,,,,,,,,,,2583.35050890001,2583.35050890001,None,,2584.4440459999896,2584.4440459999896,None,,2583.35050890001,2583.35050890001,,,3,001,2024-06-05_09h33.18.786,robot_nback_sign,2022.2.5,60.05703015661584,
L_Head_X_For,False,3,robot,1,False,False,robot_stimuli\L_Head_X_For.mp4,3,,,,,,,,,0,18,18,18,,,,,,,,,,,,,2588.095311000012,2589.1774460999877,,,,,,,2592.7664341999916,2592.7664341999916,2592.7664341999916,2592.7664341999916,2592.7664341999916,2592.7664341999916,2592.7664341999916,2592.7664341999916,None,None,None,,,,,,,,,,,2588.095311000012,2588.095311000012,None,,2589.1774460999877,2589.1774460999877,None,,2588.095311000012,2588.095311000012,,,3,001,2024-06-05_09h33.18.786,robot_nback_sign,2022.2.5,60.05703015661584,
R_Head_Y_For,True,3,robot,1,False,False,robot_stimuli\R_Head_Y_For.mp4,3,,,,,,,,,0,19,19,19,,,,,,,,,,,,,2592.7664341999916,2593.8581238999905,,,,,,,2597.498194999993,2597.498194999993,2597.498194999993,2597.498194999993,2597.498194999993,2597.498194999993,2597.498194999993,2597.498194999993,None,None,None,,,,,,,,,,,2592.7664341999916,2592.7664341999916,None,,2593.8581238999905,2593.8581238999905,c,2.6405203999893274,2592.7664341999916,2592.7664341999916,,,3,001,2024-06-05_09h33.18.786,robot_nback_sign,2022.2.5,60.05703015661584,
L_Arm_Z_Back,False,3,robot,1,False,False,robot_stimuli\L_Arm_Z_Back.mp4,3,,,,,,,,,0,20,20,20,,,,,,,,,,,,,2597.498194999993,2598.578867300006,,,,,,,2602.2319164999935,2602.2319164999935,2602.2319164999935,2602.2319164999935,2602.2319164999935,2602.2319164999935,2602.2319164999935,2602.2319164999935,None,None,None,,,,,,,,,,,2597.498194999993,2597.498194999993,None,,2598.578867300006,2598.578867300006,None,,2597.498194999993,2597.498194999993,,,3,001,2024-06-05_09h33.18.786,robot_nback_sign,2022.2.5,60.05703015661584,
L_Head_X_For,True,3,robot,1,False,False,robot_stimuli\L_Head_X_For.mp4,3,,,,,,,,,0,21,21,21,,,,,,,,,,,,,2602.2319164999935,2603.3106025999878,,,,,,,2606.894887500006,2606.894887500006,2606.894887500006,2606.894887500006,2606.894887500006,2606.894887500006,2606.894887500006,2606.894887500006,None,None,None,,,,,,,,,,,2602.2319164999935,2602.2319164999935,None,,2603.3106025999878,2603.3106025999878,c,2.963440099993022,2602.2319164999935,2602.2319164999935,,,3,001,2024-06-05_09h33.18.786,robot_nback_sign,2022.2.5,60.05703015661584,
R_Head_Y_For,True,3,robot,1,False,False,robot_stimuli\R_Head_Y_For.mp4,3,,,,,,,,,0,22,22,22,,,,,,,,,,,,,2606.894887500006,2607.9812956000096,,,,,,,2611.6319535000075,2611.6319535000075,2611.6319535000075,2611.6319535000075,2611.6319535000075,2611.6319535000075,2611.6319535000075,2611.6319535000075,None,None,None,,,,,,,,,,,2606.894887500006,2606.894887500006,None,,2607.9812956000096,2607.9812956000096,None,,2606.894887500006,2606.894887500006,,,3,001,2024-06-05_09h33.18.786,robot_nback_sign,2022.2.5,60.05703015661584,
R_Head_Y_For,False,3,robot,1,False,False,robot_stimuli\R_Head_Y_For.mp4,3,,,,,,,,,0,23,23,23,,,,,,,,,,,,,2611.6319535000075,2612.7067928999895,,,,,,,2616.347088700015,2616.347088700015,2616.347088700015,2616.347088700015,2616.347088700015,2616.347088700015,2616.347088700015,2616.347088700015,None,None,None,,,,,,,,,,,2611.6319535000075,2611.6319535000075,None,,2612.7067928999895,2612.7067928999895,c,2.8401975000160746,2611.6319535000075,2611.6319535000075,,,3,001,2024-06-05_09h33.18.786,robot_nback_sign,2022.2.5,60.05703015661584,
R_Torso_Y_Back,False,3,robot,1,False,False,robot_stimuli\R_Torso_Y_Back.mp4,3,,,,,,,,,0,24,24,24,,,,,,,,,,,,,2616.347088700015,2617.4290581000096,,,,,,,2621.0798307000077,2621.0798307000077,2621.0798307000077,2621.0798307000077,2621.0798307000077,2621.0798307000077,2621.0798307000077,2621.0798307000077,None,None,None,,,,,,,,,,,2616.347088700015,2616.347088700015,None,,2617.4290581000096,2617.4290581000096,n,3.46276090000174,2616.347088700015,2616.347088700015,,,3,001,2024-06-05_09h33.18.786,robot_nback_sign,2022.2.5,60.05703015661584,
L_Base_Z_For,False,3,robot,1,False,False,robot_stimuli\L_Base_Z_For.mp4,3,,,,,,,,,0,25,25,25,,,,,,,,,,,,,2621.0798307000077,2622.159827399999,,,,,,,2625.799915700016,2625.799915700016,2625.799915700016,2625.799915700016,2625.799915700016,2625.799915700016,2625.799915700016,2625.799915700016,None,None,None,,,,,,,,,,,2621.0798307000077,2621.0798307000077,None,,2622.159827399999,2622.159827399999,None,,2621.0798307000077,2621.0798307000077,,,3,001,2024-06-05_09h33.18.786,robot_nback_sign,2022.2.5,60.05703015661584,
R_Head_Y_For,True,3,robot,1,False,False,robot_stimuli\R_Head_Y_For.mp4,3,,,,,,,,,0,26,26,26,,,,,,,,,,,,,2625.799915700016,2626.877615400008,,,,,,,2630.528917299991,2630.528917299991,2630.528917299991,2630.528917299991,2630.528917299991,2630.528917299991,2630.528917299991,2630.528917299991,None,None,None,,,,,,,,,,,2625.799915700016,2625.799915700016,None,,2626.877615400008,2626.877615400008,None,,2625.799915700016,2625.799915700016,,,3,001,2024-06-05_09h33.18.786,robot_nback_sign,2022.2.5,60.05703015661584,
R_Arm_X_Back,False,3,robot,1,False,False,robot_stimuli\R_Arm_X_Back.mp4,3,,,,,,,,,0,27,27,27,,,,,,,,,,,,,2630.528917299991,2631.6101266999904,,,,,,,2635.2492939000076,2635.2492939000076,2635.2492939000076,2635.2492939000076,2635.2492939000076,2635.2492939000076,2635.2492939000076,2635.2492939000076,None,None,None,,,,,,,,,,,2630.528917299991,2630.528917299991,None,,2631.6101266999904,2631.6101266999904,None,,2630.528917299991,2630.528917299991,,,3,001,2024-06-05_09h33.18.786,robot_nback_sign,2022.2.5,60.05703015661584,
R_Arm_X_For,False,3,robot,1,False,False,robot_stimuli\R_Arm_X_For.mp4,3,,,,,,,,,0,28,28,28,,,,,,,,,,,,,2635.2492939000076,2636.328909200005,,,,,,,2639.9811139999947,2639.9811139999947,2639.9811139999947,2639.9811139999947,2639.9811139999947,2639.9811139999947,2639.9811139999947,2639.9811139999947,None,None,None,,,,,,,,,,,2635.2492939000076,2635.2492939000076,None,,2636.328909200005,2636.328909200005,None,,2635.2492939000076,2635.2492939000076,,,3,001,2024-06-05_09h33.18.786,robot_nback_sign,2022.2.5,60.05703015661584,
L_Head_X_Back,False,3,robot,1,False,False,robot_stimuli\L_Head_X_Back.mp4,3,,,,,,,,,0,29,29,29,,,,,,,,,,,,,2639.9811139999947,2641.0611692999955,,,,,,,2644.7116861999966,2644.7116861999966,2644.7116861999966,2644.7116861999966,2644.7116861999966,2644.7116861999966,2644.7116861999966,2644.7116861999966,None,None,None,,,,,,,,,,,2639.9811139999947,2639.9811139999947,None,,2641.0611692999955,2641.0611692999955,None,,2639.9811139999947,2639.9811139999947,,,3,001,2024-06-05_09h33.18.786,robot_nback_sign,2022.2.5,60.05703015661584,
R_Base_Y_Back,False,3,robot,1,False,False,robot_stimuli\R_Base_Y_Back.mp4,3,,,,,,,,,0,30,30,30,,,,,,,,,,,,,2644.7116861999966,2645.7935142999922,,,,,,,2649.423228300002,2649.423228300002,2649.423228300002,2649.423228300002,2649.423228300002,2649.423228300002,2649.423228300002,2649.423228300002,None,None,None,,,,,,,,,,,2644.7116861999966,2644.7116861999966,None,,2645.7935142999922,2645.7935142999922,None,,2644.7116861999966,2644.7116861999966,,,3,001,2024-06-05_09h33.18.786,robot_nback_sign,2022.2.5,60.05703015661584,
L_Head_X_Back,False,3,robot,1,False,False,robot_stimuli\L_Head_X_Back.mp4,3,,,,,,,,,0,31,31,31,,,,,,,,,,,,,2649.423228300002,2650.5158897000074,,,,,,,2654.167266400007,2654.167266400007,2654.167266400007,2654.167266400007,2654.167266400007,2654.167266400007,2654.167266400007,2654.167266400007,None,None,None,,,,,,,,,,,2649.423228300002,2649.423228300002,None,,2650.5158897000074,2650.5158897000074,None,,2649.423228300002,2649.423228300002,,,3,001,2024-06-05_09h33.18.786,robot_nback_sign,2022.2.5,60.05703015661584,
L_Head_X_Back,True,3,robot,1,False,False,robot_stimuli\L_Head_X_Back.mp4,3,,,,,,,,,0,32,32,32,,,,,,,,,,,,,2654.167266400007,,,,,,,,2658.8978658000124,2658.8978658000124,2658.8978658000124,2658.8978658000124,2658.8978658000124,2658.8978658000124,2658.8978658000124,2658.8978658000124,None,None,None,,,,,,,,,,,2654.167266400007,2654.167266400007,None,,2655.2585927000036,2655.2585927000036,None,,2654.167266400007,2654.167266400007,,,3,001,2024-06-05_09h33.18.786,robot_nback_sign,2022.2.5,60.05703015661584,
R_Base_Y_For,False,3,robot,1,False,False,robot_stimuli\R_Base_Y_For.mp4,3,,,,,,,,,0,33,33,33,,,,,,,,,,,,,2658.8978658000124,2659.9765763999894,,,,,,,2663.627192999993,2663.627192999993,2663.627192999993,2663.627192999993,2663.627192999993,2663.627192999993,2663.627192999993,2663.627192999993,None,None,None,,,,,,,,,,,2658.8978658000124,2658.8978658000124,None,,2659.9765763999894,2659.9765763999894,None,,2658.8978658000124,2658.8978658000124,,,3,001,2024-06-05_09h33.18.786,robot_nback_sign,2022.2.5,60.05703015661584,
L_Arm_Z_For,False,3,robot,1,False,False,robot_stimuli\L_Arm_Z_For.mp4,3,,,,,,,,,0,34,34,34,,,,,,,,,,,,,2663.627192999993,2664.709393500001,,,,,,,2668.350133800006,2668.350133800006,2668.350133800006,2668.350133800006,2668.350133800006,2668.350133800006,2668.350133800006,2668.350133800006,None,None,None,,,,,,,,,,,2663.627192999993,2663.627192999993,None,,2664.709393500001,2664.709393500001,None,,2663.627192999993,2663.627192999993,,,3,001,2024-06-05_09h33.18.786,robot_nback_sign,2022.2.5,60.05703015661584,
R_Torso_Z_Back,False,3,robot,1,False,False,robot_stimuli\R_Torso_Z_Back.mp4,3,,,,,,,,,0,35,35,35,,,,,,,,,,,,,2668.350133800006,2669.4282288000104,,,,,,,2673.081657200004,2673.081657200004,2673.081657200004,2673.081657200004,2673.081657200004,2673.081657200004,2673.081657200004,2673.081657200004,None,None,None,,,,,,,,,,,2668.350133800006,2668.350133800006,None,,2669.4282288000104,2669.4282288000104,None,,2668.350133800006,2668.350133800006,,,3,001,2024-06-05_09h33.18.786,robot_nback_sign,2022.2.5,60.05703015661584,
R_Base_X_For,False,3,robot,1,False,False,robot_stimuli\R_Base_X_For.mp4,3,,,,,,,,,0,36,36,36,,,,,,,,,,,,,2673.081657200004,2674.175115399994,,,,,,,2677.7154680000094,2677.7154680000094,2677.7154680000094,2677.7154680000094,2677.7154680000094,2677.7154680000094,2677.7154680000094,2677.7154680000094,None,None,None,,,,,,,,,,,2673.081657200004,2673.081657200004,None,,2674.175115399994,2674.175115399994,None,,2673.081657200004,2673.081657200004,,,3,001,2024-06-05_09h33.18.786,robot_nback_sign,2022.2.5,60.05703015661584,
L_Arm_Z_For,True,3,robot,1,False,False,robot_stimuli\L_Arm_Z_For.mp4,3,,,,,,,,,0,37,37,37,,,,,,,,,,,,,2677.7154680000094,2678.79418170001,,,,,,,2682.445727699989,2682.445727699989,2682.445727699989,2682.445727699989,2682.445727699989,2682.445727699989,2682.445727699989,2682.445727699989,None,None,None,,,,,,,,,,,2677.7154680000094,2677.7154680000094,None,,2678.79418170001,2678.79418170001,None,,2677.7154680000094,2677.7154680000094,,,3,001,2024-06-05_09h33.18.786,robot_nback_sign,2022.2.5,60.05703015661584,
R_Base_X_Back,False,3,robot,1,False,False,robot_stimuli\R_Base_X_Back.mp4,3,,,,,,,,,0,38,38,38,,,,,,,,,,,,,2682.445727699989,2683.528105300007,,,,,,,2687.1801146999933,2687.1801146999933,2687.1801146999933,2687.1801146999933,2687.1801146999933,2687.1801146999933,2687.1801146999933,2687.1801146999933,None,None,None,,,,,,,,,,,2682.445727699989,2682.445727699989,None,,2683.528105300007,2683.528105300007,None,,2682.445727699989,2682.445727699989,,,3,001,2024-06-05_09h33.18.786,robot_nback_sign,2022.2.5,60.05703015661584,
L_Head_Z_Back,False,3,robot,1,False,False,robot_stimuli\L_Head_Z_Back.mp4,3,,,,,,,,,0,39,39,39,,,,,,,,,,,,,2687.1801146999933,2688.264754700009,,,,,,,2691.914128000004,2691.914128000004,2691.914128000004,2691.914128000004,2691.914128000004,2691.914128000004,2691.914128000004,2691.914128000004,None,None,None,,,,,,,,,,,2687.1801146999933,2687.1801146999933,None,,2688.264754700009,2688.264754700009,None,,2687.1801146999933,2687.1801146999933,,,3,001,2024-06-05_09h33.18.786,robot_nback_sign,2022.2.5,60.05703015661584,
L_Arm_Z_For,True,3,robot,1,False,False,robot_stimuli\L_Arm_Z_For.mp4,3,,,,,,,,,0,40,40,40,,,,,,,,,,,,,2691.914128000004,2692.995354100014,,,,,,,2696.6507277000055,2696.6507277000055,2696.6507277000055,2696.6507277000055,2696.6507277000055,2696.6507277000055,2696.6507277000055,2696.6507277000055,None,None,None,,,,,,,,,,,2691.914128000004,2691.914128000004,None,,2692.995354100014,2692.995354100014,None,,2691.914128000004,2691.914128000004,,,3,001,2024-06-05_09h33.18.786,robot_nback_sign,2022.2.5,60.05703015661584,
L_Base_Z_Back,False,3,robot,1,False,False,robot_stimuli\L_Base_Z_Back.mp4,3,,,,,,,,,0,41,41,41,,,,,,,,,,,,,2696.6507277000055,,,,,,,,2701.4126468999893,2701.4126468999893,2701.4126468999893,2701.4126468999893,2701.4126468999893,2701.4126468999893,2701.4126468999893,2701.4126468999893,None,None,None,,,,,,,,,,,2696.6507277000055,2696.6507277000055,None,,2697.7608903000073,2697.7608903000073,None,,2696.6507277000055,2696.6507277000055,,,3,001,2024-06-05_09h33.18.786,robot_nback_sign,2022.2.5,60.05703015661584,
R_Base_Z_Back,False,3,robot,1,False,False,robot_stimuli\R_Base_Z_Back.mp4,3,,,,,,,,,0,42,42,42,,,,,,,,,,,,,2701.4126468999893,2702.4955167000007,,,,,,,2706.050623099989,2706.050623099989,2706.050623099989,2706.050623099989,2706.050623099989,2706.050623099989,2706.050623099989,2706.050623099989,None,None,None,,,,,,,,,,,2701.4126468999893,2701.4126468999893,None,,2702.4955167000007,2702.4955167000007,None,,2701.4126468999893,2701.4126468999893,,,3,001,2024-06-05_09h33.18.786,robot_nback_sign,2022.2.5,60.05703015661584,
L_Head_Y_Back,False,3,robot,1,False,False,robot_stimuli\L_Head_Y_Back.mp4,3,,,,,,,,,0,43,43,43,,,,,,,,,,,,,2706.050623099989,2707.143169499992,,,,,,,2710.783290899999,2710.783290899999,2710.783290899999,2710.783290899999,2710.783290899999,2710.783290899999,2710.783290899999,2710.783290899999,None,None,None,,,,,,,,,,,2706.050623099989,2706.050623099989,None,,2707.143169499992,2707.143169499992,None,,2706.050623099989,2706.050623099989,,,3,001,2024-06-05_09h33.18.786,robot_nback_sign,2022.2.5,60.05703015661584,
L_Torso_Y_Back,False,3,robot,1,False,False,robot_stimuli\L_Torso_Y_Back.mp4,3,,,,,,,,,0,44,44,44,,,,,,,,,,,,,2710.783290899999,2711.8617513999925,,,,,,,2715.3790354999946,2715.3790354999946,2715.3790354999946,2715.3790354999946,2715.3790354999946,2715.3790354999946,2715.3790354999946,2715.3790354999946,None,None,None,,,,,,,,,,,2710.783290899999,2710.783290899999,None,,2711.8617513999925,2711.8617513999925,None,,2710.783290899999,2710.783290899999,,,3,001,2024-06-05_09h33.18.786,robot_nback_sign,2022.2.5,60.05703015661584,
L_Torso_Z_Back,False,3,robot,1,False,False,robot_stimuli\L_Torso_Z_Back.mp4,3,,,,,,,,,0,45,45,45,,,,,,,,,,,,,2715.3790354999946,2716.460226700001,,,,,,,2719.967450199998,2719.967450199998,2719.967450199998,2719.967450199998,2719.967450199998,2719.967450199998,2719.967450199998,2719.967450199998,None,None,None,,,,,,,,,,,2715.3790354999946,2715.3790354999946,None,,2716.460226700001,2716.460226700001,n,3.309651700023096,2715.3790354999946,2715.3790354999946,,,3,001,2024-06-05_09h33.18.786,robot_nback_sign,2022.2.5,60.05703015661584,
L_Head_Z_For,False,3,robot,1,False,False,robot_stimuli\L_Head_Z_For.mp4,3,,,,,,,,,0,46,46,46,,,,,,,,,,,,,2719.967450199998,,,,,,,,2724.710844699992,2724.710844699992,2724.710844699992,2724.710844699992,2724.710844699992,2724.710844699992,2724.710844699992,2724.710844699992,None,None,None,,,,,,,,,,,2719.967450199998,2719.967450199998,None,,2721.061790800013,2721.061790800013,None,,2719.967450199998,2719.967450199998,,,3,001,2024-06-05_09h33.18.786,robot_nback_sign,2022.2.5,60.05703015661584,
R_Torso_Y_Back,False,3,robot,1,False,False,robot_stimuli\R_Torso_Y_Back.mp4,3,,,,,,,,,0,47,47,47,,,,,,,,,,,,,2724.710844699992,2725.794543099997,,,,,,,2729.4461737000092,2729.4461737000092,2729.4461737000092,2729.4461737000092,2729.4461737000092,2729.4461737000092,2729.4461737000092,2729.4461737000092,None,None,None,,,,,,,,,,,2724.710844699992,2724.710844699992,None,,2725.794543099997,2725.794543099997,None,,2724.710844699992,2724.710844699992,,,3,001,2024-06-05_09h33.18.786,robot_nback_sign,2022.2.5,60.05703015661584,
R_Base_Y_For,False,3,robot,1,False,False,robot_stimuli\R_Base_Y_For.mp4,3,,,,,,,,,0,48,48,48,,,,,,,,,,,,,2729.4461737000092,2730.528368900006,,,,,,,2734.17860449999,2734.17860449999,2734.17860449999,2734.17860449999,2734.17860449999,2734.17860449999,2734.17860449999,2734.17860449999,None,None,None,,,,,,,,,,,2729.4461737000092,2729.4461737000092,None,,2730.528368900006,2730.528368900006,None,,2729.4461737000092,2729.4461737000092,,,3,001,2024-06-05_09h33.18.786,robot_nback_sign,2022.2.5,60.05703015661584,
L_Arm_Z_For,False,3,robot,1,False,True,robot_stimuli\L_Arm_Z_For.mp4,3,,,,,,,,,0,49,49,49,,,,,,,,,,,,,2734.17860449999,2735.25927770001,,,,,,,2738.9306834000163,2751.3275139000034,2738.9306834000163,2751.3275139000034,2738.9306834000163,2751.3275139000034,2738.9306834000163,2751.3275139000034,36.79012345679013,4.572385300009046,space,,,12.328523399977712,,,,,,,,2734.17860449999,2734.17860449999,None,,2735.25927770001,2735.25927770001,None,,2734.17860449999,2734.17860449999,,,3,001,2024-06-05_09h33.18.786,robot_nback_sign,2022.2.5,60.05703015661584,
R_Head_X_Back,False,2,robot,1,True,False,robot_stimuli\R_Head_X_Back.mp4,3,,,,,,,,,0,50,50,50,,,,,,,,,,,,,2767.7496967999905,2768.8284129000094,,,,,,,2772.467773000011,2772.467773000011,2772.467773000011,2772.467773000011,2772.467773000011,2772.467773000011,2772.467773000011,2772.467773000011,None,None,None,,,,,,,,,,,2751.3275139000034,2751.3275139000034,space,16.402379999984987,2768.8284129000094,2768.8284129000094,n,3.4940025999967474,,,,,3,001,2024-06-05_09h33.18.786,robot_nback_sign,2022.2.5,60.05703015661584,
R_Torso_X_For,False,2,robot,1,False,False,robot_stimuli\R_Torso_X_For.mp4,3,,,,,,,,,0,51,51,51,,,,,,,,,,,,,2772.467773000011,,,,,,,,2777.2128108000034,2777.2128108000034,2777.2128108000034,2777.2128108000034,2777.2128108000034,2777.2128108000034,2777.2128108000034,2777.2128108000034,None,None,None,,,,,,,,,,,2772.467773000011,2772.467773000011,None,,2773.560639500007,2773.560639500007,None,,2772.467773000011,2772.467773000011,,,3,001,2024-06-05_09h33.18.786,robot_nback_sign,2022.2.5,60.05703015661584,
L_Arm_Z_For,False,2,robot,1,False,False,robot_stimuli\L_Arm_Z_For.mp4,3,,,,,,,,,0,52,52,52,,,,,,,,,,,,,2777.2128108000034,2778.293734900013,,,,,,,2781.9234299999953,2781.9234299999953,2781.9234299999953,2781.9234299999953,2781.9234299999953,2781.9234299999953,2781.9234299999953,2781.9234299999953,None,None,None,,,,,,,,,,,2777.2128108000034,2777.2128108000034,None,,2778.293734900013,2778.293734900013,None,,2777.2128108000034,2777.2128108000034,,,3,001,2024-06-05_09h33.18.786,robot_nback_sign,2022.2.5,60.05703015661584,
L_Base_Z_Back,False,2,robot,1,False,False,robot_stimuli\L_Base_Z_Back.mp4,3,,,,,,,,,0,53,53,53,,,,,,,,,,,,,2781.9234299999953,2783.010906600015,,,,,,,2786.650158100005,2786.650158100005,2786.650158100005,2786.650158100005,2786.650158100005,2786.650158100005,2786.650158100005,2786.650158100005,None,None,None,,,,,,,,,,,2781.9234299999953,2781.9234299999953,None,,2783.010906600015,2783.010906600015,None,,2781.9234299999953,2781.9234299999953,,,3,001,2024-06-05_09h33.18.786,robot_nback_sign,2022.2.5,60.05703015661584,
L_Arm_Z_For,True,2,robot,1,False,False,robot_stimuli\L_Arm_Z_For.mp4,3,,,,,,,,,0,54,54,54,,,,,,,,,,,,,2786.650158100005,2787.727911599999,,,,,,,2791.377472799999,2791.377472799999,2791.377472799999,2791.377472799999,2791.377472799999,2791.377472799999,2791.377472799999,2791.377472799999,None,None,None,,,,,,,,,,,2786.650158100005,2786.650158100005,None,,2787.727911599999,2787.727911599999,None,,2786.650158100005,2786.650158100005,,,3,001,2024-06-05_09h33.18.786,robot_nback_sign,2022.2.5,60.05703015661584,
L_Head_X_For,False,2,robot,1,False,False,robot_stimuli\L_Head_X_For.mp4,3,,,,,,,,,0,55,55,55,,,,,,,,,,,,,2791.377472799999,2792.460654499999,,,,,,,2796.0453921000008,2796.0453921000008,2796.0453921000008,2796.0453921000008,2796.0453921000008,2796.0453921000008,2796.0453921000008,2796.0453921000008,None,None,None,,,,,,,,,,,2791.377472799999,2791.377472799999,None,,2792.460654499999,2792.460654499999,None,,2791.377472799999,2791.377472799999,,,3,001,2024-06-05_09h33.18.786,robot_nback_sign,2022.2.5,60.05703015661584,
L_Base_Z_For,False,2,robot,1,False,False,robot_stimuli\L_Base_Z_For.mp4,3,,,,,,,,,0,56,56,56,,,,,,,,,,,,,2796.0453921000008,2797.1265616000164,,,,,,,2800.7688079999934,2800.7688079999934,2800.7688079999934,2800.7688079999934,2800.7688079999934,2800.7688079999934,2800.7688079999934,2800.7688079999934,None,None,None,,,,,,,,,,,2796.0453921000008,2796.0453921000008,None,,2797.1265616000164,2797.1265616000164,None,,2796.0453921000008,2796.0453921000008,,,3,001,2024-06-05_09h33.18.786,robot_nback_sign,2022.2.5,60.05703015661584,
L_Head_Z_Back,False,2,robot,1,False,False,robot_stimuli\L_Head_Z_Back.mp4,3,,,,,,,,,0,57,57,57,,,,,,,,,,,,,2800.7688079999934,,,,,,,,2805.517373800016,2805.517373800016,2805.517373800016,2805.517373800016,2805.517373800016,2805.517373800016,2805.517373800016,2805.517373800016,None,None,None,,,,,,,,,,,2800.7688079999934,2800.7688079999934,None,,2801.8757152000035,2801.8757152000035,None,,2800.7688079999934,2800.7688079999934,,,3,001,2024-06-05_09h33.18.786,robot_nback_sign,2022.2.5,60.05703015661584,
R_Head_Z_For,False,2,robot,1,False,False,robot_stimuli\R_Head_Z_For.mp4,3,,,,,,,,,0,58,58,58,,,,,,,,,,,,,2805.517373800016,2806.5966502999945,,,,,,,2810.244452300016,2810.244452300016,2810.244452300016,2810.244452300016,2810.244452300016,2810.244452300016,2810.244452300016,2810.244452300016,None,None,None,,,,,,,,,,,2805.517373800016,2805.517373800016,None,,2806.5966502999945,2806.5966502999945,None,,2805.517373800016,2805.517373800016,,,3,001,2024-06-05_09h33.18.786,robot_nback_sign,2022.2.5,60.05703015661584,
R_Arm_X_For,False,2,robot,1,False,False,robot_stimuli\R_Arm_X_For.mp4,3,,,,,,,,,0,59,59,59,,,,,,,,,,,,,2810.244452300016,2811.3274521999992,,,,,,,2814.957875399996,2814.957875399996,2814.957875399996,2814.957875399996,2814.957875399996,2814.957875399996,2814.957875399996,2814.957875399996,None,None,None,,,,,,,,,,,2810.244452300016,2810.244452300016,None,,2811.3274521999992,2811.3274521999992,None,,2810.244452300016,2810.244452300016,,,3,001,2024-06-05_09h33.18.786,robot_nback_sign,2022.2.5,60.05703015661584,
L_Arm_Z_For,False,2,robot,1,False,False,robot_stimuli\L_Arm_Z_For.mp4,3,,,,,,,,,0,60,60,60,,,,,,,,,,,,,2814.957875399996,2816.045807799994,,,,,,,2819.695969499997,2819.695969499997,2819.695969499997,2819.695969499997,2819.695969499997,2819.695969499997,2819.695969499997,2819.695969499997,None,None,None,,,,,,,,,,,2814.957875399996,2814.957875399996,None,,2816.045807799994,2816.045807799994,None,,2814.957875399996,2814.957875399996,,,3,001,2024-06-05_09h33.18.786,robot_nback_sign,2022.2.5,60.05703015661584,
L_Arm_Z_For,False,2,robot,1,False,False,robot_stimuli\L_Arm_Z_For.mp4,3,,,,,,,,,0,61,61,61,,,,,,,,,,,,,2819.695969499997,2820.7744212000107,,,,,,,2824.4145335000067,2824.4145335000067,2824.4145335000067,2824.4145335000067,2824.4145335000067,2824.4145335000067,2824.4145335000067,2824.4145335000067,None,None,None,,,,,,,,,,,2819.695969499997,2819.695969499997,None,,2820.7744212000107,2820.7744212000107,None,,2819.695969499997,2819.695969499997,,,3,001,2024-06-05_09h33.18.786,robot_nback_sign,2022.2.5,60.05703015661584,
L_Torso_Z_Back,False,2,robot,1,False,False,robot_stimuli\L_Torso_Z_Back.mp4,3,,,,,,,,,0,62,62,62,,,,,,,,,,,,,2824.4145335000067,2825.4952686000033,,,,,,,2829.0124514999916,2829.0124514999916,2829.0124514999916,2829.0124514999916,2829.0124514999916,2829.0124514999916,2829.0124514999916,2829.0124514999916,None,None,None,,,,,,,,,,,2824.4145335000067,2824.4145335000067,None,,2825.4952686000033,2825.4952686000033,None,,2824.4145335000067,2824.4145335000067,,,3,001,2024-06-05_09h33.18.786,robot_nback_sign,2022.2.5,60.05703015661584,
L_Arm_Z_For,True,2,robot,1,False,False,robot_stimuli\L_Arm_Z_For.mp4,3,,,,,,,,,0,63,63,63,,,,,,,,,,,,,2829.0124514999916,2830.0947371000075,,,,,,,2833.744862099993,2833.744862099993,2833.744862099993,2833.744862099993,2833.744862099993,2833.744862099993,2833.744862099993,2833.744862099993,None,None,None,,,,,,,,,,,2829.0124514999916,2829.0124514999916,None,,2830.0947371000075,2830.0947371000075,None,,2829.0124514999916,2829.0124514999916,,,3,001,2024-06-05_09h33.18.786,robot_nback_sign,2022.2.5,60.05703015661584,
L_Torso_Z_Back,True,2,robot,1,False,False,robot_stimuli\L_Torso_Z_Back.mp4,3,,,,,,,,,0,64,64,64,,,,,,,,,,,,,2833.744862099993,2834.828489000007,,,,,,,2838.3456921000034,2838.3456921000034,2838.3456921000034,2838.3456921000034,2838.3456921000034,2838.3456921000034,2838.3456921000034,2838.3456921000034,None,None,None,,,,,,,,,,,2833.744862099993,2833.744862099993,None,,2834.828489000007,2834.828489000007,None,,2833.744862099993,2833.744862099993,,,3,001,2024-06-05_09h33.18.786,robot_nback_sign,2022.2.5,60.05703015661584,
L_Arm_Z_For,True,2,robot,1,False,False,robot_stimuli\L_Arm_Z_For.mp4,3,,,,,,,,,0,65,65,65,,,,,,,,,,,,,2838.3456921000034,2839.428536899999,,,,,,,2843.0808657000016,2843.0808657000016,2843.0808657000016,2843.0808657000016,2843.0808657000016,2843.0808657000016,2843.0808657000016,2843.0808657000016,None,None,None,,,,,,,,,,,2838.3456921000034,2838.3456921000034,None,,2839.428536899999,2839.428536899999,None,,2838.3456921000034,2838.3456921000034,,,3,001,2024-06-05_09h33.18.786,robot_nback_sign,2022.2.5,60.05703015661584,
R_Base_Y_Back,False,2,robot,1,False,False,robot_stimuli\R_Base_Y_Back.mp4,3,,,,,,,,,0,66,66,66,,,,,,,,,,,,,2843.0808657000016,2844.1604369000124,,,,,,,2847.8003510000126,2847.8003510000126,2847.8003510000126,2847.8003510000126,2847.8003510000126,2847.8003510000126,2847.8003510000126,2847.8003510000126,None,None,None,,,,,,,,,,,2843.0808657000016,2843.0808657000016,None,,2844.1604369000124,2844.1604369000124,None,,2843.0808657000016,2843.0808657000016,,,3,001,2024-06-05_09h33.18.786,robot_nback_sign,2022.2.5,60.05703015661584,
R_Base_Z_For,False,2,robot,1,False,False,robot_stimuli\R_Base_Z_For.mp4,3,,,,,,,,,0,67,67,67,,,,,,,,,,,,,2847.8003510000126,2848.87823989999,,,,,,,2852.5294682999956,2852.5294682999956,2852.5294682999956,2852.5294682999956,2852.5294682999956,2852.5294682999956,2852.5294682999956,2852.5294682999956,None,None,None,,,,,,,,,,,2847.8003510000126,2847.8003510000126,None,,2848.87823989999,2848.87823989999,None,,2847.8003510000126,2847.8003510000126,,,3,001,2024-06-05_09h33.18.786,robot_nback_sign,2022.2.5,60.05703015661584,
L_Base_X_For,False,2,robot,1,False,False,robot_stimuli\L_Base_X_For.mp4,3,,,,,,,,,0,68,68,68,,,,,,,,,,,,,2852.5294682999956,2853.6094523000065,,,,,,,2857.183945099998,2857.183945099998,2857.183945099998,2857.183945099998,2857.183945099998,2857.183945099998,2857.183945099998,2857.183945099998,None,None,None,,,,,,,,,,,2852.5294682999956,2852.5294682999956,None,,2853.6094523000065,2853.6094523000065,None,,2852.5294682999956,2852.5294682999956,,,3,001,2024-06-05_09h33.18.786,robot_nback_sign,2022.2.5,60.05703015661584,
R_Base_Z_For,True,2,robot,1,False,False,robot_stimuli\R_Base_Z_For.mp4,3,,,,,,,,,0,69,69,69,,,,,,,,,,,,,2857.183945099998,2858.2635703000124,,,,,,,2861.915293500002,2861.915293500002,2861.915293500002,2861.915293500002,2861.915293500002,2861.915293500002,2861.915293500002,2861.915293500002,None,None,None,,,,,,,,,,,2857.183945099998,2857.183945099998,None,,2858.2635703000124,2858.2635703000124,n,0.243297100008931,2857.183945099998,2857.183945099998,,,3,001,2024-06-05_09h33.18.786,robot_nback_sign,2022.2.5,60.05703015661584,
R_Head_X_Back,False,2,robot,1,False,False,robot_stimuli\R_Head_X_Back.mp4,3,,,,,,,,,0,70,70,70,,,,,,,,,,,,,2861.915293500002,2862.996355500014,,,,,,,2866.645681199996,2866.645681199996,2866.645681199996,2866.645681199996,2866.645681199996,2866.645681199996,2866.645681199996,2866.645681199996,None,None,None,,,,,,,,,,,2861.915293500002,2861.915293500002,None,,2862.996355500014,2862.996355500014,None,,2861.915293500002,2861.915293500002,,,3,001,2024-06-05_09h33.18.786,robot_nback_sign,2022.2.5,60.05703015661584,
R_Base_Z_For,True,2,robot,1,False,False,robot_stimuli\R_Base_Z_For.mp4,3,,,,,,,,,0,71,71,71,,,,,,,,,,,,,2866.645681199996,2867.726795499999,,,,,,,2871.367143200012,2871.367143200012,2871.367143200012,2871.367143200012,2871.367143200012,2871.367143200012,2871.367143200012,2871.367143200012,None,None,None,,,,,,,,,,,2866.645681199996,2866.645681199996,None,,2867.726795499999,2867.726795499999,None,,2866.645681199996,2866.645681199996,,,3,001,2024-06-05_09h33.18.786,robot_nback_sign,2022.2.5,60.05703015661584,
R_Arm_X_For,False,2,robot,1,False,False,robot_stimuli\R_Arm_X_For.mp4,3,,,,,,,,,0,72,72,72,,,,,,,,,,,,,2871.367143200012,2872.444467399997,,,,,,,2876.095765700011,2876.095765700011,2876.095765700011,2876.095765700011,2876.095765700011,2876.095765700011,2876.095765700011,2876.095765700011,None,None,None,,,,,,,,,,,2871.367143200012,2871.367143200012,None,,2872.444467399997,2872.444467399997,None,,2871.367143200012,2871.367143200012,,,3,001,2024-06-05_09h33.18.786,robot_nback_sign,2022.2.5,60.05703015661584,
R_Head_X_For,False,2,robot,1,False,False,robot_stimuli\R_Head_X_For.mp4,3,,,,,,,,,0,73,73,73,,,,,,,,,,,,,2876.095765700011,2877.1784706999897,,,,,,,2880.828673000011,2880.828673000011,2880.828673000011,2880.828673000011,2880.828673000011,2880.828673000011,2880.828673000011,2880.828673000011,None,None,None,,,,,,,,,,,2876.095765700011,2876.095765700011,None,,2877.1784706999897,2877.1784706999897,None,,2876.095765700011,2876.095765700011,,,3,001,2024-06-05_09h33.18.786,robot_nback_sign,2022.2.5,60.05703015661584,
R_Torso_X_For,False,2,robot,1,False,False,robot_stimuli\R_Torso_X_For.mp4,3,,,,,,,,,0,74,74,74,,,,,,,,,,,,,2880.828673000011,2881.9114252,,,,,,,2885.562696500012,2885.562696500012,2885.562696500012,2885.562696500012,2885.562696500012,2885.562696500012,2885.562696500012,2885.562696500012,None,None,None,,,,,,,,,,,2880.828673000011,2880.828673000011,None,,2881.9114252,2881.9114252,None,,2880.828673000011,2880.828673000011,,,3,001,2024-06-05_09h33.18.786,robot_nback_sign,2022.2.5,60.05703015661584,
R_Head_X_For,True,2,robot,1,False,False,robot_stimuli\R_Head_X_For.mp4,3,,,,,,,,,0,75,75,75,,,,,,,,,,,,,2885.562696500012,2886.645939800015,,,,,,,2890.295027999993,2890.295027999993,2890.295027999993,2890.295027999993,2890.295027999993,2890.295027999993,2890.295027999993,2890.295027999993,None,None,None,,,,,,,,,,,2885.562696500012,2885.562696500012,None,,2886.645939800015,2886.645939800015,c,3.620283800002653,2885.562696500012,2885.562696500012,,,3,001,2024-06-05_09h33.18.786,robot_nback_sign,2022.2.5,60.05703015661584,
R_Head_Z_Back,False,2,robot,1,False,False,robot_stimuli\R_Head_Z_Back.mp4,3,,,,,,,,,0,76,76,76,,,,,,,,,,,,,2890.295027999993,2891.375940099999,,,,,,,2895.017642699997,2895.017642699997,2895.017642699997,2895.017642699997,2895.017642699997,2895.017642699997,2895.017642699997,2895.017642699997,None,None,None,,,,,,,,,,,2890.295027999993,2890.295027999993,None,,2891.375940099999,2891.375940099999,None,,2890.295027999993,2890.295027999993,,,3,001,2024-06-05_09h33.18.786,robot_nback_sign,2022.2.5,60.05703015661584,
L_Head_X_For,False,2,robot,1,False,False,robot_stimuli\L_Head_X_For.mp4,3,,,,,,,,,0,77,77,77,,,,,,,,,,,,,2895.017642699997,,,,,,,,2899.694002400007,2899.694002400007,2899.694002400007,2899.694002400007,2899.694002400007,2899.694002400007,2899.694002400007,2899.694002400007,None,None,None,,,,,,,,,,,2895.017642699997,2895.017642699997,None,,2896.1118591999984,2896.1118591999984,None,,2895.017642699997,2895.017642699997,,,3,001,2024-06-05_09h33.18.786,robot_nback_sign,2022.2.5,60.05703015661584,
L_Head_X_For,False,2,robot,1,False,False,robot_stimuli\L_Head_X_For.mp4,3,,,,,,,,,0,78,78,78,,,,,,,,,,,,,2899.694002400007,2900.7741875000065,,,,,,,2904.348667699989,2904.348667699989,2904.348667699989,2904.348667699989,2904.348667699989,2904.348667699989,2904.348667699989,2904.348667699989,None,None,None,,,,,,,,,,,2899.694002400007,2899.694002400007,None,,2900.7741875000065,2900.7741875000065,None,,2899.694002400007,2899.694002400007,,,3,001,2024-06-05_09h33.18.786,robot_nback_sign,2022.2.5,60.05703015661584,
R_Head_Y_For,False,2,robot,1,False,False,robot_stimuli\R_Head_Y_For.mp4,3,,,,,,,,,0,79,79,79,,,,,,,,,,,,,2904.348667699989,2905.4272585000144,,,,,,,2909.058516099991,2909.058516099991,2909.058516099991,2909.058516099991,2909.058516099991,2909.058516099991,2909.058516099991,2909.058516099991,None,None,None,,,,,,,,,,,2904.348667699989,2904.348667699989,None,,2905.4272585000144,2905.4272585000144,None,,2904.348667699989,2904.348667699989,,,3,001,2024-06-05_09h33.18.786,robot_nback_sign,2022.2.5,60.05703015661584,
R_Torso_Z_Back,False,2,robot,1,False,False,robot_stimuli\R_Torso_Z_Back.mp4,3,,,,,,,,,0,80,80,80,,,,,,,,,,,,,2909.058516099991,2910.149275100004,,,,,,,2913.799624200008,2913.799624200008,2913.799624200008,2913.799624200008,2913.799624200008,2913.799624200008,2913.799624200008,2913.799624200008,None,None,None,,,,,,,,,,,2909.058516099991,2909.058516099991,None,,2910.149275100004,2910.149275100004,None,,2909.058516099991,2909.058516099991,,,3,001,2024-06-05_09h33.18.786,robot_nback_sign,2022.2.5,60.05703015661584,
L_Head_X_Back,False,2,robot,1,False,False,robot_stimuli\L_Head_X_Back.mp4,3,,,,,,,,,0,81,81,81,,,,,,,,,,,,,2913.799624200008,2914.878663500014,,,,,,,2918.529246799997,2918.529246799997,2918.529246799997,2918.529246799997,2918.529246799997,2918.529246799997,2918.529246799997,2918.529246799997,None,None,None,,,,,,,,,,,2913.799624200008,2913.799624200008,None,,2914.878663500014,2914.878663500014,None,,2913.799624200008,2913.799624200008,,,3,001,2024-06-05_09h33.18.786,robot_nback_sign,2022.2.5,60.05703015661584,
L_Base_Y_For,False,2,robot,1,False,False,robot_stimuli\L_Base_Y_For.mp4,3,,,,,,,,,0,82,82,82,,,,,,,,,,,,,2918.529246799997,2919.6113855000003,,,,,,,2923.1498568000097,2923.1498568000097,2923.1498568000097,2923.1498568000097,2923.1498568000097,2923.1498568000097,2923.1498568000097,2923.1498568000097,None,None,None,,,,,,,,,,,2918.529246799997,2918.529246799997,None,,2919.6113855000003,2919.6113855000003,None,,2918.529246799997,2918.529246799997,,,3,001,2024-06-05_09h33.18.786,robot_nback_sign,2022.2.5,60.05703015661584,
L_Base_Y_For,False,2,robot,1,False,False,robot_stimuli\L_Base_Y_For.mp4,3,,,,,,,,,0,83,83,83,,,,,,,,,,,,,2923.1498568000097,2924.225570700015,,,,,,,2927.7650673000026,2927.7650673000026,2927.7650673000026,2927.7650673000026,2927.7650673000026,2927.7650673000026,2927.7650673000026,2927.7650673000026,None,None,None,,,,,,,,,,,2923.1498568000097,2923.1498568000097,None,,2924.225570700015,2924.225570700015,None,,2923.1498568000097,2923.1498568000097,,,3,001,2024-06-05_09h33.18.786,robot_nback_sign,2022.2.5,60.05703015661584,
L_Torso_X_For,False,2,robot,1,False,False,robot_stimuli\L_Torso_X_For.mp4,3,,,,,,,,,0,84,84,84,,,,,,,,,,,,,2927.7650673000026,2928.844179500011,,,,,,,2932.482640900009,2932.482640900009,2932.482640900009,2932.482640900009,2932.482640900009,2932.482640900009,2932.482640900009,2932.482640900009,None,None,None,,,,,,,,,,,2927.7650673000026,2927.7650673000026,None,,2928.844179500011,2928.844179500011,None,,2927.7650673000026,2927.7650673000026,,,3,001,2024-06-05_09h33.18.786,robot_nback_sign,2022.2.5,60.05703015661584,
L_Base_Y_For,True,2,robot,1,False,False,robot_stimuli\L_Base_Y_For.mp4,3,,,,,,,,,0,85,85,85,,,,,,,,,,,,,2932.482640900009,2933.561087500013,,,,,,,2937.100475300016,2937.100475300016,2937.100475300016,2937.100475300016,2937.100475300016,2937.100475300016,2937.100475300016,2937.100475300016,None,None,None,,,,,,,,,,,2932.482640900009,2932.482640900009,None,,2933.561087500013,2933.561087500013,None,,2932.482640900009,2932.482640900009,,,3,001,2024-06-05_09h33.18.786,robot_nback_sign,2022.2.5,60.05703015661584,
R_Head_X_For,False,2,robot,1,False,False,robot_stimuli\R_Head_X_For.mp4,3,,,,,,,,,0,86,86,86,,,,,,,,,,,,,2937.100475300016,2938.177187299996,,,,,,,2941.8175772000104,2941.8175772000104,2941.8175772000104,2941.8175772000104,2941.8175772000104,2941.8175772000104,2941.8175772000104,2941.8175772000104,None,None,None,,,,,,,,,,,2937.100475300016,2937.100475300016,None,,2938.177187299996,2938.177187299996,None,,2937.100475300016,2937.100475300016,,,3,001,2024-06-05_09h33.18.786,robot_nback_sign,2022.2.5,60.05703015661584,
L_Base_X_Back,False,2,robot,1,False,False,robot_stimuli\L_Base_X_Back.mp4,3,,,,,,,,,0,87,87,87,,,,,,,,,,,,,2941.8175772000104,2942.896110200003,,,,,,,2946.510008000012,2946.510008000012,2946.510008000012,2946.510008000012,2946.510008000012,2946.510008000012,2946.510008000012,2946.510008000012,None,None,None,,,,,,,,,,,2941.8175772000104,2941.8175772000104,None,,2942.896110200003,2942.896110200003,n,3.4995962000102736,2941.8175772000104,2941.8175772000104,,,3,001,2024-06-05_09h33.18.786,robot_nback_sign,2022.2.5,60.05703015661584,
L_Torso_X_For,False,2,robot,1,False,False,robot_stimuli\L_Torso_X_For.mp4,3,,,,,,,,,0,88,88,88,,,,,,,,,,,,,2946.510008000012,2947.5942885999975,,,,,,,2951.244361799996,2951.244361799996,2951.244361799996,2951.244361799996,2951.244361799996,2951.244361799996,2951.244361799996,2951.244361799996,None,None,None,,,,,,,,,,,2946.510008000012,2946.510008000012,None,,2947.5942885999975,2947.5942885999975,None,,2946.510008000012,2946.510008000012,,,3,001,2024-06-05_09h33.18.786,robot_nback_sign,2022.2.5,60.05703015661584,
L_Torso_Y_For,False,2,robot,1,False,False,robot_stimuli\L_Torso_Y_For.mp4,3,,,,,,,,,0,89,89,89,,,,,,,,,,,,,2951.244361799996,2952.328106800007,,,,,,,2955.9828072999953,2955.9828072999953,2955.9828072999953,2955.9828072999953,2955.9828072999953,2955.9828072999953,2955.9828072999953,2955.9828072999953,None,None,None,,,,,,,,,,,2951.244361799996,2951.244361799996,None,,2952.328106800007,2952.328106800007,None,,2951.244361799996,2951.244361799996,,,3,001,2024-06-05_09h33.18.786,robot_nback_sign,2022.2.5,60.05703015661584,
L_Torso_X_For,True,2,robot,1,False,False,robot_stimuli\L_Torso_X_For.mp4,3,,,,,,,,,0,90,90,90,,,,,,,,,,,,,2955.9828072999953,2957.0767855999875,,,,,,,2960.716666499997,2960.716666499997,2960.716666499997,2960.716666499997,2960.716666499997,2960.716666499997,2960.716666499997,2960.716666499997,None,None,None,,,,,,,,,,,2955.9828072999953,2955.9828072999953,None,,2957.0767855999875,2957.0767855999875,None,,2955.9828072999953,2955.9828072999953,,,3,001,2024-06-05_09h33.18.786,robot_nback_sign,2022.2.5,60.05703015661584,
R_Torso_Z_Back,False,2,robot,1,False,False,robot_stimuli\R_Torso_Z_Back.mp4,3,,,,,,,,,0,91,91,91,,,,,,,,,,,,,2960.716666499997,2961.8005159999884,,,,,,,2965.4419493000023,2965.4419493000023,2965.4419493000023,2965.4419493000023,2965.4419493000023,2965.4419493000023,2965.4419493000023,2965.4419493000023,None,None,None,,,,,,,,,,,2960.716666499997,2960.716666499997,None,,2961.8005159999884,2961.8005159999884,None,,2960.716666499997,2960.716666499997,,,3,001,2024-06-05_09h33.18.786,robot_nback_sign,2022.2.5,60.05703015661584,
L_Torso_X_For,True,2,robot,1,False,False,robot_stimuli\L_Torso_X_For.mp4,3,,,,,,,,,0,92,92,92,,,,,,,,,,,,,2965.4419493000023,2966.5285378000117,,,,,,,2970.177878199989,2970.177878199989,2970.177878199989,2970.177878199989,2970.177878199989,2970.177878199989,2970.177878199989,2970.177878199989,None,None,None,,,,,,,,,,,2965.4419493000023,2965.4419493000023,None,,2966.5285378000117,2966.5285378000117,None,,2965.4419493000023,2965.4419493000023,,,3,001,2024-06-05_09h33.18.786,robot_nback_sign,2022.2.5,60.05703015661584,
R_Torso_Z_For,False,2,robot,1,False,False,robot_stimuli\R_Torso_Z_For.mp4,3,,,,,,,,,0,93,93,93,,,,,,,,,,,,,2970.177878199989,2971.258510799991,,,,,,,2974.903761399997,2974.903761399997,2974.903761399997,2974.903761399997,2974.903761399997,2974.903761399997,2974.903761399997,2974.903761399997,None,None,None,,,,,,,,,,,2970.177878199989,2970.177878199989,None,,2971.258510799991,2971.258510799991,None,,2970.177878199989,2970.177878199989,,,3,001,2024-06-05_09h33.18.786,robot_nback_sign,2022.2.5,60.05703015661584,
L_Head_Y_Back,False,2,robot,1,False,False,robot_stimuli\L_Head_Y_Back.mp4,3,,,,,,,,,0,94,94,94,,,,,,,,,,,,,2974.903761399997,2976.0106170999934,,,,,,,2979.64055750001,2979.64055750001,2979.64055750001,2979.64055750001,2979.64055750001,2979.64055750001,2979.64055750001,2979.64055750001,None,None,None,,,,,,,,,,,2974.903761399997,2974.903761399997,None,,2976.0106170999934,2976.0106170999934,None,,2974.903761399997,2974.903761399997,,,3,001,2024-06-05_09h33.18.786,robot_nback_sign,2022.2.5,60.05703015661584,
R_Arm_Z_Back,False,2,robot,1,False,False,robot_stimuli\R_Arm_Z_Back.mp4,3,,,,,,,,,0,95,95,95,,,,,,,,,,,,,2979.64055750001,2980.729818299995,,,,,,,2984.3786397000076,2984.3786397000076,2984.3786397000076,2984.3786397000076,2984.3786397000076,2984.3786397000076,2984.3786397000076,2984.3786397000076,None,None,None,,,,,,,,,,,2979.64055750001,2979.64055750001,None,,2980.729818299995,2980.729818299995,None,,2979.64055750001,2979.64055750001,,,3,001,2024-06-05_09h33.18.786,robot_nback_sign,2022.2.5,60.05703015661584,
L_Arm_Z_Back,False,2,robot,1,False,False,robot_stimuli\L_Arm_Z_Back.mp4,3,,,,,,,,,0,96,96,96,,,,,,,,,,,,,2984.3786397000076,2985.460643300001,,,,,,,2989.1007417000073,2989.1007417000073,2989.1007417000073,2989.1007417000073,2989.1007417000073,2989.1007417000073,2989.1007417000073,2989.1007417000073,None,None,None,,,,,,,,,,,2984.3786397000076,2984.3786397000076,None,,2985.460643300001,2985.460643300001,None,,2984.3786397000076,2984.3786397000076,,,3,001,2024-06-05_09h33.18.786,robot_nback_sign,2022.2.5,60.05703015661584,
L_Base_X_For,False,2,robot,1,False,False,robot_stimuli\L_Base_X_For.mp4,3,,,,,,,,,0,97,97,97,,,,,,,,,,,,,2989.1007417000073,2990.1784472000145,,,,,,,2993.740222799999,2993.740222799999,2993.740222799999,2993.740222799999,2993.740222799999,2993.740222799999,2993.740222799999,2993.740222799999,None,None,None,,,,,,,,,,,2989.1007417000073,2989.1007417000073,None,,2990.1784472000145,2990.1784472000145,None,,2989.1007417000073,2989.1007417000073,,,3,001,2024-06-05_09h33.18.786,robot_nback_sign,2022.2.5,60.05703015661584,
R_Arm_X_Back,False,2,robot,1,False,False,robot_stimuli\R_Arm_X_Back.mp4,3,,,,,,,,,0,98,98,98,,,,,,,,,,,,,2993.740222799999,2994.8279541000084,,,,,,,2998.478068700002,2998.478068700002,2998.478068700002,2998.478068700002,2998.478068700002,2998.478068700002,2998.478068700002,2998.478068700002,None,None,None,,,,,,,,,,,2993.740222799999,2993.740222799999,None,,2994.8279541000084,2994.8279541000084,None,,2993.740222799999,2993.740222799999,,,3,001,2024-06-05_09h33.18.786,robot_nback_sign,2022.2.5,60.05703015661584,
R_Base_Y_For,False,2,robot,1,False,True,robot_stimuli\R_Base_Y_For.mp4,3,,,,,,,,,0,99,99,99,,,,,,,,,,,,,2998.478068700002,2999.561548800004,,,,,,,3003.24558290001,3033.2499073999934,3003.24558290001,3033.2499073999934,3003.24558290001,3033.2499073999934,3003.24558290001,3033.2499073999934,50.06172839506173,27.274864000006346,space,,,29.95740160002606,,,,,,,,2998.478068700002,2998.478068700002,None,,2999.561548800004,2999.561548800004,n,3.569421299995156,2998.478068700002,2998.478068700002,,,3,001,2024-06-05_09h33.18.786,robot_nback_sign,2022.2.5,60.05703015661584,
R_Torso_Z_For,False,1,robot,1,True,False,robot_stimuli\R_Torso_Z_For.mp4,3,,,,,,,,,0,100,100,100,,,,,,,,,,,,,3041.9170332000067,3042.997471200011,,,,,,,3046.6331579000107,3046.6331579000107,3046.6331579000107,3046.6331579000107,3046.6331579000107,3046.6331579000107,3046.6331579000107,3046.6331579000107,None,None,None,,,,,,,,,,,3033.2499073999934,3033.2499073999934,space,8.641436800011434,3042.997471200011,3042.997471200011,None,,,,,,3,001,2024-06-05_09h33.18.786,robot_nback_sign,2022.2.5,60.05703015661584,
L_Head_Y_For,False,1,robot,1,False,False,robot_stimuli\L_Head_Y_For.mp4,3,,,,,,,,,0,101,101,101,,,,,,,,,,,,,3046.6331579000107,3047.7132890000066,,,,,,,3051.361834100011,3051.361834100011,3051.361834100011,3051.361834100011,3051.361834100011,3051.361834100011,3051.361834100011,3051.361834100011,None,None,None,,,,,,,,,,,3046.6331579000107,3046.6331579000107,None,,3047.7132890000066,3047.7132890000066,None,,3046.6331579000107,3046.6331579000107,,,3,001,2024-06-05_09h33.18.786,robot_nback_sign,2022.2.5,60.05703015661584,
R_Head_Y_For,False,1,robot,1,False,False,robot_stimuli\R_Head_Y_For.mp4,3,,,,,,,,,0,102,102,102,,,,,,,,,,,,,3051.361834100011,3052.4467151999997,,,,,,,3056.095749100001,3056.095749100001,3056.095749100001,3056.095749100001,3056.095749100001,3056.095749100001,3056.095749100001,3056.095749100001,None,None,None,,,,,,,,,,,3051.361834100011,3051.361834100011,None,,3052.4467151999997,3052.4467151999997,n,3.1654147999943234,3051.361834100011,3051.361834100011,,,3,001,2024-06-05_09h33.18.786,robot_nback_sign,2022.2.5,60.05703015661584,
L_Arm_Y_For,False,1,robot,1,False,False,robot_stimuli\L_Arm_Y_For.mp4,3,,,,,,,,,0,103,103,103,,,,,,,,,,,,,3056.095749100001,3057.1779149000067,,,,,,,3060.817555299989,3060.817555299989,3060.817555299989,3060.817555299989,3060.817555299989,3060.817555299989,3060.817555299989,3060.817555299989,None,None,None,,,,,,,,,,,3056.095749100001,3056.095749100001,None,,3057.1779149000067,3057.1779149000067,None,,3056.095749100001,3056.095749100001,,,3,001,2024-06-05_09h33.18.786,robot_nback_sign,2022.2.5,60.05703015661584,
R_Base_Y_Back,False,1,robot,1,False,False,robot_stimuli\R_Base_Y_Back.mp4,3,,,,,,,,,0,104,104,104,,,,,,,,,,,,,3060.817555299989,3061.8929032000015,,,,,,,3065.5334341000125,3065.5334341000125,3065.5334341000125,3065.5334341000125,3065.5334341000125,3065.5334341000125,3065.5334341000125,3065.5334341000125,None,None,None,,,,,,,,,,,3060.817555299989,3060.817555299989,None,,3061.8929032000015,3061.8929032000015,None,,3060.817555299989,3060.817555299989,,,3,001,2024-06-05_09h33.18.786,robot_nback_sign,2022.2.5,60.05703015661584,
R_Base_Y_Back,True,1,robot,1,False,False,robot_stimuli\R_Base_Y_Back.mp4,3,,,,,,,,,0,105,105,105,,,,,,,,,,,,,3065.5334341000125,3066.607991099998,,,,,,,3070.2488181999943,3070.2488181999943,3070.2488181999943,3070.2488181999943,3070.2488181999943,3070.2488181999943,3070.2488181999943,3070.2488181999943,None,None,None,,,,,,,,,,,3065.5334341000125,3065.5334341000125,None,,3066.607991099998,3066.607991099998,c,2.6980860000185203,3065.5334341000125,3065.5334341000125,,,3,001,2024-06-05_09h33.18.786,robot_nback_sign,2022.2.5,60.05703015661584,
R_Base_Y_Back,True,1,robot,1,False,False,robot_stimuli\R_Base_Y_Back.mp4,3,,,,,,,,,0,106,106,106,,,,,,,,,,,,,3070.2488181999943,3071.3246618999983,,,,,,,3074.9644429000036,3074.9644429000036,3074.9644429000036,3074.9644429000036,3074.9644429000036,3074.9644429000036,3074.9644429000036,3074.9644429000036,None,None,None,,,,,,,,,,,3070.2488181999943,3070.2488181999943,None,,3071.3246618999983,3071.3246618999983,c,3.2697929000132717,3070.2488181999943,3070.2488181999943,,,3,001,2024-06-05_09h33.18.786,robot_nback_sign,2022.2.5,60.05703015661584,
R_Base_Y_Back,True,1,robot,1,False,False,robot_stimuli\R_Base_Y_Back.mp4,3,,,,,,,,,0,107,107,107,,,,,,,,,,,,,3074.9644429000036,3076.0416534999968,,,,,,,3079.6836838000163,3079.6836838000163,3079.6836838000163,3079.6836838000163,3079.6836838000163,3079.6836838000163,3079.6836838000163,3079.6836838000163,None,None,None,,,,,,,,,,,3074.9644429000036,3074.9644429000036,None,,3076.0416534999968,3076.0416534999968,c,2.8101202999823727,3074.9644429000036,3074.9644429000036,,,3,001,2024-06-05_09h33.18.786,robot_nback_sign,2022.2.5,60.05703015661584,
R_Torso_Z_For,False,1,robot,1,False,False,robot_stimuli\R_Torso_Z_For.mp4,3,,,,,,,,,0,108,108,108,,,,,,,,,,,,,3079.6836838000163,3080.759744400013,,,,,,,3084.4001206000103,3084.4001206000103,3084.4001206000103,3084.4001206000103,3084.4001206000103,3084.4001206000103,3084.4001206000103,3084.4001206000103,None,None,None,,,,,,,,,,,3079.6836838000163,3079.6836838000163,None,,3080.759744400013,3080.759744400013,None,,3079.6836838000163,3079.6836838000163,,,3,001,2024-06-05_09h33.18.786,robot_nback_sign,2022.2.5,60.05703015661584,
L_Base_X_For,False,1,robot,1,False,False,robot_stimuli\L_Base_X_For.mp4,3,,,,,,,,,0,109,109,109,,,,,,,,,,,,,3084.4001206000103,3085.4779400000116,,,,,,,3089.0428092000075,3089.0428092000075,3089.0428092000075,3089.0428092000075,3089.0428092000075,3089.0428092000075,3089.0428092000075,3089.0428092000075,None,None,None,,,,,,,,,,,3084.4001206000103,3084.4001206000103,None,,3085.4779400000116,3085.4779400000116,None,,3084.4001206000103,3084.4001206000103,,,3,001,2024-06-05_09h33.18.786,robot_nback_sign,2022.2.5,60.05703015661584,
R_Head_Y_For,False,1,robot,1,False,False,robot_stimuli\R_Head_Y_For.mp4,3,,,,,,,,,0,110,110,110,,,,,,,,,,,,,3089.0428092000075,3090.128826100001,,,,,,,3093.7778113000095,3093.7778113000095,3093.7778113000095,3093.7778113000095,3093.7778113000095,3093.7778113000095,3093.7778113000095,3093.7778113000095,None,None,None,,,,,,,,,,,3089.0428092000075,3089.0428092000075,None,,3090.128826100001,3090.128826100001,None,,3089.0428092000075,3089.0428092000075,,,3,001,2024-06-05_09h33.18.786,robot_nback_sign,2022.2.5,60.05703015661584,
L_Head_X_Back,False,1,robot,1,False,False,robot_stimuli\L_Head_X_Back.mp4,3,,,,,,,,,0,111,111,111,,,,,,,,,,,,,3093.7778113000095,3094.8631400000013,,,,,,,3098.51345649999,3098.51345649999,3098.51345649999,3098.51345649999,3098.51345649999,3098.51345649999,3098.51345649999,3098.51345649999,None,None,None,,,,,,,,,,,3093.7778113000095,3093.7778113000095,None,,3094.8631400000013,3094.8631400000013,None,,3093.7778113000095,3093.7778113000095,,,3,001,2024-06-05_09h33.18.786,robot_nback_sign,2022.2.5,60.05703015661584,
R_Base_Z_Back,False,1,robot,1,False,False,robot_stimuli\R_Base_Z_Back.mp4,3,,,,,,,,,0,112,112,112,,,,,,,,,,,,,3098.51345649999,3099.5971970999963,,,,,,,3103.1461982000037,3103.1461982000037,3103.1461982000037,3103.1461982000037,3103.1461982000037,3103.1461982000037,3103.1461982000037,3103.1461982000037,None,None,None,,,,,,,,,,,3098.51345649999,3098.51345649999,None,,3099.5971970999963,3099.5971970999963,None,,3098.51345649999,3098.51345649999,,,3,001,2024-06-05_09h33.18.786,robot_nback_sign,2022.2.5,60.05703015661584,
R_Torso_Y_Back,False,1,robot,1,False,False,robot_stimuli\R_Torso_Y_Back.mp4,3,,,,,,,,,0,113,113,113,,,,,,,,,,,,,3103.1461982000037,3104.230554300011,,,,,,,3107.8813632999954,3107.8813632999954,3107.8813632999954,3107.8813632999954,3107.8813632999954,3107.8813632999954,3107.8813632999954,3107.8813632999954,None,None,None,,,,,,,,,,,3103.1461982000037,3103.1461982000037,None,,3104.230554300011,3104.230554300011,None,,3103.1461982000037,3103.1461982000037,,,3,001,2024-06-05_09h33.18.786,robot_nback_sign,2022.2.5,60.05703015661584,
R_Arm_X_Back,False,1,robot,1,False,False,robot_stimuli\R_Arm_X_Back.mp4,3,,,,,,,,,0,114,114,114,,,,,,,,,,,,,3107.8813632999954,3108.9606795000145,,,,,,,3112.6008593000006,3112.6008593000006,3112.6008593000006,3112.6008593000006,3112.6008593000006,3112.6008593000006,3112.6008593000006,3112.6008593000006,None,None,None,,,,,,,,,,,3107.8813632999954,3107.8813632999954,None,,3108.9606795000145,3108.9606795000145,None,,3107.8813632999954,3107.8813632999954,,,3,001,2024-06-05_09h33.18.786,robot_nback_sign,2022.2.5,60.05703015661584,
L_Torso_Z_For,False,1,robot,1,False,False,robot_stimuli\L_Torso_Z_For.mp4,3,,,,,,,,,0,115,115,115,,,,,,,,,,,,,3112.6008593000006,3113.678564300004,,,,,,,3117.3181350000086,3117.3181350000086,3117.3181350000086,3117.3181350000086,3117.3181350000086,3117.3181350000086,3117.3181350000086,3117.3181350000086,None,None,None,,,,,,,,,,,3112.6008593000006,3112.6008593000006,None,,3113.678564300004,3113.678564300004,None,,3112.6008593000006,3112.6008593000006,,,3,001,2024-06-05_09h33.18.786,robot_nback_sign,2022.2.5,60.05703015661584,
L_Head_Z_For,False,1,robot,1,False,False,robot_stimuli\L_Head_Z_For.mp4,3,,,,,,,,,0,116,116,116,,,,,,,,,,,,,3117.3181350000086,,,,,,,,3122.061850500002,3122.061850500002,3122.061850500002,3122.061850500002,3122.061850500002,3122.061850500002,3122.061850500002,3122.061850500002,None,None,None,,,,,,,,,,,3117.3181350000086,3117.3181350000086,None,,3118.412280199991,3118.412280199991,None,,3117.3181350000086,3117.3181350000086,,,3,001,2024-06-05_09h33.18.786,robot_nback_sign,2022.2.5,60.05703015661584,
L_Head_Z_For,True,1,robot,1,False,False,robot_stimuli\L_Head_Z_For.mp4,3,,,,,,,,,0,117,117,117,,,,,,,,,,,,,3122.061850500002,3123.1420357000025,,,,,,,3126.782910900016,3126.782910900016,3126.782910900016,3126.782910900016,3126.782910900016,3126.782910900016,3126.782910900016,3126.782910900016,None,None,None,,,,,,,,,,,3122.061850500002,3122.061850500002,None,,3123.1420357000025,3123.1420357000025,None,,3122.061850500002,3122.061850500002,,,3,001,2024-06-05_09h33.18.786,robot_nback_sign,2022.2.5,60.05703015661584,
L_Head_Z_For,True,1,robot,1,False,False,robot_stimuli\L_Head_Z_For.mp4,3,,,,,,,,,0,118,118,118,,,,,,,,,,,,,3126.782910900016,3127.858390300011,,,,,,,3131.4990007999877,3131.4990007999877,3131.4990007999877,3131.4990007999877,3131.4990007999877,3131.4990007999877,3131.4990007999877,3131.4990007999877,None,None,None,,,,,,,,,,,3126.782910900016,3126.782910900016,None,,3127.858390300011,3127.858390300011,c,3.520882699987851,3126.782910900016,3126.782910900016,,,3,001,2024-06-05_09h33.18.786,robot_nback_sign,2022.2.5,60.05703015661584,
R_Torso_X_For,False,1,robot,1,False,False,robot_stimuli\R_Torso_X_For.mp4,3,,,,,,,,,0,119,119,119,,,,,,,,,,,,,3131.4990007999877,3132.5792033000034,,,,,,,3136.2304561999917,3136.2304561999917,3136.2304561999917,3136.2304561999917,3136.2304561999917,3136.2304561999917,3136.2304561999917,3136.2304561999917,None,None,None,,,,,,,,,,,3131.4990007999877,3131.4990007999877,None,,3132.5792033000034,3132.5792033000034,n,3.4561966999899596,3131.4990007999877,3131.4990007999877,,,3,001,2024-06-05_09h33.18.786,robot_nback_sign,2022.2.5,60.05703015661584,
R_Base_Y_For,False,1,robot,1,False,False,robot_stimuli\R_Base_Y_For.mp4,3,,,,,,,,,0,120,120,120,,,,,,,,,,,,,3136.2304561999917,3137.311956199992,,,,,,,3140.9610930999916,3140.9610930999916,3140.9610930999916,3140.9610930999916,3140.9610930999916,3140.9610930999916,3140.9610930999916,3140.9610930999916,None,None,None,,,,,,,,,,,3136.2304561999917,3136.2304561999917,None,,3137.311956199992,3137.311956199992,None,,3136.2304561999917,3136.2304561999917,,,3,001,2024-06-05_09h33.18.786,robot_nback_sign,2022.2.5,60.05703015661584,
L_Head_X_For,False,1,robot,1,False,False,robot_stimuli\L_Head_X_For.mp4,3,,,,,,,,,0,121,121,121,,,,,,,,,,,,,3140.9610930999916,3142.0457952000143,,,,,,,3145.6289397999935,3145.6289397999935,3145.6289397999935,3145.6289397999935,3145.6289397999935,3145.6289397999935,3145.6289397999935,3145.6289397999935,None,None,None,,,,,,,,,,,3140.9610930999916,3140.9610930999916,None,,3142.0457952000143,3142.0457952000143,c,2.49285680000321,3140.9610930999916,3140.9610930999916,,,3,001,2024-06-05_09h33.18.786,robot_nback_sign,2022.2.5,60.05703015661584,
L_Torso_X_Back,False,1,robot,1,False,False,robot_stimuli\L_Torso_X_Back.mp4,3,,,,,,,,,0,122,122,122,,,,,,,,,,,,,3145.6289397999935,3146.7128903999983,,,,,,,3150.3637818999996,3150.3637818999996,3150.3637818999996,3150.3637818999996,3150.3637818999996,3150.3637818999996,3150.3637818999996,3150.3637818999996,None,None,None,,,,,,,,,,,3145.6289397999935,3145.6289397999935,None,,3146.7128903999983,3146.7128903999983,None,,3145.6289397999935,3145.6289397999935,,,3,001,2024-06-05_09h33.18.786,robot_nback_sign,2022.2.5,60.05703015661584,
L_Torso_X_Back,True,1,robot,1,False,False,robot_stimuli\L_Torso_X_Back.mp4,3,,,,,,,,,0,123,123,123,,,,,,,,,,,,,3150.3637818999996,3151.4419165000145,,,,,,,3155.0846300999983,3155.0846300999983,3155.0846300999983,3155.0846300999983,3155.0846300999983,3155.0846300999983,3155.0846300999983,3155.0846300999983,None,None,None,,,,,,,,,,,3150.3637818999996,3150.3637818999996,None,,3151.4419165000145,3151.4419165000145,None,,3150.3637818999996,3150.3637818999996,,,3,001,2024-06-05_09h33.18.786,robot_nback_sign,2022.2.5,60.05703015661584,
L_Head_Z_For,False,1,robot,1,False,False,robot_stimuli\L_Head_Z_For.mp4,3,,,,,,,,,0,124,124,124,,,,,,,,,,,,,3155.0846300999983,3156.1770808,,,,,,,3159.807755899994,3159.807755899994,3159.807755899994,3159.807755899994,3159.807755899994,3159.807755899994,3159.807755899994,3159.807755899994,None,None,None,,,,,,,,,,,3155.0846300999983,3155.0846300999983,None,,3156.1770808,3156.1770808,None,,3155.0846300999983,3155.0846300999983,,,3,001,2024-06-05_09h33.18.786,robot_nback_sign,2022.2.5,60.05703015661584,
R_Base_X_For,False,1,robot,1,False,False,robot_stimuli\R_Base_X_For.mp4,3,,,,,,,,,0,125,125,125,,,,,,,,,,,,,3159.807755899994,3160.895898399991,,,,,,,3164.4462382000056,3164.4462382000056,3164.4462382000056,3164.4462382000056,3164.4462382000056,3164.4462382000056,3164.4462382000056,3164.4462382000056,None,None,None,,,,,,,,,,,3159.807755899994,3159.807755899994,None,,3160.895898399991,3160.895898399991,None,,3159.807755899994,3159.807755899994,,,3,001,2024-06-05_09h33.18.786,robot_nback_sign,2022.2.5,60.05703015661584,
L_Torso_X_For,False,1,robot,1,False,False,robot_stimuli\L_Torso_X_For.mp4,3,,,,,,,,,0,126,126,126,,,,,,,,,,,,,3164.4462382000056,3165.526471899997,,,,,,,3169.1665574999934,3169.1665574999934,3169.1665574999934,3169.1665574999934,3169.1665574999934,3169.1665574999934,3169.1665574999934,3169.1665574999934,None,None,None,,,,,,,,,,,3164.4462382000056,3164.4462382000056,None,,3165.526471899997,3165.526471899997,None,,3164.4462382000056,3164.4462382000056,,,3,001,2024-06-05_09h33.18.786,robot_nback_sign,2022.2.5,60.05703015661584,
L_Base_X_For,False,1,robot,1,False,False,robot_stimuli\L_Base_X_For.mp4,3,,,,,,,,,0,127,127,127,,,,,,,,,,,,,3169.1665574999934,3170.246671300003,,,,,,,3173.8305515999964,3173.8305515999964,3173.8305515999964,3173.8305515999964,3173.8305515999964,3173.8305515999964,3173.8305515999964,3173.8305515999964,None,None,None,,,,,,,,,,,3169.1665574999934,3169.1665574999934,None,,3170.246671300003,3170.246671300003,None,,3169.1665574999934,3169.1665574999934,,,3,001,2024-06-05_09h33.18.786,robot_nback_sign,2022.2.5,60.05703015661584,
L_Base_X_For,True,1,robot,1,False,False,robot_stimuli\L_Base_X_For.mp4,3,,,,,,,,,0,128,128,128,,,,,,,,,,,,,3173.8305515999964,3174.9070962000114,,,,,,,3178.479961300007,3178.479961300007,3178.479961300007,3178.479961300007,3178.479961300007,3178.479961300007,3178.479961300007,3178.479961300007,None,None,None,,,,,,,,,,,3173.8305515999964,3173.8305515999964,None,,3174.9070962000114,3174.9070962000114,n,2.5596225000044797,3173.8305515999964,3173.8305515999964,,,3,001,2024-06-05_09h33.18.786,robot_nback_sign,2022.2.5,60.05703015661584,
R_Arm_Z_Back,False,1,robot,1,False,False,robot_stimuli\R_Arm_Z_Back.mp4,3,,,,,,,,,0,129,129,129,,,,,,,,,,,,,3178.479961300007,3179.563994099997,,,,,,,3183.21515969999,3183.21515969999,3183.21515969999,3183.21515969999,3183.21515969999,3183.21515969999,3183.21515969999,3183.21515969999,None,None,None,,,,,,,,,,,3178.479961300007,3178.479961300007,None,,3179.563994099997,3179.563994099997,None,,3178.479961300007,3178.479961300007,,,3,001,2024-06-05_09h33.18.786,robot_nback_sign,2022.2.5,60.05703015661584,
R_Torso_X_Back,False,1,robot,1,False,False,robot_stimuli\R_Torso_X_Back.mp4,3,,,,,,,,,0,130,130,130,,,,,,,,,,,,,3183.21515969999,3184.2977920999983,,,,,,,3187.9466748000123,3187.9466748000123,3187.9466748000123,3187.9466748000123,3187.9466748000123,3187.9466748000123,3187.9466748000123,3187.9466748000123,None,None,None,,,,,,,,,,,3183.21515969999,3183.21515969999,None,,3184.2977920999983,3184.2977920999983,None,,3183.21515969999,3183.21515969999,,,3,001,2024-06-05_09h33.18.786,robot_nback_sign,2022.2.5,60.05703015661584,
R_Torso_X_Back,True,1,robot,1,False,False,robot_stimuli\R_Torso_X_Back.mp4,3,,,,,,,,,0,131,131,131,,,,,,,,,,,,,3187.9466748000123,3189.0258486999955,,,,,,,3192.665964100015,3192.665964100015,3192.665964100015,3192.665964100015,3192.665964100015,3192.665964100015,3192.665964100015,3192.665964100015,None,None,None,,,,,,,,,,,3187.9466748000123,3187.9466748000123,None,,3189.0258486999955,3189.0258486999955,c,3.560944400000153,3187.9466748000123,3187.9466748000123,,,3,001,2024-06-05_09h33.18.786,robot_nback_sign,2022.2.5,60.05703015661584,
L_Arm_Y_Back,False,1,robot,1,False,False,robot_stimuli\L_Arm_Y_Back.mp4,3,,,,,,,,,0,132,132,132,,,,,,,,,,,,,3192.665964100015,3193.7432197000016,,,,,,,3197.382548099995,3197.382548099995,3197.382548099995,3197.382548099995,3197.382548099995,3197.382548099995,3197.382548099995,3197.382548099995,None,None,None,,,,,,,,,,,3192.665964100015,3192.665964100015,None,,3193.7432197000016,3193.7432197000016,c,3.2928412000183016,3192.665964100015,3192.665964100015,,,3,001,2024-06-05_09h33.18.786,robot_nback_sign,2022.2.5,60.05703015661584,
L_Base_X_For,False,1,robot,1,False,False,robot_stimuli\L_Base_X_For.mp4,3,,,,,,,,,0,133,133,133,,,,,,,,,,,,,3197.382548099995,3198.4617470999947,,,,,,,3202.0366259000148,3202.0366259000148,3202.0366259000148,3202.0366259000148,3202.0366259000148,3202.0366259000148,3202.0366259000148,3202.0366259000148,None,None,None,,,,,,,,,,,3197.382548099995,3197.382548099995,None,,3198.4617470999947,3198.4617470999947,None,,3197.382548099995,3197.382548099995,,,3,001,2024-06-05_09h33.18.786,robot_nback_sign,2022.2.5,60.05703015661584,
L_Base_X_For,True,1,robot,1,False,False,robot_stimuli\L_Base_X_For.mp4,3,,,,,,,,,0,134,134,134,,,,,,,,,,,,,3202.0366259000148,,,,,,,,3206.6996048,3206.6996048,3206.6996048,3206.6996048,3206.6996048,3206.6996048,3206.6996048,3206.6996048,None,None,None,,,,,,,,,,,3202.0366259000148,3202.0366259000148,None,,3203.125041099993,3203.125041099993,c,3.086932900012471,3202.0366259000148,3202.0366259000148,,,3,001,2024-06-05_09h33.18.786,robot_nback_sign,2022.2.5,60.05703015661584,
L_Base_X_Back,False,1,robot,1,False,False,robot_stimuli\L_Base_X_Back.mp4,3,,,,,,,,,0,135,135,135,,,,,,,,,,,,,3206.6996048,3207.7791794000077,,,,,,,3211.3842539000034,3211.3842539000034,3211.3842539000034,3211.3842539000034,3211.3842539000034,3211.3842539000034,3211.3842539000034,3211.3842539000034,None,None,None,,,,,,,,,,,3206.6996048,3206.6996048,None,,3207.7791794000077,3207.7791794000077,n,2.8320317000034265,3206.6996048,3206.6996048,,,3,001,2024-06-05_09h33.18.786,robot_nback_sign,2022.2.5,60.05703015661584,
R_Head_Z_For,False,1,robot,1,False,False,robot_stimuli\R_Head_Z_For.mp4,3,,,,,,,,,0,136,136,136,,,,,,,,,,,,,3211.3842539000034,3212.4617675000045,,,,,,,3216.102278700011,3216.102278700011,3216.102278700011,3216.102278700011,3216.102278700011,3216.102278700011,3216.102278700011,3216.102278700011,None,None,None,,,,,,,,,,,3211.3842539000034,3211.3842539000034,None,,3212.4617675000045,3212.4617675000045,None,,3211.3842539000034,3211.3842539000034,,,3,001,2024-06-05_09h33.18.786,robot_nback_sign,2022.2.5,60.05703015661584,
L_Head_Z_Back,False,1,robot,1,False,False,robot_stimuli\L_Head_Z_Back.mp4,3,,,,,,,,,0,137,137,137,,,,,,,,,,,,,3216.102278700011,,,,,,,,3220.8462982999918,3220.8462982999918,3220.8462982999918,3220.8462982999918,3220.8462982999918,3220.8462982999918,3220.8462982999918,3220.8462982999918,None,None,None,,,,,,,,,,,3216.102278700011,3216.102278700011,None,,3217.1956251999945,3217.1956251999945,None,,3216.102278700011,3216.102278700011,,,3,001,2024-06-05_09h33.18.786,robot_nback_sign,2022.2.5,60.05703015661584,
L_Head_Z_Back,True,1,robot,1,False,False,robot_stimuli\L_Head_Z_Back.mp4,3,,,,,,,,,0,138,138,138,,,,,,,,,,,,,3220.8462982999918,3221.926849100011,,,,,,,3225.5668608999986,3225.5668608999986,3225.5668608999986,3225.5668608999986,3225.5668608999986,3225.5668608999986,3225.5668608999986,3225.5668608999986,None,None,None,,,,,,,,,,,3220.8462982999918,3220.8462982999918,None,,3221.926849100011,3221.926849100011,None,,3220.8462982999918,3220.8462982999918,,,3,001,2024-06-05_09h33.18.786,robot_nback_sign,2022.2.5,60.05703015661584,
L_Torso_Z_Back,False,1,robot,1,False,False,robot_stimuli\L_Torso_Z_Back.mp4,3,,,,,,,,,0,139,139,139,,,,,,,,,,,,,3225.5668608999986,3226.6455595000007,,,,,,,3230.1509412000014,3230.1509412000014,3230.1509412000014,3230.1509412000014,3230.1509412000014,3230.1509412000014,3230.1509412000014,3230.1509412000014,None,None,None,,,,,,,,,,,3225.5668608999986,3225.5668608999986,None,,3226.6455595000007,3226.6455595000007,n,3.4528221000218764,3225.5668608999986,3225.5668608999986,,,3,001,2024-06-05_09h33.18.786,robot_nback_sign,2022.2.5,60.05703015661584,
R_Arm_X_For,False,1,robot,1,False,False,robot_stimuli\R_Arm_X_For.mp4,3,,,,,,,,,0,140,140,140,,,,,,,,,,,,,3230.1509412000014,3231.228772500006,,,,,,,3234.86715559999,3234.86715559999,3234.86715559999,3234.86715559999,3234.86715559999,3234.86715559999,3234.86715559999,3234.86715559999,None,None,None,,,,,,,,,,,3230.1509412000014,3230.1509412000014,None,,3231.228772500006,3231.228772500006,None,,3230.1509412000014,3230.1509412000014,,,3,001,2024-06-05_09h33.18.786,robot_nback_sign,2022.2.5,60.05703015661584,
L_Arm_Z_For,False,1,robot,1,False,False,robot_stimuli\L_Arm_Z_For.mp4,3,,,,,,,,,0,141,141,141,,,,,,,,,,,,,3234.86715559999,3235.9460723999946,,,,,,,3239.5967435000057,3239.5967435000057,3239.5967435000057,3239.5967435000057,3239.5967435000057,3239.5967435000057,3239.5967435000057,3239.5967435000057,None,None,None,,,,,,,,,,,3234.86715559999,3234.86715559999,None,,3235.9460723999946,3235.9460723999946,None,,3234.86715559999,3234.86715559999,,,3,001,2024-06-05_09h33.18.786,robot_nback_sign,2022.2.5,60.05703015661584,
L_Torso_Z_Back,False,1,robot,1,False,False,robot_stimuli\L_Torso_Z_Back.mp4,3,,,,,,,,,0,142,142,142,,,,,,,,,,,,,3239.5967435000057,3240.6789276000054,,,,,,,3244.195534600003,3244.195534600003,3244.195534600003,3244.195534600003,3244.195534600003,3244.195534600003,3244.195534600003,3244.195534600003,None,None,None,,,,,,,,,,,3239.5967435000057,3239.5967435000057,None,,3240.6789276000054,3240.6789276000054,None,,3239.5967435000057,3239.5967435000057,,,3,001,2024-06-05_09h33.18.786,robot_nback_sign,2022.2.5,60.05703015661584,
L_Torso_Y_For,False,1,robot,1,False,False,robot_stimuli\L_Torso_Y_For.mp4,3,,,,,,,,,0,143,143,143,,,,,,,,,,,,,3244.195534600003,3245.278701400006,,,,,,,3248.912989900011,3248.912989900011,3248.912989900011,3248.912989900011,3248.912989900011,3248.912989900011,3248.912989900011,3248.912989900011,None,None,None,,,,,,,,,,,3244.195534600003,3244.195534600003,None,,3245.278701400006,3245.278701400006,None,,3244.195534600003,3244.195534600003,,,3,001,2024-06-05_09h33.18.786,robot_nback_sign,2022.2.5,60.05703015661584,
L_Arm_X_For,False,1,robot,1,False,False,robot_stimuli\L_Arm_X_For.mp4,3,,,,,,,,,0,144,144,144,,,,,,,,,,,,,3248.912989900011,3250.0101078000152,,,,,,,3253.649748399999,3253.649748399999,3253.649748399999,3253.649748399999,3253.649748399999,3253.649748399999,3253.649748399999,3253.649748399999,None,None,None,,,,,,,,,,,3248.912989900011,3248.912989900011,None,,3250.0101078000152,3250.0101078000152,None,,3248.912989900011,3248.912989900011,,,3,001,2024-06-05_09h33.18.786,robot_nback_sign,2022.2.5,60.05703015661584,
L_Head_Y_For,False,1,robot,1,False,False,robot_stimuli\L_Head_Y_For.mp4,3,,,,,,,,,0,145,145,145,,,,,,,,,,,,,3253.649748399999,3254.7283051999984,,,,,,,3258.367679799994,3258.367679799994,3258.367679799994,3258.367679799994,3258.367679799994,3258.367679799994,3258.367679799994,3258.367679799994,None,None,None,,,,,,,,,,,3253.649748399999,3253.649748399999,None,,3254.7283051999984,3254.7283051999984,c,2.883428000001004,3253.649748399999,3253.649748399999,,,3,001,2024-06-05_09h33.18.786,robot_nback_sign,2022.2.5,60.05703015661584,
R_Torso_Z_Back,False,1,robot,1,False,False,robot_stimuli\R_Torso_Z_Back.mp4,3,,,,,,,,,0,146,146,146,,,,,,,,,,,,,3258.367679799994,3259.443671999994,,,,,,,3263.0839885000023,3263.0839885000023,3263.0839885000023,3263.0839885000023,3263.0839885000023,3263.0839885000023,3263.0839885000023,3263.0839885000023,None,None,None,,,,,,,,,,,3258.367679799994,3258.367679799994,None,,3259.443671999994,3259.443671999994,None,,3258.367679799994,3258.367679799994,,,3,001,2024-06-05_09h33.18.786,robot_nback_sign,2022.2.5,60.05703015661584,
