sequence,odd_ones,parameter,choices,target,target_idx,condition,stimuli,block,is_block_beginning,is_block_ending,sequence_fnames,target_fname,subject,retraining.thisRepN,retraining.thisTrialN,retraining.thisN,retraining.thisIndex,training.thisRepN,training.thisTrialN,training.thisN,training.thisIndex,training_sequence_loop.thisRepN,training_sequence_loop.thisTrialN,training_sequence_loop.thisN,training_sequence_loop.thisIndex,trials.thisRepN,trials.thisTrialN,trials.thisN,trials.thisIndex,sequence_loop.thisRepN,sequence_loop.thisTrialN,sequence_loop.thisN,sequence_loop.thisIndex,langage_text.started,langage_key.started,langage_key.keys,langage_key.rt,intro_text.started,intro_key.started,intro_key.keys,intro_key.rt,training_intro_text.started,training_intro_key.started,training_intro_key.keys,training_intro_key.rt,polygon.started,cue_before_text.started,training_presentation_letter.started,training_presentation_letter.stopped,recall_key.started,recall_question.started,recall_answer.started,recall_key.keys,recall_key.rt,RSME_labels.started,RSME_labels.stopped,RSME_ticks.started,RSME_ticks.stopped,RSME_text.started,RSME_text.stopped,RSME_key.started,RSME_key.stopped,RSME_ticks.response,RSME_ticks.rt,RSME_key.keys,training_intro_text.stopped,training_intro_key.stopped,polygon.stopped,cue_before_text.stopped,RSME_key.rt,training_presentation_movie.started,experiment_beginning_text.started,experiment_beginning_keys.started,experiment_beginning_key.started,experiment_beginning_key.keys,experiment_beginning_key.rt,block_intro_text.started,block_intro_key.started,block_intro_key.keys,block_intro_key.rt,presentation_movie.started,block_intro_text.stopped,block_intro_key.stopped,presentation_letter.started,presentation_letter.stopped,participant,session,date,expName,psychopyVersion,frameRate,
,,,,,,,,,,,,,,,,,,,,,,,,,,,,,,,,,,11.30356950033456,11.30356950033456,f,44.49440399929881,,,,,,,,,,,,,,,,,,,,,,,,,,,,,,,,,,,,,,,,,,,,,,,,,23,001,2024-09-27_13h30.09.964,robot_cogshifting_sign,2022.2.5,59.87378604591075,
,,,,,,,,,,,,,,,,,,,,,,,,,,,,,,,,,,,,,,55.8571862000972,55.8571862000972,space,11.460068599320948,,,,,,,,,,,,,,,,,,,,,,,,,,,,,,,,,,,,,,,,,,,,,23,001,2024-09-27_13h30.09.964,robot_cogshifting_sign,2022.2.5,59.87378604591075,
"['blue_top_V_45', 'blue_bottom_J_45', 'blue_bottom_X_0', 'red_bottom_M_45']","{'color': 'red_bottom_M_45', 'position': 'blue_top_V_45', 'orientation': 'blue_bottom_X_0'}",color,['color'],red_bottom_M_45,3,1,letter,2,True,False,"['robot_stimuli\\\\filler.mp4', 'robot_stimuli\\\\filler.mp4', 'robot_stimuli\\\\filler.mp4', 'robot_stimuli\\\\filler.mp4']",robot_stimuli\\filler.mp4,23,0,0,0,0,0,0,0,0,,,,,,,,,,,,,,,,,,,,,67.37982839997858,67.37982839997858,space,2.010902998968959,69.41717470064759,70.41916300076991,80.12156410049647,82.15891810040921,82.15891810040921,82.15891810040921,82.15891810040921,4,1.1662911996245384,83.37795250024647,83.37795250024647,83.37795250024647,83.37795250024647,83.37795250024647,83.37795250024647,83.37795250024647,83.37795250024647,None,None,None,,,,,,,,,,,,,,,,,,,,,23,001,2024-09-27_13h30.09.964,robot_cogshifting_sign,2022.2.5,59.87378604591075,
"['blue_left_M_0', 'blue_bottom_Q_0', 'blue_left_V_45', 'red_left_W_0']","{'color': 'red_left_W_0', 'position': 'blue_bottom_Q_0', 'orientation': 'blue_left_V_45'}",orientation,['orientation'],blue_left_V_45,2,1,letter,2,False,False,"['robot_stimuli\\\\filler.mp4', 'robot_stimuli\\\\filler.mp4', 'robot_stimuli\\\\filler.mp4', 'robot_stimuli\\\\filler.mp4']",robot_stimuli\\filler.mp4,23,0,0,0,0,0,1,1,1,,,,,,,,,,,,,,,,,,,,,83.37795250024647,83.37795250024647,None,,83.37795250024647,84.37991050072014,92.96353009995073,94.98413609992713,94.98413609992713,94.98413609992713,94.98413609992713,3,0.9972789995372295,96.00280690006912,96.00280690006912,96.00280690006912,96.00280690006912,96.00280690006912,96.00280690006912,96.00280690006912,96.00280690006912,None,None,None,83.37795250024647,83.37795250024647,84.37991050072014,86.45071590039879,,,,,,,,,,,,,,,,,23,001,2024-09-27_13h30.09.964,robot_cogshifting_sign,2022.2.5,59.87378604591075,
"['red_left_X_45', 'red_right_C_0', 'red_left_N_0', 'blue_left_Q_0']","{'color': 'blue_left_Q_0', 'position': 'red_right_C_0', 'orientation': 'red_left_X_45'}",position,['position'],red_right_C_0,1,1,letter,2,False,True,"['robot_stimuli\\\\filler.mp4', 'robot_stimuli\\\\filler.mp4', 'robot_stimuli\\\\filler.mp4', 'robot_stimuli\\\\filler.mp4']",robot_stimuli\\filler.mp4,23,0,0,0,0,0,2,2,2,,,,,,,,,,,,,,,,,,,,,96.00280690006912,96.00280690006912,None,,96.00280690006912,97.00474990066141,105.58835580013692,107.60896240081638,107.60896240081638,107.60896240081638,107.60896240081638,2,0.763706399127841,108.44391440041363,121.20239400025457,108.44391440041363,121.20239400025457,108.44391440041363,121.20239400025457,108.44391440041363,121.20239400025457,26.269841269841272,10.413302700035274,space,96.00280690006912,96.00280690006912,97.00474990066141,99.09220230020583,12.697584600187838,,,,,,,,,,,,,,,,23,001,2024-09-27_13h30.09.964,robot_cogshifting_sign,2022.2.5,59.87378604591075,
"['red_bottom_S_45', 'blue_top_F_45', 'red_top_Z_45', 'red_top_D_0']","{'color': 'blue_top_F_45', 'position': 'red_bottom_S_45', 'orientation': 'red_top_D_0'}",color,"['color', 'position']",blue_top_F_45,1,2,letter,2,True,False,"['robot_stimuli\\\\filler.mp4', 'robot_stimuli\\\\filler.mp4', 'robot_stimuli\\\\filler.mp4', 'robot_stimuli\\\\filler.mp4']",robot_stimuli\\filler.mp4,23,0,0,0,0,0,3,3,3,,,,,,,,,,,,,,,,,,,,,121.20239400025457,121.20239400025457,space,4.763245498761535,125.99516110029072,126.99710620008409,135.38033970072865,137.41765190009028,137.41765190009028,137.41765190009028,137.41765190009028,2,4.211696700192988,141.65932310000062,141.65932310000062,141.65932310000062,141.65932310000062,141.65932310000062,141.65932310000062,141.65932310000062,141.65932310000062,None,None,None,,,,,,,,,,,,,,,,,,,,,23,001,2024-09-27_13h30.09.964,robot_cogshifting_sign,2022.2.5,59.87378604591075,
"['blue_right_J_0', 'blue_right_J_45', 'red_right_X_0', 'blue_top_C_0']","{'color': 'red_right_X_0', 'position': 'blue_top_C_0', 'orientation': 'blue_right_J_45'}",position,"['color', 'position']",blue_top_C_0,3,2,letter,2,False,False,"['robot_stimuli\\\\filler.mp4', 'robot_stimuli\\\\filler.mp4', 'robot_stimuli\\\\filler.mp4', 'robot_stimuli\\\\filler.mp4']",robot_stimuli\\filler.mp4,23,0,0,0,0,0,4,4,4,,,,,,,,,,,,,,,,,,,,,141.65932310000062,141.65932310000062,None,,141.65932310000062,142.66130049992353,151.22811140026897,153.24875910021365,153.24875910021365,153.24875910021365,153.24875910021365,4,3.4044916993007064,156.67221280001104,156.67221280001104,156.67221280001104,156.67221280001104,156.67221280001104,156.67221280001104,156.67221280001104,156.67221280001104,None,None,None,141.65932310000062,141.65932310000062,142.66130049992353,144.73205590061843,,,,,,,,,,,,,,,,,23,001,2024-09-27_13h30.09.964,robot_cogshifting_sign,2022.2.5,59.87378604591075,
"['red_bottom_G_45', 'blue_bottom_P_0', 'blue_bottom_J_45', 'blue_right_D_45']","{'color': 'red_bottom_G_45', 'position': 'blue_right_D_45', 'orientation': 'blue_bottom_P_0'}",orientation,"['orientation', 'position']",blue_bottom_P_0,1,2,letter,2,False,True,"['robot_stimuli\\\\filler.mp4', 'robot_stimuli\\\\filler.mp4', 'robot_stimuli\\\\filler.mp4', 'robot_stimuli\\\\filler.mp4']",robot_stimuli\\filler.mp4,23,0,0,0,0,0,5,5,5,,,,,,,,,,,,,,,,,,,,,156.67221280001104,156.67221280001104,None,,156.67221280001104,157.67420270014554,166.24103560019284,168.26165710017085,168.26165710017085,168.26165710017085,168.26165710017085,2,1.7676297994330525,170.0819151001051,177.96410630084574,170.0819151001051,177.96410630084574,170.0819151001051,177.96410630084574,170.0819151001051,177.96410630084574,59.285714285714285,5.58695609960705,space,156.67221280001104,156.67221280001104,157.67420270014554,159.74498660024256,7.819321199320257,,,,,,,,,,,,,,,,23,001,2024-09-27_13h30.09.964,robot_cogshifting_sign,2022.2.5,59.87378604591075,
"['red_left_R_0', 'blue_left_W_0', 'blue_left_F_45', 'blue_bottom_S_0']","{'color': 'red_left_R_0', 'position': 'blue_bottom_S_0', 'orientation': 'blue_left_F_45'}",orientation,"['color', 'orientation', 'position']",blue_left_F_45,2,3,letter,2,True,False,"['robot_stimuli\\\\filler.mp4', 'robot_stimuli\\\\filler.mp4', 'robot_stimuli\\\\filler.mp4', 'robot_stimuli\\\\filler.mp4']",robot_stimuli\\filler.mp4,23,0,0,0,0,0,6,6,6,,,,,,,,,,,,,,,,,,,,,177.96410630084574,177.96410630084574,space,2.032563799060881,180.01814480032772,181.020094900392,189.60371920000762,191.82471210043877,191.82471210043877,191.82471210043877,191.82471210043877,2,7.925472599454224,199.77367589995265,199.77367589995265,199.77367589995265,199.77367589995265,199.77367589995265,199.77367589995265,199.77367589995265,199.77367589995265,None,None,None,,,,,,,,,,,,,,,,,,,,,23,001,2024-09-27_13h30.09.964,robot_cogshifting_sign,2022.2.5,59.87378604591075,
"['blue_right_C_0', 'red_left_C_0', 'blue_left_X_0', 'blue_left_J_45']","{'color': 'red_left_C_0', 'position': 'blue_right_C_0', 'orientation': 'blue_left_J_45'}",position,"['color', 'orientation', 'position']",blue_right_C_0,0,3,letter,2,False,False,"['robot_stimuli\\\\filler.mp4', 'robot_stimuli\\\\filler.mp4', 'robot_stimuli\\\\filler.mp4', 'robot_stimuli\\\\filler.mp4']",robot_stimuli\\filler.mp4,23,0,0,0,0,0,7,7,7,,,,,,,,,,,,,,,,,,,,,199.77367589995265,199.77367589995265,None,,199.77367589995265,200.7756843008101,209.34262569993734,211.3631374007091,211.3631374007091,211.3631374007091,211.3631374007091,1,2.418676699511707,213.80128280073404,213.80128280073404,213.80128280073404,213.80128280073404,213.80128280073404,213.80128280073404,213.80128280073404,213.80128280073404,None,None,None,199.77367589995265,199.77367589995265,200.7756843008101,202.84653270058334,,,,,,,,,,,,,,,,,23,001,2024-09-27_13h30.09.964,robot_cogshifting_sign,2022.2.5,59.87378604591075,
"['blue_right_W_45', 'red_right_V_0', 'blue_right_Q_0', 'blue_left_L_0']","{'color': 'red_right_V_0', 'position': 'blue_left_L_0', 'orientation': 'blue_right_W_45'}",color,"['color', 'orientation', 'position']",red_right_V_0,1,3,letter,2,False,True,"['robot_stimuli\\\\filler.mp4', 'robot_stimuli\\\\filler.mp4', 'robot_stimuli\\\\filler.mp4', 'robot_stimuli\\\\filler.mp4']",robot_stimuli\\filler.mp4,23,0,0,0,0,0,8,8,8,,,,,,,,,,,,,,,,,,,,,213.80128280073404,213.80128280073404,None,,213.80128280073404,214.80326530057937,223.52128820028156,225.557750900276,225.557750900276,225.557750900276,225.557750900276,2,3.983424799516797,229.59908220078796,233.62366370018572,229.59908220078796,233.62366370018572,229.59908220078796,233.62366370018572,229.59908220078796,233.62366370018572,100.07936507936509,2.5482569001615047,space,213.80128280073404,213.80128280073404,214.80326530057937,216.87409540079534,3.942370398901403,,,,,,,,,,,,,,,,23,001,2024-09-27_13h30.09.964,robot_cogshifting_sign,2022.2.5,59.87378604591075,
"['L_Base_Y_Back', 'R_Base_Y_For', 'R_Head_Y_For', 'R_Base_Z_For']","{'laterality': 'L_Base_Y_Back', 'localisation': 'R_Head_Y_For', 'movement': 'R_Base_Z_For'}",movement,['movement'],R_Base_Z_For,3,1,robot,1,True,False,"['robot_stimuli\\L_Base_Y_Back.mp4', 'robot_stimuli\\R_Base_Y_For.mp4', 'robot_stimuli\\R_Head_Y_For.mp4', 'robot_stimuli\\R_Base_Z_For.mp4']",robot_stimuli\R_Base_Z_For.mp4,23,0,0,0,0,0,9,9,9,,,,,,,,,,,,,,,,,,,,,233.62366370018572,233.62366370018572,space,2.598640600219369,236.2454874003306,237.24745750054717,,,254.11471430025995,254.11471430025995,254.11471430025995,1,12.049838999286294,266.1877168007195,266.1877168007195,266.1877168007195,266.1877168007195,266.1877168007195,266.1877168007195,266.1877168007195,266.1877168007195,None,None,None,,,,,,250.47351830080152,,,,,,,,,,,,,,,23,001,2024-09-27_13h30.09.964,robot_cogshifting_sign,2022.2.5,59.87378604591075,
"['L_Head_X_For', 'L_Torso_Y_For', 'L_Torso_X_For', 'R_Torso_X_Back']","{'laterality': 'R_Torso_X_Back', 'localisation': 'L_Head_X_For', 'movement': 'L_Torso_Y_For'}",localisation,['localisation'],L_Head_X_For,0,1,robot,1,False,False,"['robot_stimuli\\L_Head_X_For.mp4', 'robot_stimuli\\L_Torso_Y_For.mp4', 'robot_stimuli\\L_Torso_X_For.mp4', 'robot_stimuli\\R_Torso_X_Back.mp4']",robot_stimuli\L_Head_X_For.mp4,23,0,0,0,0,0,10,10,10,,,,,,,,,,,,,,,,,,,,,266.1877168007195,266.1877168007195,None,,266.1877168007195,267.18970530014485,,,284.03951990045607,284.03951990045607,284.03951990045607,1,1.117819699458778,285.17512240074575,285.17512240074575,285.17512240074575,285.17512240074575,285.17512240074575,285.17512240074575,285.17512240074575,285.17512240074575,None,None,None,266.1877168007195,266.1877168007195,267.18970530014485,269.2771302005276,,280.3990768007934,,,,,,,,,,,,,,,23,001,2024-09-27_13h30.09.964,robot_cogshifting_sign,2022.2.5,59.87378604591075,
"['L_Base_X_Back', 'L_Base_Z_For', 'L_Arm_Z_Back', 'R_Base_Z_Back']","{'laterality': 'R_Base_Z_Back', 'localisation': 'L_Arm_Z_Back', 'movement': 'L_Base_X_Back'}",laterality,['laterality'],R_Base_Z_Back,3,1,robot,1,False,True,"['robot_stimuli\\L_Base_X_Back.mp4', 'robot_stimuli\\L_Base_Z_For.mp4', 'robot_stimuli\\L_Arm_Z_Back.mp4', 'robot_stimuli\\R_Base_Z_Back.mp4']",robot_stimuli\R_Base_Z_Back.mp4,23,0,0,0,0,0,11,11,11,,,,,,,,,,,,,,,,,,,,,285.17512240074575,285.17512240074575,None,,285.17512240074575,286.17707130033523,,,302.9767801007256,302.9767801007256,302.9767801007256,4,1.3405797993764281,304.3795598000288,309.70672130025923,304.3795598000288,309.70672130025923,304.3795598000288,309.70672130025923,304.3795598000288,309.70672130025923,19.12698412698413,4.2041902001947165,space,285.17512240074575,285.17512240074575,286.17707130033523,288.2812269004062,5.257548099383712,299.4197909999639,,,,,,,,,,,,,,,23,001,2024-09-27_13h30.09.964,robot_cogshifting_sign,2022.2.5,59.87378604591075,
"['L_Arm_Z_For', 'R_Arm_Z_For', 'L_Head_Z_For', 'L_Arm_X_For']","{'laterality': 'R_Arm_Z_For', 'localisation': 'L_Head_Z_For', 'movement': 'L_Arm_X_For'}",localisation,"['localisation', 'movement']",L_Head_Z_For,2,2,robot,1,True,False,"['robot_stimuli\\L_Arm_Z_For.mp4', 'robot_stimuli\\R_Arm_Z_For.mp4', 'robot_stimuli\\L_Head_Z_For.mp4', 'robot_stimuli\\L_Arm_X_For.mp4']",robot_stimuli\L_Head_Z_For.mp4,23,0,0,0,0,0,12,12,12,,,,,,,,,,,,,,,,,,,,,309.70672130025923,309.70672130025923,space,2.12256189994514,311.8609608002007,312.86294670030475,,,329.76286770030856,329.76286770030856,329.76286770030856,4,3.026290299370885,332.81887560058385,332.81887560058385,332.81887560058385,332.81887560058385,332.81887560058385,332.81887560058385,332.81887560058385,332.81887560058385,None,None,None,,,,,,326.1056902008131,,,,,,,,,,,,,,,23,001,2024-09-27_13h30.09.964,robot_cogshifting_sign,2022.2.5,59.87378604591075,
"['L_Arm_Y_For', 'R_Arm_Y_Back', 'R_Head_Y_For', 'R_Arm_Z_For']","{'laterality': 'L_Arm_Y_For', 'localisation': 'R_Head_Y_For', 'movement': 'R_Arm_Z_For'}",laterality,"['laterality', 'movement']",L_Arm_Y_For,0,2,robot,1,False,False,"['robot_stimuli\\L_Arm_Y_For.mp4', 'robot_stimuli\\R_Arm_Y_Back.mp4', 'robot_stimuli\\R_Head_Y_For.mp4', 'robot_stimuli\\R_Arm_Z_For.mp4']",robot_stimuli\L_Arm_Y_For.mp4,23,0,0,0,0,0,13,13,13,,,,,,,,,,,,,,,,,,,,,332.81887560058385,332.81887560058385,None,,332.81887560058385,333.82087600044906,,,350.7207836005837,350.7207836005837,350.7207836005837,2,4.340483099222183,355.0793703002855,355.0793703002855,355.0793703002855,355.0793703002855,355.0793703002855,355.0793703002855,355.0793703002855,355.0793703002855,None,None,None,332.81887560058385,332.81887560058385,333.82087600044906,335.90833669994026,,347.06358250044286,,,,,,,,,,,,,,,23,001,2024-09-27_13h30.09.964,robot_cogshifting_sign,2022.2.5,59.87378604591075,
"['L_Torso_Z_For', 'R_Torso_Z_For', 'R_Torso_Y_Back', 'R_Arm_Z_For']","{'laterality': 'L_Torso_Z_For', 'localisation': 'R_Arm_Z_For', 'movement': 'R_Torso_Y_Back'}",movement,"['localisation', 'movement']",R_Torso_Y_Back,2,2,robot,1,False,True,"['robot_stimuli\\L_Torso_Z_For.mp4', 'robot_stimuli\\R_Torso_Z_For.mp4', 'robot_stimuli\\R_Torso_Y_Back.mp4', 'robot_stimuli\\R_Arm_Z_For.mp4']",robot_stimuli\R_Torso_Y_Back.mp4,23,0,0,0,0,0,14,14,14,,,,,,,,,,,,,,,,,,,,,355.0793703002855,355.0793703002855,None,,355.0793703002855,356.08130430057645,,,372.9812489999458,372.9812489999458,372.9812489999458,4,10.952463098801672,383.9862796002999,388.69553630053997,383.9862796002999,388.69553630053997,383.9862796002999,388.69553630053997,383.9862796002999,388.69553630053997,57.53968253968254,2.6818038998171687,space,355.0793703002855,355.0793703002855,356.08130430057645,358.16875379998237,4.626890399493277,369.32404800038785,,,,,,,,,,,,,,,23,001,2024-09-27_13h30.09.964,robot_cogshifting_sign,2022.2.5,59.87378604591075,
"['R_Base_Y_Back', 'L_Base_Y_Back', 'L_Torso_Y_Back', 'L_Base_Z_Back']","{'laterality': 'R_Base_Y_Back', 'localisation': 'L_Torso_Y_Back', 'movement': 'L_Base_Z_Back'}",laterality,"['laterality', 'localisation', 'movement']",R_Base_Y_Back,0,3,robot,1,True,False,"['robot_stimuli\\R_Base_Y_Back.mp4', 'robot_stimuli\\L_Base_Y_Back.mp4', 'robot_stimuli\\L_Torso_Y_Back.mp4', 'robot_stimuli\\L_Base_Z_Back.mp4']",robot_stimuli\R_Base_Y_Back.mp4,23,0,0,0,0,0,15,15,15,,,,,,,,,,,,,,,,,,,,,388.69553630053997,388.69553630053997,space,6.669533599168062,395.39206390082836,396.39402540028095,,,413.1102249007672,413.1102249007672,413.1102249007672,1,3.4710854990407825,416.60042400006205,416.60042400006205,416.60042400006205,416.60042400006205,416.60042400006205,416.60042400006205,416.60042400006205,416.60042400006205,None,None,None,,,,,,409.46977440081537,,,,,,,,,,,,,,,23,001,2024-09-27_13h30.09.964,robot_cogshifting_sign,2022.2.5,59.87378604591075,
"['R_Torso_X_For', 'L_Head_X_Back', 'L_Torso_Z_Back', 'L_Torso_X_For']","{'laterality': 'R_Torso_X_For', 'localisation': 'L_Head_X_Back', 'movement': 'L_Torso_Z_Back'}",localisation,"['laterality', 'localisation', 'movement']",L_Head_X_Back,1,3,robot,1,False,False,"['robot_stimuli\\R_Torso_X_For.mp4', 'robot_stimuli\\L_Head_X_Back.mp4', 'robot_stimuli\\L_Torso_Z_Back.mp4', 'robot_stimuli\\L_Torso_X_For.mp4']",robot_stimuli\L_Head_X_Back.mp4,23,0,0,0,0,0,16,16,16,,,,,,,,,,,,,,,,,,,,,416.60042400006205,416.60042400006205,None,,416.60042400006205,417.60254640039057,,,434.38544690050185,434.38544690050185,434.38544690050185,3,9.956834299489856,444.37178380042315,444.37178380042315,444.37178380042315,444.37178380042315,444.37178380042315,444.37178380042315,444.37178380042315,444.37178380042315,None,None,None,416.60042400006205,416.60042400006205,417.60254640039057,419.68990370072424,,430.72826430015266,,,,,,,,,,,,,,,23,001,2024-09-27_13h30.09.964,robot_cogshifting_sign,2022.2.5,59.87378604591075,
"['R_Torso_X_Back', 'L_Arm_X_Back', 'R_Arm_X_For', 'R_Arm_Y_Back']","{'laterality': 'L_Arm_X_Back', 'localisation': 'R_Torso_X_Back', 'movement': 'R_Arm_Y_Back'}",movement,"['laterality', 'localisation', 'movement']",R_Arm_Y_Back,3,3,robot,1,False,True,"['robot_stimuli\\R_Torso_X_Back.mp4', 'robot_stimuli\\L_Arm_X_Back.mp4', 'robot_stimuli\\R_Arm_X_For.mp4', 'robot_stimuli\\R_Arm_Y_Back.mp4']",robot_stimuli\R_Arm_Y_Back.mp4,23,0,0,0,0,0,17,17,17,,,,,,,,,,,,,,,,,,,,,444.37178380042315,444.37178380042315,None,,444.37178380042315,445.37375910021365,,,462.2736317003146,462.2736317003146,462.2736317003146,2,3.939312499947846,466.26490100007504,470.57338870037347,466.26490100007504,470.57338870037347,466.26490100007504,470.57338870037347,466.26490100007504,470.57338870037347,99.44444444444444,2.8487123996019363,space,444.37178380042315,444.37178380042315,445.37375910021365,447.4612472001463,4.236535899341106,458.6332040000707,,,,,,,,,,,,,,,23,001,2024-09-27_13h30.09.964,robot_cogshifting_sign,2022.2.5,59.87378604591075,
,,,,,,,,,,,,,,0,0,0,0,,,,,,,,,,,,,,,,,,,,,,,,,,,,,,,,,,,,,,,,,,,,,,,,,,,,,,,470.57338870037347,470.57338870037347,470.57338870037347,c,9.15941789932549,,,,,,,,,,23,001,2024-09-27_13h30.09.964,robot_cogshifting_sign,2022.2.5,59.87378604591075,
"['R_Base_Y_For', 'R_Torso_X_Back', 'R_Torso_Y_Back', 'L_Torso_Y_Back']","{'laterality': 'L_Torso_Y_Back', 'localisation': 'R_Base_Y_For', 'movement': 'R_Torso_X_Back'}",laterality,['laterality'],L_Torso_Y_Back,3,1,robot,1,True,False,"['robot_stimuli\\R_Base_Y_For.mp4', 'robot_stimuli\\R_Torso_X_Back.mp4', 'robot_stimuli\\R_Torso_Y_Back.mp4', 'robot_stimuli\\L_Torso_Y_Back.mp4']",robot_stimuli\L_Torso_Y_Back.mp4,23,,,,,,,,,,,,,0,0,0,0,,,,,,,,,,,,,,,,,,483.0311941001564,,,499.79755000025034,499.79755000025034,499.79755000025034,4,0.4076014989987016,500.2317507006228,500.2317507006228,500.2317507006228,500.2317507006228,500.2317507006228,500.2317507006228,500.2317507006228,500.2317507006228,None,None,None,,,,,,,,,,,,479.7914935005829,479.7914935005829,space,3.221518399193883,496.2744812006131,,,,,23,001,2024-09-27_13h30.09.964,robot_cogshifting_sign,2022.2.5,59.87378604591075,
"['L_Torso_X_Back', 'R_Head_X_Back', 'R_Torso_Z_Back', 'R_Torso_X_Back']","{'laterality': 'L_Torso_X_Back', 'localisation': 'R_Head_X_Back', 'movement': 'R_Torso_Z_Back'}",movement,['movement'],R_Torso_Z_Back,2,1,robot,1,False,False,"['robot_stimuli\\L_Torso_X_Back.mp4', 'robot_stimuli\\R_Head_X_Back.mp4', 'robot_stimuli\\R_Torso_Z_Back.mp4', 'robot_stimuli\\R_Torso_X_Back.mp4']",robot_stimuli\R_Torso_Z_Back.mp4,23,,,,,,,,,,,,,0,1,1,1,,,,,,,,,,,,,,,,,,500.2317507006228,,,517.1316536003724,517.1316536003724,517.1316536003724,1,7.249049699865282,524.4126622006297,524.4126622006297,524.4126622006297,524.4126622006297,524.4126622006297,524.4126622006297,524.4126622006297,524.4126622006297,None,None,None,,,,502.31921620015055,,,,,,,,500.2317507006228,500.2317507006228,None,,513.4911625999957,500.2317507006228,500.2317507006228,,,23,001,2024-09-27_13h30.09.964,robot_cogshifting_sign,2022.2.5,59.87378604591075,
"['R_Base_Y_Back', 'R_Arm_Y_For', 'L_Arm_Y_Back', 'R_Arm_X_Back']","{'laterality': 'L_Arm_Y_Back', 'localisation': 'R_Base_Y_Back', 'movement': 'R_Arm_X_Back'}",localisation,['localisation'],R_Base_Y_Back,0,1,robot,1,False,False,"['robot_stimuli\\R_Base_Y_Back.mp4', 'robot_stimuli\\R_Arm_Y_For.mp4', 'robot_stimuli\\L_Arm_Y_Back.mp4', 'robot_stimuli\\R_Arm_X_Back.mp4']",robot_stimuli\R_Base_Y_Back.mp4,23,,,,,,,,,,,,,0,2,2,2,,,,,,,,,,,,,,,,,,524.4126622006297,,,541.195682500489,541.195682500489,541.195682500489,1,7.417457398958504,548.6437143003568,548.6437143003568,548.6437143003568,548.6437143003568,548.6437143003568,548.6437143003568,548.6437143003568,548.6437143003568,None,None,None,,,,526.5000873003155,,,,,,,,524.4126622006297,524.4126622006297,None,,537.5551495002583,524.4126622006297,524.4126622006297,,,23,001,2024-09-27_13h30.09.964,robot_cogshifting_sign,2022.2.5,59.87378604591075,
"['R_Head_X_For', 'L_Head_Z_For', 'R_Head_Z_For', 'R_Arm_Z_Back']","{'laterality': 'L_Head_Z_For', 'localisation': 'R_Arm_Z_Back', 'movement': 'R_Head_X_For'}",localisation,['localisation'],R_Arm_Z_Back,3,1,robot,1,False,False,"['robot_stimuli\\R_Head_X_For.mp4', 'robot_stimuli\\L_Head_Z_For.mp4', 'robot_stimuli\\R_Head_Z_For.mp4', 'robot_stimuli\\R_Arm_Z_Back.mp4']",robot_stimuli\R_Arm_Z_Back.mp4,23,,,,,,,,,,,,,0,3,3,3,,,,,,,,,,,,,,,,,,548.6437143003568,,,565.5436171004549,565.5436171004549,565.5436171004549,4,0.5087476996704936,566.0780114000663,566.0780114000663,566.0780114000663,566.0780114000663,566.0780114000663,566.0780114000663,566.0780114000663,566.0780114000663,None,None,None,,,,550.7311420999467,,,,,,,,548.6437143003568,548.6437143003568,None,,561.9031231999397,548.6437143003568,548.6437143003568,,,23,001,2024-09-27_13h30.09.964,robot_cogshifting_sign,2022.2.5,59.87378604591075,
"['R_Head_X_Back', 'L_Torso_X_Back', 'R_Torso_Y_Back', 'R_Torso_X_Back']","{'laterality': 'L_Torso_X_Back', 'localisation': 'R_Head_X_Back', 'movement': 'R_Torso_Y_Back'}",laterality,['laterality'],L_Torso_X_Back,1,1,robot,1,False,False,"['robot_stimuli\\R_Head_X_Back.mp4', 'robot_stimuli\\L_Torso_X_Back.mp4', 'robot_stimuli\\R_Torso_Y_Back.mp4', 'robot_stimuli\\R_Torso_X_Back.mp4']",robot_stimuli\L_Torso_X_Back.mp4,23,,,,,,,,,,,,,0,4,4,4,,,,,,,,,,,,,,,,,,566.0780114000663,,,582.9445160999894,582.9445160999894,582.9445160999894,2,0.49216230027377605,583.462216200307,583.462216200307,583.462216200307,583.462216200307,583.462216200307,583.462216200307,583.462216200307,583.462216200307,None,None,None,,,,568.1654283003882,,,,,,,,566.0780114000663,566.0780114000663,None,,579.3040195005015,566.0780114000663,566.0780114000663,,,23,001,2024-09-27_13h30.09.964,robot_cogshifting_sign,2022.2.5,59.87378604591075,
"['R_Head_Y_Back', 'R_Head_X_For', 'L_Head_X_For', 'R_Base_X_Back']","{'laterality': 'L_Head_X_For', 'localisation': 'R_Base_X_Back', 'movement': 'R_Head_Y_Back'}",localisation,['localisation'],R_Base_X_Back,3,1,robot,1,False,False,"['robot_stimuli\\R_Head_Y_Back.mp4', 'robot_stimuli\\R_Head_X_For.mp4', 'robot_stimuli\\L_Head_X_For.mp4', 'robot_stimuli\\R_Base_X_Back.mp4']",robot_stimuli\R_Base_X_Back.mp4,23,,,,,,,,,,,,,0,5,5,5,,,,,,,,,,,,,,,,,,583.462216200307,,,600.2964128004387,600.2964128004387,600.2964128004387,4,0.26833639945834875,600.5962770003825,600.5962770003825,600.5962770003825,600.5962770003825,600.5962770003825,600.5962770003825,600.5962770003825,600.5962770003825,None,None,None,,,,585.5497055007145,,,,,,,,583.462216200307,583.462216200307,None,,596.6548887006938,583.462216200307,583.462216200307,,,23,001,2024-09-27_13h30.09.964,robot_cogshifting_sign,2022.2.5,59.87378604591075,
"['R_Arm_Z_For', 'L_Arm_Z_Back', 'L_Base_Z_Back', 'L_Arm_Y_For']","{'laterality': 'R_Arm_Z_For', 'localisation': 'L_Base_Z_Back', 'movement': 'L_Arm_Y_For'}",laterality,['laterality'],R_Arm_Z_For,0,1,robot,1,False,False,"['robot_stimuli\\R_Arm_Z_For.mp4', 'robot_stimuli\\L_Arm_Z_Back.mp4', 'robot_stimuli\\L_Base_Z_Back.mp4', 'robot_stimuli\\L_Arm_Y_For.mp4']",robot_stimuli\R_Arm_Z_For.mp4,23,,,,,,,,,,,,,0,6,6,6,,,,,,,,,,,,,,,,,,600.5962770003825,,,617.4958363007754,617.4958363007754,617.4958363007754,1,1.2686943989247084,618.7817441001534,618.7817441001534,618.7817441001534,618.7817441001534,618.7817441001534,618.7817441001534,618.7817441001534,618.7817441001534,None,None,None,,,,602.6833947999403,,,,,,,,600.5962770003825,600.5962770003825,None,,613.8554001003504,600.5962770003825,600.5962770003825,,,23,001,2024-09-27_13h30.09.964,robot_cogshifting_sign,2022.2.5,59.87378604591075,
"['R_Head_X_For', 'R_Torso_X_Back', 'L_Torso_X_Back', 'R_Torso_Y_For']","{'laterality': 'L_Torso_X_Back', 'localisation': 'R_Head_X_For', 'movement': 'R_Torso_Y_For'}",movement,['movement'],R_Torso_Y_For,3,1,robot,1,False,False,"['robot_stimuli\\R_Head_X_For.mp4', 'robot_stimuli\\R_Torso_X_Back.mp4', 'robot_stimuli\\L_Torso_X_Back.mp4', 'robot_stimuli\\R_Torso_Y_For.mp4']",robot_stimuli\R_Torso_Y_For.mp4,23,,,,,,,,,,,,,0,7,7,7,,,,,,,,,,,,,,,,,,618.7817441001534,,,635.6816714005545,635.6816714005545,635.6816714005545,1,0.7554961992427707,636.4665038008243,636.4665038008243,636.4665038008243,636.4665038008243,636.4665038008243,636.4665038008243,636.4665038008243,636.4665038008243,None,None,None,,,,620.8691823007539,,,,,,,,618.7817441001534,618.7817441001534,None,,632.024543300271,618.7817441001534,618.7817441001534,,,23,001,2024-09-27_13h30.09.964,robot_cogshifting_sign,2022.2.5,59.87378604591075,
"['L_Base_Y_For', 'R_Torso_Y_For', 'R_Base_X_For', 'R_Base_Y_Back']","{'laterality': 'L_Base_Y_For', 'localisation': 'R_Torso_Y_For', 'movement': 'R_Base_X_For'}",movement,['movement'],R_Base_X_For,2,1,robot,1,False,True,"['robot_stimuli\\L_Base_Y_For.mp4', 'robot_stimuli\\R_Torso_Y_For.mp4', 'robot_stimuli\\R_Base_X_For.mp4', 'robot_stimuli\\R_Base_Y_Back.mp4']",robot_stimuli\R_Base_X_For.mp4,23,,,,,,,,,,,,,0,8,8,8,,,,,,,,,,,,,,,,,,636.4665038008243,,,653.1661044005305,653.1661044005305,653.1661044005305,3,0.5113837001845241,653.7339112004265,657.9254239005968,653.7339112004265,657.9254239005968,653.7339112004265,657.9254239005968,653.7339112004265,657.9254239005968,20.873015873015863,2.731885500252247,space,,,,638.5539953000844,4.111511699855328,,,,,,,636.4665038008243,636.4665038008243,None,,649.5256368005648,636.4665038008243,636.4665038008243,,,23,001,2024-09-27_13h30.09.964,robot_cogshifting_sign,2022.2.5,59.87378604591075,
"['L_Head_Y_Back', 'R_Base_Y_Back', 'R_Head_Y_Back', 'R_Head_X_For']","{'laterality': 'L_Head_Y_Back', 'localisation': 'R_Base_Y_Back', 'movement': 'R_Head_X_For'}",localisation,"['localisation', 'movement']",R_Base_Y_Back,1,2,robot,1,True,False,"['robot_stimuli\\L_Head_Y_Back.mp4', 'robot_stimuli\\R_Base_Y_Back.mp4', 'robot_stimuli\\R_Head_Y_Back.mp4', 'robot_stimuli\\R_Head_X_For.mp4']",robot_stimuli\R_Base_Y_Back.mp4,23,,,,,,,,,,,,,0,9,9,9,,,,,,,,,,,,,,,,,,661.7329898001626,,,678.6161780003458,678.6161780003458,678.6161780003458,4,5.732657899148762,684.3775072004646,684.3775072004646,684.3775072004646,684.3775072004646,684.3775072004646,684.3775072004646,684.3775072004646,684.3775072004646,None,None,None,,,,,,,,,,,,657.9254239005968,657.9254239005968,space,3.7755494993180037,674.992365100421,,,,,23,001,2024-09-27_13h30.09.964,robot_cogshifting_sign,2022.2.5,59.87378604591075,
"['L_Arm_X_Back', 'R_Arm_Y_For', 'R_Arm_X_Back', 'R_Torso_X_For']","{'laterality': 'L_Arm_X_Back', 'localisation': 'R_Torso_X_For', 'movement': 'R_Arm_Y_For'}",laterality,"['laterality', 'movement']",L_Arm_X_Back,0,2,robot,1,False,False,"['robot_stimuli\\L_Arm_X_Back.mp4', 'robot_stimuli\\R_Arm_Y_For.mp4', 'robot_stimuli\\R_Arm_X_Back.mp4', 'robot_stimuli\\R_Torso_X_For.mp4']",robot_stimuli\L_Arm_X_Back.mp4,23,,,,,,,,,,,,,0,10,10,10,,,,,,,,,,,,,,,,,,684.3775072004646,,,701.1271383007988,701.1271383007988,701.1271383007988,1,2.7895728992298245,703.949404200539,703.949404200539,703.949404200539,703.949404200539,703.949404200539,703.949404200539,703.949404200539,703.949404200539,None,None,None,,,,686.46494970005,,,,,,,,684.3775072004646,684.3775072004646,None,,697.486649800092,684.3775072004646,684.3775072004646,,,23,001,2024-09-27_13h30.09.964,robot_cogshifting_sign,2022.2.5,59.87378604591075,
"['R_Head_Z_For', 'L_Base_Z_For', 'R_Base_Y_Back', 'R_Base_Z_For']","{'laterality': 'L_Base_Z_For', 'localisation': 'R_Head_Z_For', 'movement': 'R_Base_Y_Back'}",movement,"['laterality', 'movement']",R_Base_Y_Back,2,2,robot,1,False,False,"['robot_stimuli\\R_Head_Z_For.mp4', 'robot_stimuli\\L_Base_Z_For.mp4', 'robot_stimuli\\R_Base_Y_Back.mp4', 'robot_stimuli\\R_Base_Z_For.mp4']",robot_stimuli\R_Base_Y_Back.mp4,23,,,,,,,,,,,,,0,11,11,11,,,,,,,,,,,,,,,,,,703.949404200539,,,720.8326350999996,720.8326350999996,720.8326350999996,1,2.0921068992465734,722.9534713001922,722.9534713001922,722.9534713001922,722.9534713001922,722.9534713001922,722.9534713001922,722.9534713001922,722.9534713001922,None,None,None,,,,706.0368825001642,,,,,,,,703.949404200539,703.949404200539,None,,717.1921908007935,703.949404200539,703.949404200539,,,23,001,2024-09-27_13h30.09.964,robot_cogshifting_sign,2022.2.5,59.87378604591075,
"['R_Base_X_For', 'R_Head_X_For', 'L_Head_X_Back', 'R_Head_Z_Back']","{'laterality': 'L_Head_X_Back', 'localisation': 'R_Base_X_For', 'movement': 'R_Head_Z_Back'}",localisation,"['localisation', 'movement']",R_Base_X_For,0,2,robot,1,False,False,"['robot_stimuli\\R_Base_X_For.mp4', 'robot_stimuli\\R_Head_X_For.mp4', 'robot_stimuli\\L_Head_X_Back.mp4', 'robot_stimuli\\R_Head_Z_Back.mp4']",robot_stimuli\R_Base_X_For.mp4,23,,,,,,,,,,,,,0,12,12,12,,,,,,,,,,,,,,,,,,722.9534713001922,,,739.7365049002692,739.7365049002692,739.7365049002692,4,3.2044997988268733,742.9595215003937,742.9595215003937,742.9595215003937,742.9595215003937,742.9595215003937,742.9595215003937,742.9595215003937,742.9595215003937,None,None,None,,,,725.0408785007894,,,,,,,,722.9534713001922,722.9534713001922,None,,736.0959742004052,722.9534713001922,722.9534713001922,,,23,001,2024-09-27_13h30.09.964,robot_cogshifting_sign,2022.2.5,59.87378604591075,
"['L_Arm_Y_For', 'R_Torso_Y_Back', 'L_Torso_Y_Back', 'L_Torso_Z_Back']","{'laterality': 'R_Torso_Y_Back', 'localisation': 'L_Arm_Y_For', 'movement': 'L_Torso_Z_Back'}",movement,"['localisation', 'movement']",L_Torso_Z_Back,3,2,robot,1,False,False,"['robot_stimuli\\L_Arm_Y_For.mp4', 'robot_stimuli\\R_Torso_Y_Back.mp4', 'robot_stimuli\\L_Torso_Y_Back.mp4', 'robot_stimuli\\L_Torso_Z_Back.mp4']",robot_stimuli\L_Torso_Z_Back.mp4,23,,,,,,,,,,,,,0,13,13,13,,,,,,,,,,,,,,,,,,742.9595215003937,,,759.5755969006568,759.5755969006568,759.5755969006568,4,4.61311149969697,764.2180080004036,764.2180080004036,764.2180080004036,764.2180080004036,764.2180080004036,764.2180080004036,764.2180080004036,764.2180080004036,None,None,None,,,,745.0469329003245,,,,,,,,742.9595215003937,742.9595215003937,None,,756.0686757005751,742.9595215003937,742.9595215003937,,,23,001,2024-09-27_13h30.09.964,robot_cogshifting_sign,2022.2.5,59.87378604591075,
"['R_Arm_Z_Back', 'R_Arm_Y_For', 'L_Arm_Y_Back', 'R_Base_Y_For']","{'laterality': 'L_Arm_Y_Back', 'localisation': 'R_Base_Y_For', 'movement': 'R_Arm_Z_Back'}",laterality,"['laterality', 'localisation']",L_Arm_Y_Back,2,2,robot,1,False,False,"['robot_stimuli\\R_Arm_Z_Back.mp4', 'robot_stimuli\\R_Arm_Y_For.mp4', 'robot_stimuli\\L_Arm_Y_Back.mp4', 'robot_stimuli\\R_Base_Y_For.mp4']",robot_stimuli\L_Arm_Y_Back.mp4,23,,,,,,,,,,,,,0,14,14,14,,,,,,,,,,,,,,,,,,764.2180080004036,,,781.0010689999908,781.0010689999908,781.0010689999908,3,1.3642855994403362,782.3871055999771,782.3871055999771,782.3871055999771,782.3871055999771,782.3871055999771,782.3871055999771,782.3871055999771,782.3871055999771,None,None,None,,,,766.3055138001218,,,,,,,,764.2180080004036,764.2180080004036,None,,777.3605162007734,764.2180080004036,764.2180080004036,,,23,001,2024-09-27_13h30.09.964,robot_cogshifting_sign,2022.2.5,59.87378604591075,
"['R_Base_X_Back', 'L_Base_X_For', 'R_Arm_X_Back', 'R_Base_Y_Back']","{'laterality': 'L_Base_X_For', 'localisation': 'R_Arm_X_Back', 'movement': 'R_Base_Y_Back'}",localisation,"['localisation', 'movement']",R_Arm_X_Back,2,2,robot,1,False,False,"['robot_stimuli\\R_Base_X_Back.mp4', 'robot_stimuli\\L_Base_X_For.mp4', 'robot_stimuli\\R_Arm_X_Back.mp4', 'robot_stimuli\\R_Base_Y_Back.mp4']",robot_stimuli\R_Arm_X_Back.mp4,23,,,,,,,,,,,,,0,15,15,15,,,,,,,,,,,,,,,,,,782.3871055999771,,,799.2536295000464,799.2536295000464,799.2536295000464,3,8.367258199490607,807.6535118008032,807.6535118008032,807.6535118008032,807.6535118008032,807.6535118008032,807.6535118008032,807.6535118008032,807.6535118008032,None,None,None,,,,784.4747150000185,,,,,,,,782.3871055999771,782.3871055999771,None,,795.6132109006867,782.3871055999771,782.3871055999771,,,23,001,2024-09-27_13h30.09.964,robot_cogshifting_sign,2022.2.5,59.87378604591075,
"['L_Torso_X_Back', 'R_Torso_X_Back', 'L_Base_X_For', 'L_Torso_Y_Back']","{'laterality': 'R_Torso_X_Back', 'localisation': 'L_Base_X_For', 'movement': 'L_Torso_Y_Back'}",laterality,"['laterality', 'movement']",R_Torso_X_Back,1,2,robot,1,False,False,"['robot_stimuli\\L_Torso_X_Back.mp4', 'robot_stimuli\\R_Torso_X_Back.mp4', 'robot_stimuli\\L_Base_X_For.mp4', 'robot_stimuli\\L_Torso_Y_Back.mp4']",robot_stimuli\R_Torso_X_Back.mp4,23,,,,,,,,,,,,,0,16,16,16,,,,,,,,,,,,,,,,,,807.6535118008032,,,824.3697231002152,824.3697231002152,824.3697231002152,2,1.1228791996836662,825.5220138002187,825.5220138002187,825.5220138002187,825.5220138002187,825.5220138002187,825.5220138002187,825.5220138002187,825.5220138002187,None,None,None,,,,809.741008900106,,,,,,,,807.6535118008032,807.6535118008032,None,,820.8629100006074,807.6535118008032,807.6535118008032,,,23,001,2024-09-27_13h30.09.964,robot_cogshifting_sign,2022.2.5,59.87378604591075,
"['R_Head_X_Back', 'L_Head_Z_For', 'L_Base_X_For', 'L_Head_X_Back']","{'laterality': 'R_Head_X_Back', 'localisation': 'L_Base_X_For', 'movement': 'L_Head_Z_For'}",movement,"['laterality', 'movement']",L_Head_Z_For,1,2,robot,1,False,True,"['robot_stimuli\\R_Head_X_Back.mp4', 'robot_stimuli\\L_Head_Z_For.mp4', 'robot_stimuli\\L_Base_X_For.mp4', 'robot_stimuli\\L_Head_X_Back.mp4']",robot_stimuli\L_Head_Z_For.mp4,23,,,,,,,,,,,,,0,17,17,17,,,,,,,,,,,,,,,,,,825.5220138002187,,,842.3384477002546,842.3384477002546,842.3384477002546,2,8.170260800048709,850.5713327005506,854.2786368001252,850.5713327005506,854.2786368001252,850.5713327005506,854.2786368001252,850.5713327005506,854.2786368001252,71.03174603174604,2.414476700127125,space,,,,827.6094822008163,3.6335242995992303,,,,,,,825.5220138002187,825.5220138002187,None,,838.6979784006253,825.5220138002187,825.5220138002187,,,23,001,2024-09-27_13h30.09.964,robot_cogshifting_sign,2022.2.5,59.87378604591075,
"['R_Head_Y_For', 'L_Head_Y_Back', 'R_Head_Z_Back', 'R_Arm_Y_Back']","{'laterality': 'L_Head_Y_Back', 'localisation': 'R_Arm_Y_Back', 'movement': 'R_Head_Z_Back'}",laterality,"['laterality', 'localisation', 'movement']",L_Head_Y_Back,1,3,robot,1,True,False,"['robot_stimuli\\R_Head_Y_For.mp4', 'robot_stimuli\\L_Head_Y_Back.mp4', 'robot_stimuli\\R_Head_Z_Back.mp4', 'robot_stimuli\\R_Arm_Y_Back.mp4']",robot_stimuli\L_Head_Y_Back.mp4,23,,,,,,,,,,,,,0,18,18,18,,,,,,,,,,,,,,,,,,858.5370938004926,,,875.4369535008445,875.4369535008445,875.4369535008445,2,2.0718121994286776,877.5410898001865,877.5410898001865,877.5410898001865,877.5410898001865,877.5410898001865,877.5410898001865,877.5410898001865,877.5410898001865,None,None,None,,,,,,,,,,,,854.2786368001252,854.2786368001252,space,4.229625198990107,871.7964601004496,,,,,23,001,2024-09-27_13h30.09.964,robot_cogshifting_sign,2022.2.5,59.87378604591075,
"['R_Head_Z_For', 'R_Arm_X_Back', 'R_Head_X_Back', 'L_Head_X_Back']","{'laterality': 'L_Head_X_Back', 'localisation': 'R_Arm_X_Back', 'movement': 'R_Head_Z_For'}",localisation,"['laterality', 'localisation', 'movement']",R_Arm_X_Back,1,3,robot,1,False,False,"['robot_stimuli\\R_Head_Z_For.mp4', 'robot_stimuli\\R_Arm_X_Back.mp4', 'robot_stimuli\\R_Head_X_Back.mp4', 'robot_stimuli\\L_Head_X_Back.mp4']",robot_stimuli\R_Arm_X_Back.mp4,23,,,,,,,,,,,,,0,19,19,19,,,,,,,,,,,,,,,,,,877.5410898001865,,,894.4246204001829,894.4246204001829,894.4246204001829,2,4.109406899660826,898.5657871002331,898.5657871002331,898.5657871002331,898.5657871002331,898.5657871002331,898.5657871002331,898.5657871002331,898.5657871002331,None,None,None,,,,879.6285884007812,,,,,,,,877.5410898001865,877.5410898001865,None,,890.7840522006154,877.5410898001865,877.5410898001865,,,23,001,2024-09-27_13h30.09.964,robot_cogshifting_sign,2022.2.5,59.87378604591075,
"['R_Head_X_Back', 'L_Base_X_For', 'L_Head_X_Back', 'L_Head_Z_For']","{'laterality': 'R_Head_X_Back', 'localisation': 'L_Base_X_For', 'movement': 'L_Head_Z_For'}",localisation,"['laterality', 'localisation', 'movement']",L_Base_X_For,1,3,robot,1,False,False,"['robot_stimuli\\R_Head_X_Back.mp4', 'robot_stimuli\\L_Base_X_For.mp4', 'robot_stimuli\\L_Head_X_Back.mp4', 'robot_stimuli\\L_Head_Z_For.mp4']",robot_stimuli\L_Base_X_For.mp4,23,,,,,,,,,,,,,0,20,20,20,,,,,,,,,,,,,,,,,,898.5657871002331,,,915.3822199003771,915.3822199003771,915.3822199003771,4,1.6151430001482368,917.0187710002065,917.0187710002065,917.0187710002065,917.0187710002065,917.0187710002065,917.0187710002065,917.0187710002065,917.0187710002065,None,None,None,,,,900.6532588005066,,,,,,,,898.5657871002331,898.5657871002331,None,,911.7417416004464,898.5657871002331,898.5657871002331,,,23,001,2024-09-27_13h30.09.964,robot_cogshifting_sign,2022.2.5,59.87378604591075,
"['L_Torso_Z_For', 'R_Head_Z_Back', 'L_Head_X_For', 'L_Head_Z_For']","{'laterality': 'R_Head_Z_Back', 'localisation': 'L_Torso_Z_For', 'movement': 'L_Head_X_For'}",localisation,"['laterality', 'localisation', 'movement']",L_Torso_Z_For,0,3,robot,1,False,False,"['robot_stimuli\\L_Torso_Z_For.mp4', 'robot_stimuli\\R_Head_Z_Back.mp4', 'robot_stimuli\\L_Head_X_For.mp4', 'robot_stimuli\\L_Head_Z_For.mp4']",robot_stimuli\L_Torso_Z_For.mp4,23,,,,,,,,,,,,,0,21,21,21,,,,,,,,,,,,,,,,,,917.0187710002065,,,933.8352379007265,933.8352379007265,933.8352379007265,2,8.433503499254584,942.2851652000099,942.2851652000099,942.2851652000099,942.2851652000099,942.2851652000099,942.2851652000099,942.2851652000099,942.2851652000099,None,None,None,,,,919.1062990007922,,,,,,,,917.0187710002065,917.0187710002065,None,,930.1947548007593,917.0187710002065,917.0187710002065,,,23,001,2024-09-27_13h30.09.964,robot_cogshifting_sign,2022.2.5,59.87378604591075,
"['R_Head_Z_Back', 'L_Head_Y_Back', 'L_Torso_Z_For', 'L_Head_Z_For']","{'laterality': 'R_Head_Z_Back', 'localisation': 'L_Torso_Z_For', 'movement': 'L_Head_Y_Back'}",movement,"['laterality', 'localisation', 'movement']",L_Head_Y_Back,1,3,robot,1,False,False,"['robot_stimuli\\R_Head_Z_Back.mp4', 'robot_stimuli\\L_Head_Y_Back.mp4', 'robot_stimuli\\L_Torso_Z_For.mp4', 'robot_stimuli\\L_Head_Z_For.mp4']",robot_stimuli\L_Head_Y_Back.mp4,23,,,,,,,,,,,,,0,22,22,22,,,,,,,,,,,,,,,,,,942.2851652000099,,,959.1850896002725,959.1850896002725,959.1850896002725,2,4.403308198787272,963.6105039007962,963.6105039007962,963.6105039007962,963.6105039007962,963.6105039007962,963.6105039007962,963.6105039007962,963.6105039007962,None,None,None,,,,944.3726047007367,,,,,,,,942.2851652000099,942.2851652000099,None,,955.5279228007421,942.2851652000099,942.2851652000099,,,23,001,2024-09-27_13h30.09.964,robot_cogshifting_sign,2022.2.5,59.87378604591075,
"['L_Base_Z_Back', 'R_Base_X_For', 'L_Arm_X_Back', 'L_Base_X_Back']","{'laterality': 'R_Base_X_For', 'localisation': 'L_Arm_X_Back', 'movement': 'L_Base_Z_Back'}",movement,"['laterality', 'localisation', 'movement']",L_Base_Z_Back,0,3,robot,1,False,False,"['robot_stimuli\\L_Base_Z_Back.mp4', 'robot_stimuli\\R_Base_X_For.mp4', 'robot_stimuli\\L_Arm_X_Back.mp4', 'robot_stimuli\\L_Base_X_Back.mp4']",robot_stimuli\L_Base_Z_Back.mp4,23,,,,,,,,,,,,,0,23,23,23,,,,,,,,,,,,,,,,,,963.6105039007962,,,980.360119400546,980.360119400546,980.360119400546,2,8.596395699307323,988.9770863000304,988.9770863000304,988.9770863000304,988.9770863000304,988.9770863000304,988.9770863000304,988.9770863000304,988.9770863000304,None,None,None,,,,965.6979728005826,,,,,,,,963.6105039007962,963.6105039007962,None,,976.7530489005148,963.6105039007962,963.6105039007962,,,23,001,2024-09-27_13h30.09.964,robot_cogshifting_sign,2022.2.5,59.87378604591075,
"['L_Arm_Z_Back', 'L_Head_Z_For', 'R_Head_Z_Back', 'L_Head_Y_For']","{'laterality': 'R_Head_Z_Back', 'localisation': 'L_Arm_Z_Back', 'movement': 'L_Head_Y_For'}",laterality,"['laterality', 'localisation', 'movement']",R_Head_Z_Back,2,3,robot,1,False,False,"['robot_stimuli\\L_Arm_Z_Back.mp4', 'robot_stimuli\\L_Head_Z_For.mp4', 'robot_stimuli\\R_Head_Z_Back.mp4', 'robot_stimuli\\L_Head_Y_For.mp4']",robot_stimuli\R_Head_Z_Back.mp4,23,,,,,,,,,,,,,0,24,24,24,,,,,,,,,,,,,,,,,,988.9770863000304,,,1005.8436307003722,1005.8436307003722,1005.8436307003722,3,4.336750498972833,1010.2022082004696,1010.2022082004696,1010.2022082004696,1010.2022082004696,1010.2022082004696,1010.2022082004696,1010.2022082004696,1010.2022082004696,None,None,None,,,,991.0645147999749,,,,,,,,988.9770863000304,988.9770863000304,None,,1002.2197863003239,988.9770863000304,988.9770863000304,,,23,001,2024-09-27_13h30.09.964,robot_cogshifting_sign,2022.2.5,59.87378604591075,
"['R_Base_Y_Back', 'R_Base_Z_For', 'L_Base_Y_Back', 'R_Head_Y_For']","{'laterality': 'L_Base_Y_Back', 'localisation': 'R_Head_Y_For', 'movement': 'R_Base_Z_For'}",laterality,"['laterality', 'localisation', 'movement']",L_Base_Y_Back,2,3,robot,1,False,False,"['robot_stimuli\\R_Base_Y_Back.mp4', 'robot_stimuli\\R_Base_Z_For.mp4', 'robot_stimuli\\L_Base_Y_Back.mp4', 'robot_stimuli\\R_Head_Y_For.mp4']",robot_stimuli\L_Base_Y_Back.mp4,23,,,,,,,,,,,,,0,25,25,25,,,,,,,,,,,,,,,,,,1010.2022082004696,,,1027.0186366001144,1027.0186366001144,1027.0186366001144,3,1.5063330000266433,1028.555030000396,1028.555030000396,1028.555030000396,1028.555030000396,1028.555030000396,1028.555030000396,1028.555030000396,1028.555030000396,None,None,None,,,,1012.2896409006789,,,,,,,,1010.2022082004696,1010.2022082004696,None,,1023.3948622001335,1010.2022082004696,1010.2022082004696,,,23,001,2024-09-27_13h30.09.964,robot_cogshifting_sign,2022.2.5,59.87378604591075,
"['L_Base_Z_Back', 'R_Base_Z_Back', 'R_Base_X_For', 'R_Head_Z_For']","{'laterality': 'L_Base_Z_Back', 'localisation': 'R_Head_Z_For', 'movement': 'R_Base_X_For'}",movement,"['laterality', 'localisation', 'movement']",R_Base_X_For,2,3,robot,1,False,True,"['robot_stimuli\\L_Base_Z_Back.mp4', 'robot_stimuli\\R_Base_Z_Back.mp4', 'robot_stimuli\\R_Base_X_For.mp4', 'robot_stimuli\\R_Head_Z_For.mp4']",robot_stimuli\R_Base_X_For.mp4,23,,,,,,,,,,,,,0,26,26,26,,,,,,,,,,,,,,,,,,1028.555030000396,,,1045.2377983005717,1045.2377983005717,1045.2377983005717,3,5.255669100210071,1050.5482918005437,1056.0257538007572,1050.5482918005437,1056.0257538007572,1050.5482918005437,1056.0257538007572,1050.5482918005437,1056.0257538007572,96.42857142857142,3.9842212004587054,space,,,,1030.6424829000607,5.4166866997256875,,,,,,,1028.555030000396,1028.555030000396,None,,1041.5973431002349,1028.555030000396,1028.555030000396,,,23,001,2024-09-27_13h30.09.964,robot_cogshifting_sign,2022.2.5,59.87378604591075,
"['blue_bottom_G_0', 'blue_top_W_45', 'blue_bottom_Z_45', 'red_bottom_P_45']","{'color': 'red_bottom_P_45', 'position': 'blue_top_W_45', 'orientation': 'blue_bottom_G_0'}",orientation,['orientation'],blue_bottom_G_0,0,1,letter,2,True,False,"['robot_stimuli\\\\filler.mp4', 'robot_stimuli\\\\filler.mp4', 'robot_stimuli\\\\filler.mp4', 'robot_stimuli\\\\filler.mp4']",robot_stimuli\\filler.mp4,23,,,,,,,,,,,,,0,27,27,27,,,,,,,,,,,,,,,,,,1058.2133832005784,,,1068.583758899942,1068.583758899942,1068.583758899942,1,0.4762332998216152,1069.0847959006205,1069.0847959006205,1069.0847959006205,1069.0847959006205,1069.0847959006205,1069.0847959006205,1069.0847959006205,1069.0847959006205,None,None,None,,,,,,,,,,,,1056.0257538007572,1056.0257538007572,space,2.163090999238193,,,,1066.546541900374,1068.583758899942,23,001,2024-09-27_13h30.09.964,robot_cogshifting_sign,2022.2.5,59.87378604591075,
"['red_top_W_0', 'blue_bottom_V_0', 'red_bottom_W_45', 'red_bottom_T_0']","{'color': 'blue_bottom_V_0', 'position': 'red_top_W_0', 'orientation': 'red_bottom_W_45'}",orientation,['orientation'],red_bottom_W_45,2,1,letter,2,False,False,"['robot_stimuli\\\\filler.mp4', 'robot_stimuli\\\\filler.mp4', 'robot_stimuli\\\\filler.mp4', 'robot_stimuli\\\\filler.mp4']",robot_stimuli\\filler.mp4,23,,,,,,,,,,,,,0,28,28,28,,,,,,,,,,,,,,,,,,1069.0847959006205,,,1080.0229752007872,1080.0229752007872,1080.0229752007872,3,0.4134366000071168,1080.4571496006101,1080.4571496006101,1080.4571496006101,1080.4571496006101,1080.4571496006101,1080.4571496006101,1080.4571496006101,1080.4571496006101,None,None,None,,,,1071.155540600419,,,,,,,,1069.0847959006205,1069.0847959006205,None,,,1069.0847959006205,1069.0847959006205,1077.8186201006174,1080.0229752007872,23,001,2024-09-27_13h30.09.964,robot_cogshifting_sign,2022.2.5,59.87378604591075,
"['blue_bottom_B_45', 'red_bottom_G_0', 'red_right_N_45', 'red_bottom_Z_45']","{'color': 'blue_bottom_B_45', 'position': 'red_right_N_45', 'orientation': 'red_bottom_G_0'}",position,['position'],red_right_N_45,2,1,letter,2,False,False,"['robot_stimuli\\\\filler.mp4', 'robot_stimuli\\\\filler.mp4', 'robot_stimuli\\\\filler.mp4', 'robot_stimuli\\\\filler.mp4']",robot_stimuli\\filler.mp4,23,,,,,,,,,,,,,0,29,29,29,,,,,,,,,,,,,,,,,,1080.4571496006101,,,1091.178279899992,1091.178279899992,1091.178279899992,3,0.5705149993300438,1091.7794671002775,1091.7794671002775,1091.7794671002775,1091.7794671002775,1091.7794671002775,1091.7794671002775,1091.7794671002775,1091.7794671002775,None,None,None,,,,1082.5279763005674,,,,,,,,1080.4571496006101,1080.4571496006101,None,,,1080.4571496006101,1080.4571496006101,1089.1577049000189,1091.178279899992,23,001,2024-09-27_13h30.09.964,robot_cogshifting_sign,2022.2.5,59.87378604591075,
"['blue_top_B_0', 'red_bottom_T_0', 'blue_bottom_Z_45', 'blue_bottom_C_0']","{'color': 'red_bottom_T_0', 'position': 'blue_top_B_0', 'orientation': 'blue_bottom_Z_45'}",color,['color'],red_bottom_T_0,1,1,letter,2,False,False,"['robot_stimuli\\\\filler.mp4', 'robot_stimuli\\\\filler.mp4', 'robot_stimuli\\\\filler.mp4', 'robot_stimuli\\\\filler.mp4']",robot_stimuli\\filler.mp4,23,,,,,,,,,,,,,0,30,30,30,,,,,,,,,,,,,,,,,,1091.7794671002775,,,1102.5172343002632,1102.5172343002632,1102.5172343002632,2,0.22356819920241833,1102.7677703006193,1102.7677703006193,1102.7677703006193,1102.7677703006193,1102.7677703006193,1102.7677703006193,1102.7677703006193,1102.7677703006193,None,None,None,,,,1093.8334890007973,,,,,,,,1091.7794671002775,1091.7794671002775,None,,,1091.7794671002775,1091.7794671002775,1100.4965912001207,1102.5172343002632,23,001,2024-09-27_13h30.09.964,robot_cogshifting_sign,2022.2.5,59.87378604591075,
"['blue_left_V_45', 'blue_left_D_0', 'blue_top_M_45', 'red_left_M_45']","{'color': 'red_left_M_45', 'position': 'blue_top_M_45', 'orientation': 'blue_left_D_0'}",orientation,['orientation'],blue_left_D_0,1,1,letter,2,False,False,"['robot_stimuli\\\\filler.mp4', 'robot_stimuli\\\\filler.mp4', 'robot_stimuli\\\\filler.mp4', 'robot_stimuli\\\\filler.mp4']",robot_stimuli\\filler.mp4,23,,,,,,,,,,,,,0,31,31,31,,,,,,,,,,,,,,,,,,1102.7677703006193,,,1113.3051178008318,1113.3051178008318,1113.3051178008318,2,0.2447520000860095,1113.5723402006552,1113.5723402006552,1113.5723402006552,1113.5723402006552,1113.5723402006552,1113.5723402006552,1113.5723402006552,1113.5723402006552,None,None,None,,,,1104.8219838999212,,,,,,,,1102.7677703006193,1102.7677703006193,None,,,1102.7677703006193,1102.7677703006193,1111.2678892007098,1113.3051178008318,23,001,2024-09-27_13h30.09.964,robot_cogshifting_sign,2022.2.5,59.87378604591075,
"['red_right_M_0', 'red_right_L_45', 'red_left_N_45', 'blue_right_L_45']","{'color': 'blue_right_L_45', 'position': 'red_left_N_45', 'orientation': 'red_right_M_0'}",position,['position'],red_left_N_45,2,1,letter,2,False,False,"['robot_stimuli\\\\filler.mp4', 'robot_stimuli\\\\filler.mp4', 'robot_stimuli\\\\filler.mp4', 'robot_stimuli\\\\filler.mp4']",robot_stimuli\\filler.mp4,23,,,,,,,,,,,,,0,32,32,32,,,,,,,,,,,,,,,,,,1113.5723402006552,,,1124.326836200431,1124.326836200431,1124.326836200431,3,0.2131014997139573,1124.5606396002695,1124.5606396002695,1124.5606396002695,1124.5606396002695,1124.5606396002695,1124.5606396002695,1124.5606396002695,1124.5606396002695,None,None,None,,,,1115.643130700104,,,,,,,,1113.5723402006552,1113.5723402006552,None,,,1113.5723402006552,1113.5723402006552,1122.1058813007548,1124.326836200431,23,001,2024-09-27_13h30.09.964,robot_cogshifting_sign,2022.2.5,59.87378604591075,
"['red_bottom_F_0', 'red_left_Z_45', 'red_bottom_Q_45', 'blue_bottom_C_45']","{'color': 'blue_bottom_C_45', 'position': 'red_left_Z_45', 'orientation': 'red_bottom_F_0'}",position,['position'],red_left_Z_45,1,1,letter,2,False,False,"['robot_stimuli\\\\filler.mp4', 'robot_stimuli\\\\filler.mp4', 'robot_stimuli\\\\filler.mp4', 'robot_stimuli\\\\filler.mp4']",robot_stimuli\\filler.mp4,23,,,,,,,,,,,,,0,33,33,33,,,,,,,,,,,,,,,,,,1124.5606396002695,,,1135.298436800018,1135.298436800018,1135.298436800018,2,0.30623119976371527,1135.6324385004118,1135.6324385004118,1135.6324385004118,1135.6324385004118,1135.6324385004118,1135.6324385004118,1135.6324385004118,1135.6324385004118,None,None,None,,,,1126.6314230002463,,,,,,,,1124.5606396002695,1124.5606396002695,None,,,1124.5606396002695,1124.5606396002695,1133.0774614000693,1135.298436800018,23,001,2024-09-27_13h30.09.964,robot_cogshifting_sign,2022.2.5,59.87378604591075,
"['blue_top_C_45', 'red_top_X_0', 'red_right_G_45', 'red_top_H_45']","{'color': 'blue_top_C_45', 'position': 'red_right_G_45', 'orientation': 'red_top_X_0'}",color,['color'],blue_top_C_45,0,1,letter,2,False,False,"['robot_stimuli\\\\filler.mp4', 'robot_stimuli\\\\filler.mp4', 'robot_stimuli\\\\filler.mp4', 'robot_stimuli\\\\filler.mp4']",robot_stimuli\\filler.mp4,23,,,,,,,,,,,,,0,34,34,34,,,,,,,,,,,,,,,,,,1135.6324385004118,,,1146.3702439004555,1146.3702439004555,1146.3702439004555,1,0.25154069904237986,1146.6541221002117,1146.6541221002117,1146.6541221002117,1146.6541221002117,1146.6541221002117,1146.6541221002117,1146.6541221002117,1146.6541221002117,None,None,None,,,,1137.7032815003768,,,,,,,,1135.6324385004118,1135.6324385004118,None,,,1135.6324385004118,1135.6324385004118,1144.3496835008264,1146.3702439004555,23,001,2024-09-27_13h30.09.964,robot_cogshifting_sign,2022.2.5,59.87378604591075,
"['blue_top_F_0', 'blue_left_J_0', 'blue_top_N_45', 'red_top_J_0']","{'color': 'red_top_J_0', 'position': 'blue_left_J_0', 'orientation': 'blue_top_N_45'}",color,['color'],red_top_J_0,3,1,letter,2,False,True,"['robot_stimuli\\\\filler.mp4', 'robot_stimuli\\\\filler.mp4', 'robot_stimuli\\\\filler.mp4', 'robot_stimuli\\\\filler.mp4']",robot_stimuli\\filler.mp4,23,,,,,,,,,,,,,0,35,35,35,,,,,,,,,,,,,,,,,,1146.6541221002117,,,1157.3919245004654,1157.3919245004654,1157.3919245004654,2,5.7243468994274735,1163.1699699005112,1166.676888900809,1163.1699699005112,1166.676888900809,1163.1699699005112,1166.676888900809,1163.1699699005112,1166.676888900809,23.253968253968253,2.6148542994633317,space,,,,1148.7248887000605,3.4259907994419336,,,,,,,1146.6541221002117,1146.6541221002117,None,,,1146.6541221002117,1146.6541221002117,1155.1876753000543,1157.3919245004654,23,001,2024-09-27_13h30.09.964,robot_cogshifting_sign,2022.2.5,59.87378604591075,
"['red_top_V_45', 'blue_top_H_0', 'blue_top_F_45', 'blue_left_X_45']","{'color': 'red_top_V_45', 'position': 'blue_left_X_45', 'orientation': 'blue_top_H_0'}",orientation,"['color', 'orientation', 'position']",blue_top_H_0,1,3,letter,2,True,False,"['robot_stimuli\\\\filler.mp4', 'robot_stimuli\\\\filler.mp4', 'robot_stimuli\\\\filler.mp4', 'robot_stimuli\\\\filler.mp4']",robot_stimuli\\filler.mp4,23,,,,,,,,,,,,,0,36,36,36,,,,,,,,,,,,,,,,,,1171.1189451003447,,,1182.0404300000519,1182.0404300000519,1182.0404300000519,2,2.819898199290037,1184.8793827006593,1184.8793827006593,1184.8793827006593,1184.8793827006593,1184.8793827006593,1184.8793827006593,1184.8793827006593,1184.8793827006593,None,None,None,,,,,,,,,,,,1166.676888900809,1166.676888900809,space,4.416057200171053,,,,1180.0199353005737,1182.0404300000519,23,001,2024-09-27_13h30.09.964,robot_cogshifting_sign,2022.2.5,59.87378604591075,
"['red_top_S_0', 'blue_right_N_0', 'red_right_N_0', 'red_right_N_45']","{'color': 'blue_right_N_0', 'position': 'red_top_S_0', 'orientation': 'red_right_N_45'}",position,"['color', 'orientation', 'position']",red_top_S_0,0,3,letter,2,False,False,"['robot_stimuli\\\\filler.mp4', 'robot_stimuli\\\\filler.mp4', 'robot_stimuli\\\\filler.mp4', 'robot_stimuli\\\\filler.mp4']",robot_stimuli\\filler.mp4,23,,,,,,,,,,,,,0,37,37,37,,,,,,,,,,,,,,,,,,1184.8793827006593,,,1195.4167498005554,1195.4167498005554,1195.4167498005554,1,3.61166019923985,1199.057281200774,1199.057281200774,1199.057281200774,1199.057281200774,1199.057281200774,1199.057281200774,1199.057281200774,1199.057281200774,None,None,None,,,,1186.9501306004822,,,,,,,,1184.8793827006593,1184.8793827006593,None,,,1184.8793827006593,1184.8793827006593,1193.396152600646,1195.4167498005554,23,001,2024-09-27_13h30.09.964,robot_cogshifting_sign,2022.2.5,59.87378604591075,
"['blue_bottom_Z_45', 'blue_bottom_K_0', 'red_bottom_S_0', 'blue_left_X_0']","{'color': 'red_bottom_S_0', 'position': 'blue_left_X_0', 'orientation': 'blue_bottom_Z_45'}",position,"['color', 'orientation', 'position']",blue_left_X_0,3,3,letter,2,False,False,"['robot_stimuli\\\\filler.mp4', 'robot_stimuli\\\\filler.mp4', 'robot_stimuli\\\\filler.mp4', 'robot_stimuli\\\\filler.mp4']",robot_stimuli\\filler.mp4,23,,,,,,,,,,,,,0,38,38,38,,,,,,,,,,,,,,,,,,1199.057281200774,,,1209.9787941006944,1209.9787941006944,1209.9787941006944,4,5.281876599416137,1215.2891952004284,1215.2891952004284,1215.2891952004284,1215.2891952004284,1215.2891952004284,1215.2891952004284,1215.2891952004284,1215.2891952004284,None,None,None,,,,1201.1280374005437,,,,,,,,1199.057281200774,1199.057281200774,None,,,1199.057281200774,1199.057281200774,1207.7744673006237,1209.9787941006944,23,001,2024-09-27_13h30.09.964,robot_cogshifting_sign,2022.2.5,59.87378604591075,
"['blue_left_D_0', 'red_right_B_0', 'blue_right_D_45', 'blue_right_D_0']","{'color': 'red_right_B_0', 'position': 'blue_left_D_0', 'orientation': 'blue_right_D_45'}",color,"['color', 'orientation', 'position']",red_right_B_0,1,3,letter,2,False,False,"['robot_stimuli\\\\filler.mp4', 'robot_stimuli\\\\filler.mp4', 'robot_stimuli\\\\filler.mp4', 'robot_stimuli\\\\filler.mp4']",robot_stimuli\\filler.mp4,23,,,,,,,,,,,,,0,39,39,39,,,,,,,,,,,,,,,,,,1215.2891952004284,,,1226.0604113005102,1226.0604113005102,1226.0604113005102,1,3.159435300156474,1229.2499589007348,1229.2499589007348,1229.2499589007348,1229.2499589007348,1229.2499589007348,1229.2499589007348,1229.2499589007348,1229.2499589007348,None,None,None,,,,1217.3600536007434,,,,,,,,1215.2891952004284,1215.2891952004284,None,,,1215.2891952004284,1215.2891952004284,1224.0398336006328,1226.0604113005102,23,001,2024-09-27_13h30.09.964,robot_cogshifting_sign,2022.2.5,59.87378604591075,
"['red_left_C_45', 'blue_top_T_45', 'blue_left_X_0', 'blue_left_J_45']","{'color': 'red_left_C_45', 'position': 'blue_top_T_45', 'orientation': 'blue_left_X_0'}",color,"['color', 'orientation', 'position']",red_left_C_45,0,3,letter,2,False,False,"['robot_stimuli\\\\filler.mp4', 'robot_stimuli\\\\filler.mp4', 'robot_stimuli\\\\filler.mp4', 'robot_stimuli\\\\filler.mp4']",robot_stimuli\\filler.mp4,23,,,,,,,,,,,,,0,40,40,40,,,,,,,,,,,,,,,,,,1229.2499589007348,,,1239.787453500554,1239.787453500554,1239.787453500554,2,8.21685139928013,1248.0370160005987,1248.0370160005987,1248.0370160005987,1248.0370160005987,1248.0370160005987,1248.0370160005987,1248.0370160005987,1248.0370160005987,None,None,None,,,,1231.3208552002907,,,,,,,,1229.2499589007348,1229.2499589007348,None,,,1229.2499589007348,1229.2499589007348,1237.7669523004442,1239.787453500554,23,001,2024-09-27_13h30.09.964,robot_cogshifting_sign,2022.2.5,59.87378604591075,
"['red_right_K_0', 'blue_right_X_0', 'red_bottom_W_0', 'red_right_Z_45']","{'color': 'blue_right_X_0', 'position': 'red_bottom_W_0', 'orientation': 'red_right_Z_45'}",orientation,"['color', 'orientation', 'position']",red_right_Z_45,3,3,letter,2,False,False,"['robot_stimuli\\\\filler.mp4', 'robot_stimuli\\\\filler.mp4', 'robot_stimuli\\\\filler.mp4', 'robot_stimuli\\\\filler.mp4']",robot_stimuli\\filler.mp4,23,,,,,,,,,,,,,0,41,41,41,,,,,,,,,,,,,,,,,,1248.0370160005987,,,1258.7580965002999,1258.7580965002999,1258.7580965002999,3,11.590517599135637,1270.3809869000688,1270.3809869000688,1270.3809869000688,1270.3809869000688,1270.3809869000688,1270.3809869000688,1270.3809869000688,1270.3809869000688,None,None,None,,,,1250.0911130001768,,,,,,,,1248.0370160005987,1248.0370160005987,None,,,1248.0370160005987,1248.0370160005987,1256.5538501003757,1258.7580965002999,23,001,2024-09-27_13h30.09.964,robot_cogshifting_sign,2022.2.5,59.87378604591075,
"['blue_left_X_45', 'blue_left_X_0', 'blue_top_N_45', 'red_left_F_45']","{'color': 'red_left_F_45', 'position': 'blue_top_N_45', 'orientation': 'blue_left_X_0'}",position,"['color', 'orientation', 'position']",blue_top_N_45,2,3,letter,2,False,False,"['robot_stimuli\\\\filler.mp4', 'robot_stimuli\\\\filler.mp4', 'robot_stimuli\\\\filler.mp4', 'robot_stimuli\\\\filler.mp4']",robot_stimuli\\filler.mp4,23,,,,,,,,,,,,,0,42,42,42,,,,,,,,,,,,,,,,,,1270.3809869000688,,,1281.1187964007258,1281.1187964007258,1281.1187964007258,3,2.797216199338436,1283.9410127000883,1283.9410127000883,1283.9410127000883,1283.9410127000883,1283.9410127000883,1283.9410127000883,1283.9410127000883,1283.9410127000883,None,None,None,,,,1272.4517522007227,,,,,,,,1270.3809869000688,1270.3809869000688,None,,,1270.3809869000688,1270.3809869000688,1278.897837200202,1281.1187964007258,23,001,2024-09-27_13h30.09.964,robot_cogshifting_sign,2022.2.5,59.87378604591075,
"['red_right_V_0', 'red_left_W_0', 'blue_right_T_0', 'red_right_T_45']","{'color': 'blue_right_T_0', 'position': 'red_left_W_0', 'orientation': 'red_right_T_45'}",orientation,"['color', 'orientation', 'position']",red_right_T_45,3,3,letter,2,False,False,"['robot_stimuli\\\\filler.mp4', 'robot_stimuli\\\\filler.mp4', 'robot_stimuli\\\\filler.mp4', 'robot_stimuli\\\\filler.mp4']",robot_stimuli\\filler.mp4,23,,,,,,,,,,,,,0,43,43,43,,,,,,,,,,,,,,,,,,1283.9410127000883,,,1294.4616538006812,1294.4616538006812,1294.4616538006812,4,4.591607199050486,1299.0707755004987,1299.0707755004987,1299.0707755004987,1299.0707755004987,1299.0707755004987,1299.0707755004987,1299.0707755004987,1299.0707755004987,None,None,None,,,,1286.0117914006114,,,,,,,,1283.9410127000883,1283.9410127000883,None,,,1283.9410127000883,1283.9410127000883,1292.441144800745,1294.4616538006812,23,001,2024-09-27_13h30.09.964,robot_cogshifting_sign,2022.2.5,59.87378604591075,
"['red_right_T_45', 'red_right_Q_0', 'blue_right_G_0', 'red_top_D_0']","{'color': 'blue_right_G_0', 'position': 'red_top_D_0', 'orientation': 'red_right_T_45'}",color,"['color', 'orientation', 'position']",blue_right_G_0,2,3,letter,2,False,True,"['robot_stimuli\\\\filler.mp4', 'robot_stimuli\\\\filler.mp4', 'robot_stimuli\\\\filler.mp4', 'robot_stimuli\\\\filler.mp4']",robot_stimuli\\filler.mp4,23,,,,,,,,,,,,,0,44,44,44,,,,,,,,,,,,,,,,,,1299.0707755004987,,,1309.6249317005277,1309.6249317005277,1309.6249317005277,3,3.7319112988188863,1313.4156709006056,1317.6406368007883,1313.4156709006056,1317.6406368007883,1313.4156709006056,1317.6406368007883,1313.4156709006056,1317.6406368007883,98.17460317460316,2.09722809959203,space,,,,1301.1264152005315,4.1568706994876266,,,,,,,1299.0707755004987,1299.0707755004987,None,,,1299.0707755004987,1299.0707755004987,1307.4039129000157,1309.6249317005277,23,001,2024-09-27_13h30.09.964,robot_cogshifting_sign,2022.2.5,59.87378604591075,
"['red_bottom_N_0', 'red_left_K_0', 'blue_bottom_H_0', 'red_bottom_B_45']","{'color': 'blue_bottom_H_0', 'position': 'red_left_K_0', 'orientation': 'red_bottom_B_45'}",color,"['color', 'position']",blue_bottom_H_0,2,2,letter,2,True,False,"['robot_stimuli\\\\filler.mp4', 'robot_stimuli\\\\filler.mp4', 'robot_stimuli\\\\filler.mp4', 'robot_stimuli\\\\filler.mp4']",robot_stimuli\\filler.mp4,23,,,,,,,,,,,,,0,45,45,45,,,,,,,,,,,,,,,,,,1321.9491642005742,,,1332.6702634999529,1332.6702634999529,1332.6702634999529,3,3.645532699301839,1336.3441201001406,1336.3441201001406,1336.3441201001406,1336.3441201001406,1336.3441201001406,1336.3441201001406,1336.3441201001406,1336.3441201001406,None,None,None,,,,,,,,,,,,1317.6406368007883,1317.6406368007883,space,4.276283899322152,,,,1330.6496212007478,1332.6702634999529,23,001,2024-09-27_13h30.09.964,robot_cogshifting_sign,2022.2.5,59.87378604591075,
"['blue_right_Q_0', 'blue_left_Q_0', 'blue_left_F_45', 'red_left_Q_0']","{'color': 'red_left_Q_0', 'position': 'blue_right_Q_0', 'orientation': 'blue_left_F_45'}",color,"['color', 'position']",red_left_Q_0,3,2,letter,2,False,False,"['robot_stimuli\\\\filler.mp4', 'robot_stimuli\\\\filler.mp4', 'robot_stimuli\\\\filler.mp4', 'robot_stimuli\\\\filler.mp4']",robot_stimuli\\filler.mp4,23,,,,,,,,,,,,,0,46,46,46,,,,,,,,,,,,,,,,,,1336.3441201001406,,,1347.2823048001155,1347.2823048001155,1347.2823048001155,4,3.394385799765587,1350.7224254002795,1350.7224254002795,1350.7224254002795,1350.7224254002795,1350.7224254002795,1350.7224254002795,1350.7224254002795,1350.7224254002795,None,None,None,,,,1338.4148654006422,,,,,,,,1336.3441201001406,1336.3441201001406,None,,,1336.3441201001406,1336.3441201001406,1345.0613376004621,1347.2823048001155,23,001,2024-09-27_13h30.09.964,robot_cogshifting_sign,2022.2.5,59.87378604591075,
"['blue_top_J_0', 'blue_bottom_M_45', 'red_bottom_F_0', 'blue_bottom_Q_0']","{'color': 'red_bottom_F_0', 'position': 'blue_top_J_0', 'orientation': 'blue_bottom_M_45'}",position,"['orientation', 'position']",blue_top_J_0,0,2,letter,2,False,False,"['robot_stimuli\\\\filler.mp4', 'robot_stimuli\\\\filler.mp4', 'robot_stimuli\\\\filler.mp4', 'robot_stimuli\\\\filler.mp4']",robot_stimuli\\filler.mp4,23,,,,,,,,,,,,,0,47,47,47,,,,,,,,,,,,,,,,,,1350.7224254002795,,,1361.4442090000957,1361.4442090000957,1361.4442090000957,1,1.1133885998278856,1362.5791527004912,1362.5791527004912,1362.5791527004912,1362.5791527004912,1362.5791527004912,1362.5791527004912,1362.5791527004912,1362.5791527004912,None,None,None,,,,,,,,,,,,1350.7224254002795,1350.7224254002795,None,,,1350.7224254002795,1350.7224254002795,1359.239257500507,1361.4442090000957,23,001,2024-09-27_13h30.09.964,robot_cogshifting_sign,2022.2.5,59.87378604591075,
"['blue_bottom_F_45', 'red_bottom_H_0', 'red_right_M_45', 'red_bottom_V_45']","{'color': 'blue_bottom_F_45', 'position': 'red_right_M_45', 'orientation': 'red_bottom_H_0'}",orientation,"['orientation', 'position']",red_bottom_H_0,1,2,letter,2,False,False,"['robot_stimuli\\\\filler.mp4', 'robot_stimuli\\\\filler.mp4', 'robot_stimuli\\\\filler.mp4', 'robot_stimuli\\\\filler.mp4']",robot_stimuli\\filler.mp4,23,,,,,,,,,,,,,0,48,48,48,,,,,,,,,,,,,,,,,,1362.5791527004912,,,1373.5172717999667,1373.5172717999667,1373.5172717999667,1,2.71904409956187,1376.2560342000797,1376.2560342000797,1376.2560342000797,1376.2560342000797,1376.2560342000797,1376.2560342000797,1376.2560342000797,1376.2560342000797,None,None,None,,,,1364.6500874003395,,,,,,,,1362.5791527004912,1362.5791527004912,None,,,1362.5791527004912,1362.5791527004912,1371.2962466999888,1373.5172717999667,23,001,2024-09-27_13h30.09.964,robot_cogshifting_sign,2022.2.5,59.87378604591075,
"['red_right_C_45', 'blue_right_Q_45', 'blue_right_H_0', 'blue_top_L_45']","{'color': 'red_right_C_45', 'position': 'blue_top_L_45', 'orientation': 'blue_right_H_0'}",orientation,"['color', 'orientation']",blue_right_H_0,2,2,letter,2,False,False,"['robot_stimuli\\\\filler.mp4', 'robot_stimuli\\\\filler.mp4', 'robot_stimuli\\\\filler.mp4', 'robot_stimuli\\\\filler.mp4']",robot_stimuli\\filler.mp4,23,,,,,,,,,,,,,0,49,49,49,,,,,,,,,,,,,,,,,,1376.2560342000797,,,1386.9938471000642,1386.9938471000642,1386.9938471000642,4,3.601874499581754,1390.6176478005946,1390.6176478005946,1390.6176478005946,1390.6176478005946,1390.6176478005946,1390.6176478005946,1390.6176478005946,1390.6176478005946,None,None,None,,,,1378.310146400705,,,,,,,,1376.2560342000797,1376.2560342000797,None,,,1376.2560342000797,1376.2560342000797,1384.772872700356,1386.9938471000642,23,001,2024-09-27_13h30.09.964,robot_cogshifting_sign,2022.2.5,59.87378604591075,
"['blue_right_W_0', 'blue_top_F_0', 'red_right_H_0', 'blue_right_X_45']","{'color': 'red_right_H_0', 'position': 'blue_top_F_0', 'orientation': 'blue_right_X_45'}",position,"['color', 'position']",blue_top_F_0,1,2,letter,2,False,False,"['robot_stimuli\\\\filler.mp4', 'robot_stimuli\\\\filler.mp4', 'robot_stimuli\\\\filler.mp4', 'robot_stimuli\\\\filler.mp4']",robot_stimuli\\filler.mp4,23,,,,,,,,,,,,,0,50,50,50,,,,,,,,,,,,,,,,,,1390.6176478005946,,,1400.954629400745,1400.954629400745,1400.954629400745,2,0.9700615992769599,1401.9565948005766,1401.9565948005766,1401.9565948005766,1401.9565948005766,1401.9565948005766,1401.9565948005766,1401.9565948005766,1401.9565948005766,None,None,None,,,,1392.671660700813,,,,,,,,1390.6176478005946,1390.6176478005946,None,,,1390.6176478005946,1390.6176478005946,1398.9340246999636,1400.954629400745,23,001,2024-09-27_13h30.09.964,robot_cogshifting_sign,2022.2.5,59.87378604591075,
"['red_right_L_0', 'red_right_Q_45', 'red_top_N_45', 'blue_right_G_45']","{'color': 'blue_right_G_45', 'position': 'red_top_N_45', 'orientation': 'red_right_L_0'}",color,"['color', 'position']",blue_right_G_45,3,2,letter,2,False,False,"['robot_stimuli\\\\filler.mp4', 'robot_stimuli\\\\filler.mp4', 'robot_stimuli\\\\filler.mp4', 'robot_stimuli\\\\filler.mp4']",robot_stimuli\\filler.mp4,23,,,,,,,,,,,,,0,51,51,51,,,,,,,,,,,,,,,,,,1401.9565948005766,,,1413.1286088004708,1413.1286088004708,1413.1286088004708,4,1.0671054990962148,1414.2140700006858,1414.2140700006858,1414.2140700006858,1414.2140700006858,1414.2140700006858,1414.2140700006858,1414.2140700006858,1414.2140700006858,None,None,None,,,,1404.0273737004027,,,,,,,,1401.9565948005766,1401.9565948005766,None,,,1401.9565948005766,1401.9565948005766,1410.907612000592,1413.1286088004708,23,001,2024-09-27_13h30.09.964,robot_cogshifting_sign,2022.2.5,59.87378604591075,
"['red_right_Q_0', 'blue_left_H_0', 'blue_right_L_45', 'blue_right_J_0']","{'color': 'red_right_Q_0', 'position': 'blue_left_H_0', 'orientation': 'blue_right_L_45'}",position,"['orientation', 'position']",blue_left_H_0,1,2,letter,2,False,False,"['robot_stimuli\\\\filler.mp4', 'robot_stimuli\\\\filler.mp4', 'robot_stimuli\\\\filler.mp4', 'robot_stimuli\\\\filler.mp4']",robot_stimuli\\filler.mp4,23,,,,,,,,,,,,,0,52,52,52,,,,,,,,,,,,,,,,,,1414.2140700006858,,,1424.5678191008046,1424.5678191008046,1424.5678191008046,2,3.9961922988295555,1428.5923481006175,1428.5923481006175,1428.5923481006175,1428.5923481006175,1428.5923481006175,1428.5923481006175,1428.5923481006175,1428.5923481006175,None,None,None,,,,1416.2849564999342,,,,,,,,1414.2140700006858,1414.2140700006858,None,,,1414.2140700006858,1414.2140700006858,1422.5471940003335,1424.5678191008046,23,001,2024-09-27_13h30.09.964,robot_cogshifting_sign,2022.2.5,59.87378604591075,
"['blue_top_X_45', 'red_top_K_0', 'red_top_Z_45', 'red_bottom_K_45']","{'color': 'blue_top_X_45', 'position': 'red_bottom_K_45', 'orientation': 'red_top_K_0'}",orientation,"['color', 'orientation']",red_top_K_0,1,2,letter,2,False,True,"['robot_stimuli\\\\filler.mp4', 'robot_stimuli\\\\filler.mp4', 'robot_stimuli\\\\filler.mp4', 'robot_stimuli\\\\filler.mp4']",robot_stimuli\\filler.mp4,23,,,,,,,,,,,,,0,53,53,53,,,,,,,,,,,,,,,,,,1428.5923481006175,,,1438.9293483002111,1438.9293483002111,1438.9293483002111,2,4.29833909869194,1443.2879467001185,1449.6003606999293,1443.2879467001185,1449.6003606999293,1443.2879467001185,1449.6003606999293,1443.2879467001185,1449.6003606999293,68.17460317460318,3.483030299656093,space,,,,1430.6464207004756,6.2528914995491505,,,,,,,1428.5923481006175,1428.5923481006175,None,,,1428.5923481006175,1428.5923481006175,1436.9088488006964,1438.9293483002111,23,001,2024-09-27_13h30.09.964,robot_cogshifting_sign,2022.2.5,59.87378604591075,
"['L_Head_Y_For', 'R_Arm_Y_Back', 'L_Arm_Y_Back', 'L_Arm_Z_For']","{'laterality': 'R_Arm_Y_Back', 'localisation': 'L_Head_Y_For', 'movement': 'L_Arm_Z_For'}",localisation,['localisation'],L_Head_Y_For,0,1,robot,3,True,False,"['robot_stimuli\\L_Head_Y_For.mp4', 'robot_stimuli\\R_Arm_Y_Back.mp4', 'robot_stimuli\\L_Arm_Y_Back.mp4', 'robot_stimuli\\L_Arm_Z_For.mp4']",robot_stimuli\L_Head_Y_For.mp4,23,,,,,,,,,,,,,0,54,54,54,,,,,,,,,,,,,,,,,,1451.2536407001317,,,1468.1368769006804,1468.1368769006804,1468.1368769006804,1,4.1068827994167805,1472.2616648999974,1472.2616648999974,1472.2616648999974,1472.2616648999974,1472.2616648999974,1472.2616648999974,1472.2616648999974,1472.2616648999974,None,None,None,,,,,,,,,,,,1449.6003606999293,1449.6003606999293,space,1.6359158996492624,1464.496372600086,,,,,23,001,2024-09-27_13h30.09.964,robot_cogshifting_sign,2022.2.5,59.87378604591075,
"['R_Arm_Z_For', 'L_Arm_Z_Back', 'R_Torso_Z_Back', 'R_Arm_X_Back']","{'laterality': 'L_Arm_Z_Back', 'localisation': 'R_Torso_Z_Back', 'movement': 'R_Arm_X_Back'}",laterality,['laterality'],L_Arm_Z_Back,1,1,robot,3,False,False,"['robot_stimuli\\R_Arm_Z_For.mp4', 'robot_stimuli\\L_Arm_Z_Back.mp4', 'robot_stimuli\\R_Torso_Z_Back.mp4', 'robot_stimuli\\R_Arm_X_Back.mp4']",robot_stimuli\L_Arm_Z_Back.mp4,23,,,,,,,,,,,,,0,55,55,55,,,,,,,,,,,,,,,,,,1472.2616648999974,,,1489.1782630002126,1489.1782630002126,1489.1782630002126,2,0.7534590996801853,1489.9631531005725,1489.9631531005725,1489.9631531005725,1489.9631531005725,1489.9631531005725,1489.9631531005725,1489.9631531005725,1489.9631531005725,None,None,None,,,,1474.3490658001974,,,,,,,,1472.2616648999974,1472.2616648999974,None,,1485.5377382999286,1472.2616648999974,1472.2616648999974,,,23,001,2024-09-27_13h30.09.964,robot_cogshifting_sign,2022.2.5,59.87378604591075,
"['R_Head_Y_For', 'L_Head_X_For', 'R_Base_X_Back', 'R_Head_X_For']","{'laterality': 'L_Head_X_For', 'localisation': 'R_Base_X_Back', 'movement': 'R_Head_Y_For'}",movement,['movement'],R_Head_Y_For,0,1,robot,3,False,False,"['robot_stimuli\\R_Head_Y_For.mp4', 'robot_stimuli\\L_Head_X_For.mp4', 'robot_stimuli\\R_Base_X_Back.mp4', 'robot_stimuli\\R_Head_X_For.mp4']",robot_stimuli\R_Head_Y_For.mp4,23,,,,,,,,,,,,,0,56,56,56,,,,,,,,,,,,,,,,,,1489.9631531005725,,,1506.779594000429,1506.779594000429,1506.779594000429,1,0.6887435996904969,1507.4976600008085,1507.4976600008085,1507.4976600008085,1507.4976600008085,1507.4976600008085,1507.4976600008085,1507.4976600008085,1507.4976600008085,None,None,None,,,,1492.0505952006206,,,,,,,,1489.9631531005725,1489.9631531005725,None,,1503.1391050005332,1489.9631531005725,1489.9631531005725,,,23,001,2024-09-27_13h30.09.964,robot_cogshifting_sign,2022.2.5,59.87378604591075,
"['L_Arm_Z_For', 'R_Arm_X_For', 'L_Torso_X_For', 'L_Arm_X_For']","{'laterality': 'R_Arm_X_For', 'localisation': 'L_Torso_X_For', 'movement': 'L_Arm_Z_For'}",localisation,['localisation'],L_Torso_X_For,2,1,robot,3,False,False,"['robot_stimuli\\L_Arm_Z_For.mp4', 'robot_stimuli\\R_Arm_X_For.mp4', 'robot_stimuli\\L_Torso_X_For.mp4', 'robot_stimuli\\L_Arm_X_For.mp4']",robot_stimuli\L_Torso_X_For.mp4,23,,,,,,,,,,,,,0,57,57,57,,,,,,,,,,,,,,,,,,1507.4976600008085,,,1524.414323400706,1524.414323400706,1524.414323400706,2,11.19795039948076,1535.6363489003852,1535.6363489003852,1535.6363489003852,1535.6363489003852,1535.6363489003852,1535.6363489003852,1535.6363489003852,1535.6363489003852,None,None,None,,,,1509.568605900742,,,,,,,,1507.4976600008085,1507.4976600008085,None,,1520.7570805000141,1507.4976600008085,1507.4976600008085,,,23,001,2024-09-27_13h30.09.964,robot_cogshifting_sign,2022.2.5,59.87378604591075,
"['L_Arm_Y_For', 'L_Base_Y_For', 'L_Arm_X_For', 'R_Arm_Y_Back']","{'laterality': 'R_Arm_Y_Back', 'localisation': 'L_Base_Y_For', 'movement': 'L_Arm_X_For'}",laterality,['laterality'],R_Arm_Y_Back,3,1,robot,3,False,False,"['robot_stimuli\\L_Arm_Y_For.mp4', 'robot_stimuli\\L_Base_Y_For.mp4', 'robot_stimuli\\L_Arm_X_For.mp4', 'robot_stimuli\\R_Arm_Y_Back.mp4']",robot_stimuli\R_Arm_Y_Back.mp4,23,,,,,,,,,,,,,0,58,58,58,,,,,,,,,,,,,,,,,,1535.6363489003852,,,1552.4360942002386,1552.4360942002386,1552.4360942002386,4,0.6955907996743917,1553.1541821006685,1553.1541821006685,1553.1541821006685,1553.1541821006685,1553.1541821006685,1553.1541821006685,1553.1541821006685,1553.1541821006685,None,None,None,,,,1537.7238113004714,,,,,,,,1535.6363489003852,1535.6363489003852,None,,1548.7956179007888,1535.6363489003852,1535.6363489003852,,,23,001,2024-09-27_13h30.09.964,robot_cogshifting_sign,2022.2.5,59.87378604591075,
"['L_Torso_Y_Back', 'L_Base_Y_Back', 'R_Base_Y_For', 'L_Base_X_For']","{'laterality': 'R_Base_Y_For', 'localisation': 'L_Torso_Y_Back', 'movement': 'L_Base_X_For'}",movement,['movement'],L_Base_X_For,3,1,robot,3,False,False,"['robot_stimuli\\L_Torso_Y_Back.mp4', 'robot_stimuli\\L_Base_Y_Back.mp4', 'robot_stimuli\\R_Base_Y_For.mp4', 'robot_stimuli\\L_Base_X_For.mp4']",robot_stimuli\L_Base_X_For.mp4,23,,,,,,,,,,,,,0,59,59,59,,,,,,,,,,,,,,,,,,1553.1541821006685,,,1569.7702096002176,1569.7702096002176,1569.7702096002176,4,1.025773499161005,1570.8390370002016,1570.8390370002016,1570.8390370002016,1570.8390370002016,1570.8390370002016,1570.8390370002016,1570.8390370002016,1570.8390370002016,None,None,None,,,,1555.2415965003893,,,,,,,,1553.1541821006685,1553.1541821006685,None,,1566.196536800824,1553.1541821006685,1553.1541821006685,,,23,001,2024-09-27_13h30.09.964,robot_cogshifting_sign,2022.2.5,59.87378604591075,
"['L_Arm_Y_For', 'R_Arm_Y_For', 'R_Arm_Z_For', 'R_Head_Y_For']","{'laterality': 'L_Arm_Y_For', 'localisation': 'R_Head_Y_For', 'movement': 'R_Arm_Z_For'}",localisation,['localisation'],R_Head_Y_For,3,1,robot,3,False,False,"['robot_stimuli\\L_Arm_Y_For.mp4', 'robot_stimuli\\R_Arm_Y_For.mp4', 'robot_stimuli\\R_Arm_Z_For.mp4', 'robot_stimuli\\R_Head_Y_For.mp4']",robot_stimuli\R_Head_Y_For.mp4,23,,,,,,,,,,,,,0,60,60,60,,,,,,,,,,,,,,,,,,1570.8390370002016,,,1587.5886145001277,1587.5886145001277,1587.5886145001277,4,0.5109373992308974,1588.1230080006644,1588.1230080006644,1588.1230080006644,1588.1230080006644,1588.1230080006644,1588.1230080006644,1588.1230080006644,1588.1230080006644,None,None,None,,,,1572.9264597008005,,,,,,,,1570.8390370002016,1570.8390370002016,None,,1583.948188200593,1570.8390370002016,1570.8390370002016,,,23,001,2024-09-27_13h30.09.964,robot_cogshifting_sign,2022.2.5,59.87378604591075,
"['L_Head_Y_Back', 'R_Head_Y_Back', 'R_Head_Z_For', 'R_Torso_Y_For']","{'laterality': 'L_Head_Y_Back', 'localisation': 'R_Torso_Y_For', 'movement': 'R_Head_Z_For'}",laterality,['laterality'],L_Head_Y_Back,0,1,robot,3,False,False,"['robot_stimuli\\L_Head_Y_Back.mp4', 'robot_stimuli\\R_Head_Y_Back.mp4', 'robot_stimuli\\R_Head_Z_For.mp4', 'robot_stimuli\\R_Torso_Y_For.mp4']",robot_stimuli\L_Head_Y_Back.mp4,23,,,,,,,,,,,,,0,61,61,61,,,,,,,,,,,,,,,,,,1588.1230080006644,,,1605.0062000006437,1605.0062000006437,1605.0062000006437,1,0.6222789995372295,1605.6575633008033,1605.6575633008033,1605.6575633008033,1605.6575633008033,1605.6575633008033,1605.6575633008033,1605.6575633008033,1605.6575633008033,None,None,None,,,,1590.2104416005313,,,,,,,,1588.1230080006644,1588.1230080006644,None,,1601.3657185006887,1588.1230080006644,1588.1230080006644,,,23,001,2024-09-27_13h30.09.964,robot_cogshifting_sign,2022.2.5,59.87378604591075,
"['L_Arm_Y_For', 'L_Head_Z_Back', 'L_Head_Y_Back', 'R_Head_Y_For']","{'laterality': 'R_Head_Y_For', 'localisation': 'L_Arm_Y_For', 'movement': 'L_Head_Z_Back'}",movement,['movement'],L_Head_Z_Back,1,1,robot,3,False,True,"['robot_stimuli\\L_Arm_Y_For.mp4', 'robot_stimuli\\L_Head_Z_Back.mp4', 'robot_stimuli\\L_Head_Y_Back.mp4', 'robot_stimuli\\R_Head_Y_For.mp4']",robot_stimuli\L_Head_Z_Back.mp4,23,,,,,,,,,,,,,0,62,62,62,,,,,,,,,,,,,,,,,,1605.6575633008033,,,1622.5407305005938,1622.5407305005938,1622.5407305005938,1,2.9679107991978526,1625.56334959995,1629.153781500645,1625.56334959995,1629.153781500645,1625.56334959995,1629.153781500645,1625.56334959995,1629.153781500645,29.28571428571428,2.7649230007082224,space,,,,1607.7450021002442,3.512844800017774,,,,,,,1605.6575633008033,1605.6575633008033,None,,1618.900269800797,1605.6575633008033,1605.6575633008033,,,23,001,2024-09-27_13h30.09.964,robot_cogshifting_sign,2022.2.5,59.87378604591075,
"['L_Base_Y_For', 'R_Base_Y_For', 'R_Base_Z_Back', 'R_Torso_Y_For']","{'laterality': 'L_Base_Y_For', 'localisation': 'R_Torso_Y_For', 'movement': 'R_Base_Z_Back'}",movement,"['laterality', 'movement']",R_Base_Z_Back,2,2,robot,3,True,False,"['robot_stimuli\\L_Base_Y_For.mp4', 'robot_stimuli\\R_Base_Y_For.mp4', 'robot_stimuli\\R_Base_Z_Back.mp4', 'robot_stimuli\\R_Torso_Y_For.mp4']",robot_stimuli\R_Base_Z_Back.mp4,23,,,,,,,,,,,,,0,63,63,63,,,,,,,,,,,,,,,,,,1640.292369500734,,,1656.9751718007028,1656.9751718007028,1656.9751718007028,3,2.116898899897933,1659.1127200005576,1659.1127200005576,1659.1127200005576,1659.1127200005576,1659.1127200005576,1659.1127200005576,1659.1127200005576,1659.1127200005576,None,None,None,,,,,,,,,,,,1629.153781500645,1629.153781500645,space,11.106541499495506,1653.3513854006305,,,,,23,001,2024-09-27_13h30.09.964,robot_cogshifting_sign,2022.2.5,59.87378604591075,
"['L_Arm_X_Back', 'L_Head_X_For', 'R_Head_X_For', 'L_Head_Y_For']","{'laterality': 'R_Head_X_For', 'localisation': 'L_Arm_X_Back', 'movement': 'L_Head_Y_For'}",laterality,"['laterality', 'movement']",R_Head_X_For,2,2,robot,3,False,False,"['robot_stimuli\\L_Arm_X_Back.mp4', 'robot_stimuli\\L_Head_X_For.mp4', 'robot_stimuli\\R_Head_X_For.mp4', 'robot_stimuli\\L_Head_Y_For.mp4']",robot_stimuli\R_Head_X_For.mp4,23,,,,,,,,,,,,,0,64,64,64,,,,,,,,,,,,,,,,,,1659.1127200005576,,,1675.9625681005418,1675.9625681005418,1675.9625681005418,3,0.7213176991790533,1676.7140106000006,1676.7140106000006,1676.7140106000006,1676.7140106000006,1676.7140106000006,1676.7140106000006,1676.7140106000006,1676.7140106000006,None,None,None,,,,1661.200155700557,,,,,,,,1659.1127200005576,1659.1127200005576,None,,1672.3220889000222,1659.1127200005576,1659.1127200005576,,,23,001,2024-09-27_13h30.09.964,robot_cogshifting_sign,2022.2.5,59.87378604591075,
"['R_Head_Z_For', 'L_Base_Z_Back', 'L_Head_Z_For', 'L_Head_X_For']","{'laterality': 'R_Head_Z_For', 'localisation': 'L_Base_Z_Back', 'movement': 'L_Head_X_For'}",localisation,"['localisation', 'movement']",L_Base_Z_Back,1,2,robot,3,False,False,"['robot_stimuli\\R_Head_Z_For.mp4', 'robot_stimuli\\L_Base_Z_Back.mp4', 'robot_stimuli\\L_Head_Z_For.mp4', 'robot_stimuli\\L_Head_X_For.mp4']",robot_stimuli\L_Base_Z_Back.mp4,23,,,,,,,,,,,,,0,65,65,65,,,,,,,,,,,,,,,,,,1676.7140106000006,,,1693.5638596005738,1693.5638596005738,1693.5638596005738,2,1.4246392995119095,1695.0167332002893,1695.0167332002893,1695.0167332002893,1695.0167332002893,1695.0167332002893,1695.0167332002893,1695.0167332002893,1695.0167332002893,None,None,None,,,,1678.8015138003975,,,,,,,,1676.7140106000006,1676.7140106000006,None,,1689.9735759999603,1676.7140106000006,1676.7140106000006,,,23,001,2024-09-27_13h30.09.964,robot_cogshifting_sign,2022.2.5,59.87378604591075,
"['L_Torso_Y_Back', 'L_Base_Y_For', 'L_Base_Z_Back', 'R_Base_Y_Back']","{'laterality': 'R_Base_Y_Back', 'localisation': 'L_Torso_Y_Back', 'movement': 'L_Base_Z_Back'}",movement,"['laterality', 'movement']",L_Base_Z_Back,2,2,robot,3,False,False,"['robot_stimuli\\L_Torso_Y_Back.mp4', 'robot_stimuli\\L_Base_Y_For.mp4', 'robot_stimuli\\L_Base_Z_Back.mp4', 'robot_stimuli\\R_Base_Y_Back.mp4']",robot_stimuli\L_Base_Z_Back.mp4,23,,,,,,,,,,,,,0,66,66,66,,,,,,,,,,,,,,,,,,1695.0167332002893,,,1711.716244100593,1711.716244100593,1711.716244100593,3,1.2650309996679425,1713.0021400004625,1713.0021400004625,1713.0021400004625,1713.0021400004625,1713.0021400004625,1713.0021400004625,1713.0021400004625,1713.0021400004625,None,None,None,,,,1697.104166100733,,,,,,,,1695.0167332002893,1695.0167332002893,None,,1708.0590951004997,1695.0167332002893,1695.0167332002893,,,23,001,2024-09-27_13h30.09.964,robot_cogshifting_sign,2022.2.5,59.87378604591075,
"['R_Torso_Z_Back', 'L_Head_Z_Back', 'R_Head_Z_Back', 'R_Head_Y_For']","{'laterality': 'L_Head_Z_Back', 'localisation': 'R_Torso_Z_Back', 'movement': 'R_Head_Y_For'}",laterality,"['laterality', 'movement']",L_Head_Z_Back,1,2,robot,3,False,False,"['robot_stimuli\\R_Torso_Z_Back.mp4', 'robot_stimuli\\L_Head_Z_Back.mp4', 'robot_stimuli\\R_Head_Z_Back.mp4', 'robot_stimuli\\R_Head_Y_For.mp4']",robot_stimuli\L_Head_Z_Back.mp4,23,,,,,,,,,,,,,0,67,67,67,,,,,,,,,,,,,,,,,,1713.0021400004625,,,1729.8855530004948,1729.8855530004948,1729.8855530004948,2,0.6622657999396324,1730.570053000003,1730.570053000003,1730.570053000003,1730.570053000003,1730.570053000003,1730.570053000003,1730.570053000003,1730.570053000003,None,None,None,,,,1715.0896092001349,,,,,,,,1713.0021400004625,1713.0021400004625,None,,1726.2448527999222,1713.0021400004625,1713.0021400004625,,,23,001,2024-09-27_13h30.09.964,robot_cogshifting_sign,2022.2.5,59.87378604591075,
"['R_Arm_X_Back', 'L_Base_X_For', 'R_Base_X_For', 'R_Base_Z_For']","{'laterality': 'L_Base_X_For', 'localisation': 'R_Arm_X_Back', 'movement': 'R_Base_Z_For'}",laterality,"['laterality', 'movement']",L_Base_X_For,1,2,robot,3,False,False,"['robot_stimuli\\R_Arm_X_Back.mp4', 'robot_stimuli\\L_Base_X_For.mp4', 'robot_stimuli\\R_Base_X_For.mp4', 'robot_stimuli\\R_Base_Z_For.mp4']",robot_stimuli\L_Base_X_For.mp4,23,,,,,,,,,,,,,0,68,68,68,,,,,,,,,,,,,,,,,,1730.570053000003,,,1747.3029415002093,1747.3029415002093,1747.3029415002093,2,1.0685091000050306,1748.3884094003588,1748.3884094003588,1748.3884094003588,1748.3884094003588,1748.3884094003588,1748.3884094003588,1748.3884094003588,1748.3884094003588,None,None,None,,,,1732.6575188999996,,,,,,,,1730.570053000003,1730.570053000003,None,,1743.6624744003639,1730.570053000003,1730.570053000003,,,23,001,2024-09-27_13h30.09.964,robot_cogshifting_sign,2022.2.5,59.87378604591075,
"['L_Torso_Y_Back', 'L_Torso_X_Back', 'L_Head_Y_For', 'R_Torso_Y_Back']","{'laterality': 'R_Torso_Y_Back', 'localisation': 'L_Head_Y_For', 'movement': 'L_Torso_X_Back'}",localisation,"['laterality', 'localisation']",L_Head_Y_For,2,2,robot,3,False,False,"['robot_stimuli\\L_Torso_Y_Back.mp4', 'robot_stimuli\\L_Torso_X_Back.mp4', 'robot_stimuli\\L_Head_Y_For.mp4', 'robot_stimuli\\R_Torso_Y_Back.mp4']",robot_stimuli\L_Head_Y_For.mp4,23,,,,,,,,,,,,,0,69,69,69,,,,,,,,,,,,,,,,,,1748.3884094003588,,,1765.1547453003004,1765.1547453003004,1765.1547453003004,3,1.0173367001116276,1766.1901700003073,1766.1901700003073,1766.1901700003073,1766.1901700003073,1766.1901700003073,1766.1901700003073,1766.1901700003073,1766.1901700003073,None,None,None,,,,1750.4758569002151,,,,,,,,1748.3884094003588,1748.3884094003588,None,,1761.497581800446,1748.3884094003588,1748.3884094003588,,,23,001,2024-09-27_13h30.09.964,robot_cogshifting_sign,2022.2.5,59.87378604591075,
"['R_Head_Z_For', 'L_Torso_Z_For', 'L_Head_Y_For', 'L_Head_Z_Back']","{'laterality': 'R_Head_Z_For', 'localisation': 'L_Torso_Z_For', 'movement': 'L_Head_Y_For'}",movement,"['laterality', 'movement']",L_Head_Y_For,2,2,robot,3,False,False,"['robot_stimuli\\R_Head_Z_For.mp4', 'robot_stimuli\\L_Torso_Z_For.mp4', 'robot_stimuli\\L_Head_Y_For.mp4', 'robot_stimuli\\L_Head_Z_Back.mp4']",robot_stimuli\L_Head_Y_For.mp4,23,,,,,,,,,,,,,0,70,70,70,,,,,,,,,,,,,,,,,,1766.1901700003073,,,1783.090084400028,1783.090084400028,1783.090084400028,2,10.761352299712598,1793.8780029006302,1793.8780029006302,1793.8780029006302,1793.8780029006302,1793.8780029006302,1793.8780029006302,1793.8780029006302,1793.8780029006302,None,None,None,,,,1768.277583600022,,,,,,,,1766.1901700003073,1766.1901700003073,None,,1779.4328584000468,1766.1901700003073,1766.1901700003073,,,23,001,2024-09-27_13h30.09.964,robot_cogshifting_sign,2022.2.5,59.87378604591075,
"['R_Head_Y_For', 'R_Base_Y_Back', 'L_Head_Y_Back', 'R_Head_Z_Back']","{'laterality': 'L_Head_Y_Back', 'localisation': 'R_Base_Y_Back', 'movement': 'R_Head_Z_Back'}",localisation,"['laterality', 'localisation']",R_Base_Y_Back,1,2,robot,3,False,True,"['robot_stimuli\\R_Head_Y_For.mp4', 'robot_stimuli\\R_Base_Y_Back.mp4', 'robot_stimuli\\L_Head_Y_Back.mp4', 'robot_stimuli\\R_Head_Z_Back.mp4']",robot_stimuli\R_Base_Y_Back.mp4,23,,,,,,,,,,,,,0,71,71,71,,,,,,,,,,,,,,,,,,1793.8780029006302,,,1810.7612498002127,1810.7612498002127,1810.7612498002127,2,6.330509599298239,1817.1571353999898,1820.07954910025,1817.1571353999898,1820.07954910025,1817.1571353999898,1820.07954910025,1817.1571353999898,1820.07954910025,61.82539682539683,2.2979206992313266,space,,,,1795.965454400517,2.8551618000492454,,,,,,,1793.8780029006302,1793.8780029006302,None,,1807.1374125005677,1793.8780029006302,1793.8780029006302,,,23,001,2024-09-27_13h30.09.964,robot_cogshifting_sign,2022.2.5,59.87378604591075,
"['R_Base_Y_Back', 'L_Base_Y_Back', 'L_Base_Z_Back', 'L_Arm_Y_For']","{'laterality': 'R_Base_Y_Back', 'localisation': 'L_Arm_Y_For', 'movement': 'L_Base_Z_Back'}",movement,"['laterality', 'localisation', 'movement']",L_Base_Z_Back,2,3,robot,3,True,False,"['robot_stimuli\\R_Base_Y_Back.mp4', 'robot_stimuli\\L_Base_Y_Back.mp4', 'robot_stimuli\\L_Base_Z_Back.mp4', 'robot_stimuli\\L_Arm_Y_For.mp4']",robot_stimuli\L_Base_Z_Back.mp4,23,,,,,,,,,,,,,0,72,72,72,,,,,,,,,,,,,,,,,,1822.9853199003264,,,1839.81841680035,1839.81841680035,1839.81841680035,4,12.801488899625838,1852.6436486002058,1852.6436486002058,1852.6436486002058,1852.6436486002058,1852.6436486002058,1852.6436486002058,1852.6436486002058,1852.6436486002058,None,None,None,,,,,,,,,,,,1820.07954910025,1820.07954910025,space,2.876742599532008,1836.1612459002063,,,,,23,001,2024-09-27_13h30.09.964,robot_cogshifting_sign,2022.2.5,59.87378604591075,
"['R_Head_X_For', 'R_Base_Z_For', 'L_Base_X_For', 'R_Base_X_Back']","{'laterality': 'L_Base_X_For', 'localisation': 'R_Head_X_For', 'movement': 'R_Base_Z_For'}",movement,"['laterality', 'localisation', 'movement']",R_Base_Z_For,1,3,robot,3,False,False,"['robot_stimuli\\R_Head_X_For.mp4', 'robot_stimuli\\R_Base_Z_For.mp4', 'robot_stimuli\\L_Base_X_For.mp4', 'robot_stimuli\\R_Base_X_Back.mp4']",robot_stimuli\R_Base_Z_For.mp4,23,,,,,,,,,,,,,0,73,73,73,,,,,,,,,,,,,,,,,,1852.6436486002058,,,1869.4767649006099,1869.4767649006099,1869.4767649006099,1,2.7271627988666296,1872.2322136005387,1872.2322136005387,1872.2322136005387,1872.2322136005387,1872.2322136005387,1872.2322136005387,1872.2322136005387,1872.2322136005387,None,None,None,,,,1854.7311114007607,,,,,,,,1852.6436486002058,1852.6436486002058,None,,1865.8196118008345,1852.6436486002058,1852.6436486002058,,,23,001,2024-09-27_13h30.09.964,robot_cogshifting_sign,2022.2.5,59.87378604591075,
"['L_Head_Y_For', 'L_Arm_Y_Back', 'R_Head_Y_For', 'L_Head_X_Back']","{'laterality': 'R_Head_Y_For', 'localisation': 'L_Arm_Y_Back', 'movement': 'L_Head_X_Back'}",movement,"['laterality', 'localisation', 'movement']",L_Head_X_Back,3,3,robot,3,False,False,"['robot_stimuli\\L_Head_Y_For.mp4', 'robot_stimuli\\L_Arm_Y_Back.mp4', 'robot_stimuli\\R_Head_Y_For.mp4', 'robot_stimuli\\L_Head_X_Back.mp4']",robot_stimuli\L_Head_X_Back.mp4,23,,,,,,,,,,,,,0,74,74,74,,,,,,,,,,,,,,,,,,1872.2322136005387,,,1889.1154673006386,1889.1154673006386,1889.1154673006386,2,1.9048971990123391,1891.052592500113,1891.052592500113,1891.052592500113,1891.052592500113,1891.052592500113,1891.052592500113,1891.052592500113,1891.052592500113,None,None,None,,,,1874.319624800235,,,,,,,,1872.2322136005387,1872.2322136005387,None,,1885.4749113004655,1872.2322136005387,1872.2322136005387,,,23,001,2024-09-27_13h30.09.964,robot_cogshifting_sign,2022.2.5,59.87378604591075,
"['R_Head_Z_For', 'L_Head_X_Back', 'R_Head_X_For', 'R_Base_X_For']","{'laterality': 'L_Head_X_Back', 'localisation': 'R_Base_X_For', 'movement': 'R_Head_Z_For'}",laterality,"['laterality', 'localisation', 'movement']",L_Head_X_Back,1,3,robot,3,False,False,"['robot_stimuli\\R_Head_Z_For.mp4', 'robot_stimuli\\L_Head_X_Back.mp4', 'robot_stimuli\\R_Head_X_For.mp4', 'robot_stimuli\\R_Base_X_For.mp4']",robot_stimuli\L_Head_X_Back.mp4,23,,,,,,,,,,,,,0,75,75,75,,,,,,,,,,,,,,,,,,1891.052592500113,,,1907.8523388002068,1907.8523388002068,1907.8523388002068,2,0.6233031991869211,1908.5035598007962,1908.5035598007962,1908.5035598007962,1908.5035598007962,1908.5035598007962,1908.5035598007962,1908.5035598007962,1908.5035598007962,None,None,None,,,,1893.1400791006163,,,,,,,,1891.052592500113,1891.052592500113,None,,1904.2953081000596,1891.052592500113,1891.052592500113,,,23,001,2024-09-27_13h30.09.964,robot_cogshifting_sign,2022.2.5,59.87378604591075,
"['R_Arm_X_Back', 'L_Arm_Y_For', 'L_Head_X_For', 'L_Arm_X_Back']","{'laterality': 'R_Arm_X_Back', 'localisation': 'L_Head_X_For', 'movement': 'L_Arm_Y_For'}",localisation,"['laterality', 'localisation', 'movement']",L_Head_X_For,2,3,robot,3,False,False,"['robot_stimuli\\R_Arm_X_Back.mp4', 'robot_stimuli\\L_Arm_Y_For.mp4', 'robot_stimuli\\L_Head_X_For.mp4', 'robot_stimuli\\L_Arm_X_Back.mp4']",robot_stimuli\L_Head_X_For.mp4,23,,,,,,,,,,,,,0,76,76,76,,,,,,,,,,,,,,,,,,1908.5035598007962,,,1925.3200340000913,1925.3200340000913,1925.3200340000913,3,1.0118915997445583,1926.3553488999605,1926.3553488999605,1926.3553488999605,1926.3553488999605,1926.3553488999605,1926.3553488999605,1926.3553488999605,1926.3553488999605,None,None,None,,,,1910.591139900498,,,,,,,,1908.5035598007962,1908.5035598007962,None,,1921.6962550999597,1908.5035598007962,1908.5035598007962,,,23,001,2024-09-27_13h30.09.964,robot_cogshifting_sign,2022.2.5,59.87378604591075,
"['L_Head_Y_Back', 'L_Arm_Y_For', 'R_Arm_Y_For', 'L_Arm_Z_Back']","{'laterality': 'R_Arm_Y_For', 'localisation': 'L_Head_Y_Back', 'movement': 'L_Arm_Z_Back'}",laterality,"['laterality', 'localisation', 'movement']",R_Arm_Y_For,2,3,robot,3,False,False,"['robot_stimuli\\L_Head_Y_Back.mp4', 'robot_stimuli\\L_Arm_Y_For.mp4', 'robot_stimuli\\R_Arm_Y_For.mp4', 'robot_stimuli\\L_Arm_Z_Back.mp4']",robot_stimuli\R_Arm_Y_For.mp4,23,,,,,,,,,,,,,0,77,77,77,,,,,,,,,,,,,,,,,,1926.3553488999605,,,1943.1217494001612,1943.1217494001612,1943.1217494001612,2,5.026003699749708,1948.1649753004313,1948.1649753004313,1948.1649753004313,1948.1649753004313,1948.1649753004313,1948.1649753004313,1948.1649753004313,1948.1649753004313,None,None,None,,,,1928.4428138006479,,,,,,,,1926.3553488999605,1926.3553488999605,None,,1939.4812414003536,1926.3553488999605,1926.3553488999605,,,23,001,2024-09-27_13h30.09.964,robot_cogshifting_sign,2022.2.5,59.87378604591075,
"['L_Base_Y_Back', 'L_Head_Y_Back', 'L_Head_Z_Back', 'R_Head_Y_For']","{'laterality': 'R_Head_Y_For', 'localisation': 'L_Base_Y_Back', 'movement': 'L_Head_Z_Back'}",laterality,"['laterality', 'localisation', 'movement']",R_Head_Y_For,3,3,robot,3,False,False,"['robot_stimuli\\L_Base_Y_Back.mp4', 'robot_stimuli\\L_Head_Y_Back.mp4', 'robot_stimuli\\L_Head_Z_Back.mp4', 'robot_stimuli\\R_Head_Y_For.mp4']",robot_stimuli\R_Head_Y_For.mp4,23,,,,,,,,,,,,,0,78,78,78,,,,,,,,,,,,,,,,,,1948.1649753004313,,,1964.981484300457,1964.981484300457,1964.981484300457,4,7.903390199877322,1972.91369090043,1972.91369090043,1972.91369090043,1972.91369090043,1972.91369090043,1972.91369090043,1972.91369090043,1972.91369090043,None,None,None,,,,1950.2691713003442,,,,,,,,1948.1649753004313,1948.1649753004313,None,,1961.3576311999932,1948.1649753004313,1948.1649753004313,,,23,001,2024-09-27_13h30.09.964,robot_cogshifting_sign,2022.2.5,59.87378604591075,
"['L_Arm_Y_Back', 'R_Torso_Y_Back', 'L_Torso_X_For', 'L_Torso_Y_Back']","{'laterality': 'R_Torso_Y_Back', 'localisation': 'L_Arm_Y_Back', 'movement': 'L_Torso_X_For'}",localisation,"['laterality', 'localisation', 'movement']",L_Arm_Y_Back,0,3,robot,3,False,False,"['robot_stimuli\\L_Arm_Y_Back.mp4', 'robot_stimuli\\R_Torso_Y_Back.mp4', 'robot_stimuli\\L_Torso_X_For.mp4', 'robot_stimuli\\L_Torso_Y_Back.mp4']",robot_stimuli\L_Arm_Y_Back.mp4,23,,,,,,,,,,,,,0,79,79,79,,,,,,,,,,,,,,,,,,1972.91369090043,,,1989.6967552006245,1989.6967552006245,1989.6967552006245,1,4.955721499398351,1994.673197099939,1994.673197099939,1994.673197099939,1994.673197099939,1994.673197099939,1994.673197099939,1994.673197099939,1994.673197099939,None,None,None,,,,1975.0011496003717,,,,,,,,1972.91369090043,1972.91369090043,None,,1986.1898485999554,1972.91369090043,1972.91369090043,,,23,001,2024-09-27_13h30.09.964,robot_cogshifting_sign,2022.2.5,59.87378604591075,
"['L_Arm_X_Back', 'R_Head_X_For', 'L_Head_Z_Back', 'L_Head_X_Back']","{'laterality': 'R_Head_X_For', 'localisation': 'L_Arm_X_Back', 'movement': 'L_Head_Z_Back'}",localisation,"['laterality', 'localisation', 'movement']",L_Arm_X_Back,0,3,robot,3,False,True,"['robot_stimuli\\L_Arm_X_Back.mp4', 'robot_stimuli\\R_Head_X_For.mp4', 'robot_stimuli\\L_Head_Z_Back.mp4', 'robot_stimuli\\L_Head_X_Back.mp4']",robot_stimuli\L_Arm_X_Back.mp4,23,,,,,,,,,,,,,0,80,80,80,,,,,,,,,,,,,,,,,,1994.673197099939,,,2011.5731180999428,2011.5731180999428,2011.5731180999428,1,4.558221899904311,2016.1822367003188,2020.1233136001974,2016.1822367003188,2020.1233136001974,2016.1822367003188,2020.1233136001974,2016.1822367003188,2020.1233136001974,89.92063492063492,3.0156047996133566,space,,,,1996.7606955999509,3.8696683989837766,,,,,,,1994.673197099939,1994.673197099939,None,,2007.9159772004932,1994.673197099939,1994.673197099939,,,23,001,2024-09-27_13h30.09.964,robot_cogshifting_sign,2022.2.5,59.87378604591075,
"['red_bottom_H_0', 'red_right_T_45', 'red_bottom_M_45', 'blue_bottom_V_45']","{'color': 'blue_bottom_V_45', 'position': 'red_right_T_45', 'orientation': 'red_bottom_H_0'}",position,['position'],red_right_T_45,1,1,letter,4,True,False,"['robot_stimuli\\\\filler.mp4', 'robot_stimuli\\\\filler.mp4', 'robot_stimuli\\\\filler.mp4', 'robot_stimuli\\\\filler.mp4']",robot_stimuli\\filler.mp4,23,,,,,,,,,,,,,0,81,81,81,,,,,,,,,,,,,,,,,,2025.33355530072,,,2036.2884602006525,2036.2884602006525,2036.2884602006525,2,0.9236323991790414,2037.2403367003426,2037.2403367003426,2037.2403367003426,2037.2403367003426,2037.2403367003426,2037.2403367003426,2037.2403367003426,2037.2403367003426,None,None,None,,,,,,,,,,,,2020.1233136001974,2020.1233136001974,space,5.192457899451256,,,,2034.2512600999326,2036.2884602006525,23,001,2024-09-27_13h30.09.964,robot_cogshifting_sign,2022.2.5,59.87378604591075,
"['red_top_T_0', 'blue_top_Z_45', 'blue_bottom_H_0', 'blue_top_L_0']","{'color': 'red_top_T_0', 'position': 'blue_bottom_H_0', 'orientation': 'blue_top_Z_45'}",color,['color'],red_top_T_0,0,1,letter,4,False,False,"['robot_stimuli\\\\filler.mp4', 'robot_stimuli\\\\filler.mp4', 'robot_stimuli\\\\filler.mp4', 'robot_stimuli\\\\filler.mp4']",robot_stimuli\\filler.mp4,23,,,,,,,,,,,,,0,82,82,82,,,,,,,,,,,,,,,,,,2037.2403367003426,,,2048.1785192005336,2048.1785192005336,2048.1785192005336,1,0.21681059896945953,2048.412354200147,2048.412354200147,2048.412354200147,2048.412354200147,2048.412354200147,2048.412354200147,2048.412354200147,2048.412354200147,None,None,None,,,,2039.3111506002024,,,,,,,,2037.2403367003426,2037.2403367003426,None,,,2037.2403367003426,2037.2403367003426,2045.9575466001406,2048.1785192005336,23,001,2024-09-27_13h30.09.964,robot_cogshifting_sign,2022.2.5,59.87378604591075,
"['blue_bottom_Z_45', 'blue_left_Q_45', 'blue_left_X_0', 'red_left_V_45']","{'color': 'red_left_V_45', 'position': 'blue_bottom_Z_45', 'orientation': 'blue_left_X_0'}",orientation,['orientation'],blue_left_X_0,2,1,letter,4,False,False,"['robot_stimuli\\\\filler.mp4', 'robot_stimuli\\\\filler.mp4', 'robot_stimuli\\\\filler.mp4', 'robot_stimuli\\\\filler.mp4']",robot_stimuli\\filler.mp4,23,,,,,,,,,,,,,0,83,83,83,,,,,,,,,,,,,,,,,,2048.412354200147,,,2059.5676047001034,2059.5676047001034,2059.5676047001034,3,0.4523131996393204,2060.0518681006506,2060.0518681006506,2060.0518681006506,2060.0518681006506,2060.0518681006506,2060.0518681006506,2060.0518681006506,2060.0518681006506,None,None,None,,,,2050.483067200519,,,,,,,,2048.412354200147,2048.412354200147,None,,,2048.412354200147,2048.412354200147,2057.3467044001445,2059.5676047001034,23,001,2024-09-27_13h30.09.964,robot_cogshifting_sign,2022.2.5,59.87378604591075,
"['red_right_N_45', 'blue_bottom_T_45', 'red_bottom_F_45', 'red_bottom_R_0']","{'color': 'blue_bottom_T_45', 'position': 'red_right_N_45', 'orientation': 'red_bottom_R_0'}",orientation,['orientation'],red_bottom_R_0,3,1,letter,4,False,False,"['robot_stimuli\\\\filler.mp4', 'robot_stimuli\\\\filler.mp4', 'robot_stimuli\\\\filler.mp4', 'robot_stimuli\\\\filler.mp4']",robot_stimuli\\filler.mp4,23,,,,,,,,,,,,,0,84,84,84,,,,,,,,,,,,,,,,,,2060.0518681006506,,,2070.772955700755,2070.772955700755,2070.772955700755,4,0.6148859998211265,2071.4075725004077,2071.4075725004077,2071.4075725004077,2071.4075725004077,2071.4075725004077,2071.4075725004077,2071.4075725004077,2071.4075725004077,None,None,None,,,,2062.12271130085,,,,,,,,2060.0518681006506,2060.0518681006506,None,,,2060.0518681006506,2060.0518681006506,2068.5687127001584,2070.772955700755,23,001,2024-09-27_13h30.09.964,robot_cogshifting_sign,2022.2.5,59.87378604591075,
"['red_right_J_45', 'blue_left_J_45', 'blue_right_Z_45', 'blue_right_Z_0']","{'color': 'red_right_J_45', 'position': 'blue_left_J_45', 'orientation': 'blue_right_Z_0'}",orientation,['orientation'],blue_right_Z_0,3,1,letter,4,False,False,"['robot_stimuli\\\\filler.mp4', 'robot_stimuli\\\\filler.mp4', 'robot_stimuli\\\\filler.mp4', 'robot_stimuli\\\\filler.mp4']",robot_stimuli\\filler.mp4,23,,,,,,,,,,,,,0,85,85,85,,,,,,,,,,,,,,,,,,2071.4075725004077,,,2082.128676299937,2082.128676299937,2082.128676299937,4,0.21916449908167124,2082.379168299958,2082.379168299958,2082.379168299958,2082.379168299958,2082.379168299958,2082.379168299958,2082.379168299958,2082.379168299958,None,None,None,,,,2073.478422000073,,,,,,,,2071.4075725004077,2071.4075725004077,None,,,2071.4075725004077,2071.4075725004077,2079.9243869008496,2082.128676299937,23,001,2024-09-27_13h30.09.964,robot_cogshifting_sign,2022.2.5,59.87378604591075,
