sequence,is_target,condition,stimuli,block,is_block_beginning,is_block_ending,fname,subject,retraining.thisRepN,retraining.thisTrialN,retraining.thisN,retraining.thisIndex,training.thisRepN,training.thisTrialN,training.thisN,training.thisIndex,trials.thisRepN,trials.thisTrialN,trials.thisN,trials.thisIndex,langage_text.started,langage_key.started,langage_key.keys,langage_key.rt,intro_text.started,intro_key.started,intro_key.keys,intro_key.rt,training_robot_intro_text.started,training_robot_intro_key.started,training_robot_intro_key.keys,training_robot_intro_key.rt,cross.started,cross.stopped,training_letter.started,training_robot_key.started,training_robot_question.started,training_robot_keys.started,training_letter.stopped,training_robot_key.keys,RSME_labels.started,RSME_labels.stopped,RSME_ticks.started,RSME_ticks.stopped,RSME_text.started,RSME_text.stopped,RSME_key.started,RSME_key.stopped,RSME_ticks.response,RSME_ticks.rt,RSME_key.keys,training_robot_intro_text.stopped,training_robot_intro_key.stopped,training_robot_key.rt,RSME_key.rt,training_robot_movie.started,experiment_beginning_text.started,experiment_beginning_keys.started,experiment_beginning_key.started,experiment_beginning_key.keys,experiment_beginning_key.rt,block_intro_text.started,block_intro_key.started,block_intro_key.keys,block_intro_key.rt,movie.started,key.started,key.keys,block_intro_text.stopped,block_intro_key.stopped,key.rt,letter.started,letter.stopped,participant,session,date,expName,psychopyVersion,frameRate,
,,,,,,,,,,,,,,,,,,,,,19.788649899999655,19.788649899999655,f,3.767623399999138,,,,,,,,,,,,,,,,,,,,,,,,,,,,,,,,,,,,,,,,,,,,,,,,,,21,001,2024-07-04_17h09.32.436,robot_nback_sign,2022.2.5,59.988650147172564,
,,,,,,,,,,,,,,,,,,,,,,,,,23.62057190000087,23.62057190000087,space,61.951904799998374,,,,,,,,,,,,,,,,,,,,,,,,,,,,,,,,,,,,,,,,,,,,,,21,001,2024-07-04_17h09.32.436,robot_nback_sign,2022.2.5,59.988650147172564,
C,False,1,letter,2,True,False,robot_stimuli\\filler.mp4,21,0,0,0,0,0,0,0,0,,,,,,,,,,,,,85.6141260000004,85.6141260000004,space,7.165891999999076,92.79785790000096,94.1619967000006,94.1619967000006,94.1619967000006,94.1619967000006,94.1619967000006,96.46843129999979,None,96.46843129999979,96.46843129999979,96.46843129999979,96.46843129999979,96.46843129999979,96.46843129999979,96.46843129999979,96.46843129999979,None,None,None,,,,,,,,,,,,,,,,,,,,,,,21,001,2024-07-04_17h09.32.436,robot_nback_sign,2022.2.5,59.988650147172564,
Q,False,1,letter,2,False,False,robot_stimuli\\filler.mp4,21,0,0,0,0,0,1,1,1,,,,,,,,,,,,,96.46843129999979,96.46843129999979,None,,96.46843129999979,,97.55162740000014,97.55162740000014,97.55162740000014,97.55162740000014,99.58335240000088,None,99.58335240000088,99.58335240000088,99.58335240000088,99.58335240000088,99.58335240000088,99.58335240000088,99.58335240000088,99.58335240000088,None,None,None,96.46843129999979,96.46843129999979,,,,,,,,,,,,,,,,,,,,,21,001,2024-07-04_17h09.32.436,robot_nback_sign,2022.2.5,59.988650147172564,
H,False,1,letter,2,False,False,robot_stimuli\\filler.mp4,21,0,0,0,0,0,2,2,2,,,,,,,,,,,,,99.58335240000088,99.58335240000088,None,,99.58335240000088,,100.66832609999983,100.66832609999983,100.66832609999983,100.66832609999983,102.8991059,n,102.8991059,102.8991059,102.8991059,102.8991059,102.8991059,102.8991059,102.8991059,102.8991059,None,None,None,99.58335240000088,99.58335240000088,1.5986175999987609,,,,,,,,,,,,,,,,,,,,21,001,2024-07-04_17h09.32.436,robot_nback_sign,2022.2.5,59.988650147172564,
W,False,1,letter,2,False,False,robot_stimuli\\filler.mp4,21,0,0,0,0,0,3,3,3,,,,,,,,,,,,,102.8991059,102.8991059,None,,102.8991059,,103.98533580000003,103.98533580000003,103.98533580000003,103.98533580000003,106.02607140000146,n,106.02607140000146,106.02607140000146,106.02607140000146,106.02607140000146,106.02607140000146,106.02607140000146,106.02607140000146,106.02607140000146,None,None,None,102.8991059,102.8991059,1.1232359999994515,,,,,,,,,,,,,,,,,,,,21,001,2024-07-04_17h09.32.436,robot_nback_sign,2022.2.5,59.988650147172564,
W,True,1,letter,2,False,False,robot_stimuli\\filler.mp4,21,0,0,0,0,0,4,4,4,,,,,,,,,,,,,106.02607140000146,106.02607140000146,None,,106.02607140000146,107.09906779999983,107.09906779999983,107.09906779999983,107.09906779999983,107.09906779999983,109.13124930000049,None,109.13124930000049,109.13124930000049,109.13124930000049,109.13124930000049,109.13124930000049,109.13124930000049,109.13124930000049,109.13124930000049,None,None,None,106.02607140000146,106.02607140000146,,,,,,,,,,,,,,,,,,,,,21,001,2024-07-04_17h09.32.436,robot_nback_sign,2022.2.5,59.988650147172564,
W,True,1,letter,2,False,True,robot_stimuli\\filler.mp4,21,0,0,0,0,0,5,5,5,,,,,,,,,,,,,109.13124930000049,109.13124930000049,None,,109.13124930000049,110.19406549999985,110.19406549999985,110.19406549999985,110.19406549999985,110.19406549999985,112.28466300000036,c,112.28466300000036,126.78749000000062,112.28466300000036,126.78749000000062,112.28466300000036,126.78749000000062,112.28466300000036,126.78749000000062,2.067901234567901,10.81428269999924,space,109.13124930000049,109.13124930000049,1.1459528999985196,14.45456489999924,,,,,,,,,,,,,,,,,,,21,001,2024-07-04_17h09.32.436,robot_nback_sign,2022.2.5,59.988650147172564,
T,False,2,letter,2,True,False,robot_stimuli\\filler.mp4,21,0,0,0,0,0,6,6,6,,,,,,,,,,,,,126.78749000000062,126.78749000000062,space,3.28067419999752,130.09769130000132,131.17445580000094,131.17445580000094,131.17445580000094,131.17445580000094,131.17445580000094,133.39614260000053,None,133.39614260000053,133.39614260000053,133.39614260000053,133.39614260000053,133.39614260000053,133.39614260000053,133.39614260000053,133.39614260000053,None,None,None,,,,,,,,,,,,,,,,,,,,,,,21,001,2024-07-04_17h09.32.436,robot_nback_sign,2022.2.5,59.988650147172564,
L,False,2,letter,2,False,False,robot_stimuli\\filler.mp4,21,0,0,0,0,0,7,7,7,,,,,,,,,,,,,133.39614260000053,133.39614260000053,None,,133.39614260000053,134.4655152000014,134.4655152000014,134.4655152000014,134.4655152000014,134.4655152000014,136.4962572000004,n,136.4962572000004,136.4962572000004,136.4962572000004,136.4962572000004,136.4962572000004,136.4962572000004,136.4962572000004,136.4962572000004,None,None,None,133.39614260000053,133.39614260000053,1.7938204999991285,,,,,,,,,,,,,,,,,,,,21,001,2024-07-04_17h09.32.436,robot_nback_sign,2022.2.5,59.988650147172564,
T,True,2,letter,2,False,False,robot_stimuli\\filler.mp4,21,0,0,0,0,0,8,8,8,,,,,,,,,,,,,136.4962572000004,136.4962572000004,None,,136.4962572000004,137.56305780000002,137.56305780000002,137.56305780000002,137.56305780000002,137.56305780000002,139.59840799999984,c,139.59840799999984,139.59840799999984,139.59840799999984,139.59840799999984,139.59840799999984,139.59840799999984,139.59840799999984,139.59840799999984,None,None,None,136.4962572000004,136.4962572000004,1.1999984999984008,,,,,,,,,,,,,,,,,,,,21,001,2024-07-04_17h09.32.436,robot_nback_sign,2022.2.5,59.988650147172564,
P,False,2,letter,2,False,False,robot_stimuli\\filler.mp4,21,0,0,0,0,0,9,9,9,,,,,,,,,,,,,139.59840799999984,139.59840799999984,None,,139.59840799999984,140.66787690000092,140.66787690000092,140.66787690000092,140.66787690000092,140.66787690000092,142.8975102000004,n,142.8975102000004,142.8975102000004,142.8975102000004,142.8975102000004,142.8975102000004,142.8975102000004,142.8975102000004,142.8975102000004,None,None,None,139.59840799999984,139.59840799999984,1.0956170999997994,,,,,,,,,,,,,,,,,,,,21,001,2024-07-04_17h09.32.436,robot_nback_sign,2022.2.5,59.988650147172564,
Q,False,2,letter,2,False,False,robot_stimuli\\filler.mp4,21,0,0,0,0,0,10,10,10,,,,,,,,,,,,,142.8975102000004,142.8975102000004,None,,142.8975102000004,143.96214090000103,143.96214090000103,143.96214090000103,143.96214090000103,143.96214090000103,145.9900931000011,n,145.9900931000011,145.9900931000011,145.9900931000011,145.9900931000011,145.9900931000011,145.9900931000011,145.9900931000011,145.9900931000011,None,None,None,142.8975102000004,142.8975102000004,0.9298124999986612,,,,,,,,,,,,,,,,,,,,21,001,2024-07-04_17h09.32.436,robot_nback_sign,2022.2.5,59.988650147172564,
P,True,2,letter,2,False,True,robot_stimuli\\filler.mp4,21,0,0,0,0,0,11,11,11,,,,,,,,,,,,,145.9900931000011,145.9900931000011,None,,145.9900931000011,147.0624657999997,147.0624657999997,147.0624657999997,147.0624657999997,147.0624657999997,149.13016150000112,c,149.13016150000112,155.03477890000067,149.13016150000112,155.03477890000067,149.13016150000112,155.03477890000067,149.13016150000112,155.03477890000067,4.228395061728393,3.829568700000891,space,145.9900931000011,145.9900931000011,0.7257951999981742,5.857362299999295,,,,,,,,,,,,,,,,,,,21,001,2024-07-04_17h09.32.436,robot_nback_sign,2022.2.5,59.988650147172564,
M,False,3,letter,2,True,False,robot_stimuli\\filler.mp4,21,0,0,0,0,0,12,12,12,,,,,,,,,,,,,155.03477890000067,155.03477890000067,space,5.905616999998529,160.96437210000113,162.0431064000004,162.0431064000004,162.0431064000004,162.0431064000004,162.0431064000004,164.26148889999968,n,164.26148889999968,164.26148889999968,164.26148889999968,164.26148889999968,164.26148889999968,164.26148889999968,164.26148889999968,164.26148889999968,None,None,None,,,1.3201548999986699,,,,,,,,,,,,,,,,,,,,21,001,2024-07-04_17h09.32.436,robot_nback_sign,2022.2.5,59.988650147172564,
W,False,3,letter,2,False,False,robot_stimuli\\filler.mp4,21,0,0,0,0,0,13,13,13,,,,,,,,,,,,,164.26148889999968,164.26148889999968,None,,164.26148889999968,165.32836680000037,165.32836680000037,165.32836680000037,165.32836680000037,165.32836680000037,167.36195580000094,n,167.36195580000094,167.36195580000094,167.36195580000094,167.36195580000094,167.36195580000094,167.36195580000094,167.36195580000094,167.36195580000094,None,None,None,164.26148889999968,164.26148889999968,0.8837696999999025,,,,,,,,,,,,,,,,,,,,21,001,2024-07-04_17h09.32.436,robot_nback_sign,2022.2.5,59.988650147172564,
K,False,3,letter,2,False,False,robot_stimuli\\filler.mp4,21,0,0,0,0,0,14,14,14,,,,,,,,,,,,,167.36195580000094,167.36195580000094,None,,167.36195580000094,168.43078419999983,168.43078419999983,168.43078419999983,168.43078419999983,168.43078419999983,170.46189969999978,n,170.46189969999978,170.46189969999978,170.46189969999978,170.46189969999978,170.46189969999978,170.46189969999978,170.46189969999978,170.46189969999978,None,None,None,167.36195580000094,167.36195580000094,0.8846782999989955,,,,,,,,,,,,,,,,,,,,21,001,2024-07-04_17h09.32.436,robot_nback_sign,2022.2.5,59.988650147172564,
M,True,3,letter,2,False,False,robot_stimuli\\filler.mp4,21,0,0,0,0,0,15,15,15,,,,,,,,,,,,,170.46189969999978,170.46189969999978,None,,170.46189969999978,171.52961460000006,171.52961460000006,171.52961460000006,171.52961460000006,171.52961460000006,173.56299190000027,c,173.56299190000027,173.56299190000027,173.56299190000027,173.56299190000027,173.56299190000027,173.56299190000027,173.56299190000027,173.56299190000027,None,None,None,170.46189969999978,170.46189969999978,0.4891481999984535,,,,,,,,,,,,,,,,,,,,21,001,2024-07-04_17h09.32.436,robot_nback_sign,2022.2.5,59.988650147172564,
W,True,3,letter,2,False,False,robot_stimuli\\filler.mp4,21,0,0,0,0,0,16,16,16,,,,,,,,,,,,,173.56299190000027,173.56299190000027,None,,173.56299190000027,174.63008290000107,174.63008290000107,174.63008290000107,174.63008290000107,174.63008290000107,176.66319660000045,c,176.66319660000045,176.66319660000045,176.66319660000045,176.66319660000045,176.66319660000045,176.66319660000045,176.66319660000045,176.66319660000045,None,None,None,173.56299190000027,173.56299190000027,0.9415005999999266,,,,,,,,,,,,,,,,,,,,21,001,2024-07-04_17h09.32.436,robot_nback_sign,2022.2.5,59.988650147172564,
T,False,3,letter,2,False,True,robot_stimuli\\filler.mp4,21,0,0,0,0,0,17,17,17,,,,,,,,,,,,,176.66319660000045,176.66319660000045,None,,176.66319660000045,177.72874390000106,177.72874390000106,177.72874390000106,177.72874390000106,177.72874390000106,179.7988965000004,n,179.7988965000004,187.74983969999994,179.7988965000004,187.74983969999994,179.7988965000004,187.74983969999994,179.7988965000004,187.74983969999994,24.598765432098762,6.356745499999306,space,176.66319660000045,176.66319660000045,1.9315549000002648,7.884293599998273,,,,,,,,,,,,,,,,,,,21,001,2024-07-04_17h09.32.436,robot_nback_sign,2022.2.5,59.988650147172564,
R_Arm_X_For,False,1,robot,1,True,False,robot_stimuli\R_Arm_X_For.mp4,21,0,0,0,0,0,18,18,18,,,,,,,,,,,,,187.74983969999994,187.74983969999994,space,2.9191212999994605,190.6975493000009,191.81072500000118,,191.81072500000118,191.81072500000118,191.81072500000118,,None,195.4448521000013,195.4448521000013,195.4448521000013,195.4448521000013,195.4448521000013,195.4448521000013,195.4448521000013,195.4448521000013,None,None,None,,,,,191.81072500000118,,,,,,,,,,,,,,,,,,21,001,2024-07-04_17h09.32.436,robot_nback_sign,2022.2.5,59.988650147172564,
L_Torso_Z_For,False,1,robot,1,False,False,robot_stimuli\L_Torso_Z_For.mp4,21,0,0,0,0,0,19,19,19,,,,,,,,,,,,,195.4448521000013,195.4448521000013,None,,195.4448521000013,196.5503120000012,,196.5503120000012,196.5503120000012,196.5503120000012,,None,200.195469100001,200.195469100001,200.195469100001,200.195469100001,200.195469100001,200.195469100001,200.195469100001,200.195469100001,None,None,None,195.4448521000013,195.4448521000013,,,196.5503120000012,,,,,,,,,,,,,,,,,,21,001,2024-07-04_17h09.32.436,robot_nback_sign,2022.2.5,59.988650147172564,
L_Torso_X_For,False,1,robot,1,False,False,robot_stimuli\L_Torso_X_For.mp4,21,0,0,0,0,0,20,20,20,,,,,,,,,,,,,200.195469100001,200.195469100001,None,,200.195469100001,201.29612310000084,,201.29612310000084,201.29612310000084,201.29612310000084,,None,204.93998210000063,204.93998210000063,204.93998210000063,204.93998210000063,204.93998210000063,204.93998210000063,204.93998210000063,204.93998210000063,None,None,None,200.195469100001,200.195469100001,,,201.29612310000084,,,,,,,,,,,,,,,,,,21,001,2024-07-04_17h09.32.436,robot_nback_sign,2022.2.5,59.988650147172564,
R_Torso_Z_For,False,1,robot,1,False,False,robot_stimuli\R_Torso_Z_For.mp4,21,0,0,0,0,0,21,21,21,,,,,,,,,,,,,204.93998210000063,204.93998210000063,None,,204.93998210000063,206.04218200000105,,206.04218200000105,206.04218200000105,206.04218200000105,,None,209.6765273000001,209.6765273000001,209.6765273000001,209.6765273000001,209.6765273000001,209.6765273000001,209.6765273000001,209.6765273000001,None,None,None,204.93998210000063,204.93998210000063,,,206.04218200000105,,,,,,,,,,,,,,,,,,21,001,2024-07-04_17h09.32.436,robot_nback_sign,2022.2.5,59.988650147172564,
R_Torso_Z_For,True,1,robot,1,False,False,robot_stimuli\R_Torso_Z_For.mp4,21,0,0,0,0,0,22,22,22,,,,,,,,,,,,,209.6765273000001,209.6765273000001,None,,209.6765273000001,210.77039220000006,,210.77039220000006,210.77039220000006,210.77039220000006,,c,214.41413939999984,214.41413939999984,214.41413939999984,214.41413939999984,214.41413939999984,214.41413939999984,214.41413939999984,214.41413939999984,None,None,None,209.6765273000001,209.6765273000001,1.8098949999985052,,210.77039220000006,,,,,,,,,,,,,,,,,,21,001,2024-07-04_17h09.32.436,robot_nback_sign,2022.2.5,59.988650147172564,
R_Torso_Z_For,True,1,robot,1,False,True,robot_stimuli\R_Torso_Z_For.mp4,21,0,0,0,0,0,23,23,23,,,,,,,,,,,,,214.41413939999984,214.41413939999984,None,,214.41413939999984,215.50318610000068,,215.50318610000068,215.50318610000068,215.50318610000068,,c,219.17785820000063,226.90834590000122,219.17785820000063,226.90834590000122,219.17785820000063,226.90834590000122,219.17785820000063,226.90834590000122,16.41975308641975,6.696756400000595,space,214.41413939999984,214.41413939999984,3.108915299999353,7.657570499999565,215.50318610000068,,,,,,,,,,,,,,,,,,21,001,2024-07-04_17h09.32.436,robot_nback_sign,2022.2.5,59.988650147172564,
L_Base_X_Back,False,2,robot,1,True,False,robot_stimuli\L_Base_X_Back.mp4,21,0,0,0,0,0,24,24,24,,,,,,,,,,,,,226.90834590000122,226.90834590000122,space,2.374580600000627,229.31458600000042,230.41365750000114,,230.41365750000114,230.41365750000114,230.41365750000114,,n,234.02507630000036,234.02507630000036,234.02507630000036,234.02507630000036,234.02507630000036,234.02507630000036,234.02507630000036,234.02507630000036,None,None,None,,,2.8054094999988592,,230.41365750000114,,,,,,,,,,,,,,,,,,21,001,2024-07-04_17h09.32.436,robot_nback_sign,2022.2.5,59.988650147172564,
L_Arm_X_Back,False,2,robot,1,False,False,robot_stimuli\L_Arm_X_Back.mp4,21,0,0,0,0,0,25,25,25,,,,,,,,,,,,,234.02507630000036,234.02507630000036,None,,234.02507630000036,235.12897750000047,,235.12897750000047,235.12897750000047,235.12897750000047,,n,238.78334689999974,238.78334689999974,238.78334689999974,238.78334689999974,238.78334689999974,238.78334689999974,238.78334689999974,238.78334689999974,None,None,None,234.02507630000036,234.02507630000036,3.2592925999997533,,235.12897750000047,,,,,,,,,,,,,,,,,,21,001,2024-07-04_17h09.32.436,robot_nback_sign,2022.2.5,59.988650147172564,
R_Torso_Y_Back,False,2,robot,1,False,False,robot_stimuli\R_Torso_Y_Back.mp4,21,0,0,0,0,0,26,26,26,,,,,,,,,,,,,238.78334689999974,238.78334689999974,None,,238.78334689999974,,,239.89621550000084,239.89621550000084,239.89621550000084,,n,243.54900700000144,243.54900700000144,243.54900700000144,243.54900700000144,243.54900700000144,243.54900700000144,243.54900700000144,243.54900700000144,None,None,None,238.78334689999974,238.78334689999974,2.4670729999979812,,239.89621550000084,,,,,,,,,,,,,,,,,,21,001,2024-07-04_17h09.32.436,robot_nback_sign,2022.2.5,59.988650147172564,
L_Arm_X_Back,True,2,robot,1,False,False,robot_stimuli\L_Arm_X_Back.mp4,21,0,0,0,0,0,27,27,27,,,,,,,,,,,,,243.54900700000144,243.54900700000144,None,,243.54900700000144,,,244.6572709000011,244.6572709000011,244.6572709000011,,c,248.29070930000125,248.29070930000125,248.29070930000125,248.29070930000125,248.29070930000125,248.29070930000125,248.29070930000125,248.29070930000125,None,None,None,243.54900700000144,243.54900700000144,1.834977999998955,,244.6572709000011,,,,,,,,,,,,,,,,,,21,001,2024-07-04_17h09.32.436,robot_nback_sign,2022.2.5,59.988650147172564,
L_Torso_Y_Back,False,2,robot,1,False,False,robot_stimuli\L_Torso_Y_Back.mp4,21,0,0,0,0,0,28,28,28,,,,,,,,,,,,,248.29070930000125,248.29070930000125,None,,248.29070930000125,249.3967631000014,,249.3967631000014,249.3967631000014,249.3967631000014,,c,252.91527719999976,252.91527719999976,252.91527719999976,252.91527719999976,252.91527719999976,252.91527719999976,252.91527719999976,252.91527719999976,None,None,None,248.29070930000125,248.29070930000125,2.9665271999983815,,249.3967631000014,,,,,,,,,,,,,,,,,,21,001,2024-07-04_17h09.32.436,robot_nback_sign,2022.2.5,59.988650147172564,
L_Arm_X_Back,True,2,robot,1,False,True,robot_stimuli\L_Arm_X_Back.mp4,21,0,0,0,0,0,29,29,29,,,,,,,,,,,,,252.91527719999976,252.91527719999976,None,,252.91527719999976,254.00645280000026,,254.00645280000026,254.00645280000026,254.00645280000026,,c,257.6802108000011,262.8654373999998,257.6802108000011,262.8654373999998,257.6802108000011,262.8654373999998,257.6802108000011,262.8654373999998,27.8395061728395,3.8626021000000037,space,252.91527719999976,252.91527719999976,3.5810849999979837,5.130663499998263,254.00645280000026,,,,,,,,,,,,,,,,,,21,001,2024-07-04_17h09.32.436,robot_nback_sign,2022.2.5,59.988650147172564,
L_Arm_Y_Back,False,3,robot,1,True,False,robot_stimuli\L_Arm_Y_Back.mp4,21,0,0,0,0,0,30,30,30,,,,,,,,,,,,,262.8654373999998,262.8654373999998,space,2.266607599998679,265.16421919999993,266.24717280000004,,266.24717280000004,266.24717280000004,266.24717280000004,,None,269.8999851000008,269.8999851000008,269.8999851000008,269.8999851000008,269.8999851000008,269.8999851000008,269.8999851000008,269.8999851000008,None,None,None,,,,,266.24717280000004,,,,,,,,,,,,,,,,,,21,001,2024-07-04_17h09.32.436,robot_nback_sign,2022.2.5,59.988650147172564,
L_Arm_Z_For,False,3,robot,1,False,False,robot_stimuli\L_Arm_Z_For.mp4,21,0,0,0,0,0,31,31,31,,,,,,,,,,,,,269.8999851000008,269.8999851000008,None,,269.8999851000008,,,271.00269320000007,271.00269320000007,271.00269320000007,,n,274.65006950000134,274.65006950000134,274.65006950000134,274.65006950000134,274.65006950000134,274.65006950000134,274.65006950000134,274.65006950000134,None,None,None,269.8999851000008,269.8999851000008,3.2968569999975443,,271.00269320000007,,,,,,,,,,,,,,,,,,21,001,2024-07-04_17h09.32.436,robot_nback_sign,2022.2.5,59.988650147172564,
L_Base_Z_For,False,3,robot,1,False,False,robot_stimuli\L_Base_Z_For.mp4,21,0,0,0,0,0,32,32,32,,,,,,,,,,,,,274.65006950000134,274.65006950000134,None,,274.65006950000134,,,275.75973049999993,275.75973049999993,275.75973049999993,,n,279.41187360000004,279.41187360000004,279.41187360000004,279.41187360000004,279.41187360000004,279.41187360000004,279.41187360000004,279.41187360000004,None,None,None,274.65006950000134,274.65006950000134,3.3308700999987195,,275.75973049999993,,,,,,,,,,,,,,,,,,21,001,2024-07-04_17h09.32.436,robot_nback_sign,2022.2.5,59.988650147172564,
L_Arm_Y_Back,True,3,robot,1,False,False,robot_stimuli\L_Arm_Y_Back.mp4,21,0,0,0,0,0,33,33,33,,,,,,,,,,,,,279.41187360000004,279.41187360000004,None,,279.41187360000004,280.5055291999997,,280.5055291999997,280.5055291999997,280.5055291999997,,c,284.1450149000011,284.1450149000011,284.1450149000011,284.1450149000011,284.1450149000011,284.1450149000011,284.1450149000011,284.1450149000011,None,None,None,279.41187360000004,279.41187360000004,2.13780129999941,,280.5055291999997,,,,,,,,,,,,,,,,,,21,001,2024-07-04_17h09.32.436,robot_nback_sign,2022.2.5,59.988650147172564,
L_Arm_Z_For,True,3,robot,1,False,False,robot_stimuli\L_Arm_Z_For.mp4,21,0,0,0,0,0,34,34,34,,,,,,,,,,,,,284.1450149000011,284.1450149000011,None,,284.1450149000011,285.225561700001,,285.225561700001,285.225561700001,285.225561700001,,None,288.85589340000115,288.85589340000115,288.85589340000115,288.85589340000115,288.85589340000115,288.85589340000115,288.85589340000115,288.85589340000115,None,None,None,284.1450149000011,284.1450149000011,,,285.225561700001,,,,,,,,,,,,,,,,,,21,001,2024-07-04_17h09.32.436,robot_nback_sign,2022.2.5,59.988650147172564,
R_Arm_Z_Back,False,3,robot,1,False,True,robot_stimuli\R_Arm_Z_Back.mp4,21,0,0,0,0,0,35,35,35,,,,,,,,,,,,,288.85589340000115,288.85589340000115,None,,288.85589340000115,289.9430373000014,,289.9430373000014,289.9430373000014,289.9430373000014,,n,293.6245405999998,299.31521260000045,293.6245405999998,299.31521260000045,293.6245405999998,299.31521260000045,293.6245405999998,299.31521260000045,29.691358024691354,4.617245899999034,space,288.85589340000115,288.85589340000115,2.307591599997977,5.634684799997558,289.9430373000014,,,,,,,,,,,,,,,,,,21,001,2024-07-04_17h09.32.436,robot_nback_sign,2022.2.5,59.988650147172564,
,,,,,,,,,0,0,0,0,,,,,,,,,,,,,,,,,,,,,,,,,,,,,,,,,,,,,,,,,,,,,299.31521260000045,299.31521260000045,299.31521260000045,c,4.9678738999991765,,,,,,,,,,,,,21,001,2024-07-04_17h09.32.436,robot_nback_sign,2022.2.5,59.988650147172564,
L_Head_Y_Back,False,3,robot,1,True,False,robot_stimuli\L_Head_Y_Back.mp4,21,,,,,,,,,0,0,0,0,,,,,,,,,,,,,306.49749110000084,307.57888490000005,,,,,,,311.23296480000135,311.23296480000135,311.23296480000135,311.23296480000135,311.23296480000135,311.23296480000135,311.23296480000135,311.23296480000135,None,None,None,,,,,,,,,,,304.35317360000045,304.35317360000045,space,2.113720599998487,307.57888490000005,307.57888490000005,None,,,,,,21,001,2024-07-04_17h09.32.436,robot_nback_sign,2022.2.5,59.988650147172564,
L_Torso_Y_For,False,3,robot,1,False,False,robot_stimuli\L_Torso_Y_For.mp4,21,,,,,,,,,0,1,1,1,,,,,,,,,,,,,311.23296480000135,,,,,,,,315.9803675000003,315.9803675000003,315.9803675000003,315.9803675000003,315.9803675000003,315.9803675000003,315.9803675000003,315.9803675000003,None,None,None,,,,,,,,,,,311.23296480000135,311.23296480000135,None,,312.3397526000008,312.3397526000008,None,311.23296480000135,311.23296480000135,,,,21,001,2024-07-04_17h09.32.436,robot_nback_sign,2022.2.5,59.988650147172564,
L_Arm_X_Back,False,3,robot,1,False,False,robot_stimuli\L_Arm_X_Back.mp4,21,,,,,,,,,0,2,2,2,,,,,,,,,,,,,315.9803675000003,317.06604900000093,,,,,,,320.7066594000007,320.7066594000007,320.7066594000007,320.7066594000007,320.7066594000007,320.7066594000007,320.7066594000007,320.7066594000007,None,None,None,,,,,,,,,,,315.9803675000003,315.9803675000003,None,,317.06604900000093,317.06604900000093,None,315.9803675000003,315.9803675000003,,,,21,001,2024-07-04_17h09.32.436,robot_nback_sign,2022.2.5,59.988650147172564,
R_Head_X_For,False,3,robot,1,False,False,robot_stimuli\R_Head_X_For.mp4,21,,,,,,,,,0,3,3,3,,,,,,,,,,,,,320.7066594000007,321.7963061999999,,,,,,,325.4473858000001,325.4473858000001,325.4473858000001,325.4473858000001,325.4473858000001,325.4473858000001,325.4473858000001,325.4473858000001,None,None,None,,,,,,,,,,,320.7066594000007,320.7066594000007,None,,321.7963061999999,321.7963061999999,n,320.7066594000007,320.7066594000007,3.6068954000002122,,,21,001,2024-07-04_17h09.32.436,robot_nback_sign,2022.2.5,59.988650147172564,
L_Torso_Y_For,True,3,robot,1,False,False,robot_stimuli\L_Torso_Y_For.mp4,21,,,,,,,,,0,4,4,4,,,,,,,,,,,,,325.4473858000001,326.52428320000035,,,,,,,330.1538008000007,330.1538008000007,330.1538008000007,330.1538008000007,330.1538008000007,330.1538008000007,330.1538008000007,330.1538008000007,None,None,None,,,,,,,,,,,325.4473858000001,325.4473858000001,None,,326.52428320000035,326.52428320000035,None,325.4473858000001,325.4473858000001,,,,21,001,2024-07-04_17h09.32.436,robot_nback_sign,2022.2.5,59.988650147172564,
R_Arm_X_For,False,3,robot,1,False,False,robot_stimuli\R_Arm_X_For.mp4,21,,,,,,,,,0,5,5,5,,,,,,,,,,,,,330.1538008000007,331.2368612999999,,,,,,,334.88042400000086,334.88042400000086,334.88042400000086,334.88042400000086,334.88042400000086,334.88042400000086,334.88042400000086,334.88042400000086,None,None,None,,,,,,,,,,,330.1538008000007,330.1538008000007,None,,331.2368612999999,331.2368612999999,None,330.1538008000007,330.1538008000007,,,,21,001,2024-07-04_17h09.32.436,robot_nback_sign,2022.2.5,59.988650147172564,
R_Head_Y_For,False,3,robot,1,False,False,robot_stimuli\R_Head_Y_For.mp4,21,,,,,,,,,0,6,6,6,,,,,,,,,,,,,334.88042400000086,335.9605498000001,,,,,,,339.61250070000096,339.61250070000096,339.61250070000096,339.61250070000096,339.61250070000096,339.61250070000096,339.61250070000096,339.61250070000096,None,None,None,,,,,,,,,,,334.88042400000086,334.88042400000086,None,,335.9605498000001,335.9605498000001,None,334.88042400000086,334.88042400000086,,,,21,001,2024-07-04_17h09.32.436,robot_nback_sign,2022.2.5,59.988650147172564,
L_Head_X_For,False,3,robot,1,False,False,robot_stimuli\L_Head_X_For.mp4,21,,,,,,,,,0,7,7,7,,,,,,,,,,,,,339.61250070000096,340.69267709999986,,,,,,,344.2774379000002,344.2774379000002,344.2774379000002,344.2774379000002,344.2774379000002,344.2774379000002,344.2774379000002,344.2774379000002,None,None,None,,,,,,,,,,,339.61250070000096,339.61250070000096,None,,340.69267709999986,340.69267709999986,n,339.61250070000096,339.61250070000096,2.2550241999997525,,,21,001,2024-07-04_17h09.32.436,robot_nback_sign,2022.2.5,59.988650147172564,
R_Torso_X_Back,False,3,robot,1,False,False,robot_stimuli\R_Torso_X_Back.mp4,21,,,,,,,,,0,8,8,8,,,,,,,,,,,,,344.2774379000002,345.3588722000004,,,,,,,348.99811220000083,348.99811220000083,348.99811220000083,348.99811220000083,348.99811220000083,348.99811220000083,348.99811220000083,348.99811220000083,None,None,None,,,,,,,,,,,344.2774379000002,344.2774379000002,None,,345.3588722000004,345.3588722000004,None,344.2774379000002,344.2774379000002,,,,21,001,2024-07-04_17h09.32.436,robot_nback_sign,2022.2.5,59.988650147172564,
L_Base_X_Back,False,3,robot,1,False,False,robot_stimuli\L_Base_X_Back.mp4,21,,,,,,,,,0,9,9,9,,,,,,,,,,,,,348.99811220000083,350.07507280000027,,,,,,,353.6707459999998,353.6707459999998,353.6707459999998,353.6707459999998,353.6707459999998,353.6707459999998,353.6707459999998,353.6707459999998,None,None,None,,,,,,,,,,,348.99811220000083,348.99811220000083,None,,350.07507280000027,350.07507280000027,n,348.99811220000083,348.99811220000083,3.1609039999984816,,,21,001,2024-07-04_17h09.32.436,robot_nback_sign,2022.2.5,59.988650147172564,
L_Torso_X_Back,False,3,robot,1,False,False,robot_stimuli\L_Torso_X_Back.mp4,21,,,,,,,,,0,10,10,10,,,,,,,,,,,,,353.6707459999998,354.7580622000005,,,,,,,358.39695030000075,358.39695030000075,358.39695030000075,358.39695030000075,358.39695030000075,358.39695030000075,358.39695030000075,358.39695030000075,None,None,None,,,,,,,,,,,353.6707459999998,353.6707459999998,None,,354.7580622000005,354.7580622000005,n,353.6707459999998,353.6707459999998,3.1738322000001062,,,21,001,2024-07-04_17h09.32.436,robot_nback_sign,2022.2.5,59.988650147172564,
R_Torso_X_For,False,3,robot,1,False,False,robot_stimuli\R_Torso_X_For.mp4,21,,,,,,,,,0,11,11,11,,,,,,,,,,,,,358.39695030000075,359.4706967000002,,,,,,,363.10864519999996,363.10864519999996,363.10864519999996,363.10864519999996,363.10864519999996,363.10864519999996,363.10864519999996,363.10864519999996,None,None,None,,,,,,,,,,,358.39695030000075,358.39695030000075,None,,359.4706967000002,359.4706967000002,n,358.39695030000075,358.39695030000075,3.3566364999987854,,,21,001,2024-07-04_17h09.32.436,robot_nback_sign,2022.2.5,59.988650147172564,
L_Base_Z_Back,False,3,robot,1,False,False,robot_stimuli\L_Base_Z_Back.mp4,21,,,,,,,,,0,12,12,12,,,,,,,,,,,,,363.10864519999996,364.19817429999966,,,,,,,367.8383896000014,367.8383896000014,367.8383896000014,367.8383896000014,367.8383896000014,367.8383896000014,367.8383896000014,367.8383896000014,None,None,None,,,,,,,,,,,363.10864519999996,363.10864519999996,None,,364.19817429999966,364.19817429999966,n,363.10864519999996,363.10864519999996,3.1244248999992124,,,21,001,2024-07-04_17h09.32.436,robot_nback_sign,2022.2.5,59.988650147172564,
R_Head_Y_For,False,3,robot,1,False,False,robot_stimuli\R_Head_Y_For.mp4,21,,,,,,,,,0,13,13,13,,,,,,,,,,,,,367.8383896000014,368.92988830000104,,,,,,,372.58114399999977,372.58114399999977,372.58114399999977,372.58114399999977,372.58114399999977,372.58114399999977,372.58114399999977,372.58114399999977,None,None,None,,,,,,,,,,,367.8383896000014,367.8383896000014,None,,368.92988830000104,368.92988830000104,n,367.8383896000014,367.8383896000014,3.6101937999974325,,,21,001,2024-07-04_17h09.32.436,robot_nback_sign,2022.2.5,59.988650147172564,
R_Torso_X_For,True,3,robot,1,False,False,robot_stimuli\R_Torso_X_For.mp4,21,,,,,,,,,0,14,14,14,,,,,,,,,,,,,372.58114399999977,373.65703810000014,,,,,,,377.2994127000002,377.2994127000002,377.2994127000002,377.2994127000002,377.2994127000002,377.2994127000002,377.2994127000002,377.2994127000002,None,None,None,,,,,,,,,,,372.58114399999977,372.58114399999977,None,,373.65703810000014,373.65703810000014,n,372.58114399999977,372.58114399999977,3.4752517999986594,,,21,001,2024-07-04_17h09.32.436,robot_nback_sign,2022.2.5,59.988650147172564,
R_Base_X_Back,False,3,robot,1,False,False,robot_stimuli\R_Base_X_Back.mp4,21,,,,,,,,,0,15,15,15,,,,,,,,,,,,,377.2994127000002,,,,,,,,382.02270640000097,382.02270640000097,382.02270640000097,382.02270640000097,382.02270640000097,382.02270640000097,382.02270640000097,382.02270640000097,None,None,None,,,,,,,,,,,377.2994127000002,377.2994127000002,None,,378.3915340000003,378.3915340000003,c,377.2994127000002,377.2994127000002,3.051571599999079,,,21,001,2024-07-04_17h09.32.436,robot_nback_sign,2022.2.5,59.988650147172564,
R_Torso_X_For,False,3,robot,1,False,False,robot_stimuli\R_Torso_X_For.mp4,21,,,,,,,,,0,16,16,16,,,,,,,,,,,,,382.02270640000097,383.10919830000057,,,,,,,386.73741320000045,386.73741320000045,386.73741320000045,386.73741320000045,386.73741320000045,386.73741320000045,386.73741320000045,386.73741320000045,None,None,None,,,,,,,,,,,382.02270640000097,382.02270640000097,None,,383.10919830000057,383.10919830000057,c,382.02270640000097,382.02270640000097,3.318106099999568,,,21,001,2024-07-04_17h09.32.436,robot_nback_sign,2022.2.5,59.988650147172564,
L_Arm_Y_For,False,3,robot,1,False,False,robot_stimuli\L_Arm_Y_For.mp4,21,,,,,,,,,0,17,17,17,,,,,,,,,,,,,386.73741320000045,387.82798750000075,,,,,,,391.47288819999994,391.47288819999994,391.47288819999994,391.47288819999994,391.47288819999994,391.47288819999994,391.47288819999994,391.47288819999994,None,None,None,,,,,,,,,,,386.73741320000045,386.73741320000045,None,,387.82798750000075,387.82798750000075,n,386.73741320000045,386.73741320000045,3.2387946999988344,,,21,001,2024-07-04_17h09.32.436,robot_nback_sign,2022.2.5,59.988650147172564,
L_Torso_Y_For,False,3,robot,1,False,False,robot_stimuli\L_Torso_Y_For.mp4,21,,,,,,,,,0,18,18,18,,,,,,,,,,,,,391.47288819999994,392.5578906999999,,,,,,,396.1878764000012,396.1878764000012,396.1878764000012,396.1878764000012,396.1878764000012,396.1878764000012,396.1878764000012,396.1878764000012,None,None,None,,,,,,,,,,,391.47288819999994,391.47288819999994,None,,392.5578906999999,392.5578906999999,None,391.47288819999994,391.47288819999994,,,,21,001,2024-07-04_17h09.32.436,robot_nback_sign,2022.2.5,59.988650147172564,
L_Base_Y_For,False,3,robot,1,False,False,robot_stimuli\L_Base_Y_For.mp4,21,,,,,,,,,0,19,19,19,,,,,,,,,,,,,396.1878764000012,397.27891550000095,,,,,,,400.82832130000133,400.82832130000133,400.82832130000133,400.82832130000133,400.82832130000133,400.82832130000133,400.82832130000133,400.82832130000133,None,None,None,,,,,,,,,,,396.1878764000012,396.1878764000012,None,,397.27891550000095,397.27891550000095,c,396.1878764000012,396.1878764000012,1.9162046000001283,,,21,001,2024-07-04_17h09.32.436,robot_nback_sign,2022.2.5,59.988650147172564,
L_Arm_Y_For,True,3,robot,1,False,False,robot_stimuli\L_Arm_Y_For.mp4,21,,,,,,,,,0,20,20,20,,,,,,,,,,,,,400.82832130000133,401.9072969000008,,,,,,,405.54142520000096,405.54142520000096,405.54142520000096,405.54142520000096,405.54142520000096,405.54142520000096,405.54142520000096,405.54142520000096,None,None,None,,,,,,,,,,,400.82832130000133,400.82832130000133,None,,401.9072969000008,401.9072969000008,None,400.82832130000133,400.82832130000133,,,,21,001,2024-07-04_17h09.32.436,robot_nback_sign,2022.2.5,59.988650147172564,
R_Arm_X_Back,False,3,robot,1,False,False,robot_stimuli\R_Arm_X_Back.mp4,21,,,,,,,,,0,21,21,21,,,,,,,,,,,,,405.54142520000096,406.6387756000004,,,,,,,410.2792747000003,410.2792747000003,410.2792747000003,410.2792747000003,410.2792747000003,410.2792747000003,410.2792747000003,410.2792747000003,None,None,None,,,,,,,,,,,405.54142520000096,405.54142520000096,None,,406.6387756000004,406.6387756000004,n,405.54142520000096,405.54142520000096,2.220875499999238,,,21,001,2024-07-04_17h09.32.436,robot_nback_sign,2022.2.5,59.988650147172564,
L_Base_X_Back,False,3,robot,1,False,False,robot_stimuli\L_Base_X_Back.mp4,21,,,,,,,,,0,22,22,22,,,,,,,,,,,,,410.2792747000003,411.36102220000066,,,,,,,414.97849289999976,414.97849289999976,414.97849289999976,414.97849289999976,414.97849289999976,414.97849289999976,414.97849289999976,414.97849289999976,None,None,None,,,,,,,,,,,410.2792747000003,410.2792747000003,None,,411.36102220000066,411.36102220000066,None,410.2792747000003,410.2792747000003,,,,21,001,2024-07-04_17h09.32.436,robot_nback_sign,2022.2.5,59.988650147172564,
R_Head_Z_Back,False,3,robot,1,False,False,robot_stimuli\R_Head_Z_Back.mp4,21,,,,,,,,,0,23,23,23,,,,,,,,,,,,,414.97849289999976,416.0586937999997,,,,,,,419.7101930000008,419.7101930000008,419.7101930000008,419.7101930000008,419.7101930000008,419.7101930000008,419.7101930000008,419.7101930000008,None,None,None,,,,,,,,,,,414.97849289999976,414.97849289999976,None,,416.0586937999997,416.0586937999997,n,414.97849289999976,414.97849289999976,2.927996299997176,,,21,001,2024-07-04_17h09.32.436,robot_nback_sign,2022.2.5,59.988650147172564,
R_Arm_X_Back,True,3,robot,1,False,False,robot_stimuli\R_Arm_X_Back.mp4,21,,,,,,,,,0,24,24,24,,,,,,,,,,,,,419.7101930000008,420.7907415000009,,,,,,,424.4309512,424.4309512,424.4309512,424.4309512,424.4309512,424.4309512,424.4309512,424.4309512,None,None,None,,,,,,,,,,,419.7101930000008,419.7101930000008,None,,420.7907415000009,420.7907415000009,n,419.7101930000008,419.7101930000008,2.6361697999982425,,,21,001,2024-07-04_17h09.32.436,robot_nback_sign,2022.2.5,59.988650147172564,
L_Base_X_Back,True,3,robot,1,False,False,robot_stimuli\L_Base_X_Back.mp4,21,,,,,,,,,0,25,25,25,,,,,,,,,,,,,424.4309512,425.50799910000023,,,,,,,429.10534240000015,429.10534240000015,429.10534240000015,429.10534240000015,429.10534240000015,429.10534240000015,429.10534240000015,429.10534240000015,None,None,None,,,,,,,,,,,424.4309512,424.4309512,None,,425.50799910000023,425.50799910000023,n,424.4309512,424.4309512,3.223626699998931,,,21,001,2024-07-04_17h09.32.436,robot_nback_sign,2022.2.5,59.988650147172564,
L_Arm_Y_For,False,3,robot,1,False,False,robot_stimuli\L_Arm_Y_For.mp4,21,,,,,,,,,0,26,26,26,,,,,,,,,,,,,429.10534240000015,430.1929103000002,,,,,,,433.84350090000044,433.84350090000044,433.84350090000044,433.84350090000044,433.84350090000044,433.84350090000044,433.84350090000044,433.84350090000044,None,None,None,,,,,,,,,,,429.10534240000015,429.10534240000015,None,,430.1929103000002,430.1929103000002,n,429.10534240000015,429.10534240000015,2.9071670999983326,,,21,001,2024-07-04_17h09.32.436,robot_nback_sign,2022.2.5,59.988650147172564,
L_Head_X_For,False,3,robot,1,False,False,robot_stimuli\L_Head_X_For.mp4,21,,,,,,,,,0,27,27,27,,,,,,,,,,,,,433.84350090000044,434.9262606000011,,,,,,,438.5090639000009,438.5090639000009,438.5090639000009,438.5090639000009,438.5090639000009,438.5090639000009,438.5090639000009,438.5090639000009,None,None,None,,,,,,,,,,,433.84350090000044,433.84350090000044,None,,434.9262606000011,434.9262606000011,n,433.84350090000044,433.84350090000044,1.933583699998053,,,21,001,2024-07-04_17h09.32.436,robot_nback_sign,2022.2.5,59.988650147172564,
L_Base_Y_Back,False,3,robot,1,False,False,robot_stimuli\L_Base_Y_Back.mp4,21,,,,,,,,,0,28,28,28,,,,,,,,,,,,,438.5090639000009,439.5968823000003,,,,,,,443.17285190000075,443.17285190000075,443.17285190000075,443.17285190000075,443.17285190000075,443.17285190000075,443.17285190000075,443.17285190000075,None,None,None,,,,,,,,,,,438.5090639000009,438.5090639000009,None,,439.5968823000003,439.5968823000003,None,438.5090639000009,438.5090639000009,,,,21,001,2024-07-04_17h09.32.436,robot_nback_sign,2022.2.5,59.988650147172564,
R_Torso_Y_For,False,3,robot,1,False,False,robot_stimuli\R_Torso_Y_For.mp4,21,,,,,,,,,0,29,29,29,,,,,,,,,,,,,443.17285190000075,444.2584598000012,,,,,,,447.9123537000014,447.9123537000014,447.9123537000014,447.9123537000014,447.9123537000014,447.9123537000014,447.9123537000014,447.9123537000014,None,None,None,,,,,,,,,,,443.17285190000075,443.17285190000075,None,,444.2584598000012,444.2584598000012,n,443.17285190000075,443.17285190000075,3.264055899999221,,,21,001,2024-07-04_17h09.32.436,robot_nback_sign,2022.2.5,59.988650147172564,
R_Base_Z_For,False,3,robot,1,False,False,robot_stimuli\R_Base_Z_For.mp4,21,,,,,,,,,0,30,30,30,,,,,,,,,,,,,447.9123537000014,449.0060045000009,,,,,,,452.6503752000008,452.6503752000008,452.6503752000008,452.6503752000008,452.6503752000008,452.6503752000008,452.6503752000008,452.6503752000008,None,None,None,,,,,,,,,,,447.9123537000014,447.9123537000014,None,,449.0060045000009,449.0060045000009,n,447.9123537000014,447.9123537000014,3.0684459999993123,,,21,001,2024-07-04_17h09.32.436,robot_nback_sign,2022.2.5,59.988650147172564,
L_Base_X_For,False,3,robot,1,False,False,robot_stimuli\L_Base_X_For.mp4,21,,,,,,,,,0,31,31,31,,,,,,,,,,,,,452.6503752000008,,,,,,,,457.3291509999999,457.3291509999999,457.3291509999999,457.3291509999999,457.3291509999999,457.3291509999999,457.3291509999999,457.3291509999999,None,None,None,,,,,,,,,,,452.6503752000008,452.6503752000008,None,,453.75204889999986,453.75204889999986,None,452.6503752000008,452.6503752000008,,,,21,001,2024-07-04_17h09.32.436,robot_nback_sign,2022.2.5,59.988650147172564,
L_Arm_X_For,False,3,robot,1,False,False,robot_stimuli\L_Arm_X_For.mp4,21,,,,,,,,,0,32,32,32,,,,,,,,,,,,,457.3291509999999,458.40821440000036,,,,,,,462.03817379999964,462.03817379999964,462.03817379999964,462.03817379999964,462.03817379999964,462.03817379999964,462.03817379999964,462.03817379999964,None,None,None,,,,,,,,,,,457.3291509999999,457.3291509999999,None,,458.40821440000036,458.40821440000036,n,457.3291509999999,457.3291509999999,2.8670516000001953,,,21,001,2024-07-04_17h09.32.436,robot_nback_sign,2022.2.5,59.988650147172564,
R_Base_Z_For,True,3,robot,1,False,False,robot_stimuli\R_Base_Z_For.mp4,21,,,,,,,,,0,33,33,33,,,,,,,,,,,,,462.03817379999964,463.1273151000005,,,,,,,466.77866150000045,466.77866150000045,466.77866150000045,466.77866150000045,466.77866150000045,466.77866150000045,466.77866150000045,466.77866150000045,None,None,None,,,,,,,,,,,462.03817379999964,462.03817379999964,None,,463.1273151000005,463.1273151000005,n,462.03817379999964,462.03817379999964,3.2193481999984215,,,21,001,2024-07-04_17h09.32.436,robot_nback_sign,2022.2.5,59.988650147172564,
R_Torso_Z_Back,False,3,robot,1,False,False,robot_stimuli\R_Torso_Z_Back.mp4,21,,,,,,,,,0,34,34,34,,,,,,,,,,,,,466.77866150000045,467.8581359,,,,,,,471.4879789000006,471.4879789000006,471.4879789000006,471.4879789000006,471.4879789000006,471.4879789000006,471.4879789000006,471.4879789000006,None,None,None,,,,,,,,,,,466.77866150000045,466.77866150000045,None,,467.8581359,467.8581359,c,466.77866150000045,466.77866150000045,2.7460771999994904,,,21,001,2024-07-04_17h09.32.436,robot_nback_sign,2022.2.5,59.988650147172564,
L_Torso_Y_For,False,3,robot,1,False,False,robot_stimuli\L_Torso_Y_For.mp4,21,,,,,,,,,0,35,35,35,,,,,,,,,,,,,471.4879789000006,472.5753485000005,,,,,,,476.2270036000009,476.2270036000009,476.2270036000009,476.2270036000009,476.2270036000009,476.2270036000009,476.2270036000009,476.2270036000009,None,None,None,,,,,,,,,,,471.4879789000006,471.4879789000006,None,,472.5753485000005,472.5753485000005,n,471.4879789000006,471.4879789000006,2.571714699999575,,,21,001,2024-07-04_17h09.32.436,robot_nback_sign,2022.2.5,59.988650147172564,
R_Base_Z_For,True,3,robot,1,False,False,robot_stimuli\R_Base_Z_For.mp4,21,,,,,,,,,0,36,36,36,,,,,,,,,,,,,476.2270036000009,477.3081242999997,,,,,,,480.95976490000066,480.95976490000066,480.95976490000066,480.95976490000066,480.95976490000066,480.95976490000066,480.95976490000066,480.95976490000066,None,None,None,,,,,,,,,,,476.2270036000009,476.2270036000009,None,,477.3081242999997,477.3081242999997,n,476.2270036000009,476.2270036000009,2.4722064999987197,,,21,001,2024-07-04_17h09.32.436,robot_nback_sign,2022.2.5,59.988650147172564,
R_Arm_Z_For,False,3,robot,1,False,False,robot_stimuli\R_Arm_Z_For.mp4,21,,,,,,,,,0,37,37,37,,,,,,,,,,,,,480.95976490000066,482.04394460000003,,,,,,,485.69397630000094,485.69397630000094,485.69397630000094,485.69397630000094,485.69397630000094,485.69397630000094,485.69397630000094,485.69397630000094,None,None,None,,,,,,,,,,,480.95976490000066,480.95976490000066,None,,482.04394460000003,482.04394460000003,n,480.95976490000066,480.95976490000066,3.1993017999975564,,,21,001,2024-07-04_17h09.32.436,robot_nback_sign,2022.2.5,59.988650147172564,
L_Head_Y_Back,False,3,robot,1,False,False,robot_stimuli\L_Head_Y_Back.mp4,21,,,,,,,,,0,38,38,38,,,,,,,,,,,,,485.69397630000094,486.77287080000133,,,,,,,490.41328090000025,490.41328090000025,490.41328090000025,490.41328090000025,490.41328090000025,490.41328090000025,490.41328090000025,490.41328090000025,None,None,None,,,,,,,,,,,485.69397630000094,485.69397630000094,None,,486.77287080000133,486.77287080000133,n,485.69397630000094,485.69397630000094,2.6222473999987415,,,21,001,2024-07-04_17h09.32.436,robot_nback_sign,2022.2.5,59.988650147172564,
R_Base_Z_For,True,3,robot,1,False,False,robot_stimuli\R_Base_Z_For.mp4,21,,,,,,,,,0,39,39,39,,,,,,,,,,,,,490.41328090000025,491.48979169999984,,,,,,,495.1286899000006,495.1286899000006,495.1286899000006,495.1286899000006,495.1286899000006,495.1286899000006,495.1286899000006,495.1286899000006,None,None,None,,,,,,,,,,,490.41328090000025,490.41328090000025,None,,491.48979169999984,491.48979169999984,None,490.41328090000025,490.41328090000025,,,,21,001,2024-07-04_17h09.32.436,robot_nback_sign,2022.2.5,59.988650147172564,
R_Arm_X_For,False,3,robot,1,False,False,robot_stimuli\R_Arm_X_For.mp4,21,,,,,,,,,0,40,40,40,,,,,,,,,,,,,495.1286899000006,496.2077876000003,,,,,,,499.83824640000057,499.83824640000057,499.83824640000057,499.83824640000057,499.83824640000057,499.83824640000057,499.83824640000057,499.83824640000057,None,None,None,,,,,,,,,,,495.1286899000006,495.1286899000006,None,,496.2077876000003,496.2077876000003,n,495.1286899000006,495.1286899000006,2.9083152999992308,,,21,001,2024-07-04_17h09.32.436,robot_nback_sign,2022.2.5,59.988650147172564,
L_Head_Y_Back,True,3,robot,1,False,False,robot_stimuli\L_Head_Y_Back.mp4,21,,,,,,,,,0,41,41,41,,,,,,,,,,,,,499.83824640000057,500.9249352000006,,,,,,,504.55607800000143,504.55607800000143,504.55607800000143,504.55607800000143,504.55607800000143,504.55607800000143,504.55607800000143,504.55607800000143,None,None,None,,,,,,,,,,,499.83824640000057,499.83824640000057,None,,500.9249352000006,500.9249352000006,n,499.83824640000057,499.83824640000057,2.55007729999852,,,21,001,2024-07-04_17h09.32.436,robot_nback_sign,2022.2.5,59.988650147172564,
L_Base_Z_Back,False,3,robot,1,False,False,robot_stimuli\L_Base_Z_Back.mp4,21,,,,,,,,,0,42,42,42,,,,,,,,,,,,,504.55607800000143,505.6415788000013,,,,,,,509.28427660000125,509.28427660000125,509.28427660000125,509.28427660000125,509.28427660000125,509.28427660000125,509.28427660000125,509.28427660000125,None,None,None,,,,,,,,,,,504.55607800000143,504.55607800000143,None,,505.6415788000013,505.6415788000013,n,504.55607800000143,504.55607800000143,3.402232999998887,,,21,001,2024-07-04_17h09.32.436,robot_nback_sign,2022.2.5,59.988650147172564,
L_Torso_Z_For,False,3,robot,1,False,False,robot_stimuli\L_Torso_Z_For.mp4,21,,,,,,,,,0,43,43,43,,,,,,,,,,,,,509.28427660000125,510.38864380000086,,,,,,,514.0278360000011,514.0278360000011,514.0278360000011,514.0278360000011,514.0278360000011,514.0278360000011,514.0278360000011,514.0278360000011,None,None,None,,,,,,,,,,,509.28427660000125,509.28427660000125,None,,510.38864380000086,510.38864380000086,c,509.28427660000125,509.28427660000125,2.573776299997917,,,21,001,2024-07-04_17h09.32.436,robot_nback_sign,2022.2.5,59.988650147172564,
L_Head_X_For,False,3,robot,1,False,False,robot_stimuli\L_Head_X_For.mp4,21,,,,,,,,,0,44,44,44,,,,,,,,,,,,,514.0278360000011,515.1092927000009,,,,,,,518.6923887000012,518.6923887000012,518.6923887000012,518.6923887000012,518.6923887000012,518.6923887000012,518.6923887000012,518.6923887000012,None,None,None,,,,,,,,,,,514.0278360000011,514.0278360000011,None,,515.1092927000009,515.1092927000009,n,514.0278360000011,514.0278360000011,2.2142251000004762,,,21,001,2024-07-04_17h09.32.436,robot_nback_sign,2022.2.5,59.988650147172564,
L_Torso_Y_Back,False,3,robot,1,False,False,robot_stimuli\L_Torso_Y_Back.mp4,21,,,,,,,,,0,45,45,45,,,,,,,,,,,,,518.6923887000012,519.7748979999997,,,,,,,523.2907976000006,523.2907976000006,523.2907976000006,523.2907976000006,523.2907976000006,523.2907976000006,523.2907976000006,523.2907976000006,None,None,None,,,,,,,,,,,518.6923887000012,518.6923887000012,None,,519.7748979999997,519.7748979999997,None,518.6923887000012,518.6923887000012,,,,21,001,2024-07-04_17h09.32.436,robot_nback_sign,2022.2.5,59.988650147172564,
L_Torso_Z_For,True,3,robot,1,False,False,robot_stimuli\L_Torso_Z_For.mp4,21,,,,,,,,,0,46,46,46,,,,,,,,,,,,,523.2907976000006,524.3696613000011,,,,,,,528.0135912000005,528.0135912000005,528.0135912000005,528.0135912000005,528.0135912000005,528.0135912000005,528.0135912000005,528.0135912000005,None,None,None,,,,,,,,,,,523.2907976000006,523.2907976000006,None,,524.3696613000011,524.3696613000011,c,523.2907976000006,523.2907976000006,3.4018756999994366,,,21,001,2024-07-04_17h09.32.436,robot_nback_sign,2022.2.5,59.988650147172564,
R_Base_Z_Back,False,3,robot,1,False,False,robot_stimuli\R_Base_Z_Back.mp4,21,,,,,,,,,0,47,47,47,,,,,,,,,,,,,528.0135912000005,529.0911565000006,,,,,,,532.621294300001,532.621294300001,532.621294300001,532.621294300001,532.621294300001,532.621294300001,532.621294300001,532.621294300001,None,None,None,,,,,,,,,,,528.0135912000005,528.0135912000005,None,,529.0911565000006,529.0911565000006,None,528.0135912000005,528.0135912000005,,,,21,001,2024-07-04_17h09.32.436,robot_nback_sign,2022.2.5,59.988650147172564,
L_Torso_X_Back,False,3,robot,1,False,False,robot_stimuli\L_Torso_X_Back.mp4,21,,,,,,,,,0,48,48,48,,,,,,,,,,,,,532.621294300001,533.7081233000008,,,,,,,537.3473391000007,537.3473391000007,537.3473391000007,537.3473391000007,537.3473391000007,537.3473391000007,537.3473391000007,537.3473391000007,None,None,None,,,,,,,,,,,532.621294300001,532.621294300001,None,,533.7081233000008,533.7081233000008,n,532.621294300001,532.621294300001,1.4626073999988876,,,21,001,2024-07-04_17h09.32.436,robot_nback_sign,2022.2.5,59.988650147172564,
L_Base_Y_Back,False,3,robot,1,False,True,robot_stimuli\L_Base_Y_Back.mp4,21,,,,,,,,,0,49,49,49,,,,,,,,,,,,,537.3473391000007,538.4252281000008,,,,,,,542.0459221000001,591.8260955000005,542.0459221000001,591.8260955000005,542.0459221000001,591.8260955000005,542.0459221000001,591.8260955000005,29.845679012345677,21.09528710000086,space,,,,49.72559239999828,,,,,,,537.3473391000007,537.3473391000007,None,,538.4252281000008,538.4252281000008,c,537.3473391000007,537.3473391000007,2.1610799999998562,,,21,001,2024-07-04_17h09.32.436,robot_nback_sign,2022.2.5,59.988650147172564,
L_Arm_X_Back,False,2,robot,1,True,False,robot_stimuli\L_Arm_X_Back.mp4,21,,,,,,,,,0,50,50,50,,,,,,,,,,,,,595.1806923000004,596.2603983000008,,,,,,,599.9083480000008,599.9083480000008,599.9083480000008,599.9083480000008,599.9083480000008,599.9083480000008,599.9083480000008,599.9083480000008,None,None,None,,,,,,,,,,,591.8260955000005,591.8260955000005,space,3.33750659999896,596.2603983000008,596.2603983000008,None,,,,,,21,001,2024-07-04_17h09.32.436,robot_nback_sign,2022.2.5,59.988650147172564,
L_Head_X_For,False,2,robot,1,False,False,robot_stimuli\L_Head_X_For.mp4,21,,,,,,,,,0,51,51,51,,,,,,,,,,,,,599.9083480000008,600.9922872000006,,,,,,,604.5767780000006,604.5767780000006,604.5767780000006,604.5767780000006,604.5767780000006,604.5767780000006,604.5767780000006,604.5767780000006,None,None,None,,,,,,,,,,,599.9083480000008,599.9083480000008,None,,600.9922872000006,600.9922872000006,n,599.9083480000008,599.9083480000008,2.9548836999983905,,,21,001,2024-07-04_17h09.32.436,robot_nback_sign,2022.2.5,59.988650147172564,
R_Head_Z_Back,False,2,robot,1,False,False,robot_stimuli\R_Head_Z_Back.mp4,21,,,,,,,,,0,52,52,52,,,,,,,,,,,,,604.5767780000006,605.6539444999999,,,,,,,609.2875285000009,609.2875285000009,609.2875285000009,609.2875285000009,609.2875285000009,609.2875285000009,609.2875285000009,609.2875285000009,None,None,None,,,,,,,,,,,604.5767780000006,604.5767780000006,None,,605.6539444999999,605.6539444999999,n,604.5767780000006,604.5767780000006,2.349951099999089,,,21,001,2024-07-04_17h09.32.436,robot_nback_sign,2022.2.5,59.988650147172564,
L_Base_Y_For,False,2,robot,1,False,False,robot_stimuli\L_Base_Y_For.mp4,21,,,,,,,,,0,53,53,53,,,,,,,,,,,,,609.2875285000009,610.3744157000001,,,,,,,613.9139792000005,613.9139792000005,613.9139792000005,613.9139792000005,613.9139792000005,613.9139792000005,613.9139792000005,613.9139792000005,None,None,None,,,,,,,,,,,609.2875285000009,609.2875285000009,None,,610.3744157000001,610.3744157000001,n,609.2875285000009,609.2875285000009,2.780460199999652,,,21,001,2024-07-04_17h09.32.436,robot_nback_sign,2022.2.5,59.988650147172564,
L_Base_Z_Back,False,2,robot,1,False,False,robot_stimuli\L_Base_Z_Back.mp4,21,,,,,,,,,0,54,54,54,,,,,,,,,,,,,613.9139792000005,614.9908900999999,,,,,,,618.6226860000006,618.6226860000006,618.6226860000006,618.6226860000006,618.6226860000006,618.6226860000006,618.6226860000006,618.6226860000006,None,None,None,,,,,,,,,,,613.9139792000005,613.9139792000005,None,,614.9908900999999,614.9908900999999,n,613.9139792000005,613.9139792000005,2.5164038999992044,,,21,001,2024-07-04_17h09.32.436,robot_nback_sign,2022.2.5,59.988650147172564,
L_Head_Z_Back,False,2,robot,1,False,False,robot_stimuli\L_Head_Z_Back.mp4,21,,,,,,,,,0,55,55,55,,,,,,,,,,,,,618.6226860000006,619.7090607999999,,,,,,,623.3633391000003,623.3633391000003,623.3633391000003,623.3633391000003,623.3633391000003,623.3633391000003,623.3633391000003,623.3633391000003,None,None,None,,,,,,,,,,,618.6226860000006,618.6226860000006,None,,619.7090607999999,619.7090607999999,None,618.6226860000006,618.6226860000006,,,,21,001,2024-07-04_17h09.32.436,robot_nback_sign,2022.2.5,59.988650147172564,
L_Base_Z_Back,True,2,robot,1,False,False,robot_stimuli\L_Base_Z_Back.mp4,21,,,,,,,,,0,56,56,56,,,,,,,,,,,,,623.3633391000003,624.4407413000008,,,,,,,628.0719588000011,628.0719588000011,628.0719588000011,628.0719588000011,628.0719588000011,628.0719588000011,628.0719588000011,628.0719588000011,None,None,None,,,,,,,,,,,623.3633391000003,623.3633391000003,None,,624.4407413000008,624.4407413000008,c,623.3633391000003,623.3633391000003,3.2982266999988497,,,21,001,2024-07-04_17h09.32.436,robot_nback_sign,2022.2.5,59.988650147172564,
R_Base_X_Back,False,2,robot,1,False,False,robot_stimuli\R_Base_X_Back.mp4,21,,,,,,,,,0,57,57,57,,,,,,,,,,,,,628.0719588000011,629.1577563999999,,,,,,,632.7881539000009,632.7881539000009,632.7881539000009,632.7881539000009,632.7881539000009,632.7881539000009,632.7881539000009,632.7881539000009,None,None,None,,,,,,,,,,,628.0719588000011,628.0719588000011,None,,629.1577563999999,629.1577563999999,None,628.0719588000011,628.0719588000011,,,,21,001,2024-07-04_17h09.32.436,robot_nback_sign,2022.2.5,59.988650147172564,
L_Base_Z_Back,True,2,robot,1,False,False,robot_stimuli\L_Base_Z_Back.mp4,21,,,,,,,,,0,58,58,58,,,,,,,,,,,,,632.7881539000009,633.8703127000008,,,,,,,637.514645700001,637.514645700001,637.514645700001,637.514645700001,637.514645700001,637.514645700001,637.514645700001,637.514645700001,None,None,None,,,,,,,,,,,632.7881539000009,632.7881539000009,None,,633.8703127000008,633.8703127000008,c,632.7881539000009,632.7881539000009,2.0214273999972647,,,21,001,2024-07-04_17h09.32.436,robot_nback_sign,2022.2.5,59.988650147172564,
R_Base_Y_Back,False,2,robot,1,False,False,robot_stimuli\R_Base_Y_Back.mp4,21,,,,,,,,,0,59,59,59,,,,,,,,,,,,,637.514645700001,638.5900916999999,,,,,,,642.2295012000013,642.2295012000013,642.2295012000013,642.2295012000013,642.2295012000013,642.2295012000013,642.2295012000013,642.2295012000013,None,None,None,,,,,,,,,,,637.514645700001,637.514645700001,None,,638.5900916999999,638.5900916999999,n,637.514645700001,637.514645700001,2.5729543999987072,,,21,001,2024-07-04_17h09.32.436,robot_nback_sign,2022.2.5,59.988650147172564,
L_Base_X_Back,False,2,robot,1,False,False,robot_stimuli\L_Base_X_Back.mp4,21,,,,,,,,,0,60,60,60,,,,,,,,,,,,,642.2295012000013,643.3080829999999,,,,,,,646.9145246999997,646.9145246999997,646.9145246999997,646.9145246999997,646.9145246999997,646.9145246999997,646.9145246999997,646.9145246999997,None,None,None,,,,,,,,,,,642.2295012000013,642.2295012000013,None,,643.3080829999999,643.3080829999999,None,642.2295012000013,642.2295012000013,,,,21,001,2024-07-04_17h09.32.436,robot_nback_sign,2022.2.5,59.988650147172564,
L_Arm_Z_Back,False,2,robot,1,False,False,robot_stimuli\L_Arm_Z_Back.mp4,21,,,,,,,,,0,61,61,61,,,,,,,,,,,,,646.9145246999997,647.9867929000011,,,,,,,651.6289336000009,651.6289336000009,651.6289336000009,651.6289336000009,651.6289336000009,651.6289336000009,651.6289336000009,651.6289336000009,None,None,None,,,,,,,,,,,646.9145246999997,646.9145246999997,None,,647.9867929000011,647.9867929000011,n,646.9145246999997,646.9145246999997,2.3679579999989073,,,21,001,2024-07-04_17h09.32.436,robot_nback_sign,2022.2.5,59.988650147172564,
L_Base_Z_Back,False,2,robot,1,False,False,robot_stimuli\L_Base_Z_Back.mp4,21,,,,,,,,,0,62,62,62,,,,,,,,,,,,,651.6289336000009,652.708449400001,,,,,,,656.3569513000002,656.3569513000002,656.3569513000002,656.3569513000002,656.3569513000002,656.3569513000002,656.3569513000002,656.3569513000002,None,None,None,,,,,,,,,,,651.6289336000009,651.6289336000009,None,,652.708449400001,652.708449400001,c,651.6289336000009,651.6289336000009,3.0468860999990284,,,21,001,2024-07-04_17h09.32.436,robot_nback_sign,2022.2.5,59.988650147172564,
L_Base_Y_Back,False,2,robot,1,False,False,robot_stimuli\L_Base_Y_Back.mp4,21,,,,,,,,,0,63,63,63,,,,,,,,,,,,,656.3569513000002,657.4966449000003,,,,,,,661.0792782999997,661.0792782999997,661.0792782999997,661.0792782999997,661.0792782999997,661.0792782999997,661.0792782999997,661.0792782999997,None,None,None,,,,,,,,,,,656.3569513000002,656.3569513000002,None,,657.4966449000003,657.4966449000003,n,656.3569513000002,656.3569513000002,3.050321199998507,,,21,001,2024-07-04_17h09.32.436,robot_nback_sign,2022.2.5,59.988650147172564,
L_Base_Z_Back,True,2,robot,1,False,False,robot_stimuli\L_Base_Z_Back.mp4,21,,,,,,,,,0,64,64,64,,,,,,,,,,,,,661.0792782999997,662.1588673000006,,,,,,,665.8095673999997,665.8095673999997,665.8095673999997,665.8095673999997,665.8095673999997,665.8095673999997,665.8095673999997,665.8095673999997,None,None,None,,,,,,,,,,,661.0792782999997,661.0792782999997,None,,662.1588673000006,662.1588673000006,c,661.0792782999997,661.0792782999997,3.2991535999990447,,,21,001,2024-07-04_17h09.32.436,robot_nback_sign,2022.2.5,59.988650147172564,
R_Head_X_For,False,2,robot,1,False,False,robot_stimuli\R_Head_X_For.mp4,21,,,,,,,,,0,65,65,65,,,,,,,,,,,,,665.8095673999997,666.8919844000011,,,,,,,670.5409011000011,670.5409011000011,670.5409011000011,670.5409011000011,670.5409011000011,670.5409011000011,670.5409011000011,670.5409011000011,None,None,None,,,,,,,,,,,665.8095673999997,665.8095673999997,None,,666.8919844000011,666.8919844000011,None,665.8095673999997,665.8095673999997,,,,21,001,2024-07-04_17h09.32.436,robot_nback_sign,2022.2.5,59.988650147172564,
L_Torso_Z_For,False,2,robot,1,False,False,robot_stimuli\L_Torso_Z_For.mp4,21,,,,,,,,,0,66,66,66,,,,,,,,,,,,,670.5409011000011,671.623892900001,,,,,,,675.2627647000008,675.2627647000008,675.2627647000008,675.2627647000008,675.2627647000008,675.2627647000008,675.2627647000008,675.2627647000008,None,None,None,,,,,,,,,,,670.5409011000011,670.5409011000011,None,,671.623892900001,671.623892900001,None,670.5409011000011,670.5409011000011,,,,21,001,2024-07-04_17h09.32.436,robot_nback_sign,2022.2.5,59.988650147172564,
L_Base_Y_For,False,2,robot,1,False,False,robot_stimuli\L_Base_Y_For.mp4,21,,,,,,,,,0,67,67,67,,,,,,,,,,,,,675.2627647000008,676.3434312000009,,,,,,,679.8991074000005,679.8991074000005,679.8991074000005,679.8991074000005,679.8991074000005,679.8991074000005,679.8991074000005,679.8991074000005,None,None,None,,,,,,,,,,,675.2627647000008,675.2627647000008,None,,676.3434312000009,676.3434312000009,n,675.2627647000008,675.2627647000008,3.283495399999083,,,21,001,2024-07-04_17h09.32.436,robot_nback_sign,2022.2.5,59.988650147172564,
R_Base_Z_Back,False,2,robot,1,False,False,robot_stimuli\R_Base_Z_Back.mp4,21,,,,,,,,,0,68,68,68,,,,,,,,,,,,,679.8991074000005,,,,,,,,684.5513459000013,684.5513459000013,684.5513459000013,684.5513459000013,684.5513459000013,684.5513459000013,684.5513459000013,684.5513459000013,None,None,None,,,,,,,,,,,679.8991074000005,679.8991074000005,None,,681.0059378000005,681.0059378000005,n,679.8991074000005,679.8991074000005,2.8773331999982474,,,21,001,2024-07-04_17h09.32.436,robot_nback_sign,2022.2.5,59.988650147172564,
L_Torso_Y_Back,False,2,robot,1,False,False,robot_stimuli\L_Torso_Y_Back.mp4,21,,,,,,,,,0,69,69,69,,,,,,,,,,,,,684.5513459000013,685.6572757000013,,,,,,,689.163866500001,689.163866500001,689.163866500001,689.163866500001,689.163866500001,689.163866500001,689.163866500001,689.163866500001,None,None,None,,,,,,,,,,,684.5513459000013,684.5513459000013,None,,685.6572757000013,685.6572757000013,n,684.5513459000013,684.5513459000013,2.9774433999973553,,,21,001,2024-07-04_17h09.32.436,robot_nback_sign,2022.2.5,59.988650147172564,
R_Arm_Z_Back,False,2,robot,1,False,False,robot_stimuli\R_Arm_Z_Back.mp4,21,,,,,,,,,0,70,70,70,,,,,,,,,,,,,689.163866500001,690.2412784999997,,,,,,,693.8718397000011,693.8718397000011,693.8718397000011,693.8718397000011,693.8718397000011,693.8718397000011,693.8718397000011,693.8718397000011,None,None,None,,,,,,,,,,,689.163866500001,689.163866500001,None,,690.2412784999997,690.2412784999997,None,689.163866500001,689.163866500001,,,,21,001,2024-07-04_17h09.32.436,robot_nback_sign,2022.2.5,59.988650147172564,
L_Arm_X_Back,False,2,robot,1,False,False,robot_stimuli\L_Arm_X_Back.mp4,21,,,,,,,,,0,71,71,71,,,,,,,,,,,,,693.8718397000011,694.9569979000007,,,,,,,698.5884855000004,698.5884855000004,698.5884855000004,698.5884855000004,698.5884855000004,698.5884855000004,698.5884855000004,698.5884855000004,None,None,None,,,,,,,,,,,693.8718397000011,693.8718397000011,None,,694.9569979000007,694.9569979000007,n,693.8718397000011,693.8718397000011,3.3343343999986246,,,21,001,2024-07-04_17h09.32.436,robot_nback_sign,2022.2.5,59.988650147172564,
R_Arm_Z_For,False,2,robot,1,False,False,robot_stimuli\R_Arm_Z_For.mp4,21,,,,,,,,,0,72,72,72,,,,,,,,,,,,,698.5884855000004,699.6732002000008,,,,,,,703.3126599000007,703.3126599000007,703.3126599000007,703.3126599000007,703.3126599000007,703.3126599000007,703.3126599000007,703.3126599000007,None,None,None,,,,,,,,,,,698.5884855000004,698.5884855000004,None,,699.6732002000008,699.6732002000008,c,698.5884855000004,698.5884855000004,2.8489676999997755,,,21,001,2024-07-04_17h09.32.436,robot_nback_sign,2022.2.5,59.988650147172564,
L_Base_Z_For,False,2,robot,1,False,False,robot_stimuli\L_Base_Z_For.mp4,21,,,,,,,,,0,73,73,73,,,,,,,,,,,,,703.3126599000007,704.3899047000014,,,,,,,708.0307491000003,708.0307491000003,708.0307491000003,708.0307491000003,708.0307491000003,708.0307491000003,708.0307491000003,708.0307491000003,None,None,None,,,,,,,,,,,703.3126599000007,703.3126599000007,None,,704.3899047000014,704.3899047000014,None,703.3126599000007,703.3126599000007,,,,21,001,2024-07-04_17h09.32.436,robot_nback_sign,2022.2.5,59.988650147172564,
R_Arm_Z_Back,False,2,robot,1,False,False,robot_stimuli\R_Arm_Z_Back.mp4,21,,,,,,,,,0,74,74,74,,,,,,,,,,,,,708.0307491000003,709.1076565000003,,,,,,,712.7468229000006,712.7468229000006,712.7468229000006,712.7468229000006,712.7468229000006,712.7468229000006,712.7468229000006,712.7468229000006,None,None,None,,,,,,,,,,,708.0307491000003,708.0307491000003,None,,709.1076565000003,709.1076565000003,None,708.0307491000003,708.0307491000003,,,,21,001,2024-07-04_17h09.32.436,robot_nback_sign,2022.2.5,59.988650147172564,
L_Head_X_For,False,2,robot,1,False,False,robot_stimuli\L_Head_X_For.mp4,21,,,,,,,,,0,75,75,75,,,,,,,,,,,,,712.7468229000006,713.8263819000003,,,,,,,717.4102081000001,717.4102081000001,717.4102081000001,717.4102081000001,717.4102081000001,717.4102081000001,717.4102081000001,717.4102081000001,None,None,None,,,,,,,,,,,712.7468229000006,712.7468229000006,None,,713.8263819000003,713.8263819000003,n,712.7468229000006,712.7468229000006,2.865290999998251,,,21,001,2024-07-04_17h09.32.436,robot_nback_sign,2022.2.5,59.988650147172564,
R_Arm_Z_Back,True,2,robot,1,False,False,robot_stimuli\R_Arm_Z_Back.mp4,21,,,,,,,,,0,76,76,76,,,,,,,,,,,,,717.4102081000001,718.4911626000012,,,,,,,722.1215634,722.1215634,722.1215634,722.1215634,722.1215634,722.1215634,722.1215634,722.1215634,None,None,None,,,,,,,,,,,717.4102081000001,717.4102081000001,None,,718.4911626000012,718.4911626000012,c,717.4102081000001,717.4102081000001,2.407908499999394,,,21,001,2024-07-04_17h09.32.436,robot_nback_sign,2022.2.5,59.988650147172564,
L_Head_X_Back,False,2,robot,1,False,False,robot_stimuli\L_Head_X_Back.mp4,21,,,,,,,,,0,77,77,77,,,,,,,,,,,,,722.1215634,723.2130173000005,,,,,,,726.8622198000012,726.8622198000012,726.8622198000012,726.8622198000012,726.8622198000012,726.8622198000012,726.8622198000012,726.8622198000012,None,None,None,,,,,,,,,,,722.1215634,722.1215634,None,,723.2130173000005,723.2130173000005,c,722.1215634,722.1215634,1.6305852999994386,,,21,001,2024-07-04_17h09.32.436,robot_nback_sign,2022.2.5,59.988650147172564,
L_Arm_Z_For,False,2,robot,1,False,False,robot_stimuli\L_Arm_Z_For.mp4,21,,,,,,,,,0,78,78,78,,,,,,,,,,,,,726.8622198000012,727.941519,,,,,,,731.5924350000005,731.5924350000005,731.5924350000005,731.5924350000005,731.5924350000005,731.5924350000005,731.5924350000005,731.5924350000005,None,None,None,,,,,,,,,,,726.8622198000012,726.8622198000012,None,,727.941519,727.941519,None,726.8622198000012,726.8622198000012,,,,21,001,2024-07-04_17h09.32.436,robot_nback_sign,2022.2.5,59.988650147172564,
R_Head_Z_Back,False,2,robot,1,False,False,robot_stimuli\R_Head_Z_Back.mp4,21,,,,,,,,,0,79,79,79,,,,,,,,,,,,,731.5924350000005,732.6742234000012,,,,,,,736.3178017000009,736.3178017000009,736.3178017000009,736.3178017000009,736.3178017000009,736.3178017000009,736.3178017000009,736.3178017000009,None,None,None,,,,,,,,,,,731.5924350000005,731.5924350000005,None,,732.6742234000012,732.6742234000012,None,731.5924350000005,731.5924350000005,,,,21,001,2024-07-04_17h09.32.436,robot_nback_sign,2022.2.5,59.988650147172564,
L_Arm_Z_For,True,2,robot,1,False,False,robot_stimuli\L_Arm_Z_For.mp4,21,,,,,,,,,0,80,80,80,,,,,,,,,,,,,736.3178017000009,737.4230079999998,,,,,,,741.0644085000004,741.0644085000004,741.0644085000004,741.0644085000004,741.0644085000004,741.0644085000004,741.0644085000004,741.0644085000004,None,None,None,,,,,,,,,,,736.3178017000009,736.3178017000009,None,,737.4230079999998,737.4230079999998,c,736.3178017000009,736.3178017000009,1.5398385999997117,,,21,001,2024-07-04_17h09.32.436,robot_nback_sign,2022.2.5,59.988650147172564,
R_Torso_Z_Back,False,2,robot,1,False,False,robot_stimuli\R_Torso_Z_Back.mp4,21,,,,,,,,,0,81,81,81,,,,,,,,,,,,,741.0644085000004,742.1383861000013,,,,,,,745.7933659999999,745.7933659999999,745.7933659999999,745.7933659999999,745.7933659999999,745.7933659999999,745.7933659999999,745.7933659999999,None,None,None,,,,,,,,,,,741.0644085000004,741.0644085000004,None,,742.1383861000013,742.1383861000013,n,741.0644085000004,741.0644085000004,1.9679013999993913,,,21,001,2024-07-04_17h09.32.436,robot_nback_sign,2022.2.5,59.988650147172564,
R_Head_X_Back,False,2,robot,1,False,False,robot_stimuli\R_Head_X_Back.mp4,21,,,,,,,,,0,82,82,82,,,,,,,,,,,,,745.7933659999999,746.8743854000004,,,,,,,750.5281632000006,750.5281632000006,750.5281632000006,750.5281632000006,750.5281632000006,750.5281632000006,750.5281632000006,750.5281632000006,None,None,None,,,,,,,,,,,745.7933659999999,745.7933659999999,None,,746.8743854000004,746.8743854000004,n,745.7933659999999,745.7933659999999,2.6090690000000905,,,21,001,2024-07-04_17h09.32.436,robot_nback_sign,2022.2.5,59.988650147172564,
R_Torso_Z_Back,True,2,robot,1,False,False,robot_stimuli\R_Torso_Z_Back.mp4,21,,,,,,,,,0,83,83,83,,,,,,,,,,,,,750.5281632000006,751.6082826000002,,,,,,,755.2585454,755.2585454,755.2585454,755.2585454,755.2585454,755.2585454,755.2585454,755.2585454,None,None,None,,,,,,,,,,,750.5281632000006,750.5281632000006,None,,751.6082826000002,751.6082826000002,c,750.5281632000006,750.5281632000006,3.2822820999990654,,,21,001,2024-07-04_17h09.32.436,robot_nback_sign,2022.2.5,59.988650147172564,
R_Head_X_Back,True,2,robot,1,False,False,robot_stimuli\R_Head_X_Back.mp4,21,,,,,,,,,0,84,84,84,,,,,,,,,,,,,755.2585454,756.3403377000013,,,,,,,759.9803527000004,759.9803527000004,759.9803527000004,759.9803527000004,759.9803527000004,759.9803527000004,759.9803527000004,759.9803527000004,None,None,None,,,,,,,,,,,755.2585454,755.2585454,None,,756.3403377000013,756.3403377000013,c,755.2585454,755.2585454,2.6295475999995688,,,21,001,2024-07-04_17h09.32.436,robot_nback_sign,2022.2.5,59.988650147172564,
R_Torso_Z_Back,True,2,robot,1,False,False,robot_stimuli\R_Torso_Z_Back.mp4,21,,,,,,,,,0,85,85,85,,,,,,,,,,,,,759.9803527000004,761.0599492000001,,,,,,,764.7102358000011,764.7102358000011,764.7102358000011,764.7102358000011,764.7102358000011,764.7102358000011,764.7102358000011,764.7102358000011,None,None,None,,,,,,,,,,,759.9803527000004,759.9803527000004,None,,761.0599492000001,761.0599492000001,None,759.9803527000004,759.9803527000004,,,,21,001,2024-07-04_17h09.32.436,robot_nback_sign,2022.2.5,59.988650147172564,
R_Head_X_Back,True,2,robot,1,False,False,robot_stimuli\R_Head_X_Back.mp4,21,,,,,,,,,0,86,86,86,,,,,,,,,,,,,764.7102358000011,765.7871489000008,,,,,,,769.4216808000001,769.4216808000001,769.4216808000001,769.4216808000001,769.4216808000001,769.4216808000001,769.4216808000001,769.4216808000001,None,None,None,,,,,,,,,,,764.7102358000011,764.7102358000011,None,,765.7871489000008,765.7871489000008,n,764.7102358000011,764.7102358000011,2.4715777000001253,,,21,001,2024-07-04_17h09.32.436,robot_nback_sign,2022.2.5,59.988650147172564,
L_Arm_X_Back,False,2,robot,1,False,False,robot_stimuli\L_Arm_X_Back.mp4,21,,,,,,,,,0,87,87,87,,,,,,,,,,,,,769.4216808000001,770.5029193000009,,,,,,,774.1472183000005,774.1472183000005,774.1472183000005,774.1472183000005,774.1472183000005,774.1472183000005,774.1472183000005,774.1472183000005,None,None,None,,,,,,,,,,,769.4216808000001,769.4216808000001,None,,770.5029193000009,770.5029193000009,None,769.4216808000001,769.4216808000001,,,,21,001,2024-07-04_17h09.32.436,robot_nback_sign,2022.2.5,59.988650147172564,
L_Base_Y_Back,False,2,robot,1,False,False,robot_stimuli\L_Base_Y_Back.mp4,21,,,,,,,,,0,88,88,88,,,,,,,,,,,,,774.1472183000005,775.2262812000008,,,,,,,778.812015200001,778.812015200001,778.812015200001,778.812015200001,778.812015200001,778.812015200001,778.812015200001,778.812015200001,None,None,None,,,,,,,,,,,774.1472183000005,774.1472183000005,None,,775.2262812000008,775.2262812000008,n,774.1472183000005,774.1472183000005,3.103871399998752,,,21,001,2024-07-04_17h09.32.436,robot_nback_sign,2022.2.5,59.988650147172564,
R_Base_Z_For,False,2,robot,1,False,False,robot_stimuli\R_Base_Z_For.mp4,21,,,,,,,,,0,89,89,89,,,,,,,,,,,,,778.812015200001,779.8897678000012,,,,,,,783.5218330000007,783.5218330000007,783.5218330000007,783.5218330000007,783.5218330000007,783.5218330000007,783.5218330000007,783.5218330000007,None,None,None,,,,,,,,,,,778.812015200001,778.812015200001,None,,779.8897678000012,779.8897678000012,n,778.812015200001,778.812015200001,3.440847299998495,,,21,001,2024-07-04_17h09.32.436,robot_nback_sign,2022.2.5,59.988650147172564,
L_Base_Y_Back,True,2,robot,1,False,False,robot_stimuli\L_Base_Y_Back.mp4,21,,,,,,,,,0,90,90,90,,,,,,,,,,,,,783.5218330000007,784.6083660000004,,,,,,,788.1923438000013,788.1923438000013,788.1923438000013,788.1923438000013,788.1923438000013,788.1923438000013,788.1923438000013,788.1923438000013,None,None,None,,,,,,,,,,,783.5218330000007,783.5218330000007,None,,784.6083660000004,784.6083660000004,n,783.5218330000007,783.5218330000007,3.2901267999986885,,,21,001,2024-07-04_17h09.32.436,robot_nback_sign,2022.2.5,59.988650147172564,
L_Arm_Z_For,False,2,robot,1,False,False,robot_stimuli\L_Arm_Z_For.mp4,21,,,,,,,,,0,91,91,91,,,,,,,,,,,,,788.1923438000013,789.2767494,,,,,,,792.927314300001,792.927314300001,792.927314300001,792.927314300001,792.927314300001,792.927314300001,792.927314300001,792.927314300001,None,None,None,,,,,,,,,,,788.1923438000013,788.1923438000013,None,,789.2767494,789.2767494,None,788.1923438000013,788.1923438000013,,,,21,001,2024-07-04_17h09.32.436,robot_nback_sign,2022.2.5,59.988650147172564,
L_Arm_X_Back,False,2,robot,1,False,False,robot_stimuli\L_Arm_X_Back.mp4,21,,,,,,,,,0,92,92,92,,,,,,,,,,,,,792.927314300001,794.0065051000001,,,,,,,797.6472254,797.6472254,797.6472254,797.6472254,797.6472254,797.6472254,797.6472254,797.6472254,None,None,None,,,,,,,,,,,792.927314300001,792.927314300001,None,,794.0065051000001,794.0065051000001,None,792.927314300001,792.927314300001,,,,21,001,2024-07-04_17h09.32.436,robot_nback_sign,2022.2.5,59.988650147172564,
R_Arm_X_For,False,2,robot,1,False,False,robot_stimuli\R_Arm_X_For.mp4,21,,,,,,,,,0,93,93,93,,,,,,,,,,,,,797.6472254,798.7231494000007,,,,,,,802.3617147000004,802.3617147000004,802.3617147000004,802.3617147000004,802.3617147000004,802.3617147000004,802.3617147000004,802.3617147000004,None,None,None,,,,,,,,,,,797.6472254,797.6472254,None,,798.7231494000007,798.7231494000007,None,797.6472254,797.6472254,,,,21,001,2024-07-04_17h09.32.436,robot_nback_sign,2022.2.5,59.988650147172564,
L_Base_Y_For,False,2,robot,1,False,False,robot_stimuli\L_Base_Y_For.mp4,21,,,,,,,,,0,94,94,94,,,,,,,,,,,,,802.3617147000004,803.4390103000005,,,,,,,806.9916462000001,806.9916462000001,806.9916462000001,806.9916462000001,806.9916462000001,806.9916462000001,806.9916462000001,806.9916462000001,None,None,None,,,,,,,,,,,802.3617147000004,802.3617147000004,None,,803.4390103000005,803.4390103000005,None,802.3617147000004,802.3617147000004,,,,21,001,2024-07-04_17h09.32.436,robot_nback_sign,2022.2.5,59.988650147172564,
L_Arm_X_Back,False,2,robot,1,False,False,robot_stimuli\L_Arm_X_Back.mp4,21,,,,,,,,,0,95,95,95,,,,,,,,,,,,,806.9916462000001,808.0740526999998,,,,,,,811.7138267999999,811.7138267999999,811.7138267999999,811.7138267999999,811.7138267999999,811.7138267999999,811.7138267999999,811.7138267999999,None,None,None,,,,,,,,,,,806.9916462000001,806.9916462000001,None,,808.0740526999998,808.0740526999998,None,806.9916462000001,806.9916462000001,,,,21,001,2024-07-04_17h09.32.436,robot_nback_sign,2022.2.5,59.988650147172564,
R_Base_Y_For,False,2,robot,1,False,False,robot_stimuli\R_Base_Y_For.mp4,21,,,,,,,,,0,96,96,96,,,,,,,,,,,,,811.7138267999999,812.7968228999998,,,,,,,816.4375823000009,816.4375823000009,816.4375823000009,816.4375823000009,816.4375823000009,816.4375823000009,816.4375823000009,816.4375823000009,None,None,None,,,,,,,,,,,811.7138267999999,811.7138267999999,None,,812.7968228999998,812.7968228999998,n,811.7138267999999,811.7138267999999,1.6619352999987314,,,21,001,2024-07-04_17h09.32.436,robot_nback_sign,2022.2.5,59.988650147172564,
L_Torso_Y_For,False,2,robot,1,False,False,robot_stimuli\L_Torso_Y_For.mp4,21,,,,,,,,,0,97,97,97,,,,,,,,,,,,,816.4375823000009,817.5251636000012,,,,,,,821.1749084000003,821.1749084000003,821.1749084000003,821.1749084000003,821.1749084000003,821.1749084000003,821.1749084000003,821.1749084000003,None,None,None,,,,,,,,,,,816.4375823000009,816.4375823000009,None,,817.5251636000012,817.5251636000012,None,816.4375823000009,816.4375823000009,,,,21,001,2024-07-04_17h09.32.436,robot_nback_sign,2022.2.5,59.988650147172564,
L_Torso_Z_Back,False,2,robot,1,False,False,robot_stimuli\L_Torso_Z_Back.mp4,21,,,,,,,,,0,98,98,98,,,,,,,,,,,,,821.1749084000003,822.2588389000011,,,,,,,825.7767635,825.7767635,825.7767635,825.7767635,825.7767635,825.7767635,825.7767635,825.7767635,None,None,None,,,,,,,,,,,821.1749084000003,821.1749084000003,None,,822.2588389000011,822.2588389000011,n,821.1749084000003,821.1749084000003,2.3915261999973154,,,21,001,2024-07-04_17h09.32.436,robot_nback_sign,2022.2.5,59.988650147172564,
R_Base_Z_For,False,2,robot,1,False,True,robot_stimuli\R_Base_Z_For.mp4,21,,,,,,,,,0,99,99,99,,,,,,,,,,,,,825.7767635,826.8601892000006,,,,,,,830.5453531000003,840.0018680000012,830.5453531000003,840.0018680000012,830.5453531000003,840.0018680000012,830.5453531000003,840.0018680000012,39.413580246913575,5.5094964999989315,space,,,,9.401821199997357,,,,,,,825.7767635,825.7767635,None,,826.8601892000006,826.8601892000006,None,825.7767635,825.7767635,,,,21,001,2024-07-04_17h09.32.436,robot_nback_sign,2022.2.5,59.988650147172564,
L_Arm_Z_For,False,1,robot,1,True,False,robot_stimuli\L_Arm_Z_For.mp4,21,,,,,,,,,0,100,100,100,,,,,,,,,,,,,848.6306511000003,849.710853300001,,,,,,,853.3579485999999,853.3579485999999,853.3579485999999,853.3579485999999,853.3579485999999,853.3579485999999,853.3579485999999,853.3579485999999,None,None,None,,,,,,,,,,,840.0018680000012,840.0018680000012,space,8.600918999998612,849.710853300001,849.710853300001,None,,,,,,21,001,2024-07-04_17h09.32.436,robot_nback_sign,2022.2.5,59.988650147172564,
L_Torso_Z_For,False,1,robot,1,False,False,robot_stimuli\L_Torso_Z_For.mp4,21,,,,,,,,,0,101,101,101,,,,,,,,,,,,,853.3579485999999,854.4389092000001,,,,,,,858.0797201000005,858.0797201000005,858.0797201000005,858.0797201000005,858.0797201000005,858.0797201000005,858.0797201000005,858.0797201000005,None,None,None,,,,,,,,,,,853.3579485999999,853.3579485999999,None,,854.4389092000001,854.4389092000001,n,853.3579485999999,853.3579485999999,2.931502099998397,,,21,001,2024-07-04_17h09.32.436,robot_nback_sign,2022.2.5,59.988650147172564,
L_Arm_Y_For,False,1,robot,1,False,False,robot_stimuli\L_Arm_Y_For.mp4,21,,,,,,,,,0,102,102,102,,,,,,,,,,,,,858.0797201000005,859.1587065000003,,,,,,,862.8064508000007,862.8064508000007,862.8064508000007,862.8064508000007,862.8064508000007,862.8064508000007,862.8064508000007,862.8064508000007,None,None,None,,,,,,,,,,,858.0797201000005,858.0797201000005,None,,859.1587065000003,859.1587065000003,None,858.0797201000005,858.0797201000005,,,,21,001,2024-07-04_17h09.32.436,robot_nback_sign,2022.2.5,59.988650147172564,
R_Arm_X_For,False,1,robot,1,False,False,robot_stimuli\R_Arm_X_For.mp4,21,,,,,,,,,0,103,103,103,,,,,,,,,,,,,862.8064508000007,863.8897087000005,,,,,,,867.5281357000003,867.5281357000003,867.5281357000003,867.5281357000003,867.5281357000003,867.5281357000003,867.5281357000003,867.5281357000003,None,None,None,,,,,,,,,,,862.8064508000007,862.8064508000007,None,,863.8897087000005,863.8897087000005,n,862.8064508000007,862.8064508000007,1.7541303999987576,,,21,001,2024-07-04_17h09.32.436,robot_nback_sign,2022.2.5,59.988650147172564,
R_Arm_X_For,True,1,robot,1,False,False,robot_stimuli\R_Arm_X_For.mp4,21,,,,,,,,,0,104,104,104,,,,,,,,,,,,,867.5281357000003,868.6001207999998,,,,,,,872.2422992000011,872.2422992000011,872.2422992000011,872.2422992000011,872.2422992000011,872.2422992000011,872.2422992000011,872.2422992000011,None,None,None,,,,,,,,,,,867.5281357000003,867.5281357000003,None,,868.6001207999998,868.6001207999998,c,867.5281357000003,867.5281357000003,2.3461957999988954,,,21,001,2024-07-04_17h09.32.436,robot_nback_sign,2022.2.5,59.988650147172564,
R_Arm_X_For,True,1,robot,1,False,False,robot_stimuli\R_Arm_X_For.mp4,21,,,,,,,,,0,105,105,105,,,,,,,,,,,,,872.2422992000011,873.3202875000006,,,,,,,876.9604950000012,876.9604950000012,876.9604950000012,876.9604950000012,876.9604950000012,876.9604950000012,876.9604950000012,876.9604950000012,None,None,None,,,,,,,,,,,872.2422992000011,872.2422992000011,None,,873.3202875000006,873.3202875000006,c,872.2422992000011,872.2422992000011,2.314124399998036,,,21,001,2024-07-04_17h09.32.436,robot_nback_sign,2022.2.5,59.988650147172564,
L_Torso_Y_For,False,1,robot,1,False,False,robot_stimuli\L_Torso_Y_For.mp4,21,,,,,,,,,0,106,106,106,,,,,,,,,,,,,876.9604950000012,878.0406061000012,,,,,,,881.6706505000002,881.6706505000002,881.6706505000002,881.6706505000002,881.6706505000002,881.6706505000002,881.6706505000002,881.6706505000002,None,None,None,,,,,,,,,,,876.9604950000012,876.9604950000012,None,,878.0406061000012,878.0406061000012,n,876.9604950000012,876.9604950000012,2.3931025999991107,,,21,001,2024-07-04_17h09.32.436,robot_nback_sign,2022.2.5,59.988650147172564,
R_Base_Z_For,False,1,robot,1,False,False,robot_stimuli\R_Base_Z_For.mp4,21,,,,,,,,,0,107,107,107,,,,,,,,,,,,,881.6706505000002,882.7592273000009,,,,,,,886.4082090000011,886.4082090000011,886.4082090000011,886.4082090000011,886.4082090000011,886.4082090000011,886.4082090000011,886.4082090000011,None,None,None,,,,,,,,,,,881.6706505000002,881.6706505000002,None,,882.7592273000009,882.7592273000009,n,881.6706505000002,881.6706505000002,1.6106105999988358,,,21,001,2024-07-04_17h09.32.436,robot_nback_sign,2022.2.5,59.988650147172564,
L_Arm_Z_For,False,1,robot,1,False,False,robot_stimuli\L_Arm_Z_For.mp4,21,,,,,,,,,0,108,108,108,,,,,,,,,,,,,886.4082090000011,887.4900162000013,,,,,,,891.1305147000003,891.1305147000003,891.1305147000003,891.1305147000003,891.1305147000003,891.1305147000003,891.1305147000003,891.1305147000003,None,None,None,,,,,,,,,,,886.4082090000011,886.4082090000011,None,,887.4900162000013,887.4900162000013,n,886.4082090000011,886.4082090000011,2.2398961999988387,,,21,001,2024-07-04_17h09.32.436,robot_nback_sign,2022.2.5,59.988650147172564,
R_Head_Z_For,False,1,robot,1,False,False,robot_stimuli\R_Head_Z_For.mp4,21,,,,,,,,,0,109,109,109,,,,,,,,,,,,,891.1305147000003,892.2079050000011,,,,,,,895.8470041,895.8470041,895.8470041,895.8470041,895.8470041,895.8470041,895.8470041,895.8470041,None,None,None,,,,,,,,,,,891.1305147000003,891.1305147000003,None,,892.2079050000011,892.2079050000011,n,891.1305147000003,891.1305147000003,2.07512769999812,,,21,001,2024-07-04_17h09.32.436,robot_nback_sign,2022.2.5,59.988650147172564,
L_Head_Y_Back,False,1,robot,1,False,False,robot_stimuli\L_Head_Y_Back.mp4,21,,,,,,,,,0,110,110,110,,,,,,,,,,,,,895.8470041,896.9252388000004,,,,,,,900.5758461000005,900.5758461000005,900.5758461000005,900.5758461000005,900.5758461000005,900.5758461000005,900.5758461000005,900.5758461000005,None,None,None,,,,,,,,,,,895.8470041,895.8470041,None,,896.9252388000004,896.9252388000004,n,895.8470041,895.8470041,1.7576523999996425,,,21,001,2024-07-04_17h09.32.436,robot_nback_sign,2022.2.5,59.988650147172564,
L_Base_Y_For,False,1,robot,1,False,False,robot_stimuli\L_Base_Y_For.mp4,21,,,,,,,,,0,111,111,111,,,,,,,,,,,,,900.5758461000005,901.6592954999996,,,,,,,905.208150800001,905.208150800001,905.208150800001,905.208150800001,905.208150800001,905.208150800001,905.208150800001,905.208150800001,None,None,None,,,,,,,,,,,900.5758461000005,900.5758461000005,None,,901.6592954999996,901.6592954999996,n,900.5758461000005,900.5758461000005,2.7992224999998143,,,21,001,2024-07-04_17h09.32.436,robot_nback_sign,2022.2.5,59.988650147172564,
R_Arm_Z_For,False,1,robot,1,False,False,robot_stimuli\R_Arm_Z_For.mp4,21,,,,,,,,,0,112,112,112,,,,,,,,,,,,,905.208150800001,906.2848750000012,,,,,,,909.9280182000002,909.9280182000002,909.9280182000002,909.9280182000002,909.9280182000002,909.9280182000002,909.9280182000002,909.9280182000002,None,None,None,,,,,,,,,,,905.208150800001,905.208150800001,None,,906.2848750000012,906.2848750000012,n,905.208150800001,905.208150800001,2.2387116999998398,,,21,001,2024-07-04_17h09.32.436,robot_nback_sign,2022.2.5,59.988650147172564,
R_Arm_Y_For,False,1,robot,1,False,False,robot_stimuli\R_Arm_Y_For.mp4,21,,,,,,,,,0,113,113,113,,,,,,,,,,,,,909.9280182000002,911.0103217000014,,,,,,,914.5291436000007,914.5291436000007,914.5291436000007,914.5291436000007,914.5291436000007,914.5291436000007,914.5291436000007,914.5291436000007,None,None,None,,,,,,,,,,,909.9280182000002,909.9280182000002,None,,911.0103217000014,911.0103217000014,n,909.9280182000002,909.9280182000002,3.063685199998872,,,21,001,2024-07-04_17h09.32.436,robot_nback_sign,2022.2.5,59.988650147172564,
R_Arm_Z_Back,False,1,robot,1,False,False,robot_stimuli\R_Arm_Z_Back.mp4,21,,,,,,,,,0,114,114,114,,,,,,,,,,,,,914.5291436000007,915.6093841000002,,,,,,,919.2580479000007,919.2580479000007,919.2580479000007,919.2580479000007,919.2580479000007,919.2580479000007,919.2580479000007,919.2580479000007,None,None,None,,,,,,,,,,,914.5291436000007,914.5291436000007,None,,915.6093841000002,915.6093841000002,c,914.5291436000007,914.5291436000007,1.7696777999990445,,,21,001,2024-07-04_17h09.32.436,robot_nback_sign,2022.2.5,59.988650147172564,
L_Base_X_Back,False,1,robot,1,False,False,robot_stimuli\L_Base_X_Back.mp4,21,,,,,,,,,0,115,115,115,,,,,,,,,,,,,919.2580479000007,920.3416107000012,,,,,,,923.9589448000006,923.9589448000006,923.9589448000006,923.9589448000006,923.9589448000006,923.9589448000006,923.9589448000006,923.9589448000006,None,None,None,,,,,,,,,,,919.2580479000007,919.2580479000007,None,,920.3416107000012,920.3416107000012,None,919.2580479000007,919.2580479000007,,,,21,001,2024-07-04_17h09.32.436,robot_nback_sign,2022.2.5,59.988650147172564,
L_Base_X_Back,True,1,robot,1,False,False,robot_stimuli\L_Base_X_Back.mp4,21,,,,,,,,,0,116,116,116,,,,,,,,,,,,,923.9589448000006,925.0393339000002,,,,,,,928.6444632000002,928.6444632000002,928.6444632000002,928.6444632000002,928.6444632000002,928.6444632000002,928.6444632000002,928.6444632000002,None,None,None,,,,,,,,,,,923.9589448000006,923.9589448000006,None,,925.0393339000002,925.0393339000002,c,923.9589448000006,923.9589448000006,3.059227899997495,,,21,001,2024-07-04_17h09.32.436,robot_nback_sign,2022.2.5,59.988650147172564,
L_Base_Z_Back,False,1,robot,1,False,False,robot_stimuli\L_Base_Z_Back.mp4,21,,,,,,,,,0,117,117,117,,,,,,,,,,,,,928.6444632000002,929.7235099000009,,,,,,,933.3629127000004,933.3629127000004,933.3629127000004,933.3629127000004,933.3629127000004,933.3629127000004,933.3629127000004,933.3629127000004,None,None,None,,,,,,,,,,,928.6444632000002,928.6444632000002,None,,929.7235099000009,929.7235099000009,c,928.6444632000002,928.6444632000002,3.183474399998886,,,21,001,2024-07-04_17h09.32.436,robot_nback_sign,2022.2.5,59.988650147172564,
R_Head_X_Back,False,1,robot,1,False,False,robot_stimuli\R_Head_X_Back.mp4,21,,,,,,,,,0,118,118,118,,,,,,,,,,,,,933.3629127000004,934.4411478000002,,,,,,,938.0706473999999,938.0706473999999,938.0706473999999,938.0706473999999,938.0706473999999,938.0706473999999,938.0706473999999,938.0706473999999,None,None,None,,,,,,,,,,,933.3629127000004,933.3629127000004,None,,934.4411478000002,934.4411478000002,n,933.3629127000004,933.3629127000004,1.6886586000000534,,,21,001,2024-07-04_17h09.32.436,robot_nback_sign,2022.2.5,59.988650147172564,
L_Torso_X_Back,False,1,robot,1,False,False,robot_stimuli\L_Torso_X_Back.mp4,21,,,,,,,,,0,119,119,119,,,,,,,,,,,,,938.0706473999999,939.1582349,,,,,,,942.7959317000004,942.7959317000004,942.7959317000004,942.7959317000004,942.7959317000004,942.7959317000004,942.7959317000004,942.7959317000004,None,None,None,,,,,,,,,,,938.0706473999999,938.0706473999999,None,,939.1582349,939.1582349,n,938.0706473999999,938.0706473999999,2.0922336999992694,,,21,001,2024-07-04_17h09.32.436,robot_nback_sign,2022.2.5,59.988650147172564,
R_Head_X_Back,False,1,robot,1,False,False,robot_stimuli\R_Head_X_Back.mp4,21,,,,,,,,,0,120,120,120,,,,,,,,,,,,,942.7959317000004,943.8882463999998,,,,,,,947.5299501999998,947.5299501999998,947.5299501999998,947.5299501999998,947.5299501999998,947.5299501999998,947.5299501999998,947.5299501999998,None,None,None,,,,,,,,,,,942.7959317000004,942.7959317000004,None,,943.8882463999998,943.8882463999998,n,942.7959317000004,942.7959317000004,1.9535358999983146,,,21,001,2024-07-04_17h09.32.436,robot_nback_sign,2022.2.5,59.988650147172564,
R_Torso_Y_Back,False,1,robot,1,False,False,robot_stimuli\R_Torso_Y_Back.mp4,21,,,,,,,,,0,121,121,121,,,,,,,,,,,,,947.5299501999998,948.6041206000009,,,,,,,952.244953200001,952.244953200001,952.244953200001,952.244953200001,952.244953200001,952.244953200001,952.244953200001,952.244953200001,None,None,None,,,,,,,,,,,947.5299501999998,947.5299501999998,None,,948.6041206000009,948.6041206000009,n,947.5299501999998,947.5299501999998,2.9099880999983725,,,21,001,2024-07-04_17h09.32.436,robot_nback_sign,2022.2.5,59.988650147172564,
R_Torso_Y_Back,True,1,robot,1,False,False,robot_stimuli\R_Torso_Y_Back.mp4,21,,,,,,,,,0,122,122,122,,,,,,,,,,,,,952.244953200001,953.323752100001,,,,,,,956.9548138000009,956.9548138000009,956.9548138000009,956.9548138000009,956.9548138000009,956.9548138000009,956.9548138000009,956.9548138000009,None,None,None,,,,,,,,,,,952.244953200001,952.244953200001,None,,953.323752100001,953.323752100001,c,952.244953200001,952.244953200001,2.3744722999999794,,,21,001,2024-07-04_17h09.32.436,robot_nback_sign,2022.2.5,59.988650147172564,
R_Torso_Z_For,False,1,robot,1,False,False,robot_stimuli\R_Torso_Z_For.mp4,21,,,,,,,,,0,123,123,123,,,,,,,,,,,,,956.9548138000009,958.0411236,,,,,,,961.6904892000002,961.6904892000002,961.6904892000002,961.6904892000002,961.6904892000002,961.6904892000002,961.6904892000002,961.6904892000002,None,None,None,,,,,,,,,,,956.9548138000009,956.9548138000009,None,,958.0411236,958.0411236,n,956.9548138000009,956.9548138000009,2.505184099998587,,,21,001,2024-07-04_17h09.32.436,robot_nback_sign,2022.2.5,59.988650147172564,
R_Base_Z_Back,False,1,robot,1,False,False,robot_stimuli\R_Base_Z_Back.mp4,21,,,,,,,,,0,124,124,124,,,,,,,,,,,,,961.6904892000002,962.769523500001,,,,,,,966.3121220000012,966.3121220000012,966.3121220000012,966.3121220000012,966.3121220000012,966.3121220000012,966.3121220000012,966.3121220000012,None,None,None,,,,,,,,,,,961.6904892000002,961.6904892000002,None,,962.769523500001,962.769523500001,n,961.6904892000002,961.6904892000002,3.13729339999918,,,21,001,2024-07-04_17h09.32.436,robot_nback_sign,2022.2.5,59.988650147172564,
L_Head_Z_For,False,1,robot,1,False,False,robot_stimuli\L_Head_Z_For.mp4,21,,,,,,,,,0,125,125,125,,,,,,,,,,,,,966.3121220000012,967.3890673000005,,,,,,,971.0428078000004,971.0428078000004,971.0428078000004,971.0428078000004,971.0428078000004,971.0428078000004,971.0428078000004,971.0428078000004,None,None,None,,,,,,,,,,,966.3121220000012,966.3121220000012,None,,967.3890673000005,967.3890673000005,None,966.3121220000012,966.3121220000012,,,,21,001,2024-07-04_17h09.32.436,robot_nback_sign,2022.2.5,59.988650147172564,
R_Arm_Z_For,False,1,robot,1,False,False,robot_stimuli\R_Arm_Z_For.mp4,21,,,,,,,,,0,126,126,126,,,,,,,,,,,,,971.0428078000004,972.1242031000002,,,,,,,975.7561158000008,975.7561158000008,975.7561158000008,975.7561158000008,975.7561158000008,975.7561158000008,975.7561158000008,975.7561158000008,None,None,None,,,,,,,,,,,971.0428078000004,971.0428078000004,None,,972.1242031000002,972.1242031000002,n,971.0428078000004,971.0428078000004,2.469472400000086,,,21,001,2024-07-04_17h09.32.436,robot_nback_sign,2022.2.5,59.988650147172564,
L_Torso_X_For,False,1,robot,1,False,False,robot_stimuli\L_Torso_X_For.mp4,21,,,,,,,,,0,127,127,127,,,,,,,,,,,,,975.7561158000008,976.8417100000006,,,,,,,980.4922597000004,980.4922597000004,980.4922597000004,980.4922597000004,980.4922597000004,980.4922597000004,980.4922597000004,980.4922597000004,None,None,None,,,,,,,,,,,975.7561158000008,975.7561158000008,None,,976.8417100000006,976.8417100000006,n,975.7561158000008,975.7561158000008,3.328448699998262,,,21,001,2024-07-04_17h09.32.436,robot_nback_sign,2022.2.5,59.988650147172564,
R_Base_Y_For,False,1,robot,1,False,False,robot_stimuli\R_Base_Y_For.mp4,21,,,,,,,,,0,128,128,128,,,,,,,,,,,,,980.4922597000004,981.5751247000007,,,,,,,985.2039536000011,985.2039536000011,985.2039536000011,985.2039536000011,985.2039536000011,985.2039536000011,985.2039536000011,985.2039536000011,None,None,None,,,,,,,,,,,980.4922597000004,980.4922597000004,None,,981.5751247000007,981.5751247000007,n,980.4922597000004,980.4922597000004,2.97910359999878,,,21,001,2024-07-04_17h09.32.436,robot_nback_sign,2022.2.5,59.988650147172564,
R_Torso_Z_For,False,1,robot,1,False,False,robot_stimuli\R_Torso_Z_For.mp4,21,,,,,,,,,0,129,129,129,,,,,,,,,,,,,985.2039536000011,986.2903910000005,,,,,,,989.9253495000012,989.9253495000012,989.9253495000012,989.9253495000012,989.9253495000012,989.9253495000012,989.9253495000012,989.9253495000012,None,None,None,,,,,,,,,,,985.2039536000011,985.2039536000011,None,,986.2903910000005,986.2903910000005,n,985.2039536000011,985.2039536000011,2.392777599998226,,,21,001,2024-07-04_17h09.32.436,robot_nback_sign,2022.2.5,59.988650147172564,
R_Torso_Z_For,True,1,robot,1,False,False,robot_stimuli\R_Torso_Z_For.mp4,21,,,,,,,,,0,130,130,130,,,,,,,,,,,,,989.9253495000012,991.0158788999997,,,,,,,994.6591664000007,994.6591664000007,994.6591664000007,994.6591664000007,994.6591664000007,994.6591664000007,994.6591664000007,994.6591664000007,None,None,None,,,,,,,,,,,989.9253495000012,989.9253495000012,None,,991.0158788999997,991.0158788999997,c,989.9253495000012,989.9253495000012,1.8430860999997094,,,21,001,2024-07-04_17h09.32.436,robot_nback_sign,2022.2.5,59.988650147172564,
L_Arm_X_Back,False,1,robot,1,False,False,robot_stimuli\L_Arm_X_Back.mp4,21,,,,,,,,,0,131,131,131,,,,,,,,,,,,,994.6591664000007,995.7435721000002,,,,,,,999.3939191000009,999.3939191000009,999.3939191000009,999.3939191000009,999.3939191000009,999.3939191000009,999.3939191000009,999.3939191000009,None,None,None,,,,,,,,,,,994.6591664000007,994.6591664000007,None,,995.7435721000002,995.7435721000002,n,994.6591664000007,994.6591664000007,3.3711919999987003,,,21,001,2024-07-04_17h09.32.436,robot_nback_sign,2022.2.5,59.988650147172564,
R_Base_Z_Back,False,1,robot,1,False,False,robot_stimuli\R_Base_Z_Back.mp4,21,,,,,,,,,0,132,132,132,,,,,,,,,,,,,999.3939191000009,1000.4747441,,,,,,,1004.0046978999999,1004.0046978999999,1004.0046978999999,1004.0046978999999,1004.0046978999999,1004.0046978999999,1004.0046978999999,1004.0046978999999,None,None,None,,,,,,,,,,,999.3939191000009,999.3939191000009,None,,1000.4747441,1000.4747441,n,999.3939191000009,999.3939191000009,1.9035542999990867,,,21,001,2024-07-04_17h09.32.436,robot_nback_sign,2022.2.5,59.988650147172564,
L_Torso_Z_Back,False,1,robot,1,False,False,robot_stimuli\L_Torso_Z_Back.mp4,21,,,,,,,,,0,133,133,133,,,,,,,,,,,,,1004.0046978999999,1005.0906960000011,,,,,,,1008.5976300000002,1008.5976300000002,1008.5976300000002,1008.5976300000002,1008.5976300000002,1008.5976300000002,1008.5976300000002,1008.5976300000002,None,None,None,,,,,,,,,,,1004.0046978999999,1004.0046978999999,None,,1005.0906960000011,1005.0906960000011,n,1004.0046978999999,1004.0046978999999,1.6730399999978545,,,21,001,2024-07-04_17h09.32.436,robot_nback_sign,2022.2.5,59.988650147172564,
L_Torso_X_Back,False,1,robot,1,False,False,robot_stimuli\L_Torso_X_Back.mp4,21,,,,,,,,,0,134,134,134,,,,,,,,,,,,,1008.5976300000002,1009.6754689999998,,,,,,,1013.3259383000004,1013.3259383000004,1013.3259383000004,1013.3259383000004,1013.3259383000004,1013.3259383000004,1013.3259383000004,1013.3259383000004,None,None,None,,,,,,,,,,,1008.5976300000002,1008.5976300000002,None,,1009.6754689999998,1009.6754689999998,n,1008.5976300000002,1008.5976300000002,3.0788580999997066,,,21,001,2024-07-04_17h09.32.436,robot_nback_sign,2022.2.5,59.988650147172564,
R_Head_Y_For,False,1,robot,1,False,False,robot_stimuli\R_Head_Y_For.mp4,21,,,,,,,,,0,135,135,135,,,,,,,,,,,,,1013.3259383000004,1014.4074839000004,,,,,,,1018.0375273999998,1018.0375273999998,1018.0375273999998,1018.0375273999998,1018.0375273999998,1018.0375273999998,1018.0375273999998,1018.0375273999998,None,None,None,,,,,,,,,,,1013.3259383000004,1013.3259383000004,None,,1014.4074839000004,1014.4074839000004,n,1013.3259383000004,1013.3259383000004,1.2832526999991387,,,21,001,2024-07-04_17h09.32.436,robot_nback_sign,2022.2.5,59.988650147172564,
L_Base_Y_Back,False,1,robot,1,False,False,robot_stimuli\L_Base_Y_Back.mp4,21,,,,,,,,,0,136,136,136,,,,,,,,,,,,,1018.0375273999998,1019.122359500001,,,,,,,1022.6958294000015,1022.6958294000015,1022.6958294000015,1022.6958294000015,1022.6958294000015,1022.6958294000015,1022.6958294000015,1022.6958294000015,None,None,None,,,,,,,,,,,1018.0375273999998,1018.0375273999998,None,,1019.122359500001,1019.122359500001,n,1018.0375273999998,1018.0375273999998,3.320753699998022,,,21,001,2024-07-04_17h09.32.436,robot_nback_sign,2022.2.5,59.988650147172564,
L_Head_X_Back,False,1,robot,1,False,False,robot_stimuli\L_Head_X_Back.mp4,21,,,,,,,,,0,137,137,137,,,,,,,,,,,,,1022.6958294000015,1023.7744645000002,,,,,,,1027.4144297000003,1027.4144297000003,1027.4144297000003,1027.4144297000003,1027.4144297000003,1027.4144297000003,1027.4144297000003,1027.4144297000003,None,None,None,,,,,,,,,,,1022.6958294000015,1022.6958294000015,None,,1023.7744645000002,1023.7744645000002,n,1022.6958294000015,1022.6958294000015,1.9808882999986963,,,21,001,2024-07-04_17h09.32.436,robot_nback_sign,2022.2.5,59.988650147172564,
L_Head_X_Back,True,1,robot,1,False,False,robot_stimuli\L_Head_X_Back.mp4,21,,,,,,,,,0,138,138,138,,,,,,,,,,,,,1027.4144297000003,1028.4871503000013,,,,,,,1032.1254859,1032.1254859,1032.1254859,1032.1254859,1032.1254859,1032.1254859,1032.1254859,1032.1254859,None,None,None,,,,,,,,,,,1027.4144297000003,1027.4144297000003,None,,1028.4871503000013,1028.4871503000013,c,1027.4144297000003,1027.4144297000003,1.146564299999227,,,21,001,2024-07-04_17h09.32.436,robot_nback_sign,2022.2.5,59.988650147172564,
L_Arm_X_Back,False,1,robot,1,False,False,robot_stimuli\L_Arm_X_Back.mp4,21,,,,,,,,,0,139,139,139,,,,,,,,,,,,,1032.1254859,1033.2078667000005,,,,,,,1036.8465066999997,1036.8465066999997,1036.8465066999997,1036.8465066999997,1036.8465066999997,1036.8465066999997,1036.8465066999997,1036.8465066999997,None,None,None,,,,,,,,,,,1032.1254859,1032.1254859,None,,1033.2078667000005,1033.2078667000005,n,1032.1254859,1032.1254859,2.5937271999991935,,,21,001,2024-07-04_17h09.32.436,robot_nback_sign,2022.2.5,59.988650147172564,
L_Arm_Y_For,False,1,robot,1,False,False,robot_stimuli\L_Arm_Y_For.mp4,21,,,,,,,,,0,140,140,140,,,,,,,,,,,,,1036.8465066999997,1037.9249066000011,,,,,,,1041.563241400001,1041.563241400001,1041.563241400001,1041.563241400001,1041.563241400001,1041.563241400001,1041.563241400001,1041.563241400001,None,None,None,,,,,,,,,,,1036.8465066999997,1036.8465066999997,None,,1037.9249066000011,1037.9249066000011,c,1036.8465066999997,1036.8465066999997,2.9330881999994745,,,21,001,2024-07-04_17h09.32.436,robot_nback_sign,2022.2.5,59.988650147172564,
L_Arm_Y_For,True,1,robot,1,False,False,robot_stimuli\L_Arm_Y_For.mp4,21,,,,,,,,,0,141,141,141,,,,,,,,,,,,,1041.563241400001,1042.6337101999998,,,,,,,1046.277019700001,1046.277019700001,1046.277019700001,1046.277019700001,1046.277019700001,1046.277019700001,1046.277019700001,1046.277019700001,None,None,None,,,,,,,,,,,1041.563241400001,1041.563241400001,None,,1042.6337101999998,1042.6337101999998,c,1041.563241400001,1041.563241400001,2.7453265999993164,,,21,001,2024-07-04_17h09.32.436,robot_nback_sign,2022.2.5,59.988650147172564,
L_Torso_Y_For,False,1,robot,1,False,False,robot_stimuli\L_Torso_Y_For.mp4,21,,,,,,,,,0,142,142,142,,,,,,,,,,,,,1046.277019700001,1047.3542284000014,,,,,,,1050.9970078000006,1050.9970078000006,1050.9970078000006,1050.9970078000006,1050.9970078000006,1050.9970078000006,1050.9970078000006,1050.9970078000006,None,None,None,,,,,,,,,,,1046.277019700001,1046.277019700001,None,,1047.3542284000014,1047.3542284000014,None,1046.277019700001,1046.277019700001,,,,21,001,2024-07-04_17h09.32.436,robot_nback_sign,2022.2.5,59.988650147172564,
L_Torso_Y_For,True,1,robot,1,False,False,robot_stimuli\L_Torso_Y_For.mp4,21,,,,,,,,,0,143,143,143,,,,,,,,,,,,,1050.9970078000006,1052.071087800001,,,,,,,1055.7116158000008,1055.7116158000008,1055.7116158000008,1055.7116158000008,1055.7116158000008,1055.7116158000008,1055.7116158000008,1055.7116158000008,None,None,None,,,,,,,,,,,1050.9970078000006,1050.9970078000006,None,,1052.071087800001,1052.071087800001,c,1050.9970078000006,1050.9970078000006,1.9623092999991059,,,21,001,2024-07-04_17h09.32.436,robot_nback_sign,2022.2.5,59.988650147172564,
R_Torso_X_Back,False,1,robot,1,False,False,robot_stimuli\R_Torso_X_Back.mp4,21,,,,,,,,,0,144,144,144,,,,,,,,,,,,,1055.7116158000008,1056.794337700001,,,,,,,1060.4437374999998,1060.4437374999998,1060.4437374999998,1060.4437374999998,1060.4437374999998,1060.4437374999998,1060.4437374999998,1060.4437374999998,None,None,None,,,,,,,,,,,1055.7116158000008,1055.7116158000008,None,,1056.794337700001,1056.794337700001,n,1055.7116158000008,1055.7116158000008,2.8396490999984962,,,21,001,2024-07-04_17h09.32.436,robot_nback_sign,2022.2.5,59.988650147172564,
R_Head_Z_Back,False,1,robot,1,False,False,robot_stimuli\R_Head_Z_Back.mp4,21,,,,,,,,,0,145,145,145,,,,,,,,,,,,,1060.4437374999998,1061.5247378000004,,,,,,,1065.1745534000001,1065.1745534000001,1065.1745534000001,1065.1745534000001,1065.1745534000001,1065.1745534000001,1065.1745534000001,1065.1745534000001,None,None,None,,,,,,,,,,,1060.4437374999998,1060.4437374999998,None,,1061.5247378000004,1061.5247378000004,n,1060.4437374999998,1060.4437374999998,1.5899219999992056,,,21,001,2024-07-04_17h09.32.436,robot_nback_sign,2022.2.5,59.988650147172564,
