sequence,is_true,target,condition,stimuli,block,is_block_beginning,is_block_ending,sequence_fnames,target_fname,subject,retraining.thisRepN,retraining.thisTrialN,retraining.thisN,retraining.thisIndex,training.thisRepN,training.thisTrialN,training.thisN,training.thisIndex,training_sequence_loop.thisRepN,training_sequence_loop.thisTrialN,training_sequence_loop.thisN,training_sequence_loop.thisIndex,trials.thisRepN,trials.thisTrialN,trials.thisN,trials.thisIndex,sequence_loop.thisRepN,sequence_loop.thisTrialN,sequence_loop.thisN,sequence_loop.thisIndex,langage_text.started,langage_key.started,langage_key.keys,langage_key.rt,intro_text.started,intro_key.started,intro_key.keys,intro_key.rt,training_intro_text.started,training_intro_key.started,training_intro_key.keys,training_intro_key.rt,polygon.started,polygon.stopped,training_presentation_letter.started,training_presentation_letter.stopped,training_recall_letter.started,training_recall_key.started,training_recall_question.started,training_recall_answer.started,training_recall_key.keys,training_recall_key.rt,RSME_labels.started,RSME_labels.stopped,RSME_ticks.started,RSME_ticks.stopped,RSME_text.started,RSME_text.stopped,RSME_key.started,RSME_key.stopped,RSME_ticks.response,RSME_ticks.rt,RSME_key.keys,training_intro_text.stopped,training_intro_key.stopped,RSME_key.rt,training_presentation_movie.started,training_recall_movie.started,experiment_beginning_text.started,experiment_beginning_keys.started,experiment_beginning_key.started,experiment_beginning_key.keys,experiment_beginning_key.rt,block_intro_text.started,block_intro_key.started,block_intro_key.keys,block_intro_key.rt,presentation_letter.started,presentation_letter.stopped,recall_letter.started,recall_key.started,recall_question.started,recall_answer.started,recall_key.keys,recall_key.rt,block_intro_text.stopped,block_intro_key.stopped,presentation_movie.started,recall_movie.started,participant,session,date,expName,psychopyVersion,frameRate,
,,,,,,,,,,,,,,,,,,,,,,,,,,,,,,,20.840086399999564,20.840086399999564,f,0.4852221999899484,,,,,,,,,,,,,,,,,,,,,,,,,,,,,,,,,,,,,,,,,,,,,,,,,,,,,,,,16,001,2024-07-16_14h30.02.479,robot_sternberg_sign,2022.2.5,60.00186005785491,
,,,,,,,,,,,,,,,,,,,,,,,,,,,,,,,,,,,21.371467500008293,21.371467500008293,space,109.40967010000895,,,,,,,,,,,,,,,,,,,,,,,,,,,,,,,,,,,,,,,,,,,,,,,,,,,,16,001,2024-07-16_14h30.02.479,robot_sternberg_sign,2022.2.5,60.00186005785491,
"['W', 'K']",False,R,2,letter,1,True,False,"['robot_stimuli\\\\filler.mp4', 'robot_stimuli\\\\filler.mp4']",robot_stimuli\\filler.mp4,16,0,0,0,0,0,0,0,0,,,,,,,,,,,,,,,,,,,,,130.82281209999928,130.82281209999928,space,19.262032700004056,155.99096490000375,157.08528300000762,153.77825080000912,155.99096490000375,157.08528300000762,157.08528300000762,157.08528300000762,157.08528300000762,n,2.2170667000027606,159.6114596999978,159.6114596999978,159.6114596999978,159.6114596999978,159.6114596999978,159.6114596999978,159.6114596999978,159.6114596999978,None,None,None,,,,,,,,,,,,,,,,,,,,,,,,,,,16,001,2024-07-16_14h30.02.479,robot_sternberg_sign,2022.2.5,60.00186005785491,
"['F', 'Q']",True,Q,2,letter,1,False,False,"['robot_stimuli\\\\filler.mp4', 'robot_stimuli\\\\filler.mp4']",robot_stimuli\\filler.mp4,16,0,0,0,0,0,1,1,1,,,,,,,,,,,,,,,,,,,,,159.6114596999978,159.6114596999978,None,,165.2247456000041,166.29577609999978,163.01532350000343,165.2247456000041,166.29577609999978,166.29577609999978,166.29577609999978,166.29577609999978,c,1.182527899989509,167.7221972999978,167.7221972999978,167.7221972999978,167.7221972999978,167.7221972999978,167.7221972999978,167.7221972999978,167.7221972999978,None,None,None,159.6114596999978,159.6114596999978,,,,,,,,,,,,,,,,,,,,,,,,,16,001,2024-07-16_14h30.02.479,robot_sternberg_sign,2022.2.5,60.00186005785491,
"['N', 'F']",True,F,2,letter,1,False,True,"['robot_stimuli\\\\filler.mp4', 'robot_stimuli\\\\filler.mp4']",robot_stimuli\\filler.mp4,16,0,0,0,0,0,2,2,2,,,,,,,,,,,,,,,,,,,,,167.7221972999978,167.7221972999978,None,,173.1210529000091,174.1950696999993,171.1061744000035,173.1210529000091,174.1950696999993,174.1950696999993,174.1950696999993,174.1950696999993,c,1.555042299994966,175.8838761000079,187.21277779999946,175.8838761000079,187.21277779999946,175.8838761000079,187.21277779999946,175.8838761000079,187.21277779999946,4.074074074074069,9.662565399994492,space,167.7221972999978,167.7221972999978,11.257348499988439,,,,,,,,,,,,,,,,,,,,,,,,16,001,2024-07-16_14h30.02.479,robot_sternberg_sign,2022.2.5,60.00186005785491,
"['J', 'X', 'N', 'V']",True,X,4,letter,1,True,False,"['robot_stimuli\\\\filler.mp4', 'robot_stimuli\\\\filler.mp4', 'robot_stimuli\\\\filler.mp4', 'robot_stimuli\\\\filler.mp4']",robot_stimuli\\filler.mp4,16,0,0,0,0,0,3,3,3,,,,,,,,,,,,,,,,,,,,,187.21277779999946,187.21277779999946,space,3.8644607000023825,200.9102292000025,201.97371980000753,198.6959668000054,200.9102292000025,201.97371980000753,201.97371980000753,201.97371980000753,201.97371980000753,c,1.5113940000010189,203.59885799999756,203.59885799999756,203.59885799999756,203.59885799999756,203.59885799999756,203.59885799999756,203.59885799999756,203.59885799999756,None,None,None,,,,,,,,,,,,,,,,,,,,,,,,,,,16,001,2024-07-16_14h30.02.479,robot_sternberg_sign,2022.2.5,60.00186005785491,
"['B', 'Z', 'J', 'D']",True,Z,4,letter,1,False,False,"['robot_stimuli\\\\filler.mp4', 'robot_stimuli\\\\filler.mp4', 'robot_stimuli\\\\filler.mp4', 'robot_stimuli\\\\filler.mp4']",robot_stimuli\\filler.mp4,16,0,0,0,0,0,4,4,4,,,,,,,,,,,,,,,,,,,,,203.59885799999756,203.59885799999756,None,,213.20891450000636,214.27852970000822,211.19322180000017,213.20891450000636,214.27852970000822,214.27852970000822,214.27852970000822,214.27852970000822,c,2.2472421000129543,216.70529939999687,216.70529939999687,216.70529939999687,216.70529939999687,216.70529939999687,216.70529939999687,216.70529939999687,216.70529939999687,None,None,None,203.59885799999756,203.59885799999756,,,,,,,,,,,,,,,,,,,,,,,,,16,001,2024-07-16_14h30.02.479,robot_sternberg_sign,2022.2.5,60.00186005785491,
"['S', 'Q', 'V', 'H']",False,C,4,letter,1,False,True,"['robot_stimuli\\\\filler.mp4', 'robot_stimuli\\\\filler.mp4', 'robot_stimuli\\\\filler.mp4', 'robot_stimuli\\\\filler.mp4']",robot_stimuli\\filler.mp4,16,0,0,0,0,0,5,5,5,,,,,,,,,,,,,,,,,,,,,216.70529939999687,216.70529939999687,None,,226.31393869999738,227.3941438000038,224.09444050000457,226.31393869999738,227.3941438000038,227.3941438000038,227.3941438000038,227.3941438000038,n,1.8443422000127612,229.45197660000122,234.0759182000038,229.45197660000122,234.0759182000038,229.45197660000122,234.0759182000038,229.45197660000122,234.0759182000038,9.78395061728395,3.281868799997028,space,216.70529939999687,216.70529939999687,4.561367500005872,,,,,,,,,,,,,,,,,,,,,,,,16,001,2024-07-16_14h30.02.479,robot_sternberg_sign,2022.2.5,60.00186005785491,
"['T', 'R', 'L', 'V', 'C', 'G']",False,M,6,letter,1,True,False,"['robot_stimuli\\\\filler.mp4', 'robot_stimuli\\\\filler.mp4', 'robot_stimuli\\\\filler.mp4', 'robot_stimuli\\\\filler.mp4', 'robot_stimuli\\\\filler.mp4', 'robot_stimuli\\\\filler.mp4']",robot_stimuli\\filler.mp4,16,0,0,0,0,0,6,6,6,,,,,,,,,,,,,,,,,,,,,234.0759182000038,234.0759182000038,space,3.0018645000091055,251.90345729999535,252.97970490000444,249.68226020000293,251.90345729999535,252.97970490000444,252.97970490000444,252.97970490000444,252.97970490000444,n,1.4264247000101022,254.6069897999987,254.6069897999987,254.6069897999987,254.6069897999987,254.6069897999987,254.6069897999987,254.6069897999987,254.6069897999987,None,None,None,,,,,,,,,,,,,,,,,,,,,,,,,,,16,001,2024-07-16_14h30.02.479,robot_sternberg_sign,2022.2.5,60.00186005785491,
"['B', 'R', 'W', 'L', 'J', 'N']",True,B,6,letter,1,False,False,"['robot_stimuli\\\\filler.mp4', 'robot_stimuli\\\\filler.mp4', 'robot_stimuli\\\\filler.mp4', 'robot_stimuli\\\\filler.mp4', 'robot_stimuli\\\\filler.mp4', 'robot_stimuli\\\\filler.mp4']",robot_stimuli\\filler.mp4,16,0,0,0,0,0,7,7,7,,,,,,,,,,,,,,,,,,,,,254.6069897999987,254.6069897999987,None,,268.9718700999947,270.0432454999973,266.74757809999574,268.9718700999947,270.0432454999973,270.0432454999973,270.0432454999973,270.0432454999973,c,1.5224441000027582,271.6686880000052,271.6686880000052,271.6686880000052,271.6686880000052,271.6686880000052,271.6686880000052,271.6686880000052,271.6686880000052,None,None,None,254.6069897999987,254.6069897999987,,,,,,,,,,,,,,,,,,,,,,,,,16,001,2024-07-16_14h30.02.479,robot_sternberg_sign,2022.2.5,60.00186005785491,
"['P', 'T', 'F', 'N', 'L', 'B']",True,T,6,letter,1,False,True,"['robot_stimuli\\\\filler.mp4', 'robot_stimuli\\\\filler.mp4', 'robot_stimuli\\\\filler.mp4', 'robot_stimuli\\\\filler.mp4', 'robot_stimuli\\\\filler.mp4', 'robot_stimuli\\\\filler.mp4']",robot_stimuli\\filler.mp4,16,0,0,0,0,0,8,8,8,,,,,,,,,,,,,,,,,,,,,271.6686880000052,271.6686880000052,None,,285.614877400003,286.68922840000596,283.3972531000036,285.614877400003,286.68922840000596,286.68922840000596,286.68922840000596,286.68922840000596,c,1.7814007999986643,288.5436569000012,307.007022100006,288.5436569000012,307.007022100006,288.5436569000012,307.007022100006,288.5436569000012,307.007022100006,19.96913580246913,5.0946174999990035,space,271.6686880000052,271.6686880000052,18.3977748999896,,,,,,,,,,,,,,,,,,,,,,,,16,001,2024-07-16_14h30.02.479,robot_sternberg_sign,2022.2.5,60.00186005785491,
"['L_Arm_Y_Back', 'L_Head_Z_For']",False,L_Torso_X_Back,2,robot,2,True,False,"['robot_stimuli\\L_Arm_Y_Back.mp4', 'robot_stimuli\\L_Head_Z_For.mp4']",robot_stimuli\L_Torso_X_Back.mp4,16,0,0,0,0,0,9,9,9,,,,,,,,,,,,,,,,,,,,,307.007022100006,307.007022100006,space,1.5834055999876,317.06423289999657,318.1725149999984,,,,318.1725149999984,318.1725149999984,318.1725149999984,n,3.305459700000938,321.8124807999993,321.8124807999993,321.8124807999993,321.8124807999993,321.8124807999993,321.8124807999993,321.8124807999993,321.8124807999993,None,None,None,,,,313.4293237999955,318.1725149999984,,,,,,,,,,,,,,,,,,,,,,16,001,2024-07-16_14h30.02.479,robot_sternberg_sign,2022.2.5,60.00186005785491,
"['R_Base_Y_For', 'R_Arm_Y_For']",True,R_Base_Y_For,2,robot,2,False,False,"['robot_stimuli\\R_Base_Y_For.mp4', 'robot_stimuli\\R_Arm_Y_For.mp4']",robot_stimuli\R_Base_Y_For.mp4,16,0,0,0,0,0,10,10,10,,,,,,,,,,,,,,,,,,,,,321.8124807999993,321.8124807999993,None,,330.14734110000427,331.24321580000105,,,,331.24321580000105,331.24321580000105,331.24321580000105,c,4.011582899998757,335.28696630000195,335.28696630000195,335.28696630000195,335.28696630000195,335.28696630000195,335.28696630000195,335.28696630000195,335.28696630000195,None,None,None,321.8124807999993,321.8124807999993,,326.65037689999735,331.24321580000105,,,,,,,,,,,,,,,,,,,,,,16,001,2024-07-16_14h30.02.479,robot_sternberg_sign,2022.2.5,60.00186005785491,
"['L_Head_Y_Back', 'R_Head_Z_Back']",True,L_Head_Y_Back,2,robot,2,False,True,"['robot_stimuli\\L_Head_Y_Back.mp4', 'robot_stimuli\\R_Head_Z_Back.mp4']",robot_stimuli\L_Head_Y_Back.mp4,16,0,0,0,0,0,11,11,11,,,,,,,,,,,,,,,,,,,,,335.28696630000195,335.28696630000195,None,,343.7513435000001,344.8429395999992,,,,344.8429395999992,344.8429395999992,344.8429395999992,c,5.796071999997366,350.70007039999473,354.9820752000087,350.70007039999473,354.9820752000087,350.70007039999473,354.9820752000087,350.70007039999473,354.9820752000087,25.524691358024683,3.53288739999698,space,335.28696630000195,335.28696630000195,4.217420700006187,340.1112335000071,344.8429395999992,,,,,,,,,,,,,,,,,,,,,,16,001,2024-07-16_14h30.02.479,robot_sternberg_sign,2022.2.5,60.00186005785491,
"['L_Torso_Y_For', 'L_Arm_X_Back', 'R_Head_Y_Back', 'R_Head_Y_For']",True,L_Arm_X_Back,4,robot,2,True,False,"['robot_stimuli\\L_Torso_Y_For.mp4', 'robot_stimuli\\L_Arm_X_Back.mp4', 'robot_stimuli\\R_Head_Y_Back.mp4', 'robot_stimuli\\R_Head_Y_For.mp4']",robot_stimuli\L_Arm_X_Back.mp4,16,0,0,0,0,0,12,12,12,,,,,,,,,,,,,,,,,,,,,354.9820752000087,354.9820752000087,space,1.4568773999926634,372.3852356999996,373.47599049999553,,,,373.47599049999553,373.47599049999553,373.47599049999553,n,7.098418800000218,380.60702490000403,380.60702490000403,380.60702490000403,380.60702490000403,380.60702490000403,380.60702490000403,380.60702490000403,380.60702490000403,None,None,None,,,,368.7486781000043,373.47599049999553,,,,,,,,,,,,,,,,,,,,,,16,001,2024-07-16_14h30.02.479,robot_sternberg_sign,2022.2.5,60.00186005785491,
"['L_Torso_Y_Back', 'R_Base_Z_Back', 'L_Torso_X_For', 'R_Base_X_For']",False,L_Arm_Z_Back,4,robot,2,False,False,"['robot_stimuli\\L_Torso_Y_Back.mp4', 'robot_stimuli\\R_Base_Z_Back.mp4', 'robot_stimuli\\L_Torso_X_For.mp4', 'robot_stimuli\\R_Base_X_For.mp4']",robot_stimuli\L_Arm_Z_Back.mp4,16,0,0,0,0,0,13,13,13,,,,,,,,,,,,,,,,,,,,,380.60702490000403,380.60702490000403,None,,396.1633276000066,397.261368499996,,,,397.261368499996,397.261368499996,397.261368499996,c,6.656951500001014,403.95879160000186,403.95879160000186,403.95879160000186,403.95879160000186,403.95879160000186,403.95879160000186,403.95879160000186,403.95879160000186,None,None,None,380.60702490000403,380.60702490000403,,392.63050840000506,397.261368499996,,,,,,,,,,,,,,,,,,,,,,16,001,2024-07-16_14h30.02.479,robot_sternberg_sign,2022.2.5,60.00186005785491,
"['L_Torso_Y_Back', 'L_Base_Z_For', 'R_Base_Y_For', 'L_Torso_X_For']",True,R_Base_Y_For,4,robot,2,False,True,"['robot_stimuli\\L_Torso_Y_Back.mp4', 'robot_stimuli\\L_Base_Z_For.mp4', 'robot_stimuli\\R_Base_Y_For.mp4', 'robot_stimuli\\L_Torso_X_For.mp4']",robot_stimuli\R_Base_Y_For.mp4,16,0,0,0,0,0,14,14,14,,,,,,,,,,,,,,,,,,,,,403.95879160000186,403.95879160000186,None,,419.71648010000354,420.8038133000082,,,,420.8038133000082,420.8038133000082,420.8038133000082,c,5.1932984000013676,426.07372600000235,431.2208959999989,426.07372600000235,431.2208959999989,426.07372600000235,431.2208959999989,426.07372600000235,431.2208959999989,39.876543209876544,3.0846125000098255,space,403.95879160000186,403.95879160000186,5.099870399993961,416.0696711000055,420.8038133000082,,,,,,,,,,,,,,,,,,,,,,16,001,2024-07-16_14h30.02.479,robot_sternberg_sign,2022.2.5,60.00186005785491,
"['R_Arm_Z_For', 'L_Base_X_For', 'R_Arm_Y_For', 'L_Torso_X_For', 'R_Base_Y_Back', 'L_Torso_Y_Back']",False,R_Arm_X_Back,6,robot,2,True,False,"['robot_stimuli\\R_Arm_Z_For.mp4', 'robot_stimuli\\L_Base_X_For.mp4', 'robot_stimuli\\R_Arm_Y_For.mp4', 'robot_stimuli\\L_Torso_X_For.mp4', 'robot_stimuli\\R_Base_Y_Back.mp4', 'robot_stimuli\\L_Torso_Y_Back.mp4']",robot_stimuli\R_Arm_X_Back.mp4,16,0,0,0,0,0,15,15,15,,,,,,,,,,,,,,,,,,,,,431.2208959999989,431.2208959999989,space,1.497365399991395,455.7981579000043,456.8919389000075,,,,456.8919389000075,456.8919389000075,456.8919389000075,c,5.0824861000000965,462.0020174000092,462.0020174000092,462.0020174000092,462.0020174000092,462.0020174000092,462.0020174000092,462.0020174000092,462.0020174000092,None,None,None,,,,452.28871680000157,456.8919389000075,,,,,,,,,,,,,,,,,,,,,,16,001,2024-07-16_14h30.02.479,robot_sternberg_sign,2022.2.5,60.00186005785491,
"['R_Arm_X_Back', 'R_Torso_Y_Back', 'R_Head_Z_For', 'R_Torso_Z_For', 'R_Torso_Y_For', 'L_Base_X_For']",True,R_Torso_Y_For,6,robot,2,False,False,"['robot_stimuli\\R_Arm_X_Back.mp4', 'robot_stimuli\\R_Torso_Y_Back.mp4', 'robot_stimuli\\R_Head_Z_For.mp4', 'robot_stimuli\\R_Torso_Z_For.mp4', 'robot_stimuli\\R_Torso_Y_For.mp4', 'robot_stimuli\\L_Base_X_For.mp4']",robot_stimuli\R_Torso_Y_For.mp4,16,0,0,0,0,0,16,16,16,,,,,,,,,,,,,,,,,,,,,462.0020174000092,462.0020174000092,None,,485.2471450000012,486.33905219999724,,,,486.33905219999724,486.33905219999724,486.33905219999724,c,4.507963600000949,490.891973699996,490.891973699996,490.891973699996,490.891973699996,490.891973699996,490.891973699996,490.891973699996,490.891973699996,None,None,None,462.0020174000092,462.0020174000092,,481.68226739999955,486.33905219999724,,,,,,,,,,,,,,,,,,,,,,16,001,2024-07-16_14h30.02.479,robot_sternberg_sign,2022.2.5,60.00186005785491,
"['R_Base_X_Back', 'L_Base_Z_Back', 'L_Arm_Y_Back', 'L_Base_X_For', 'R_Arm_Z_For', 'R_Head_X_For']",True,L_Base_X_For,6,robot,2,False,True,"['robot_stimuli\\R_Base_X_Back.mp4', 'robot_stimuli\\L_Base_Z_Back.mp4', 'robot_stimuli\\L_Arm_Y_Back.mp4', 'robot_stimuli\\L_Base_X_For.mp4', 'robot_stimuli\\R_Arm_Z_For.mp4', 'robot_stimuli\\R_Head_X_For.mp4']",robot_stimuli\L_Base_X_For.mp4,16,0,0,0,0,0,17,17,17,,,,,,,,,,,,,,,,,,,,,490.891973699996,490.891973699996,None,,514.1656093000056,515.2600396000053,,,,515.2600396000053,515.2600396000053,515.2600396000053,c,5.55390760001319,520.8840644000011,526.4630978000059,520.8840644000011,526.4630978000059,520.8840644000011,526.4630978000059,520.8840644000011,526.4630978000059,64.72222222222221,4.680573899997398,space,490.891973699996,490.891973699996,5.52133619999222,510.5243143999978,515.2600396000053,,,,,,,,,,,,,,,,,,,,,,16,001,2024-07-16_14h30.02.479,robot_sternberg_sign,2022.2.5,60.00186005785491,
,,,,,,,,,,,0,0,0,0,,,,,,,,,,,,,,,,,,,,,,,,,,,,,,,,,,,,,,,,,,,,,,,,,,,,,,,526.4630978000059,526.4630978000059,526.4630978000059,c,2.1347160000004806,,,,,,,,,,,,,,,,,16,001,2024-07-16_14h30.02.479,robot_sternberg_sign,2022.2.5,60.00186005785491,
"['W', 'Z', 'P', 'L']",False,T,4,letter,1,True,False,"['robot_stimuli\\\\filler.mp4', 'robot_stimuli\\\\filler.mp4', 'robot_stimuli\\\\filler.mp4', 'robot_stimuli\\\\filler.mp4']",robot_stimuli\\filler.mp4,16,,,,,,,,,,,,,0,0,0,0,,,,,,,,,,,,,,,,,542.284971400004,543.3718465999991,,,,,,,,,545.3715320000047,545.3715320000047,545.3715320000047,545.3715320000047,545.3715320000047,545.3715320000047,545.3715320000047,545.3715320000047,None,None,None,,,,,,,,,,,528.6426675999974,528.6426675999974,space,4.0824967000080505,540.2746158000082,542.284971400004,543.3718465999991,543.3718465999991,543.3718465999991,543.3718465999991,n,1.9381615999882342,,,,,16,001,2024-07-16_14h30.02.479,robot_sternberg_sign,2022.2.5,60.00186005785491,
"['S', 'C', 'M', 'L']",True,M,4,letter,1,False,False,"['robot_stimuli\\\\filler.mp4', 'robot_stimuli\\\\filler.mp4', 'robot_stimuli\\\\filler.mp4', 'robot_stimuli\\\\filler.mp4']",robot_stimuli\\filler.mp4,16,,,,,,,,,,,,,0,1,1,1,,,,,,,,,,,,,,,,,555.1189117000031,556.1862748999993,,,,,,,,,557.8087191999948,557.8087191999948,557.8087191999948,557.8087191999948,557.8087191999948,557.8087191999948,557.8087191999948,557.8087191999948,None,None,None,,,,,,,,,,,545.3715320000047,545.3715320000047,None,,553.105140300002,555.1189117000031,556.1862748999993,556.1862748999993,556.1862748999993,556.1862748999993,c,1.4916550999914762,545.3715320000047,545.3715320000047,,,16,001,2024-07-16_14h30.02.479,robot_sternberg_sign,2022.2.5,60.00186005785491,
"['V', 'X', 'Q', 'B']",True,V,4,letter,1,False,False,"['robot_stimuli\\\\filler.mp4', 'robot_stimuli\\\\filler.mp4', 'robot_stimuli\\\\filler.mp4', 'robot_stimuli\\\\filler.mp4']",robot_stimuli\\filler.mp4,16,,,,,,,,,,,,,0,2,2,2,,,,,,,,,,,,,,,,,567.5446014000045,568.6028482999973,,,,,,,,,570.4263093000045,570.4263093000045,570.4263093000045,570.4263093000045,570.4263093000045,570.4263093000045,570.4263093000045,570.4263093000045,None,None,None,,,,,,,,,,,557.8087191999948,557.8087191999948,None,,565.3289909000014,567.5446014000045,568.6028482999973,568.6028482999973,568.6028482999973,568.6028482999973,c,1.635375900004874,557.8087191999948,557.8087191999948,,,16,001,2024-07-16_14h30.02.479,robot_sternberg_sign,2022.2.5,60.00186005785491,
"['W', 'T', 'D', 'B']",True,B,4,letter,1,False,False,"['robot_stimuli\\\\filler.mp4', 'robot_stimuli\\\\filler.mp4', 'robot_stimuli\\\\filler.mp4', 'robot_stimuli\\\\filler.mp4']",robot_stimuli\\filler.mp4,16,,,,,,,,,,,,,0,3,3,3,,,,,,,,,,,,,,,,,580.1796141000086,571.4795716000081,,,,,,,,,583.0781623000075,583.0781623000075,583.0781623000075,583.0781623000075,583.0781623000075,583.0781623000075,583.0781623000075,583.0781623000075,None,None,None,,,,,,,,,,,570.4263093000045,570.4263093000045,None,,578.1572162000084,580.1796141000086,581.2457977000013,581.2457977000013,581.2457977000013,581.2457977000013,c,1.616410000002361,570.4263093000045,570.4263093000045,,,16,001,2024-07-16_14h30.02.479,robot_sternberg_sign,2022.2.5,60.00186005785491,
"['R', 'X', 'D', 'S']",False,J,4,letter,1,False,False,"['robot_stimuli\\\\filler.mp4', 'robot_stimuli\\\\filler.mp4', 'robot_stimuli\\\\filler.mp4', 'robot_stimuli\\\\filler.mp4']",robot_stimuli\\filler.mp4,16,,,,,,,,,,,,,0,4,4,4,,,,,,,,,,,,,,,,,593.0297749000019,584.1299682999961,,,,,,,,,595.7257517999969,595.7257517999969,595.7257517999969,595.7257517999969,595.7257517999969,595.7257517999969,595.7257517999969,595.7257517999969,None,None,None,,,,,,,,,,,583.0781623000075,583.0781623000075,None,,590.8144526999968,593.0297749000019,594.1014354000072,594.1014354000072,594.1014354000072,594.1014354000072,n,1.4249494000105187,583.0781623000075,583.0781623000075,,,16,001,2024-07-16_14h30.02.479,robot_sternberg_sign,2022.2.5,60.00186005785491,
"['B', 'F', 'S', 'T']",True,S,4,letter,1,False,False,"['robot_stimuli\\\\filler.mp4', 'robot_stimuli\\\\filler.mp4', 'robot_stimuli\\\\filler.mp4', 'robot_stimuli\\\\filler.mp4']",robot_stimuli\\filler.mp4,16,,,,,,,,,,,,,0,5,5,5,,,,,,,,,,,,,,,,,605.6698927999969,606.7327946000005,,,,,,,,,608.3634422000032,608.3634422000032,608.3634422000032,608.3634422000032,608.3634422000032,608.3634422000032,608.3634422000032,608.3634422000032,None,None,None,,,,,,,,,,,595.7257517999969,595.7257517999969,None,,603.6546855000051,605.6698927999969,606.7327946000005,606.7327946000005,606.7327946000005,606.7327946000005,c,1.545778399988194,595.7257517999969,595.7257517999969,,,16,001,2024-07-16_14h30.02.479,robot_sternberg_sign,2022.2.5,60.00186005785491,
"['Z', 'D', 'K', 'S']",False,N,4,letter,1,False,False,"['robot_stimuli\\\\filler.mp4', 'robot_stimuli\\\\filler.mp4', 'robot_stimuli\\\\filler.mp4', 'robot_stimuli\\\\filler.mp4']",robot_stimuli\\filler.mp4,16,,,,,,,,,,,,,0,6,6,6,,,,,,,,,,,,,,,,,618.108602200009,619.1633339999971,,,,,,,,,620.5919051999954,620.5919051999954,620.5919051999954,620.5919051999954,620.5919051999954,620.5919051999954,620.5919051999954,620.5919051999954,None,None,None,,,,,,,,,,,608.3634422000032,608.3634422000032,None,,616.0946933000087,618.108602200009,619.1633339999971,619.1633339999971,619.1633339999971,619.1633339999971,n,1.323599399998784,608.3634422000032,608.3634422000032,,,16,001,2024-07-16_14h30.02.479,robot_sternberg_sign,2022.2.5,60.00186005785491,
"['L', 'M', 'C', 'S']",False,W,4,letter,1,False,False,"['robot_stimuli\\\\filler.mp4', 'robot_stimuli\\\\filler.mp4', 'robot_stimuli\\\\filler.mp4', 'robot_stimuli\\\\filler.mp4']",robot_stimuli\\filler.mp4,16,,,,,,,,,,,,,0,7,7,7,,,,,,,,,,,,,,,,,629.9288749999978,621.6490250000061,,,,,,,,,632.6330092999997,632.6330092999997,632.6330092999997,632.6330092999997,632.6330092999997,632.6330092999997,632.6330092999997,632.6330092999997,None,None,None,,,,,,,,,,,620.5919051999954,620.5919051999954,None,,627.9093102000043,629.9288749999978,630.9978341999959,630.9978341999959,630.9978341999959,630.9978341999959,n,1.4481834999896819,620.5919051999954,620.5919051999954,,,16,001,2024-07-16_14h30.02.479,robot_sternberg_sign,2022.2.5,60.00186005785491,
"['B', 'T', 'Z', 'M']",True,M,4,letter,1,False,False,"['robot_stimuli\\\\filler.mp4', 'robot_stimuli\\\\filler.mp4', 'robot_stimuli\\\\filler.mp4', 'robot_stimuli\\\\filler.mp4']",robot_stimuli\\filler.mp4,16,,,,,,,,,,,,,0,8,8,8,,,,,,,,,,,,,,,,,642.385371299999,643.4486711000063,,,,,,,,,645.0821164000081,645.0821164000081,645.0821164000081,645.0821164000081,645.0821164000081,645.0821164000081,645.0821164000081,645.0821164000081,None,None,None,,,,,,,,,,,632.6330092999997,632.6330092999997,None,,640.3696893000015,642.385371299999,643.4486711000063,643.4486711000063,643.4486711000063,643.4486711000063,c,1.4058187000046019,632.6330092999997,632.6330092999997,,,16,001,2024-07-16_14h30.02.479,robot_sternberg_sign,2022.2.5,60.00186005785491,
"['L', 'V', 'T', 'R']",False,G,4,letter,1,False,True,"['robot_stimuli\\\\filler.mp4', 'robot_stimuli\\\\filler.mp4', 'robot_stimuli\\\\filler.mp4', 'robot_stimuli\\\\filler.mp4']",robot_stimuli\\filler.mp4,16,,,,,,,,,,,,,0,9,9,9,,,,,,,,,,,,,,,,,654.8457868999976,646.1461284999968,,,,,,,,,657.3775540000061,662.383812,657.3775540000061,662.383812,657.3775540000061,662.383812,657.3775540000061,662.383812,8.549382716049378,4.027139099998749,space,,,4.939563000007183,,,,,,,,645.0821164000081,645.0821164000081,None,,652.6347993999952,654.8457868999976,655.9132049000036,655.9132049000036,655.9132049000036,655.9132049000036,n,1.3253836999938358,645.0821164000081,645.0821164000081,,,16,001,2024-07-16_14h30.02.479,robot_sternberg_sign,2022.2.5,60.00186005785491,
"['W', 'K']",True,W,2,letter,1,True,False,"['robot_stimuli\\\\filler.mp4', 'robot_stimuli\\\\filler.mp4']",robot_stimuli\\filler.mp4,16,,,,,,,,,,,,,0,10,10,10,,,,,,,,,,,,,,,,,669.4329890000081,670.497732799995,,,,,,,,,671.7215910999948,671.7215910999948,671.7215910999948,671.7215910999948,671.7215910999948,671.7215910999948,671.7215910999948,671.7215910999948,None,None,None,,,,,,,,,,,662.383812,662.383812,space,1.6613753999990877,667.4209833000059,669.4329890000081,670.497732799995,670.497732799995,670.497732799995,670.497732799995,c,1.011903299993719,,,,,16,001,2024-07-16_14h30.02.479,robot_sternberg_sign,2022.2.5,60.00186005785491,
"['T', 'R']",True,R,2,letter,1,False,False,"['robot_stimuli\\\\filler.mp4', 'robot_stimuli\\\\filler.mp4']",robot_stimuli\\filler.mp4,16,,,,,,,,,,,,,0,11,11,11,,,,,,,,,,,,,,,,,677.0823270999972,678.1466512000043,,,,,,,,,679.3669255999994,679.3669255999994,679.3669255999994,679.3669255999994,679.3669255999994,679.3669255999994,679.3669255999994,679.3669255999994,None,None,None,,,,,,,,,,,671.7215910999948,671.7215910999948,None,,675.0738005000021,677.0823270999972,678.1466512000043,678.1466512000043,678.1466512000043,678.1466512000043,c,1.098610800007009,671.7215910999948,671.7215910999948,,,16,001,2024-07-16_14h30.02.479,robot_sternberg_sign,2022.2.5,60.00186005785491,
"['L', 'W']",False,R,2,letter,1,False,False,"['robot_stimuli\\\\filler.mp4', 'robot_stimuli\\\\filler.mp4']",robot_stimuli\\filler.mp4,16,,,,,,,,,,,,,0,12,12,12,,,,,,,,,,,,,,,,,684.7320818000007,685.7962697000039,,,,,,,,,687.2240831999952,687.2240831999952,687.2240831999952,687.2240831999952,687.2240831999952,687.2240831999952,687.2240831999952,687.2240831999952,None,None,None,,,,,,,,,,,679.3669255999994,679.3669255999994,None,,682.7224294000043,684.7320818000007,685.7962697000039,685.7962697000039,685.7962697000039,685.7962697000039,n,1.209722999992664,679.3669255999994,679.3669255999994,,,16,001,2024-07-16_14h30.02.479,robot_sternberg_sign,2022.2.5,60.00186005785491,
"['M', 'D']",True,M,2,letter,1,False,False,"['robot_stimuli\\\\filler.mp4', 'robot_stimuli\\\\filler.mp4']",robot_stimuli\\filler.mp4,16,,,,,,,,,,,,,0,13,13,13,,,,,,,,,,,,,,,,,692.5845446000021,693.648016399995,,,,,,,,,694.6702108000027,694.6702108000027,694.6702108000027,694.6702108000027,694.6702108000027,694.6702108000027,694.6702108000027,694.6702108000027,None,None,None,,,,,,,,,,,687.2240831999952,687.2240831999952,None,,690.5695084000035,692.5845446000021,693.648016399995,693.648016399995,693.648016399995,693.648016399995,c,0.854939299999387,687.2240831999952,687.2240831999952,,,16,001,2024-07-16_14h30.02.479,robot_sternberg_sign,2022.2.5,60.00186005785491,
"['M', 'X']",False,V,2,letter,1,False,False,"['robot_stimuli\\\\filler.mp4', 'robot_stimuli\\\\filler.mp4']",robot_stimuli\\filler.mp4,16,,,,,,,,,,,,,0,14,14,14,,,,,,,,,,,,,,,,,700.2375976000039,701.3006394999975,,,,,,,,,702.5216875000042,702.5216875000042,702.5216875000042,702.5216875000042,702.5216875000042,702.5216875000042,702.5216875000042,702.5216875000042,None,None,None,,,,,,,,,,,694.6702108000027,694.6702108000027,None,,698.0199164000078,700.2375976000039,701.3006394999975,701.3006394999975,701.3006394999975,701.3006394999975,n,0.9778089000028558,694.6702108000027,694.6702108000027,,,16,001,2024-07-16_14h30.02.479,robot_sternberg_sign,2022.2.5,60.00186005785491,
"['X', 'L']",False,W,2,letter,1,False,False,"['robot_stimuli\\\\filler.mp4', 'robot_stimuli\\\\filler.mp4']",robot_stimuli\\filler.mp4,16,,,,,,,,,,,,,0,15,15,15,,,,,,,,,,,,,,,,,707.8867473999999,708.9465127000003,,,,,,,,,711.181420199995,711.181420199995,711.181420199995,711.181420199995,711.181420199995,711.181420199995,711.181420199995,711.181420199995,None,None,None,,,,,,,,,,,702.5216875000042,702.5216875000042,None,,705.8694708999974,707.8867473999999,708.9465127000003,708.9465127000003,708.9465127000003,708.9465127000003,n,2.0365036000002874,702.5216875000042,702.5216875000042,,,16,001,2024-07-16_14h30.02.479,robot_sternberg_sign,2022.2.5,60.00186005785491,
"['D', 'W']",False,F,2,letter,1,False,False,"['robot_stimuli\\\\filler.mp4', 'robot_stimuli\\\\filler.mp4']",robot_stimuli\\filler.mp4,16,,,,,,,,,,,,,0,16,16,16,,,,,,,,,,,,,,,,,716.7527015999949,717.8179352000006,,,,,,,,,719.2408059000009,719.2408059000009,719.2408059000009,719.2408059000009,719.2408059000009,719.2408059000009,719.2408059000009,719.2408059000009,None,None,None,,,,,,,,,,,711.181420199995,711.181420199995,None,,714.5446335000015,716.7527015999949,717.8179352000006,717.8179352000006,717.8179352000006,717.8179352000006,n,1.1805091999995057,711.181420199995,711.181420199995,,,16,001,2024-07-16_14h30.02.479,robot_sternberg_sign,2022.2.5,60.00186005785491,
"['G', 'D']",True,D,2,letter,1,False,False,"['robot_stimuli\\\\filler.mp4', 'robot_stimuli\\\\filler.mp4']",robot_stimuli\\filler.mp4,16,,,,,,,,,,,,,0,17,17,17,,,,,,,,,,,,,,,,,724.6023874999955,725.6751540999976,,,,,,,,,727.3055846000061,727.3055846000061,727.3055846000061,727.3055846000061,727.3055846000061,727.3055846000061,727.3055846000061,727.3055846000061,None,None,None,,,,,,,,,,,719.2408059000009,719.2408059000009,None,,722.5868413999997,724.6023874999955,725.6751540999976,725.6751540999976,725.6751540999976,725.6751540999976,c,1.4987943000014639,719.2408059000009,719.2408059000009,,,16,001,2024-07-16_14h30.02.479,robot_sternberg_sign,2022.2.5,60.00186005785491,
"['V', 'N']",True,N,2,letter,1,False,False,"['robot_stimuli\\\\filler.mp4', 'robot_stimuli\\\\filler.mp4']",robot_stimuli\\filler.mp4,16,,,,,,,,,,,,,0,18,18,18,,,,,,,,,,,,,,,,,732.6724845999997,733.7355047000019,,,,,,,,,735.7590176999947,735.7590176999947,735.7590176999947,735.7590176999947,735.7590176999947,735.7590176999947,735.7590176999947,735.7590176999947,None,None,None,,,,,,,,,,,727.3055846000061,727.3055846000061,None,,730.6606964999955,732.6724845999997,733.7355047000019,733.7355047000019,733.7355047000019,733.7355047000019,c,1.8860829000041122,727.3055846000061,727.3055846000061,,,16,001,2024-07-16_14h30.02.479,robot_sternberg_sign,2022.2.5,60.00186005785491,
"['Q', 'X']",False,B,2,letter,1,False,True,"['robot_stimuli\\\\filler.mp4', 'robot_stimuli\\\\filler.mp4']",robot_stimuli\\filler.mp4,16,,,,,,,,,,,,,0,19,19,19,,,,,,,,,,,,,,,,,740.9396929000068,741.9975972999964,,,,,,,,,743.4563673000084,747.1101209000044,743.4563673000084,747.1101209000044,743.4563673000084,747.1101209000044,743.4563673000084,747.1101209000044,2.5308641975308577,2.7670524999994086,space,,,3.5899030000000494,,,,,,,,735.7590176999947,735.7590176999947,None,,738.917947599999,740.9396929000068,741.9975972999964,741.9975972999964,741.9975972999964,741.9975972999964,n,1.2896309999923687,735.7590176999947,735.7590176999947,,,16,001,2024-07-16_14h30.02.479,robot_sternberg_sign,2022.2.5,60.00186005785491,
"['T', 'K', 'L', 'S', 'Z', 'R']",True,K,6,letter,1,True,False,"['robot_stimuli\\\\filler.mp4', 'robot_stimuli\\\\filler.mp4', 'robot_stimuli\\\\filler.mp4', 'robot_stimuli\\\\filler.mp4', 'robot_stimuli\\\\filler.mp4', 'robot_stimuli\\\\filler.mp4']",robot_stimuli\\filler.mp4,16,,,,,,,,,,,,,0,20,20,20,,,,,,,,,,,,,,,,,766.5655194999999,767.6319832000008,,,,,,,,,769.4563144999993,769.4563144999993,769.4563144999993,769.4563144999993,769.4563144999993,769.4563144999993,769.4563144999993,769.4563144999993,None,None,None,,,,,,,,,,,747.1101209000044,747.1101209000044,space,5.111870900000213,764.3476831000007,766.5655194999999,767.6319832000008,767.6319832000008,767.6319832000008,767.6319832000008,c,1.6233511000027647,,,,,16,001,2024-07-16_14h30.02.479,robot_sternberg_sign,2022.2.5,60.00186005785491,
"['L', 'T', 'X', 'D', 'V', 'M']",False,Z,6,letter,1,False,False,"['robot_stimuli\\\\filler.mp4', 'robot_stimuli\\\\filler.mp4', 'robot_stimuli\\\\filler.mp4', 'robot_stimuli\\\\filler.mp4', 'robot_stimuli\\\\filler.mp4', 'robot_stimuli\\\\filler.mp4']",robot_stimuli\\filler.mp4,16,,,,,,,,,,,,,0,21,21,21,,,,,,,,,,,,,,,,,782.951893400008,784.0219404999953,,,,,,,,,786.0498568000039,786.0498568000039,786.0498568000039,786.0498568000039,786.0498568000039,786.0498568000039,786.0498568000039,786.0498568000039,None,None,None,,,,,,,,,,,769.4563144999993,769.4563144999993,None,,780.9389028000005,782.951893400008,784.0219404999953,784.0219404999953,784.0219404999953,784.0219404999953,n,1.7916161000030115,769.4563144999993,769.4563144999993,,,16,001,2024-07-16_14h30.02.479,robot_sternberg_sign,2022.2.5,60.00186005785491,
"['V', 'T', 'X', 'J', 'B', 'L']",True,T,6,letter,1,False,False,"['robot_stimuli\\\\filler.mp4', 'robot_stimuli\\\\filler.mp4', 'robot_stimuli\\\\filler.mp4', 'robot_stimuli\\\\filler.mp4', 'robot_stimuli\\\\filler.mp4', 'robot_stimuli\\\\filler.mp4']",robot_stimuli\\filler.mp4,16,,,,,,,,,,,,,0,22,22,22,,,,,,,,,,,,,,,,,800.1670272000047,801.230982100009,,,,,,,,,802.8607401000045,802.8607401000045,802.8607401000045,802.8607401000045,802.8607401000045,802.8607401000045,802.8607401000045,802.8607401000045,None,None,None,,,,,,,,,,,786.0498568000039,786.0498568000039,None,,798.1530444999953,800.1670272000047,801.230982100009,801.230982100009,801.230982100009,801.230982100009,c,1.414766400004737,786.0498568000039,786.0498568000039,,,16,001,2024-07-16_14h30.02.479,robot_sternberg_sign,2022.2.5,60.00186005785491,
"['F', 'W', 'T', 'Z', 'G', 'R']",False,S,6,letter,1,False,False,"['robot_stimuli\\\\filler.mp4', 'robot_stimuli\\\\filler.mp4', 'robot_stimuli\\\\filler.mp4', 'robot_stimuli\\\\filler.mp4', 'robot_stimuli\\\\filler.mp4', 'robot_stimuli\\\\filler.mp4']",robot_stimuli\\filler.mp4,16,,,,,,,,,,,,,0,23,23,23,,,,,,,,,,,,,,,,,816.7743061000074,817.832834300003,,,,,,,,,821.0580435000011,821.0580435000011,821.0580435000011,821.0580435000011,821.0580435000011,821.0580435000011,821.0580435000011,821.0580435000011,None,None,None,,,,,,,,,,,802.8607401000045,802.8607401000045,None,,814.7572700000019,816.7743061000074,817.832834300003,817.832834300003,817.832834300003,817.832834300003,n,3.068661199999042,802.8607401000045,802.8607401000045,,,16,001,2024-07-16_14h30.02.479,robot_sternberg_sign,2022.2.5,60.00186005785491,
"['K', 'P', 'R', 'J', 'C', 'D']",False,N,6,letter,1,False,False,"['robot_stimuli\\\\filler.mp4', 'robot_stimuli\\\\filler.mp4', 'robot_stimuli\\\\filler.mp4', 'robot_stimuli\\\\filler.mp4', 'robot_stimuli\\\\filler.mp4', 'robot_stimuli\\\\filler.mp4']",robot_stimuli\\filler.mp4,16,,,,,,,,,,,,,0,24,24,24,,,,,,,,,,,,,,,,,835.1738989000005,836.2344392999948,,,,,,,,,838.4565938000014,838.4565938000014,838.4565938000014,838.4565938000014,838.4565938000014,838.4565938000014,838.4565938000014,838.4565938000014,None,None,None,,,,,,,,,,,821.0580435000011,821.0580435000011,None,,833.1577004999999,835.1738989000005,836.2344392999948,836.2344392999948,836.2344392999948,836.2344392999948,n,1.9791056999965804,821.0580435000011,821.0580435000011,,,16,001,2024-07-16_14h30.02.479,robot_sternberg_sign,2022.2.5,60.00186005785491,
"['C', 'D', 'G', 'W', 'R', 'N']",False,P,6,letter,1,False,False,"['robot_stimuli\\\\filler.mp4', 'robot_stimuli\\\\filler.mp4', 'robot_stimuli\\\\filler.mp4', 'robot_stimuli\\\\filler.mp4', 'robot_stimuli\\\\filler.mp4', 'robot_stimuli\\\\filler.mp4']",robot_stimuli\\filler.mp4,16,,,,,,,,,,,,,0,25,25,25,,,,,,,,,,,,,,,,,852.7879954000091,853.8469063000084,,,,,,,,,855.4796430999995,855.4796430999995,855.4796430999995,855.4796430999995,855.4796430999995,855.4796430999995,855.4796430999995,855.4796430999995,None,None,None,,,,,,,,,,,838.4565938000014,838.4565938000014,None,,850.5696639000089,852.7879954000091,853.8469063000084,853.8469063000084,853.8469063000084,853.8469063000084,n,1.4226346000068588,838.4565938000014,838.4565938000014,,,16,001,2024-07-16_14h30.02.479,robot_sternberg_sign,2022.2.5,60.00186005785491,
"['V', 'B', 'D', 'Z', 'G', 'S']",True,Z,6,letter,1,False,False,"['robot_stimuli\\\\filler.mp4', 'robot_stimuli\\\\filler.mp4', 'robot_stimuli\\\\filler.mp4', 'robot_stimuli\\\\filler.mp4', 'robot_stimuli\\\\filler.mp4', 'robot_stimuli\\\\filler.mp4']",robot_stimuli\\filler.mp4,16,,,,,,,,,,,,,0,26,26,26,,,,,,,,,,,,,,,,,870.0183481999993,871.085118700008,,,,,,,,,873.1116985999979,873.1116985999979,873.1116985999979,873.1116985999979,873.1116985999979,873.1116985999979,873.1116985999979,873.1116985999979,None,None,None,,,,,,,,,,,855.4796430999995,855.4796430999995,None,,867.7957544999954,870.0183481999993,871.085118700008,871.085118700008,871.085118700008,871.085118700008,c,1.9537583999917842,855.4796430999995,855.4796430999995,,,16,001,2024-07-16_14h30.02.479,robot_sternberg_sign,2022.2.5,60.00186005785491,
"['C', 'K', 'Q', 'P', 'L', 'M']",True,M,6,letter,1,False,False,"['robot_stimuli\\\\filler.mp4', 'robot_stimuli\\\\filler.mp4', 'robot_stimuli\\\\filler.mp4', 'robot_stimuli\\\\filler.mp4', 'robot_stimuli\\\\filler.mp4', 'robot_stimuli\\\\filler.mp4']",robot_stimuli\\filler.mp4,16,,,,,,,,,,,,,0,27,27,27,,,,,,,,,,,,,,,,,887.0137744999956,874.1641211999959,,,,,,,,,889.3081428000005,889.3081428000005,889.3081428000005,889.3081428000005,889.3081428000005,889.3081428000005,889.3081428000005,889.3081428000005,None,None,None,,,,,,,,,,,873.1116985999979,873.1116985999979,None,,884.8009982000076,887.0137744999956,888.0837553000019,888.0837553000019,888.0837553000019,888.0837553000019,c,1.1616963999986183,873.1116985999979,873.1116985999979,,,16,001,2024-07-16_14h30.02.479,robot_sternberg_sign,2022.2.5,60.00186005785491,
"['D', 'B', 'V', 'W', 'S', 'R']",True,R,6,letter,1,False,False,"['robot_stimuli\\\\filler.mp4', 'robot_stimuli\\\\filler.mp4', 'robot_stimuli\\\\filler.mp4', 'robot_stimuli\\\\filler.mp4', 'robot_stimuli\\\\filler.mp4', 'robot_stimuli\\\\filler.mp4']",robot_stimuli\\filler.mp4,16,,,,,,,,,,,,,0,28,28,28,,,,,,,,,,,,,,,,,903.2460907000059,890.3657544000016,,,,,,,,,905.937517600003,905.937517600003,905.937517600003,905.937517600003,905.937517600003,905.937517600003,905.937517600003,905.937517600003,None,None,None,,,,,,,,,,,889.3081428000005,889.3081428000005,None,,901.2258079000021,903.2460907000059,904.3143299000076,904.3143299000076,904.3143299000076,904.3143299000076,c,1.484171799995238,889.3081428000005,889.3081428000005,,,16,001,2024-07-16_14h30.02.479,robot_sternberg_sign,2022.2.5,60.00186005785491,
"['C', 'T', 'R', 'P', 'M', 'Z']",False,K,6,letter,1,False,True,"['robot_stimuli\\\\filler.mp4', 'robot_stimuli\\\\filler.mp4', 'robot_stimuli\\\\filler.mp4', 'robot_stimuli\\\\filler.mp4', 'robot_stimuli\\\\filler.mp4', 'robot_stimuli\\\\filler.mp4']",robot_stimuli\\filler.mp4,16,,,,,,,,,,,,,0,29,29,29,,,,,,,,,,,,,,,,,920.2577665999997,921.315131299998,,,,,,,,,922.9673223999998,928.1703250999999,922.9673223999998,928.1703250999999,922.9673223999998,928.1703250999999,922.9673223999998,928.1703250999999,23.518518518518526,4.480198399993242,space,,,5.150623099994846,,,,,,,,905.937517600003,905.937517600003,None,,918.2332836999994,920.2577665999997,921.315131299998,921.315131299998,921.315131299998,921.315131299998,n,1.4192328000062844,905.937517600003,905.937517600003,,,16,001,2024-07-16_14h30.02.479,robot_sternberg_sign,2022.2.5,60.00186005785491,
"['R_Base_X_Back', 'R_Base_X_For', 'L_Arm_Y_Back', 'L_Arm_Y_For', 'L_Arm_Z_For', 'R_Torso_X_For']",True,R_Base_X_Back,6,robot,2,True,False,"['robot_stimuli\\R_Base_X_Back.mp4', 'robot_stimuli\\R_Base_X_For.mp4', 'robot_stimuli\\L_Arm_Y_Back.mp4', 'robot_stimuli\\L_Arm_Y_For.mp4', 'robot_stimuli\\L_Arm_Z_For.mp4', 'robot_stimuli\\R_Torso_X_For.mp4']",robot_stimuli\R_Base_X_Back.mp4,16,,,,,,,,,,,,,0,30,30,30,,,,,,,,,,,,,,,,,959.7943795000028,960.8734767999995,,,,,,,,,966.6188632999983,966.6188632999983,966.6188632999983,966.6188632999983,966.6188632999983,966.6188632999983,966.6188632999983,966.6188632999983,None,None,None,,,,,,,,,,,928.1703250999999,928.1703250999999,space,8.331832000010763,,,,960.8734767999995,960.8734767999995,960.8734767999995,n,5.708506900002249,,,956.1708346999949,960.8734767999995,16,001,2024-07-16_14h30.02.479,robot_sternberg_sign,2022.2.5,60.00186005785491,
"['L_Arm_X_For', 'R_Base_Y_Back', 'R_Torso_Z_For', 'L_Base_Z_For', 'L_Head_Z_Back', 'R_Head_Y_For']",False,R_Arm_Y_Back,6,robot,2,False,False,"['robot_stimuli\\L_Arm_X_For.mp4', 'robot_stimuli\\R_Base_Y_Back.mp4', 'robot_stimuli\\R_Torso_Z_For.mp4', 'robot_stimuli\\L_Base_Z_For.mp4', 'robot_stimuli\\L_Head_Z_Back.mp4', 'robot_stimuli\\R_Head_Y_For.mp4']",robot_stimuli\R_Arm_Y_Back.mp4,16,,,,,,,,,,,,,0,31,31,31,,,,,,,,,,,,,,,,,989.9513447000063,991.0398376000085,,,,,,,,,998.370945600007,998.370945600007,998.370945600007,998.370945600007,998.370945600007,998.370945600007,998.370945600007,998.370945600007,None,None,None,,,,,,,,,,,966.6188632999983,966.6188632999983,None,,,,,991.0398376000085,991.0398376000085,991.0398376000085,n,7.2937252999981865,966.6188632999983,966.6188632999983,986.3199505000084,991.0398376000085,16,001,2024-07-16_14h30.02.479,robot_sternberg_sign,2022.2.5,60.00186005785491,
"['R_Base_X_Back', 'R_Arm_Z_Back', 'R_Torso_X_For', 'R_Head_Y_Back', 'L_Base_X_Back', 'R_Head_X_Back']",True,R_Head_Y_Back,6,robot,2,False,False,"['robot_stimuli\\R_Base_X_Back.mp4', 'robot_stimuli\\R_Arm_Z_Back.mp4', 'robot_stimuli\\R_Torso_X_For.mp4', 'robot_stimuli\\R_Head_Y_Back.mp4', 'robot_stimuli\\L_Base_X_Back.mp4', 'robot_stimuli\\R_Head_X_Back.mp4']",robot_stimuli\R_Head_Y_Back.mp4,16,,,,,,,,,,,,,0,32,32,32,,,,,,,,,,,,,,,,,1021.6989948999981,1022.7874397999985,,,,,,,,,1027.5942113000056,1027.5942113000056,1027.5942113000056,1027.5942113000056,1027.5942113000056,1027.5942113000056,1027.5942113000056,1027.5942113000056,None,None,None,,,,,,,,,,,998.370945600007,998.370945600007,None,,,,,1022.7874397999985,1022.7874397999985,1022.7874397999985,c,4.762004200005322,998.370945600007,998.370945600007,1018.0666399000038,1022.7874397999985,16,001,2024-07-16_14h30.02.479,robot_sternberg_sign,2022.2.5,60.00186005785491,
"['L_Head_Z_For', 'R_Base_Y_Back', 'L_Arm_Z_Back', 'R_Base_Z_For', 'L_Torso_Z_Back', 'R_Base_Y_For']",True,L_Arm_Z_Back,6,robot,2,False,False,"['robot_stimuli\\L_Head_Z_For.mp4', 'robot_stimuli\\R_Base_Y_Back.mp4', 'robot_stimuli\\L_Arm_Z_Back.mp4', 'robot_stimuli\\R_Base_Z_For.mp4', 'robot_stimuli\\L_Torso_Z_Back.mp4', 'robot_stimuli\\R_Base_Y_For.mp4']",robot_stimuli\L_Arm_Z_Back.mp4,16,,,,,,,,,,,,,0,33,33,33,,,,,,,,,,,,,,,,,1050.8024688000005,1051.8895869999978,,,,,,,,,1056.1738581999962,1056.1738581999962,1056.1738581999962,1056.1738581999962,1056.1738581999962,1056.1738581999962,1056.1738581999962,1056.1738581999962,None,None,None,,,,,,,,,,,1027.5942113000056,1027.5942113000056,None,,,,,1051.8895869999978,1051.8895869999978,1051.8895869999978,c,4.245207700005267,1027.5942113000056,1027.5942113000056,1047.169025700001,1051.8895869999978,16,001,2024-07-16_14h30.02.479,robot_sternberg_sign,2022.2.5,60.00186005785491,
"['L_Torso_Y_Back', 'L_Torso_X_Back', 'L_Base_X_Back', 'L_Base_Y_Back', 'L_Arm_X_Back', 'L_Torso_Y_For']",False,L_Arm_Z_Back,6,robot,2,False,False,"['robot_stimuli\\L_Torso_Y_Back.mp4', 'robot_stimuli\\L_Torso_X_Back.mp4', 'robot_stimuli\\L_Base_X_Back.mp4', 'robot_stimuli\\L_Base_Y_Back.mp4', 'robot_stimuli\\L_Arm_X_Back.mp4', 'robot_stimuli\\L_Torso_Y_For.mp4']",robot_stimuli\L_Arm_Z_Back.mp4,16,,,,,,,,,,,,,0,34,34,34,,,,,,,,,,,,,,,,,1079.263494400002,1057.254869700002,,,,,,,,,1087.107699500004,1087.107699500004,1087.107699500004,1087.107699500004,1087.107699500004,1087.107699500004,1087.107699500004,1087.107699500004,None,None,None,,,,,,,,,,,1056.1738581999962,1056.1738581999962,None,,,,,1080.3534519999957,1080.3534519999957,1080.3534519999957,c,6.725333499998669,1056.1738581999962,1056.1738581999962,1075.632868700006,1080.3534519999957,16,001,2024-07-16_14h30.02.479,robot_sternberg_sign,2022.2.5,60.00186005785491,
"['R_Head_Z_Back', 'R_Head_Y_Back', 'R_Arm_Y_For', 'R_Head_X_For', 'R_Base_X_Back', 'R_Torso_Z_For']",True,R_Head_Y_Back,6,robot,2,False,False,"['robot_stimuli\\R_Head_Z_Back.mp4', 'robot_stimuli\\R_Head_Y_Back.mp4', 'robot_stimuli\\R_Arm_Y_For.mp4', 'robot_stimuli\\R_Head_X_For.mp4', 'robot_stimuli\\R_Base_X_Back.mp4', 'robot_stimuli\\R_Torso_Z_For.mp4']",robot_stimuli\R_Head_Y_Back.mp4,16,,,,,,,,,,,,,0,35,35,35,,,,,,,,,,,,,,,,,1110.2837494999985,1111.3708656999952,,,,,,,,,1115.7416708999954,1115.7416708999954,1115.7416708999954,1115.7416708999954,1115.7416708999954,1115.7416708999954,1115.7416708999954,1115.7416708999954,None,None,None,,,,,,,,,,,1087.107699500004,1087.107699500004,None,,,,,1111.3708656999952,1111.3708656999952,1111.3708656999952,c,4.339953800008516,1087.107699500004,1087.107699500004,1106.6520423000038,1111.3708656999952,16,001,2024-07-16_14h30.02.479,robot_sternberg_sign,2022.2.5,60.00186005785491,
"['R_Torso_X_Back', 'R_Arm_Y_For', 'L_Head_X_Back', 'R_Torso_Y_For', 'R_Torso_Z_For', 'L_Torso_Y_For']",True,R_Arm_Y_For,6,robot,2,False,False,"['robot_stimuli\\R_Torso_X_Back.mp4', 'robot_stimuli\\R_Arm_Y_For.mp4', 'robot_stimuli\\L_Head_X_Back.mp4', 'robot_stimuli\\R_Torso_Y_For.mp4', 'robot_stimuli\\R_Torso_Z_For.mp4', 'robot_stimuli\\L_Torso_Y_For.mp4']",robot_stimuli\R_Arm_Y_For.mp4,16,,,,,,,,,,,,,0,36,36,36,,,,,,,,,,,,,,,,,1138.9344378999958,1140.0290982000006,,,,,,,,,1145.325800000006,1145.325800000006,1145.325800000006,1145.325800000006,1145.325800000006,1145.325800000006,1145.325800000006,1145.325800000006,None,None,None,,,,,,,,,,,1115.7416708999954,1115.7416708999954,None,,,,,1140.0290982000006,1140.0290982000006,1140.0290982000006,c,5.265231700002914,1115.7416708999954,1115.7416708999954,1135.3001167000039,1140.0290982000006,16,001,2024-07-16_14h30.02.479,robot_sternberg_sign,2022.2.5,60.00186005785491,
"['R_Base_Y_For', 'R_Torso_Z_Back', 'L_Torso_Y_For', 'L_Arm_X_For', 'R_Arm_Z_For', 'R_Base_Y_Back']",False,R_Head_Z_For,6,robot,2,False,False,"['robot_stimuli\\R_Base_Y_For.mp4', 'robot_stimuli\\R_Torso_Z_Back.mp4', 'robot_stimuli\\L_Torso_Y_For.mp4', 'robot_stimuli\\L_Arm_X_For.mp4', 'robot_stimuli\\R_Arm_Z_For.mp4', 'robot_stimuli\\R_Base_Y_Back.mp4']",robot_stimuli\R_Head_Z_For.mp4,16,,,,,,,,,,,,,0,37,37,37,,,,,,,,,,,,,,,,,1168.6484215000091,1169.7406572000036,,,,,,,,,1174.157131400003,1174.157131400003,1174.157131400003,1174.157131400003,1174.157131400003,1174.157131400003,1174.157131400003,1174.157131400003,None,None,None,,,,,,,,,,,1145.325800000006,1145.325800000006,None,,,,,1169.7406572000036,1169.7406572000036,1169.7406572000036,n,4.384898100004648,1145.325800000006,1145.325800000006,1165.007522800006,1169.7406572000036,16,001,2024-07-16_14h30.02.479,robot_sternberg_sign,2022.2.5,60.00186005785491,
"['L_Head_Y_For', 'R_Torso_Z_For', 'L_Head_Y_Back', 'L_Head_Z_Back', 'R_Base_X_For', 'R_Torso_X_For']",False,L_Arm_Y_Back,6,robot,2,False,False,"['robot_stimuli\\L_Head_Y_For.mp4', 'robot_stimuli\\R_Torso_Z_For.mp4', 'robot_stimuli\\L_Head_Y_Back.mp4', 'robot_stimuli\\L_Head_Z_Back.mp4', 'robot_stimuli\\R_Base_X_For.mp4', 'robot_stimuli\\R_Torso_X_For.mp4']",robot_stimuli\L_Arm_Y_Back.mp4,16,,,,,,,,,,,,,0,38,38,38,,,,,,,,,,,,,,,,,1197.370720699997,1198.4703104000073,,,,,,,,,1203.0366481000092,1203.0366481000092,1203.0366481000092,1203.0366481000092,1203.0366481000092,1203.0366481000092,1203.0366481000092,1203.0366481000092,None,None,None,,,,,,,,,,,1174.157131400003,1174.157131400003,None,,,,,1198.4703104000073,1198.4703104000073,1198.4703104000073,c,4.528015899995808,1174.157131400003,1174.157131400003,1193.7358859000087,1198.4703104000073,16,001,2024-07-16_14h30.02.479,robot_sternberg_sign,2022.2.5,60.00186005785491,
"['R_Base_Y_Back', 'R_Base_Y_For', 'R_Base_X_Back', 'R_Head_Z_Back', 'L_Base_Y_For', 'L_Torso_Y_Back']",False,R_Arm_X_For,6,robot,2,False,True,"['robot_stimuli\\R_Base_Y_Back.mp4', 'robot_stimuli\\R_Base_Y_For.mp4', 'robot_stimuli\\R_Base_X_Back.mp4', 'robot_stimuli\\R_Head_Z_Back.mp4', 'robot_stimuli\\L_Base_Y_For.mp4', 'robot_stimuli\\L_Torso_Y_Back.mp4']",robot_stimuli\R_Arm_X_For.mp4,16,,,,,,,,,,,,,0,39,39,39,,,,,,,,,,,,,,,,,1226.1534060999984,1227.239663100001,,,,,,,,,1231.377667000008,1236.018052200001,1231.377667000008,1236.018052200001,1231.377667000008,1236.018052200001,1231.377667000008,1236.018052200001,69.6604938271605,3.4545896999916295,space,,,4.580935300007695,,,,,,,,1203.0366481000092,1203.0366481000092,None,,,,,1227.239663100001,1227.239663100001,1227.239663100001,n,4.062149999997928,1203.0366481000092,1203.0366481000092,1222.6548752999952,1227.239663100001,16,001,2024-07-16_14h30.02.479,robot_sternberg_sign,2022.2.5,60.00186005785491,
"['R_Arm_X_Back', 'R_Torso_Z_Back', 'L_Arm_Y_Back', 'R_Head_Y_For']",False,L_Arm_Y_For,4,robot,2,True,False,"['robot_stimuli\\R_Arm_X_Back.mp4', 'robot_stimuli\\R_Torso_Z_Back.mp4', 'robot_stimuli\\L_Arm_Y_Back.mp4', 'robot_stimuli\\R_Head_Y_For.mp4']",robot_stimuli\L_Arm_Y_For.mp4,16,,,,,,,,,,,,,0,40,40,40,,,,,,,,,,,,,,,,,1255.4948970999976,1256.5718220999988,,,,,,,,,1263.1904826999962,1263.1904826999962,1263.1904826999962,1263.1904826999962,1263.1904826999962,1263.1904826999962,1263.1904826999962,1263.1904826999962,None,None,None,,,,,,,,,,,1236.018052200001,1236.018052200001,space,3.5635146999993594,,,,1256.5718220999988,1256.5718220999988,1256.5718220999988,n,6.586608400000841,,,1251.8715503999993,1256.5718220999988,16,001,2024-07-16_14h30.02.479,robot_sternberg_sign,2022.2.5,60.00186005785491,
"['L_Torso_Z_For', 'R_Head_Z_For', 'R_Arm_X_For', 'L_Arm_Z_For']",True,R_Head_Z_For,4,robot,2,False,False,"['robot_stimuli\\L_Torso_Z_For.mp4', 'robot_stimuli\\R_Head_Z_For.mp4', 'robot_stimuli\\R_Arm_X_For.mp4', 'robot_stimuli\\L_Arm_Z_For.mp4']",robot_stimuli\R_Head_Z_For.mp4,16,,,,,,,,,,,,,0,41,41,41,,,,,,,,,,,,,,,,,1279.0869066000014,1280.1873342000035,,,,,,,,,1283.9724748000008,1283.9724748000008,1283.9724748000008,1283.9724748000008,1283.9724748000008,1283.9724748000008,1283.9724748000008,1283.9724748000008,None,None,None,,,,,,,,,,,1263.1904826999962,1263.1904826999962,None,,,,,1280.1873342000035,1280.1873342000035,1280.1873342000035,c,3.747156899989932,1263.1904826999962,1263.1904826999962,1275.4505930000014,1280.1873342000035,16,001,2024-07-16_14h30.02.479,robot_sternberg_sign,2022.2.5,60.00186005785491,
"['R_Arm_X_For', 'R_Head_Y_For', 'L_Head_Y_Back', 'L_Base_Y_Back']",True,L_Head_Y_Back,4,robot,2,False,False,"['robot_stimuli\\R_Arm_X_For.mp4', 'robot_stimuli\\R_Head_Y_For.mp4', 'robot_stimuli\\L_Head_Y_Back.mp4', 'robot_stimuli\\L_Base_Y_Back.mp4']",robot_stimuli\L_Head_Y_Back.mp4,16,,,,,,,,,,,,,0,42,42,42,,,,,,,,,,,,,,,,,1299.7795803000045,1285.0491574000043,,,,,,,,,1304.5872774000018,1304.5872774000018,1304.5872774000018,1304.5872774000018,1304.5872774000018,1304.5872774000018,1304.5872774000018,1304.5872774000018,None,None,None,,,,,,,,,,,1283.9724748000008,1283.9724748000008,None,,,,,1300.8724833000015,1300.8724833000015,1300.8724833000015,c,3.6791384000098333,1283.9724748000008,1283.9724748000008,1296.2144310000003,1300.8724833000015,16,001,2024-07-16_14h30.02.479,robot_sternberg_sign,2022.2.5,60.00186005785491,
"['R_Arm_Z_Back', 'R_Base_Y_Back', 'R_Base_Y_For', 'R_Head_Z_For']",True,R_Base_Y_Back,4,robot,2,False,False,"['robot_stimuli\\R_Arm_Z_Back.mp4', 'robot_stimuli\\R_Base_Y_Back.mp4', 'robot_stimuli\\R_Base_Y_For.mp4', 'robot_stimuli\\R_Head_Z_For.mp4']",robot_stimuli\R_Base_Y_Back.mp4,16,,,,,,,,,,,,,0,43,43,43,,,,,,,,,,,,,,,,,1320.4680547000025,1321.5570934999996,,,,,,,,,1325.374968899996,1325.374968899996,1325.374968899996,1325.374968899996,1325.374968899996,1325.374968899996,1325.374968899996,1325.374968899996,None,None,None,,,,,,,,,,,1304.5872774000018,1304.5872774000018,None,,,,,1321.5570934999996,1321.5570934999996,1321.5570934999996,c,3.776627599989297,1304.5872774000018,1304.5872774000018,1316.8369789999997,1321.5570934999996,16,001,2024-07-16_14h30.02.479,robot_sternberg_sign,2022.2.5,60.00186005785491,
"['R_Torso_Z_Back', 'R_Arm_X_For', 'R_Base_X_Back', 'R_Torso_Z_For']",False,L_Base_X_For,4,robot,2,False,False,"['robot_stimuli\\R_Torso_Z_Back.mp4', 'robot_stimuli\\R_Arm_X_For.mp4', 'robot_stimuli\\R_Base_X_Back.mp4', 'robot_stimuli\\R_Torso_Z_For.mp4']",robot_stimuli\L_Base_X_For.mp4,16,,,,,,,,,,,,,0,44,44,44,,,,,,,,,,,,,,,,,1341.2451719999954,1342.3215457000042,,,,,,,,,1346.4207524000085,1346.4207524000085,1346.4207524000085,1346.4207524000085,1346.4207524000085,1346.4207524000085,1346.4207524000085,1346.4207524000085,None,None,None,,,,,,,,,,,1325.374968899996,1325.374968899996,None,,,,,1342.3215457000042,1342.3215457000042,1342.3215457000042,n,4.0623172000050545,1325.374968899996,1325.374968899996,1337.622415699996,1342.3215457000042,16,001,2024-07-16_14h30.02.479,robot_sternberg_sign,2022.2.5,60.00186005785491,
"['R_Base_X_Back', 'L_Torso_X_Back', 'L_Head_X_For', 'L_Base_Z_For']",False,L_Torso_Z_For,4,robot,2,False,False,"['robot_stimuli\\R_Base_X_Back.mp4', 'robot_stimuli\\L_Torso_X_Back.mp4', 'robot_stimuli\\L_Head_X_For.mp4', 'robot_stimuli\\L_Base_Z_For.mp4']",robot_stimuli\L_Torso_Z_For.mp4,16,,,,,,,,,,,,,0,45,45,45,,,,,,,,,,,,,,,,,1362.2188554000022,1363.304848700005,,,,,,,,,1367.4112576000043,1367.4112576000043,1367.4112576000043,1367.4112576000043,1367.4112576000043,1367.4112576000043,1367.4112576000043,1367.4112576000043,None,None,None,,,,,,,,,,,1346.4207524000085,1346.4207524000085,None,,,,,1363.304848700005,1363.304848700005,1363.304848700005,c,4.06132069999876,1346.4207524000085,1346.4207524000085,1358.587891800009,1363.304848700005,16,001,2024-07-16_14h30.02.479,robot_sternberg_sign,2022.2.5,60.00186005785491,
"['R_Torso_X_Back', 'R_Torso_Y_For', 'R_Torso_Y_Back', 'R_Base_Z_Back']",False,R_Torso_Z_Back,4,robot,2,False,False,"['robot_stimuli\\R_Torso_X_Back.mp4', 'robot_stimuli\\R_Torso_Y_For.mp4', 'robot_stimuli\\R_Torso_Y_Back.mp4', 'robot_stimuli\\R_Base_Z_Back.mp4']",robot_stimuli\R_Torso_Z_Back.mp4,16,,,,,,,,,,,,,0,46,46,46,,,,,,,,,,,,,,,,,1383.1979398999974,1368.4855922999996,,,,,,,,,1388.224429199996,1388.224429199996,1388.224429199996,1388.224429199996,1388.224429199996,1388.224429199996,1388.224429199996,1388.224429199996,None,None,None,,,,,,,,,,,1367.4112576000043,1367.4112576000043,None,,,,,1384.2894977999968,1384.2894977999968,1384.2894977999968,c,3.8926252000092063,1367.4112576000043,1367.4112576000043,1379.6555776000023,1384.2894977999968,16,001,2024-07-16_14h30.02.479,robot_sternberg_sign,2022.2.5,60.00186005785491,
"['R_Head_Y_Back', 'R_Torso_X_Back', 'R_Arm_X_Back', 'R_Head_X_For']",True,R_Torso_X_Back,4,robot,2,False,False,"['robot_stimuli\\R_Head_Y_Back.mp4', 'robot_stimuli\\R_Torso_X_Back.mp4', 'robot_stimuli\\R_Arm_X_Back.mp4', 'robot_stimuli\\R_Head_X_For.mp4']",robot_stimuli\R_Torso_X_Back.mp4,16,,,,,,,,,,,,,0,47,47,47,,,,,,,,,,,,,,,,,1404.0856670000067,1405.1723191000056,,,,,,,,,1408.8112825999997,1408.8112825999997,1408.8112825999997,1408.8112825999997,1408.8112825999997,1408.8112825999997,1408.8112825999997,1408.8112825999997,None,None,None,,,,,,,,,,,1388.224429199996,1388.224429199996,None,,,,,1405.1723191000056,1405.1723191000056,1405.1723191000056,c,3.5862755000125617,1388.224429199996,1388.224429199996,1400.4530446999997,1405.1723191000056,16,001,2024-07-16_14h30.02.479,robot_sternberg_sign,2022.2.5,60.00186005785491,
"['L_Base_Y_For', 'L_Arm_Y_Back', 'L_Arm_X_For', 'R_Head_Y_For']",True,L_Arm_Y_Back,4,robot,2,False,False,"['robot_stimuli\\L_Base_Y_For.mp4', 'robot_stimuli\\L_Arm_Y_Back.mp4', 'robot_stimuli\\L_Arm_X_For.mp4', 'robot_stimuli\\R_Head_Y_For.mp4']",robot_stimuli\L_Arm_Y_Back.mp4,16,,,,,,,,,,,,,0,48,48,48,,,,,,,,,,,,,,,,,1424.583278799997,1425.6715071000071,,,,,,,,,1429.3946585000085,1429.3946585000085,1429.3946585000085,1429.3946585000085,1429.3946585000085,1429.3946585000085,1429.3946585000085,1429.3946585000085,None,None,None,,,,,,,,,,,1408.8112825999997,1408.8112825999997,None,,,,,1425.6715071000071,1425.6715071000071,1425.6715071000071,c,3.6790336999983992,1408.8112825999997,1408.8112825999997,1420.941007100002,1425.6715071000071,16,001,2024-07-16_14h30.02.479,robot_sternberg_sign,2022.2.5,60.00186005785491,
"['L_Head_X_For', 'R_Head_Z_For', 'L_Arm_X_For', 'R_Torso_Y_Back']",False,L_Head_Y_Back,4,robot,2,False,True,"['robot_stimuli\\L_Head_X_For.mp4', 'robot_stimuli\\R_Head_Z_For.mp4', 'robot_stimuli\\L_Arm_X_For.mp4', 'robot_stimuli\\R_Torso_Y_Back.mp4']",robot_stimuli\L_Head_Y_Back.mp4,16,,,,,,,,,,,,,0,49,49,49,,,,,,,,,,,,,,,,,1445.1978634999978,1430.4660873999965,,,,,,,,,1449.9515473000065,1454.3410147999966,1449.9515473000065,1454.3410147999966,1449.9515473000065,1454.3410147999966,1449.9515473000065,1454.3410147999966,57.46913580246914,3.5615278000041144,space,,,4.335412600004929,,,,,,,,1429.3946585000085,1429.3946585000085,None,,,,,1446.2891333000007,1446.2891333000007,1446.2891333000007,n,2.797394200009876,1429.3946585000085,1429.3946585000085,1441.5565673000092,1446.2891333000007,16,001,2024-07-16_14h30.02.479,robot_sternberg_sign,2022.2.5,60.00186005785491,
"['R_Arm_Y_For', 'R_Arm_Z_Back']",True,R_Arm_Z_Back,2,robot,2,True,False,"['robot_stimuli\\R_Arm_Y_For.mp4', 'robot_stimuli\\R_Arm_Z_Back.mp4']",robot_stimuli\R_Arm_Z_Back.mp4,16,,,,,,,,,,,,,0,50,50,50,,,,,,,,,,,,,,,,,1463.828502000004,1464.907191300008,,,,,,,,,1468.5448814999982,1468.5448814999982,1468.5448814999982,1468.5448814999982,1468.5448814999982,1468.5448814999982,1468.5448814999982,1468.5448814999982,None,None,None,,,,,,,,,,,1454.3410147999966,1454.3410147999966,space,1.1697219000052428,,,,1464.907191300008,1464.907191300008,1464.907191300008,c,3.004405699990457,,,1460.2051558999956,1464.907191300008,16,001,2024-07-16_14h30.02.479,robot_sternberg_sign,2022.2.5,60.00186005785491,
"['L_Arm_X_Back', 'R_Head_Y_For']",False,L_Head_Z_Back,2,robot,2,False,False,"['robot_stimuli\\L_Arm_X_Back.mp4', 'robot_stimuli\\R_Head_Y_For.mp4']",robot_stimuli\L_Head_Z_Back.mp4,16,,,,,,,,,,,,,0,51,51,51,,,,,,,,,,,,,,,,,1476.985692999995,1478.0875654999982,,,,,,,,,1481.7301152,1481.7301152,1481.7301152,1481.7301152,1481.7301152,1481.7301152,1481.7301152,1481.7301152,None,None,None,,,,,,,,,,,1468.5448814999982,1468.5448814999982,None,,,,,1478.0875654999982,1478.0875654999982,1478.0875654999982,n,3.1109286000137217,1468.5448814999982,1468.5448814999982,1473.3425255000038,1478.0875654999982,16,001,2024-07-16_14h30.02.479,robot_sternberg_sign,2022.2.5,60.00186005785491,
"['L_Torso_X_Back', 'R_Base_X_Back']",False,R_Head_Y_For,2,robot,2,False,False,"['robot_stimuli\\L_Torso_X_Back.mp4', 'robot_stimuli\\R_Base_X_Back.mp4']",robot_stimuli\R_Head_Y_For.mp4,16,,,,,,,,,,,,,0,52,52,52,,,,,,,,,,,,,,,,,1490.200617800001,1491.288687799999,,,,,,,,,1494.9412663999974,1494.9412663999974,1494.9412663999974,1494.9412663999974,1494.9412663999974,1494.9412663999974,1494.9412663999974,1494.9412663999974,None,None,None,,,,,,,,,,,1481.7301152,1481.7301152,None,,,,,1491.288687799999,1491.288687799999,1491.288687799999,n,3.429867100014235,1481.7301152,1481.7301152,1486.5612054999947,1491.288687799999,16,001,2024-07-16_14h30.02.479,robot_sternberg_sign,2022.2.5,60.00186005785491,
"['L_Base_Z_Back', 'R_Base_Z_For']",True,R_Base_Z_For,2,robot,2,False,False,"['robot_stimuli\\L_Base_Z_Back.mp4', 'robot_stimuli\\R_Base_Z_For.mp4']",robot_stimuli\R_Base_Z_For.mp4,16,,,,,,,,,,,,,0,53,53,53,,,,,,,,,,,,,,,,,1503.4171806000086,1504.5097307999968,,,,,,,,,1508.157565600006,1508.157565600006,1508.157565600006,1508.157565600006,1508.157565600006,1508.157565600006,1508.157565600006,1508.157565600006,None,None,None,,,,,,,,,,,1494.9412663999974,1494.9412663999974,None,,,,,1504.5097307999968,1504.5097307999968,1504.5097307999968,c,3.601212299996405,1494.9412663999974,1494.9412663999974,1499.7758027999953,1504.5097307999968,16,001,2024-07-16_14h30.02.479,robot_sternberg_sign,2022.2.5,60.00186005785491,
"['L_Base_X_For', 'L_Arm_X_For']",True,L_Arm_X_For,2,robot,2,False,False,"['robot_stimuli\\L_Base_X_For.mp4', 'robot_stimuli\\L_Arm_X_For.mp4']",robot_stimuli\L_Arm_X_For.mp4,16,,,,,,,,,,,,,0,54,54,54,,,,,,,,,,,,,,,,,1516.5510098999948,1517.6381985000044,,,,,,,,,1521.4276956999965,1521.4276956999965,1521.4276956999965,1521.4276956999965,1521.4276956999965,1521.4276956999965,1521.4276956999965,1521.4276956999965,None,None,None,,,,,,,,,,,1508.157565600006,1508.157565600006,None,,,,,1517.6381985000044,1517.6381985000044,1517.6381985000044,c,3.744459800000186,1508.157565600006,1508.157565600006,1512.9090911999956,1517.6381985000044,16,001,2024-07-16_14h30.02.479,robot_sternberg_sign,2022.2.5,60.00186005785491,
"['R_Torso_X_For', 'R_Head_Y_For']",True,R_Torso_X_For,2,robot,2,False,False,"['robot_stimuli\\R_Torso_X_For.mp4', 'robot_stimuli\\R_Head_Y_For.mp4']",robot_stimuli\R_Torso_X_For.mp4,16,,,,,,,,,,,,,0,55,55,55,,,,,,,,,,,,,,,,,1529.8641908999998,1522.5038569000026,,,,,,,,,1534.5941142000083,1534.5941142000083,1534.5941142000083,1534.5941142000083,1534.5941142000083,1534.5941142000083,1534.5941142000083,1534.5941142000083,None,None,None,,,,,,,,,,,1521.4276956999965,1521.4276956999965,None,,,,,1530.952256699995,1530.952256699995,1530.952256699995,c,2.7192302999901585,1521.4276956999965,1521.4276956999965,1526.2224889000063,1530.952256699995,16,001,2024-07-16_14h30.02.479,robot_sternberg_sign,2022.2.5,60.00186005785491,
"['L_Base_Z_Back', 'L_Arm_Z_Back']",True,L_Base_Z_Back,2,robot,2,False,False,"['robot_stimuli\\L_Base_Z_Back.mp4', 'robot_stimuli\\L_Arm_Z_Back.mp4']",robot_stimuli\L_Base_Z_Back.mp4,16,,,,,,,,,,,,,0,56,56,56,,,,,,,,,,,,,,,,,1543.0344671000057,1544.1272223999986,,,,,,,,,1547.775533299995,1547.775533299995,1547.775533299995,1547.775533299995,1547.775533299995,1547.775533299995,1547.775533299995,1547.775533299995,None,None,None,,,,,,,,,,,1534.5941142000083,1534.5941142000083,None,,,,,1544.1272223999986,1544.1272223999986,1544.1272223999986,c,3.4958528999995906,1534.5941142000083,1534.5941142000083,1539.394539300003,1544.1272223999986,16,001,2024-07-16_14h30.02.479,robot_sternberg_sign,2022.2.5,60.00186005785491,
"['R_Arm_Y_Back', 'R_Base_X_For']",False,L_Head_X_For,2,robot,2,False,False,"['robot_stimuli\\R_Arm_Y_Back.mp4', 'robot_stimuli\\R_Base_X_For.mp4']",robot_stimuli\L_Head_X_For.mp4,16,,,,,,,,,,,,,0,57,57,57,,,,,,,,,,,,,,,,,1556.1181842000078,1557.214130200009,,,,,,,,,1560.9029600000067,1560.9029600000067,1560.9029600000067,1560.9029600000067,1560.9029600000067,1560.9029600000067,1560.9029600000067,1560.9029600000067,None,None,None,,,,,,,,,,,1547.775533299995,1547.775533299995,None,,,,,1557.214130200009,1557.214130200009,1557.214130200009,n,3.657180199996219,1547.775533299995,1547.775533299995,1552.577868399996,1557.214130200009,16,001,2024-07-16_14h30.02.479,robot_sternberg_sign,2022.2.5,60.00186005785491,
"['L_Arm_Y_Back', 'R_Base_Z_For']",False,L_Arm_Z_For,2,robot,2,False,False,"['robot_stimuli\\L_Arm_Y_Back.mp4', 'robot_stimuli\\R_Base_Z_For.mp4']",robot_stimuli\L_Arm_Z_For.mp4,16,,,,,,,,,,,,,0,58,58,58,,,,,,,,,,,,,,,,,1569.3289237999998,1570.402450900001,,,,,,,,,1574.0558110999991,1574.0558110999991,1574.0558110999991,1574.0558110999991,1574.0558110999991,1574.0558110999991,1574.0558110999991,1574.0558110999991,None,None,None,,,,,,,,,,,1560.9029600000067,1560.9029600000067,None,,,,,1570.402450900001,1570.402450900001,1570.402450900001,n,3.6126338000030955,1560.9029600000067,1560.9029600000067,1565.7074792000058,1570.402450900001,16,001,2024-07-16_14h30.02.479,robot_sternberg_sign,2022.2.5,60.00186005785491,
"['L_Arm_Z_Back', 'L_Arm_X_Back']",False,R_Arm_X_Back,2,robot,2,False,True,"['robot_stimuli\\L_Arm_Z_Back.mp4', 'robot_stimuli\\L_Arm_X_Back.mp4']",robot_stimuli\R_Arm_X_Back.mp4,16,,,,,,,,,,,,,0,59,59,59,,,,,,,,,,,,,,,,,1582.4786246000003,1583.5574553000042,,,,,,,,,1587.2369463000068,1593.2863690000086,1587.2369463000068,1593.2863690000086,1587.2369463000068,1593.2863690000086,1587.2369463000068,1593.2863690000086,44.50617283950618,4.65350820000458,space,,,5.99339790000522,,,,,,,,1574.0558110999991,1574.0558110999991,None,,,,,1583.5574553000042,1583.5574553000042,1583.5574553000042,n,3.1370040999900084,1574.0558110999991,1574.0558110999991,1578.8500184000004,1583.5574553000042,16,001,2024-07-16_14h30.02.479,robot_sternberg_sign,2022.2.5,60.00186005785491,
"['M', 'S', 'Z', 'V', 'N', 'J']",True,S,6,letter,3,True,False,"['robot_stimuli\\\\filler.mp4', 'robot_stimuli\\\\filler.mp4', 'robot_stimuli\\\\filler.mp4', 'robot_stimuli\\\\filler.mp4', 'robot_stimuli\\\\filler.mp4', 'robot_stimuli\\\\filler.mp4']",robot_stimuli\\filler.mp4,16,,,,,,,,,,,,,0,60,60,60,,,,,,,,,,,,,,,,,1610.740772300007,1611.7995907000004,,,,,,,,,1613.8309322999994,1613.8309322999994,1613.8309322999994,1613.8309322999994,1613.8309322999994,1613.8309322999994,1613.8309322999994,1613.8309322999994,None,None,None,,,,,,,,,,,1593.2863690000086,1593.2863690000086,space,3.5365818999998737,1608.5302991000062,1610.740772300007,1611.7995907000004,1611.7995907000004,1611.7995907000004,1611.7995907000004,c,1.7984320000105072,,,,,16,001,2024-07-16_14h30.02.479,robot_sternberg_sign,2022.2.5,60.00186005785491,
"['B', 'Z', 'V', 'N', 'K', 'X']",False,R,6,letter,3,False,False,"['robot_stimuli\\\\filler.mp4', 'robot_stimuli\\\\filler.mp4', 'robot_stimuli\\\\filler.mp4', 'robot_stimuli\\\\filler.mp4', 'robot_stimuli\\\\filler.mp4', 'robot_stimuli\\\\filler.mp4']",robot_stimuli\\filler.mp4,16,,,,,,,,,,,,,0,61,61,61,,,,,,,,,,,,,,,,,1627.5425630999962,1628.6021653000062,,,,,,,,,1630.6285618999973,1630.6285618999973,1630.6285618999973,1630.6285618999973,1630.6285618999973,1630.6285618999973,1630.6285618999973,1630.6285618999973,None,None,None,,,,,,,,,,,1613.8309322999994,1613.8309322999994,None,,1625.5243644000002,1627.5425630999962,1628.6021653000062,1628.6021653000062,1628.6021653000062,1628.6021653000062,n,1.9079496999911498,1613.8309322999994,1613.8309322999994,,,16,001,2024-07-16_14h30.02.479,robot_sternberg_sign,2022.2.5,60.00186005785491,
"['B', 'D', 'V', 'M', 'W', 'X']",True,X,6,letter,3,False,False,"['robot_stimuli\\\\filler.mp4', 'robot_stimuli\\\\filler.mp4', 'robot_stimuli\\\\filler.mp4', 'robot_stimuli\\\\filler.mp4', 'robot_stimuli\\\\filler.mp4', 'robot_stimuli\\\\filler.mp4']",robot_stimuli\\filler.mp4,16,,,,,,,,,,,,,0,62,62,62,,,,,,,,,,,,,,,,,1644.3240573000076,1645.3823647999961,,,,,,,,,1646.8097465000028,1646.8097465000028,1646.8097465000028,1646.8097465000028,1646.8097465000028,1646.8097465000028,1646.8097465000028,1646.8097465000028,None,None,None,,,,,,,,,,,1630.6285618999973,1630.6285618999973,None,,1642.3128171999997,1644.3240573000076,1645.3823647999961,1645.3823647999961,1645.3823647999961,1645.3823647999961,c,1.2485042999906,1630.6285618999973,1630.6285618999973,,,16,001,2024-07-16_14h30.02.479,robot_sternberg_sign,2022.2.5,60.00186005785491,
"['G', 'C', 'V', 'M', 'D', 'H']",False,N,6,letter,3,False,False,"['robot_stimuli\\\\filler.mp4', 'robot_stimuli\\\\filler.mp4', 'robot_stimuli\\\\filler.mp4', 'robot_stimuli\\\\filler.mp4', 'robot_stimuli\\\\filler.mp4', 'robot_stimuli\\\\filler.mp4']",robot_stimuli\\filler.mp4,16,,,,,,,,,,,,,0,63,63,63,,,,,,,,,,,,,,,,,1661.1254408999957,1662.1828865999996,,,,,,,,,1665.0123128999985,1665.0123128999985,1665.0123128999985,1665.0123128999985,1665.0123128999985,1665.0123128999985,1665.0123128999985,1665.0123128999985,None,None,None,,,,,,,,,,,1646.8097465000028,1646.8097465000028,None,,1659.1051217000058,1661.1254408999957,1662.1828865999996,1662.1828865999996,1662.1828865999996,1662.1828865999996,n,2.6405467000004137,1646.8097465000028,1646.8097465000028,,,16,001,2024-07-16_14h30.02.479,robot_sternberg_sign,2022.2.5,60.00186005785491,
"['V', 'N', 'G', 'K', 'P', 'W']",True,G,6,letter,3,False,False,"['robot_stimuli\\\\filler.mp4', 'robot_stimuli\\\\filler.mp4', 'robot_stimuli\\\\filler.mp4', 'robot_stimuli\\\\filler.mp4', 'robot_stimuli\\\\filler.mp4', 'robot_stimuli\\\\filler.mp4']",robot_stimuli\\filler.mp4,16,,,,,,,,,,,,,0,64,64,64,,,,,,,,,,,,,,,,,1679.5233517000015,1680.5825069999992,,,,,,,,,1682.6072111999965,1682.6072111999965,1682.6072111999965,1682.6072111999965,1682.6072111999965,1682.6072111999965,1682.6072111999965,1682.6072111999965,None,None,None,,,,,,,,,,,1665.0123128999985,1665.0123128999985,None,,1677.5086630000005,1679.5233517000015,1680.5825069999992,1680.5825069999992,1680.5825069999992,1680.5825069999992,c,1.880745599992224,1665.0123128999985,1665.0123128999985,,,16,001,2024-07-16_14h30.02.479,robot_sternberg_sign,2022.2.5,60.00186005785491,
"['V', 'X', 'H', 'M', 'C', 'L']",True,X,6,letter,3,False,False,"['robot_stimuli\\\\filler.mp4', 'robot_stimuli\\\\filler.mp4', 'robot_stimuli\\\\filler.mp4', 'robot_stimuli\\\\filler.mp4', 'robot_stimuli\\\\filler.mp4', 'robot_stimuli\\\\filler.mp4']",robot_stimuli\\filler.mp4,16,,,,,,,,,,,,,0,65,65,65,,,,,,,,,,,,,,,,,1696.9314618000062,1683.6689453,,,,,,,,,1700.223005000007,1700.223005000007,1700.223005000007,1700.223005000007,1700.223005000007,1700.223005000007,1700.223005000007,1700.223005000007,None,None,None,,,,,,,,,,,1682.6072111999965,1682.6072111999965,None,,1694.7156362999958,1696.9314618000062,1697.9989187000028,1697.9989187000028,1697.9989187000028,1697.9989187000028,c,2.1441613999922993,1682.6072111999965,1682.6072111999965,,,16,001,2024-07-16_14h30.02.479,robot_sternberg_sign,2022.2.5,60.00186005785491,
"['Z', 'B', 'S', 'X', 'R', 'V']",False,J,6,letter,3,False,False,"['robot_stimuli\\\\filler.mp4', 'robot_stimuli\\\\filler.mp4', 'robot_stimuli\\\\filler.mp4', 'robot_stimuli\\\\filler.mp4', 'robot_stimuli\\\\filler.mp4', 'robot_stimuli\\\\filler.mp4']",robot_stimuli\\filler.mp4,16,,,,,,,,,,,,,0,66,66,66,,,,,,,,,,,,,,,,,1714.5519025999965,1715.620575199995,,,,,,,,,1717.0382750999997,1717.0382750999997,1717.0382750999997,1717.0382750999997,1717.0382750999997,1717.0382750999997,1717.0382750999997,1717.0382750999997,None,None,None,,,,,,,,,,,1700.223005000007,1700.223005000007,None,,1712.3302905000019,1714.5519025999965,1715.620575199995,1715.620575199995,1715.620575199995,1715.620575199995,n,1.3070773999934318,1700.223005000007,1700.223005000007,,,16,001,2024-07-16_14h30.02.479,robot_sternberg_sign,2022.2.5,60.00186005785491,
"['W', 'Q', 'P', 'C', 'F', 'J']",True,Q,6,letter,3,False,False,"['robot_stimuli\\\\filler.mp4', 'robot_stimuli\\\\filler.mp4', 'robot_stimuli\\\\filler.mp4', 'robot_stimuli\\\\filler.mp4', 'robot_stimuli\\\\filler.mp4', 'robot_stimuli\\\\filler.mp4']",robot_stimuli\\filler.mp4,16,,,,,,,,,,,,,0,67,67,67,,,,,,,,,,,,,,,,,1731.3547402999975,1732.4157879999984,,,,,,,,,1733.6405346999964,1733.6405346999964,1733.6405346999964,1733.6405346999964,1733.6405346999964,1733.6405346999964,1733.6405346999964,1733.6405346999964,None,None,None,,,,,,,,,,,1717.0382750999997,1717.0382750999997,None,,1729.3365615000075,1731.3547402999975,1732.4157879999984,1732.4157879999984,1732.4157879999984,1732.4157879999984,c,1.031156099998043,1717.0382750999997,1717.0382750999997,,,16,001,2024-07-16_14h30.02.479,robot_sternberg_sign,2022.2.5,60.00186005785491,
"['K', 'D', 'J', 'W', 'B', 'H']",False,G,6,letter,3,False,False,"['robot_stimuli\\\\filler.mp4', 'robot_stimuli\\\\filler.mp4', 'robot_stimuli\\\\filler.mp4', 'robot_stimuli\\\\filler.mp4', 'robot_stimuli\\\\filler.mp4', 'robot_stimuli\\\\filler.mp4']",robot_stimuli\\filler.mp4,16,,,,,,,,,,,,,0,68,68,68,,,,,,,,,,,,,,,,,1747.551411499997,1748.615750900004,,,,,,,,,1751.649275200005,1751.649275200005,1751.649275200005,1751.649275200005,1751.649275200005,1751.649275200005,1751.649275200005,1751.649275200005,None,None,None,,,,,,,,,,,1733.6405346999964,1733.6405346999964,None,,1745.538295300008,1747.551411499997,1748.615750900004,1748.615750900004,1748.615750900004,1748.615750900004,n,2.9663360999984434,1733.6405346999964,1733.6405346999964,,,16,001,2024-07-16_14h30.02.479,robot_sternberg_sign,2022.2.5,60.00186005785491,
"['H', 'M', 'X', 'Q', 'T', 'G']",False,D,6,letter,3,False,True,"['robot_stimuli\\\\filler.mp4', 'robot_stimuli\\\\filler.mp4', 'robot_stimuli\\\\filler.mp4', 'robot_stimuli\\\\filler.mp4', 'robot_stimuli\\\\filler.mp4', 'robot_stimuli\\\\filler.mp4']",robot_stimuli\\filler.mp4,16,,,,,,,,,,,,,0,69,69,69,,,,,,,,,,,,,,,,,1765.3737887000025,1766.4323135000013,,,,,,,,,1767.8920836000034,1772.1021890999982,1767.8920836000034,1772.1021890999982,1767.8920836000034,1772.1021890999982,1767.8920836000034,1772.1021890999982,32.160493827160494,3.4724695999902906,space,,,4.154734499999904,,,,,,,,1751.649275200005,1751.649275200005,None,,1763.148564800009,1765.3737887000025,1766.4323135000013,1766.4323135000013,1766.4323135000013,1766.4323135000013,n,1.3592088000004878,1751.649275200005,1751.649275200005,,,16,001,2024-07-16_14h30.02.479,robot_sternberg_sign,2022.2.5,60.00186005785491,
"['P', 'W', 'T', 'L']",True,L,4,letter,3,True,False,"['robot_stimuli\\\\filler.mp4', 'robot_stimuli\\\\filler.mp4', 'robot_stimuli\\\\filler.mp4', 'robot_stimuli\\\\filler.mp4']",robot_stimuli\\filler.mp4,16,,,,,,,,,,,,,0,70,70,70,,,,,,,,,,,,,,,,,1784.659625100001,1785.717396100008,,,,,,,,,1787.540728100008,1787.540728100008,1787.540728100008,1787.540728100008,1787.540728100008,1787.540728100008,1787.540728100008,1787.540728100008,None,None,None,,,,,,,,,,,1772.1021890999982,1772.1021890999982,space,2.809343999993871,1782.6394489999948,1784.659625100001,1785.717396100008,1785.717396100008,1785.717396100008,1785.717396100008,c,1.649967099991045,,,,,16,001,2024-07-16_14h30.02.479,robot_sternberg_sign,2022.2.5,60.00186005785491,
"['R', 'G', 'W', 'K']",False,S,4,letter,3,False,False,"['robot_stimuli\\\\filler.mp4', 'robot_stimuli\\\\filler.mp4', 'robot_stimuli\\\\filler.mp4', 'robot_stimuli\\\\filler.mp4']",robot_stimuli\\filler.mp4,16,,,,,,,,,,,,,0,71,71,71,,,,,,,,,,,,,,,,,1797.1025795000023,1798.1658338999987,,,,,,,,,1799.5930323000066,1799.5930323000066,1799.5930323000066,1799.5930323000066,1799.5930323000066,1799.5930323000066,1799.5930323000066,1799.5930323000066,None,None,None,,,,,,,,,,,1787.540728100008,1787.540728100008,None,,1795.086819300006,1797.1025795000023,1798.1658338999987,1798.1658338999987,1798.1658338999987,1798.1658338999987,n,1.2481737000052817,1787.540728100008,1787.540728100008,,,16,001,2024-07-16_14h30.02.479,robot_sternberg_sign,2022.2.5,60.00186005785491,
"['J', 'G', 'S', 'D']",True,S,4,letter,3,False,False,"['robot_stimuli\\\\filler.mp4', 'robot_stimuli\\\\filler.mp4', 'robot_stimuli\\\\filler.mp4', 'robot_stimuli\\\\filler.mp4']",robot_stimuli\\filler.mp4,16,,,,,,,,,,,,,0,72,72,72,,,,,,,,,,,,,,,,,1809.3263139000046,1810.3815869999962,,,,,,,,,1811.607050400009,1811.607050400009,1811.607050400009,1811.607050400009,1811.607050400009,1811.607050400009,1811.607050400009,1811.607050400009,None,None,None,,,,,,,,,,,1799.5930323000066,1799.5930323000066,None,,1807.3075968000048,1809.3263139000046,1810.3815869999962,1810.3815869999962,1810.3815869999962,1810.3815869999962,c,1.080466700004763,1799.5930323000066,1799.5930323000066,,,16,001,2024-07-16_14h30.02.479,robot_sternberg_sign,2022.2.5,60.00186005785491,
"['T', 'F', 'H', 'J']",True,T,4,letter,3,False,False,"['robot_stimuli\\\\filler.mp4', 'robot_stimuli\\\\filler.mp4', 'robot_stimuli\\\\filler.mp4', 'robot_stimuli\\\\filler.mp4']",robot_stimuli\\filler.mp4,16,,,,,,,,,,,,,0,73,73,73,,,,,,,,,,,,,,,,,1821.3386449999962,1822.4012258000002,,,,,,,,,1823.822026599999,1823.822026599999,1823.822026599999,1823.822026599999,1823.822026599999,1823.822026599999,1823.822026599999,1823.822026599999,None,None,None,,,,,,,,,,,1811.607050400009,1811.607050400009,None,,1819.3283107000025,1821.3386449999962,1822.4012258000002,1822.4012258000002,1822.4012258000002,1822.4012258000002,c,1.3266577999893343,1811.607050400009,1811.607050400009,,,16,001,2024-07-16_14h30.02.479,robot_sternberg_sign,2022.2.5,60.00186005785491,
"['X', 'K', 'B', 'C']",True,B,4,letter,3,False,False,"['robot_stimuli\\\\filler.mp4', 'robot_stimuli\\\\filler.mp4', 'robot_stimuli\\\\filler.mp4', 'robot_stimuli\\\\filler.mp4']",robot_stimuli\\filler.mp4,16,,,,,,,,,,,,,0,74,74,74,,,,,,,,,,,,,,,,,1833.9468575000064,1835.0025161000085,,,,,,,,,1836.6315028999961,1836.6315028999961,1836.6315028999961,1836.6315028999961,1836.6315028999961,1836.6315028999961,1836.6315028999961,1836.6315028999961,None,None,None,,,,,,,,,,,1823.822026599999,1823.822026599999,None,,1831.7354462000076,1833.9468575000064,1835.0025161000085,1835.0025161000085,1835.0025161000085,1835.0025161000085,c,1.4451693000009982,1823.822026599999,1823.822026599999,,,16,001,2024-07-16_14h30.02.479,robot_sternberg_sign,2022.2.5,60.00186005785491,
"['J', 'L', 'C', 'V']",False,Q,4,letter,3,False,False,"['robot_stimuli\\\\filler.mp4', 'robot_stimuli\\\\filler.mp4', 'robot_stimuli\\\\filler.mp4', 'robot_stimuli\\\\filler.mp4']",robot_stimuli\\filler.mp4,16,,,,,,,,,,,,,0,75,75,75,,,,,,,,,,,,,,,,,1846.3971609,,,,,,,,,,1848.8925411999953,1848.8925411999953,1848.8925411999953,1848.8925411999953,1848.8925411999953,1848.8925411999953,1848.8925411999953,1848.8925411999953,None,None,None,,,,,,,,,,,1836.6315028999961,1836.6315028999961,None,,1844.3890858000086,1846.3971609,1847.465408899996,1847.465408899996,1847.465408899996,1847.465408899996,n,1.2606155000103172,1836.6315028999961,1836.6315028999961,,,16,001,2024-07-16_14h30.02.479,robot_sternberg_sign,2022.2.5,60.00186005785491,
"['B', 'C', 'P', 'R']",False,X,4,letter,3,False,False,"['robot_stimuli\\\\filler.mp4', 'robot_stimuli\\\\filler.mp4', 'robot_stimuli\\\\filler.mp4', 'robot_stimuli\\\\filler.mp4']",robot_stimuli\\filler.mp4,16,,,,,,,,,,,,,0,76,76,76,,,,,,,,,,,,,,,,,1858.6313659000007,1849.949511800005,,,,,,,,,1861.1266466000088,1861.1266466000088,1861.1266466000088,1861.1266466000088,1861.1266466000088,1861.1266466000088,1861.1266466000088,1861.1266466000088,None,None,None,,,,,,,,,,,1848.8925411999953,1848.8925411999953,None,,1856.4175507000036,1858.6313659000007,1859.7049382999976,1859.7049382999976,1859.7049382999976,1859.7049382999976,n,1.2933610000036424,1848.8925411999953,1848.8925411999953,,,16,001,2024-07-16_14h30.02.479,robot_sternberg_sign,2022.2.5,60.00186005785491,
"['M', 'T', 'B', 'K']",False,D,4,letter,3,False,False,"['robot_stimuli\\\\filler.mp4', 'robot_stimuli\\\\filler.mp4', 'robot_stimuli\\\\filler.mp4', 'robot_stimuli\\\\filler.mp4']",robot_stimuli\\filler.mp4,16,,,,,,,,,,,,,0,77,77,77,,,,,,,,,,,,,,,,,1870.8621815000079,1871.9163374000054,,,,,,,,,1873.3435950999992,1873.3435950999992,1873.3435950999992,1873.3435950999992,1873.3435950999992,1873.3435950999992,1873.3435950999992,1873.3435950999992,None,None,None,,,,,,,,,,,1861.1266466000088,1861.1266466000088,None,,1868.6544036999985,1870.8621815000079,1871.9163374000054,1871.9163374000054,1871.9163374000054,1871.9163374000054,n,1.3622720999992453,1861.1266466000088,1861.1266466000088,,,16,001,2024-07-16_14h30.02.479,robot_sternberg_sign,2022.2.5,60.00186005785491,
"['K', 'D', 'X', 'J']",True,X,4,letter,3,False,False,"['robot_stimuli\\\\filler.mp4', 'robot_stimuli\\\\filler.mp4', 'robot_stimuli\\\\filler.mp4', 'robot_stimuli\\\\filler.mp4']",robot_stimuli\\filler.mp4,16,,,,,,,,,,,,,0,78,78,78,,,,,,,,,,,,,,,,,1883.090576600007,1884.1498556000006,,,,,,,,,1885.5791574000032,1885.5791574000032,1885.5791574000032,1885.5791574000032,1885.5791574000032,1885.5791574000032,1885.5791574000032,1885.5791574000032,None,None,None,,,,,,,,,,,1873.3435950999992,1873.3435950999992,None,,1881.0704610999965,1883.090576600007,1884.1498556000006,1884.1498556000006,1884.1498556000006,1884.1498556000006,c,1.336980100008077,1873.3435950999992,1873.3435950999992,,,16,001,2024-07-16_14h30.02.479,robot_sternberg_sign,2022.2.5,60.00186005785491,
"['M', 'L', 'W', 'X']",False,K,4,letter,3,False,True,"['robot_stimuli\\\\filler.mp4', 'robot_stimuli\\\\filler.mp4', 'robot_stimuli\\\\filler.mp4', 'robot_stimuli\\\\filler.mp4']",robot_stimuli\\filler.mp4,16,,,,,,,,,,,,,0,79,79,79,,,,,,,,,,,,,,,,,1895.3144459000032,1886.6353658000007,,,,,,,,,1898.4357821000012,1908.320042899999,1898.4357821000012,1908.320042899999,1898.4357821000012,1908.320042899999,1898.4357821000012,1908.320042899999,15.339506172839505,8.311986000000616,space,,,9.810473999998067,,,,,,,,1885.5791574000032,1885.5791574000032,None,,1893.097855400003,1895.3144459000032,1896.4059043000016,1896.4059043000016,1896.4059043000016,1896.4059043000016,n,1.8722495999973034,1885.5791574000032,1885.5791574000032,,,16,001,2024-07-16_14h30.02.479,robot_sternberg_sign,2022.2.5,60.00186005785491,
"['C', 'W']",True,C,2,letter,3,True,False,"['robot_stimuli\\\\filler.mp4', 'robot_stimuli\\\\filler.mp4']",robot_stimuli\\filler.mp4,16,,,,,,,,,,,,,0,80,80,80,,,,,,,,,,,,,,,,,1928.1514496000018,1929.2168642000033,,,,,,,,,1930.4402996999997,1930.4402996999997,1930.4402996999997,1930.4402996999997,1930.4402996999997,1930.4402996999997,1930.4402996999997,1930.4402996999997,None,None,None,,,,,,,,,,,1908.320042899999,1908.320042899999,space,14.247425399997155,1925.9359028000035,1928.1514496000018,1929.2168642000033,1929.2168642000033,1929.2168642000033,1929.2168642000033,c,1.1187160999979824,,,,,16,001,2024-07-16_14h30.02.479,robot_sternberg_sign,2022.2.5,60.00186005785491,
"['G', 'P']",False,W,2,letter,3,False,False,"['robot_stimuli\\\\filler.mp4', 'robot_stimuli\\\\filler.mp4']",robot_stimuli\\filler.mp4,16,,,,,,,,,,,,,0,81,81,81,,,,,,,,,,,,,,,,,1935.8104606999987,1936.866605400006,,,,,,,,,1937.6952734000079,1937.6952734000079,1937.6952734000079,1937.6952734000079,1937.6952734000079,1937.6952734000079,1937.6952734000079,1937.6952734000079,None,None,None,,,,,,,,,,,1930.4402996999997,1930.4402996999997,None,,1933.790331199998,1935.8104606999987,1936.866605400006,1936.866605400006,1936.866605400006,1936.866605400006,n,0.7409990000014659,1930.4402996999997,1930.4402996999997,,,16,001,2024-07-16_14h30.02.479,robot_sternberg_sign,2022.2.5,60.00186005785491,
"['K', 'P']",True,K,2,letter,3,False,False,"['robot_stimuli\\\\filler.mp4', 'robot_stimuli\\\\filler.mp4']",robot_stimuli\\filler.mp4,16,,,,,,,,,,,,,0,82,82,82,,,,,,,,,,,,,,,,,1943.0623106999992,1944.1165010999975,,,,,,,,,1945.3427703000052,1945.3427703000052,1945.3427703000052,1945.3427703000052,1945.3427703000052,1945.3427703000052,1945.3427703000052,1945.3427703000052,None,None,None,,,,,,,,,,,1937.6952734000079,1937.6952734000079,None,,1940.848024100007,1943.0623106999992,1944.1165010999975,1944.1165010999975,1944.1165010999975,1944.1165010999975,c,1.0592808999936096,1937.6952734000079,1937.6952734000079,,,16,001,2024-07-16_14h30.02.479,robot_sternberg_sign,2022.2.5,60.00186005785491,
"['G', 'M']",False,R,2,letter,3,False,False,"['robot_stimuli\\\\filler.mp4', 'robot_stimuli\\\\filler.mp4']",robot_stimuli\\filler.mp4,16,,,,,,,,,,,,,0,83,83,83,,,,,,,,,,,,,,,,,1950.6998040000035,1951.7665206999955,,,,,,,,,1952.9956626000057,1952.9956626000057,1952.9956626000057,1952.9956626000057,1952.9956626000057,1952.9956626000057,1952.9956626000057,1952.9956626000057,None,None,None,,,,,,,,,,,1945.3427703000052,1945.3427703000052,None,,1948.689782500005,1950.6998040000035,1951.7665206999955,1951.7665206999955,1951.7665206999955,1951.7665206999955,n,1.1120554000081029,1945.3427703000052,1945.3427703000052,,,16,001,2024-07-16_14h30.02.479,robot_sternberg_sign,2022.2.5,60.00186005785491,
"['F', 'H']",True,H,2,letter,3,False,False,"['robot_stimuli\\\\filler.mp4', 'robot_stimuli\\\\filler.mp4']",robot_stimuli\\filler.mp4,16,,,,,,,,,,,,,0,84,84,84,,,,,,,,,,,,,,,,,1958.183198300001,1959.2495004000084,,,,,,,,,1961.077955300003,1961.077955300003,1961.077955300003,1961.077955300003,1961.077955300003,1961.077955300003,1961.077955300003,1961.077955300003,None,None,None,,,,,,,,,,,1952.9956626000057,1952.9956626000057,None,,1956.162905300007,1958.183198300001,1959.2495004000084,1959.2495004000084,1959.2495004000084,1959.2495004000084,c,1.6781950000004144,1952.9956626000057,1952.9956626000057,,,16,001,2024-07-16_14h30.02.479,robot_sternberg_sign,2022.2.5,60.00186005785491,
"['Z', 'N']",False,M,2,letter,3,False,False,"['robot_stimuli\\\\filler.mp4', 'robot_stimuli\\\\filler.mp4']",robot_stimuli\\filler.mp4,16,,,,,,,,,,,,,0,85,85,85,,,,,,,,,,,,,,,,,1966.255388999998,1967.3174192000006,,,,,,,,,1968.5462789000012,1968.5462789000012,1968.5462789000012,1968.5462789000012,1968.5462789000012,1968.5462789000012,1968.5462789000012,1968.5462789000012,None,None,None,,,,,,,,,,,1961.077955300003,1961.077955300003,None,,1964.2472088000068,1966.255388999998,1967.3174192000006,1967.3174192000006,1967.3174192000006,1967.3174192000006,n,1.1611781999963569,1961.077955300003,1961.077955300003,,,16,001,2024-07-16_14h30.02.479,robot_sternberg_sign,2022.2.5,60.00186005785491,
"['G', 'V']",True,V,2,letter,3,False,False,"['robot_stimuli\\\\filler.mp4', 'robot_stimuli\\\\filler.mp4']",robot_stimuli\\filler.mp4,16,,,,,,,,,,,,,0,86,86,86,,,,,,,,,,,,,,,,,1974.1177300999989,1975.1845024000067,,,,,,,,,1976.2049235000013,1976.2049235000013,1976.2049235000013,1976.2049235000013,1976.2049235000013,1976.2049235000013,1976.2049235000013,1976.2049235000013,None,None,None,,,,,,,,,,,1968.5462789000012,1968.5462789000012,None,,1971.901423400006,1974.1177300999989,1975.1845024000067,1975.1845024000067,1975.1845024000067,1975.1845024000067,c,0.9668622000026517,1968.5462789000012,1968.5462789000012,,,16,001,2024-07-16_14h30.02.479,robot_sternberg_sign,2022.2.5,60.00186005785491,
"['F', 'G']",False,Q,2,letter,3,False,False,"['robot_stimuli\\\\filler.mp4', 'robot_stimuli\\\\filler.mp4']",robot_stimuli\\filler.mp4,16,,,,,,,,,,,,,0,87,87,87,,,,,,,,,,,,,,,,,1981.7711414000078,1982.8334636000072,,,,,,,,,1984.8595798000024,1984.8595798000024,1984.8595798000024,1984.8595798000024,1984.8595798000024,1984.8595798000024,1984.8595798000024,1984.8595798000024,None,None,None,,,,,,,,,,,1976.2049235000013,1976.2049235000013,None,,1979.5519886999973,1981.7711414000078,1982.8334636000072,1982.8334636000072,1982.8334636000072,1982.8334636000072,n,1.8057740000076592,1976.2049235000013,1976.2049235000013,,,16,001,2024-07-16_14h30.02.479,robot_sternberg_sign,2022.2.5,60.00186005785491,
"['R', 'X']",False,G,2,letter,3,False,False,"['robot_stimuli\\\\filler.mp4', 'robot_stimuli\\\\filler.mp4']",robot_stimuli\\filler.mp4,16,,,,,,,,,,,,,0,88,88,88,,,,,,,,,,,,,,,,,1990.219536500008,1991.2825204999972,,,,,,,,,1992.9110621,1992.9110621,1992.9110621,1992.9110621,1992.9110621,1992.9110621,1992.9110621,1992.9110621,None,None,None,,,,,,,,,,,1984.8595798000024,1984.8595798000024,None,,1988.2085281000036,1990.219536500008,1991.2825204999972,1991.2825204999972,1991.2825204999972,1991.2825204999972,n,1.5322962999925949,1984.8595798000024,1984.8595798000024,,,16,001,2024-07-16_14h30.02.479,robot_sternberg_sign,2022.2.5,60.00186005785491,
"['X', 'L']",True,L,2,letter,3,False,True,"['robot_stimuli\\\\filler.mp4', 'robot_stimuli\\\\filler.mp4']",robot_stimuli\\filler.mp4,16,,,,,,,,,,,,,0,89,89,89,,,,,,,,,,,,,,,,,1998.2649007,1993.9645316999959,,,,,,,,,2000.5914926999976,2009.5153700000083,2000.5914926999976,2009.5153700000083,2000.5914926999976,2009.5153700000083,2000.5914926999976,2009.5153700000083,1.759259259259252,7.271997900010319,space,,,8.85507140000118,,,,,,,,1992.9110621,1992.9110621,None,,1996.256142600003,1998.2649007,1999.3328108999995,1999.3328108999995,1999.3328108999995,1999.3328108999995,c,1.1061445999948774,1992.9110621,1992.9110621,,,16,001,2024-07-16_14h30.02.479,robot_sternberg_sign,2022.2.5,60.00186005785491,
"['R_Torso_Y_For', 'L_Arm_Y_Back']",True,L_Arm_Y_Back,2,robot,4,True,False,"['robot_stimuli\\R_Torso_Y_For.mp4', 'robot_stimuli\\L_Arm_Y_Back.mp4']",robot_stimuli\L_Arm_Y_Back.mp4,16,,,,,,,,,,,,,0,90,90,90,,,,,,,,,,,,,,,,,2023.651509999996,2024.7414290000015,,,,,,,,,2029.0129192000022,2029.0129192000022,2029.0129192000022,2029.0129192000022,2029.0129192000022,2029.0129192000022,2029.0129192000022,2029.0129192000022,None,None,None,,,,,,,,,,,2009.5153700000083,2009.5153700000083,space,5.6747726000030525,,,,2024.7414290000015,2024.7414290000015,2024.7414290000015,c,4.225524499997846,,,2020.0203928999981,2024.7414290000015,16,001,2024-07-16_14h30.02.479,robot_sternberg_sign,2022.2.5,60.00186005785491,
"['R_Head_Y_For', 'R_Base_Z_For']",False,R_Head_X_For,2,robot,4,False,False,"['robot_stimuli\\R_Head_Y_For.mp4', 'robot_stimuli\\R_Base_Z_For.mp4']",robot_stimuli\R_Head_X_For.mp4,16,,,,,,,,,,,,,0,91,91,91,,,,,,,,,,,,,,,,,2037.4523065999965,2038.5411403000035,,,,,,,,,2042.1787426000083,2042.1787426000083,2042.1787426000083,2042.1787426000083,2042.1787426000083,2042.1787426000083,2042.1787426000083,2042.1787426000083,None,None,None,,,,,,,,,,,2029.0129192000022,2029.0129192000022,None,,,,,2038.5411403000035,2038.5411403000035,2038.5411403000035,n,2.778407000005245,2029.0129192000022,2029.0129192000022,2033.8118665000075,2038.5411403000035,16,001,2024-07-16_14h30.02.479,robot_sternberg_sign,2022.2.5,60.00186005785491,
"['R_Base_X_Back', 'R_Arm_Z_Back']",False,R_Torso_X_Back,2,robot,4,False,False,"['robot_stimuli\\R_Base_X_Back.mp4', 'robot_stimuli\\R_Arm_Z_Back.mp4']",robot_stimuli\R_Torso_X_Back.mp4,16,,,,,,,,,,,,,0,92,92,92,,,,,,,,,,,,,,,,,2050.603176000004,2051.690934600003,,,,,,,,,2055.9696814000054,2055.9696814000054,2055.9696814000054,2055.9696814000054,2055.9696814000054,2055.9696814000054,2055.9696814000054,2055.9696814000054,None,None,None,,,,,,,,,,,2042.1787426000083,2042.1787426000083,None,,,,,2051.690934600003,2051.690934600003,2051.690934600003,n,4.2443961999961175,2042.1787426000083,2042.1787426000083,2046.9704834000004,2051.690934600003,16,001,2024-07-16_14h30.02.479,robot_sternberg_sign,2022.2.5,60.00186005785491,
"['R_Arm_Z_Back', 'L_Arm_X_For']",True,L_Arm_X_For,2,robot,4,False,False,"['robot_stimuli\\R_Arm_Z_Back.mp4', 'robot_stimuli\\L_Arm_X_For.mp4']",robot_stimuli\L_Arm_X_For.mp4,16,,,,,,,,,,,,,0,93,93,93,,,,,,,,,,,,,,,,,2064.396460600008,2065.4756446999963,,,,,,,,,2069.455156199998,2069.455156199998,2069.455156199998,2069.455156199998,2069.455156199998,2069.455156199998,2069.455156199998,2069.455156199998,None,None,None,,,,,,,,,,,2055.9696814000054,2055.9696814000054,None,,,,,2065.4756446999963,2065.4756446999963,2065.4756446999963,c,3.9556903000047896,2055.9696814000054,2055.9696814000054,2060.7753140999994,2065.4756446999963,16,001,2024-07-16_14h30.02.479,robot_sternberg_sign,2022.2.5,60.00186005785491,
"['R_Head_X_Back', 'L_Head_X_For']",True,L_Head_X_For,2,robot,4,False,False,"['robot_stimuli\\R_Head_X_Back.mp4', 'robot_stimuli\\L_Head_X_For.mp4']",robot_stimuli\L_Head_X_For.mp4,16,,,,,,,,,,,,,0,94,94,94,,,,,,,,,,,,,,,,,2077.832951000004,2070.5357237999997,,,,,,,,,2083.297861800005,2083.297861800005,2083.297861800005,2083.297861800005,2083.297861800005,2083.297861800005,2083.297861800005,2083.297861800005,None,None,None,,,,,,,,,,,2069.455156199998,2069.455156199998,None,,,,,2078.925242700003,2078.925242700003,2078.925242700003,c,4.33789420001267,2069.455156199998,2069.455156199998,2074.256653699995,2078.925242700003,16,001,2024-07-16_14h30.02.479,robot_sternberg_sign,2022.2.5,60.00186005785491,
"['L_Base_Y_For', 'R_Torso_Y_For']",False,R_Base_Z_Back,2,robot,4,False,False,"['robot_stimuli\\L_Base_Y_For.mp4', 'robot_stimuli\\R_Torso_Y_For.mp4']",robot_stimuli\R_Base_Z_Back.mp4,16,,,,,,,,,,,,,0,95,95,95,,,,,,,,,,,,,,,,,2091.650271899998,2092.7404184000043,,,,,,,,,2096.2687684999983,2096.2687684999983,2096.2687684999983,2096.2687684999983,2096.2687684999983,2096.2687684999983,2096.2687684999983,2096.2687684999983,None,None,None,,,,,,,,,,,2083.297861800005,2083.297861800005,None,,,,,2092.7404184000043,2092.7404184000043,2092.7404184000043,n,3.07544549999875,2083.297861800005,2083.297861800005,2088.0223530000076,2092.7404184000043,16,001,2024-07-16_14h30.02.479,robot_sternberg_sign,2022.2.5,60.00186005785491,
"['L_Base_Y_Back', 'L_Torso_Y_Back']",True,L_Base_Y_Back,2,robot,4,False,False,"['robot_stimuli\\L_Base_Y_Back.mp4', 'robot_stimuli\\L_Torso_Y_Back.mp4']",robot_stimuli\L_Base_Y_Back.mp4,16,,,,,,,,,,,,,0,96,96,96,,,,,,,,,,,,,,,,,2104.503038199997,2105.5880930999992,,,,,,,,,2109.927109600001,2109.927109600001,2109.927109600001,2109.927109600001,2109.927109600001,2109.927109600001,2109.927109600001,2109.927109600001,None,None,None,,,,,,,,,,,2096.2687684999983,2096.2687684999983,None,,,,,2105.5880930999992,2105.5880930999992,2105.5880930999992,c,4.307622399996035,2096.2687684999983,2096.2687684999983,2101.006715399999,2105.5880930999992,16,001,2024-07-16_14h30.02.479,robot_sternberg_sign,2022.2.5,60.00186005785491,
"['R_Arm_X_For', 'R_Head_Z_For']",True,R_Head_Z_For,2,robot,4,False,False,"['robot_stimuli\\R_Arm_X_For.mp4', 'robot_stimuli\\R_Head_Z_For.mp4']",robot_stimuli\R_Head_Z_For.mp4,16,,,,,,,,,,,,,0,97,97,97,,,,,,,,,,,,,,,,,2118.3535607000085,2119.4414433000056,,,,,,,,,2123.0793306999985,2123.0793306999985,2123.0793306999985,2123.0793306999985,2123.0793306999985,2123.0793306999985,2123.0793306999985,2123.0793306999985,None,None,None,,,,,,,,,,,2109.927109600001,2109.927109600001,None,,,,,2119.4414433000056,2119.4414433000056,2119.4414433000056,c,3.5342779000056908,2109.927109600001,2109.927109600001,2114.7220183000027,2119.4414433000056,16,001,2024-07-16_14h30.02.479,robot_sternberg_sign,2022.2.5,60.00186005785491,
"['L_Arm_X_For', 'R_Arm_Y_For']",False,L_Arm_Z_For,2,robot,4,False,False,"['robot_stimuli\\L_Arm_X_For.mp4', 'robot_stimuli\\R_Arm_Y_For.mp4']",robot_stimuli\L_Arm_Z_For.mp4,16,,,,,,,,,,,,,0,98,98,98,,,,,,,,,,,,,,,,,2131.363131300008,2132.441259900006,,,,,,,,,2136.075439100008,2136.075439100008,2136.075439100008,2136.075439100008,2136.075439100008,2136.075439100008,2136.075439100008,2136.075439100008,None,None,None,,,,,,,,,,,2123.0793306999985,2123.0793306999985,None,,,,,2132.441259900006,2132.441259900006,2132.441259900006,n,3.437804299988784,2123.0793306999985,2123.0793306999985,2127.8724874000036,2132.441259900006,16,001,2024-07-16_14h30.02.479,robot_sternberg_sign,2022.2.5,60.00186005785491,
"['L_Base_Z_For', 'R_Head_Z_For']",False,L_Arm_Z_For,2,robot,4,False,True,"['robot_stimuli\\L_Base_Z_For.mp4', 'robot_stimuli\\R_Head_Z_For.mp4']",robot_stimuli\L_Arm_Z_For.mp4,16,,,,,,,,,,,,,0,99,99,99,,,,,,,,,,,,,,,,,2144.517499099995,2145.6023311000026,,,,,,,,,2149.2761721999996,2152.4965465999994,2149.2761721999996,2152.4965465999994,2149.2761721999996,2152.4965465999994,2149.2761721999996,2152.4965465999994,29.691358024691354,2.5305446999991545,space,,,3.163389900000766,,,,,,,,2136.075439100008,2136.075439100008,None,,,,,2145.6023311000026,2145.6023311000026,2145.6023311000026,n,2.853343599999789,2136.075439100008,2136.075439100008,2140.8881656000012,2145.6023311000026,16,001,2024-07-16_14h30.02.479,robot_sternberg_sign,2022.2.5,60.00186005785491,
"['L_Arm_X_Back', 'R_Arm_X_Back', 'L_Arm_Z_For', 'L_Base_Y_For', 'R_Head_X_Back', 'L_Arm_X_For']",True,R_Head_X_Back,6,robot,4,True,False,"['robot_stimuli\\L_Arm_X_Back.mp4', 'robot_stimuli\\R_Arm_X_Back.mp4', 'robot_stimuli\\L_Arm_Z_For.mp4', 'robot_stimuli\\L_Base_Y_For.mp4', 'robot_stimuli\\R_Head_X_Back.mp4', 'robot_stimuli\\L_Arm_X_For.mp4']",robot_stimuli\R_Head_X_Back.mp4,16,,,,,,,,,,,,,0,100,100,100,,,,,,,,,,,,,,,,,2177.6160855000053,2155.4524986000033,,,,,,,,,2182.3374003000063,2182.3374003000063,2182.3374003000063,2182.3374003000063,2182.3374003000063,2182.3374003000063,2182.3374003000063,2182.3374003000063,None,None,None,,,,,,,,,,,2152.4965465999994,2152.4965465999994,space,1.8542983999941498,,,,2178.7081370000087,2178.7081370000087,2178.7081370000087,c,2.9708236000005854,,,2173.975707999998,2178.7081370000087,16,001,2024-07-16_14h30.02.479,robot_sternberg_sign,2022.2.5,60.00186005785491,
"['R_Base_Y_Back', 'L_Base_Y_Back', 'R_Torso_X_For', 'R_Head_X_Back', 'R_Base_Y_For', 'R_Torso_Z_For']",False,R_Head_Z_Back,6,robot,4,False,False,"['robot_stimuli\\R_Base_Y_Back.mp4', 'robot_stimuli\\L_Base_Y_Back.mp4', 'robot_stimuli\\R_Torso_X_For.mp4', 'robot_stimuli\\R_Head_X_Back.mp4', 'robot_stimuli\\R_Base_Y_For.mp4', 'robot_stimuli\\R_Torso_Z_For.mp4']",robot_stimuli\R_Head_Z_Back.mp4,16,,,,,,,,,,,,,0,101,101,101,,,,,,,,,,,,,,,,,2205.600977599999,2206.6921101000044,,,,,,,,,2210.5727645000006,2210.5727645000006,2210.5727645000006,2210.5727645000006,2210.5727645000006,2210.5727645000006,2210.5727645000006,2210.5727645000006,None,None,None,,,,,,,,,,,2182.3374003000063,2182.3374003000063,None,,,,,2206.6921101000044,2206.6921101000044,2206.6921101000044,n,3.842749499992351,2182.3374003000063,2182.3374003000063,2201.9695795000007,2206.6921101000044,16,001,2024-07-16_14h30.02.479,robot_sternberg_sign,2022.2.5,60.00186005785491,
"['R_Base_Z_For', 'R_Torso_X_Back', 'L_Arm_Y_For', 'R_Torso_Y_Back', 'L_Arm_Y_Back', 'R_Torso_Z_For']",True,R_Torso_Z_For,6,robot,4,False,False,"['robot_stimuli\\R_Base_Z_For.mp4', 'robot_stimuli\\R_Torso_X_Back.mp4', 'robot_stimuli\\L_Arm_Y_For.mp4', 'robot_stimuli\\R_Torso_Y_Back.mp4', 'robot_stimuli\\L_Arm_Y_Back.mp4', 'robot_stimuli\\R_Torso_Z_For.mp4']",robot_stimuli\R_Torso_Z_For.mp4,16,,,,,,,,,,,,,0,102,102,102,,,,,,,,,,,,,,,,,2233.8806527999986,2234.9570265000075,,,,,,,,,2240.3086653000064,2240.3086653000064,2240.3086653000064,2240.3086653000064,2240.3086653000064,2240.3086653000064,2240.3086653000064,2240.3086653000064,None,None,None,,,,,,,,,,,2210.5727645000006,2210.5727645000006,None,,,,,2234.9570265000075,2234.9570265000075,2234.9570265000075,c,5.313587800003006,2210.5727645000006,2210.5727645000006,2230.2483393,2234.9570265000075,16,001,2024-07-16_14h30.02.479,robot_sternberg_sign,2022.2.5,60.00186005785491,
"['R_Arm_Y_Back', 'L_Arm_X_For', 'L_Arm_Y_Back', 'R_Arm_Z_Back', 'L_Arm_X_Back', 'R_Arm_X_Back']",False,L_Torso_X_Back,6,robot,4,False,False,"['robot_stimuli\\R_Arm_Y_Back.mp4', 'robot_stimuli\\L_Arm_X_For.mp4', 'robot_stimuli\\L_Arm_Y_Back.mp4', 'robot_stimuli\\R_Arm_Z_Back.mp4', 'robot_stimuli\\L_Arm_X_Back.mp4', 'robot_stimuli\\R_Arm_X_Back.mp4']",robot_stimuli\L_Torso_X_Back.mp4,16,,,,,,,,,,,,,0,103,103,103,,,,,,,,,,,,,,,,,2263.6314128999948,2241.3848088000086,,,,,,,,,2268.3747794000083,2268.3747794000083,2268.3747794000083,2268.3747794000083,2268.3747794000083,2268.3747794000083,2268.3747794000083,2268.3747794000083,None,None,None,,,,,,,,,,,2240.3086653000064,2240.3086653000064,None,,,,,2264.7267133999994,2264.7267133999994,2264.7267133999994,n,3.3608227000077022,2240.3086653000064,2240.3086653000064,2259.9975582000043,2264.7267133999994,16,001,2024-07-16_14h30.02.479,robot_sternberg_sign,2022.2.5,60.00186005785491,
"['L_Torso_X_Back', 'L_Head_Y_Back', 'R_Base_Y_Back', 'L_Base_X_Back', 'L_Torso_X_For', 'R_Arm_Y_For']",True,R_Base_Y_Back,6,robot,4,False,False,"['robot_stimuli\\L_Torso_X_Back.mp4', 'robot_stimuli\\L_Head_Y_Back.mp4', 'robot_stimuli\\R_Base_Y_Back.mp4', 'robot_stimuli\\L_Base_X_Back.mp4', 'robot_stimuli\\L_Torso_X_For.mp4', 'robot_stimuli\\R_Arm_Y_For.mp4']",robot_stimuli\R_Base_Y_Back.mp4,16,,,,,,,,,,,,,0,104,104,104,,,,,,,,,,,,,,,,,2291.5196241999947,2292.613353199995,,,,,,,,,2296.738932399996,2296.738932399996,2296.738932399996,2296.738932399996,2296.738932399996,2296.738932399996,2296.738932399996,2296.738932399996,None,None,None,,,,,,,,,,,2268.3747794000083,2268.3747794000083,None,,,,,2292.613353199995,2292.613353199995,2292.613353199995,c,4.090617800000473,2268.3747794000083,2268.3747794000083,2288.0221863000043,2292.613353199995,16,001,2024-07-16_14h30.02.479,robot_sternberg_sign,2022.2.5,60.00186005785491,
"['R_Torso_Y_Back', 'L_Arm_X_For', 'R_Base_Z_For', 'L_Arm_Z_Back', 'R_Base_Z_Back', 'L_Head_Z_Back']",True,L_Arm_Z_Back,6,robot,4,False,False,"['robot_stimuli\\R_Torso_Y_Back.mp4', 'robot_stimuli\\L_Arm_X_For.mp4', 'robot_stimuli\\R_Base_Z_For.mp4', 'robot_stimuli\\L_Arm_Z_Back.mp4', 'robot_stimuli\\R_Base_Z_Back.mp4', 'robot_stimuli\\L_Head_Z_Back.mp4']",robot_stimuli\L_Arm_Z_Back.mp4,16,,,,,,,,,,,,,0,105,105,105,,,,,,,,,,,,,,,,,2319.9385667000024,2321.0212608,,,,,,,,,2324.753781499996,2324.753781499996,2324.753781499996,2324.753781499996,2324.753781499996,2324.753781499996,2324.753781499996,2324.753781499996,None,None,None,,,,,,,,,,,2296.738932399996,2296.738932399996,None,,,,,2321.0212608,2321.0212608,2321.0212608,n,3.698202700004913,2296.738932399996,2296.738932399996,2316.307276899999,2321.0212608,16,001,2024-07-16_14h30.02.479,robot_sternberg_sign,2022.2.5,60.00186005785491,
