sequence,is_true,target,condition,stimuli,block,is_block_beginning,is_block_ending,sequence_fnames,target_fname,subject,retraining.thisRepN,retraining.thisTrialN,retraining.thisN,retraining.thisIndex,training.thisRepN,training.thisTrialN,training.thisN,training.thisIndex,training_sequence_loop.thisRepN,training_sequence_loop.thisTrialN,training_sequence_loop.thisN,training_sequence_loop.thisIndex,trials.thisRepN,trials.thisTrialN,trials.thisN,trials.thisIndex,sequence_loop.thisRepN,sequence_loop.thisTrialN,sequence_loop.thisN,sequence_loop.thisIndex,langage_text.started,langage_key.started,langage_key.keys,langage_key.rt,intro_text.started,intro_key.started,intro_key.keys,intro_key.rt,training_intro_text.started,training_intro_key.started,training_intro_key.keys,training_intro_key.rt,polygon.started,polygon.stopped,training_presentation_letter.started,training_presentation_letter.stopped,training_recall_letter.started,training_recall_key.started,training_recall_question.started,training_recall_answer.started,training_recall_key.keys,training_recall_key.rt,RSME_labels.started,RSME_labels.stopped,RSME_ticks.started,RSME_ticks.stopped,RSME_text.started,RSME_text.stopped,RSME_key.started,RSME_key.stopped,RSME_ticks.response,RSME_ticks.rt,RSME_key.keys,training_intro_text.stopped,training_intro_key.stopped,RSME_key.rt,training_presentation_movie.started,training_recall_movie.started,experiment_beginning_text.started,experiment_beginning_keys.started,experiment_beginning_key.started,experiment_beginning_key.keys,experiment_beginning_key.rt,block_intro_text.started,block_intro_key.started,block_intro_key.keys,block_intro_key.rt,presentation_movie.started,recall_movie.started,recall_key.started,recall_question.started,recall_answer.started,recall_key.keys,recall_key.rt,block_intro_text.stopped,block_intro_key.stopped,presentation_letter.started,presentation_letter.stopped,recall_letter.started,participant,session,date,expName,psychopyVersion,frameRate,
,,,,,,,,,,,,,,,,,,,,,,,,,,,,,,,24.08108919999995,24.08108919999995,f,1.3559377999995377,,,,,,,,,,,,,,,,,,,,,,,,,,,,,,,,,,,,,,,,,,,,,,,,,,,,,,,,9,001,2024-07-01_11h00.39.182,robot_sternberg_sign,2022.2.5,59.970698316820474,
,,,,,,,,,,,,,,,,,,,,,,,,,,,,,,,,,,,25.504654800000026,25.504654800000026,space,86.99608859999944,,,,,,,,,,,,,,,,,,,,,,,,,,,,,,,,,,,,,,,,,,,,,,,,,,,,9,001,2024-07-01_11h00.39.182,robot_sternberg_sign,2022.2.5,59.970698316820474,
"['L', 'N']",False,R,2,letter,2,True,False,"['robot_stimuli\\\\filler.mp4', 'robot_stimuli\\\\filler.mp4']",robot_stimuli\\filler.mp4,9,0,0,0,0,0,0,0,0,,,,,,,,,,,,,,,,,,,,,112.53174910000007,112.53174910000007,space,31.761201099999653,150.33898780000027,151.44110040000032,148.12121490000027,150.33898780000027,151.44110040000032,151.44110040000032,151.44110040000032,151.44110040000032,n,2.242928099999972,153.9663759,153.9663759,153.9663759,153.9663759,153.9663759,153.9663759,153.9663759,153.9663759,None,None,None,,,,,,,,,,,,,,,,,,,,,,,,,,,9,001,2024-07-01_11h00.39.182,robot_sternberg_sign,2022.2.5,59.970698316820474,
"['K', 'X']",True,X,2,letter,2,False,False,"['robot_stimuli\\\\filler.mp4', 'robot_stimuli\\\\filler.mp4']",robot_stimuli\\filler.mp4,9,0,0,0,0,0,1,1,1,,,,,,,,,,,,,,,,,,,,,153.9663759,153.9663759,None,,159.3573983000001,160.4331148000001,157.14590380000027,159.3573983000001,160.4331148000001,160.4331148000001,160.4331148000001,160.4331148000001,c,3.676126199999544,164.27241270000013,164.27241270000013,164.27241270000013,164.27241270000013,164.27241270000013,164.27241270000013,164.27241270000013,164.27241270000013,None,None,None,153.9663759,153.9663759,,,,,,,,,,,,,,,,,,,,,,,,,9,001,2024-07-01_11h00.39.182,robot_sternberg_sign,2022.2.5,59.970698316820474,
"['D', 'F']",True,D,2,letter,2,False,True,"['robot_stimuli\\\\filler.mp4', 'robot_stimuli\\\\filler.mp4']",robot_stimuli\\filler.mp4,9,0,0,0,0,0,2,2,2,,,,,,,,,,,,,,,,,,,,,164.27241270000013,164.27241270000013,None,,169.48364579999998,170.54779869999993,167.46759410000004,169.48364579999998,170.54779869999993,170.54779869999993,170.54779869999993,170.54779869999993,c,1.5846987999998419,172.23668550000002,195.64500339999995,172.23668550000002,195.64500339999995,172.23668550000002,195.64500339999995,172.23668550000002,195.64500339999995,4.228395061728393,22.659559400000035,space,164.27241270000013,164.27241270000013,23.34339639999962,,,,,,,,,,,,,,,,,,,,,,,,9,001,2024-07-01_11h00.39.182,robot_sternberg_sign,2022.2.5,59.970698316820474,
"['G', 'M', 'X', 'W']",False,V,4,letter,2,True,False,"['robot_stimuli\\\\filler.mp4', 'robot_stimuli\\\\filler.mp4', 'robot_stimuli\\\\filler.mp4', 'robot_stimuli\\\\filler.mp4']",robot_stimuli\\filler.mp4,9,0,0,0,0,0,3,3,3,,,,,,,,,,,,,,,,,,,,,195.64500339999995,195.64500339999995,space,4.703331299999718,209.96765730000016,211.0392909000002,207.95138320000024,209.96765730000016,211.0392909000002,211.0392909000002,211.0392909000002,211.0392909000002,n,1.6617363999998815,212.86903970000003,212.86903970000003,212.86903970000003,212.86903970000003,212.86903970000003,212.86903970000003,212.86903970000003,212.86903970000003,None,None,None,,,,,,,,,,,,,,,,,,,,,,,,,,,9,001,2024-07-01_11h00.39.182,robot_sternberg_sign,2022.2.5,59.970698316820474,
"['R', 'Q', 'B', 'T']",True,B,4,letter,2,False,False,"['robot_stimuli\\\\filler.mp4', 'robot_stimuli\\\\filler.mp4', 'robot_stimuli\\\\filler.mp4', 'robot_stimuli\\\\filler.mp4']",robot_stimuli\\filler.mp4,9,0,0,0,0,0,4,4,4,,,,,,,,,,,,,,,,,,,,,212.86903970000003,212.86903970000003,None,,222.65641470000037,223.73585030000004,220.44277349999993,222.65641470000037,223.73585030000004,223.73585030000004,223.73585030000004,223.73585030000004,c,1.9160796999995,225.76508020000028,225.76508020000028,225.76508020000028,225.76508020000028,225.76508020000028,225.76508020000028,225.76508020000028,225.76508020000028,None,None,None,212.86903970000003,212.86903970000003,,,,,,,,,,,,,,,,,,,,,,,,,9,001,2024-07-01_11h00.39.182,robot_sternberg_sign,2022.2.5,59.970698316820474,
"['M', 'P', 'R', 'D']",True,P,4,letter,2,False,True,"['robot_stimuli\\\\filler.mp4', 'robot_stimuli\\\\filler.mp4', 'robot_stimuli\\\\filler.mp4', 'robot_stimuli\\\\filler.mp4']",robot_stimuli\\filler.mp4,9,0,0,0,0,0,5,5,5,,,,,,,,,,,,,,,,,,,,,225.76508020000028,225.76508020000028,None,,235.36737700000003,236.43227640000032,233.3489568,235.36737700000003,236.43227640000032,236.43227640000032,236.43227640000032,236.43227640000032,c,1.524487599999702,238.08713430000034,242.2638207,238.08713430000034,242.2638207,238.08713430000034,242.2638207,238.08713430000034,242.2638207,4.382716049382701,2.898448799999642,space,225.76508020000028,225.76508020000028,4.12474549999979,,,,,,,,,,,,,,,,,,,,,,,,9,001,2024-07-01_11h00.39.182,robot_sternberg_sign,2022.2.5,59.970698316820474,
"['C', 'X', 'F', 'N', 'R', 'T']",True,R,6,letter,2,True,False,"['robot_stimuli\\\\filler.mp4', 'robot_stimuli\\\\filler.mp4', 'robot_stimuli\\\\filler.mp4', 'robot_stimuli\\\\filler.mp4', 'robot_stimuli\\\\filler.mp4', 'robot_stimuli\\\\filler.mp4']",robot_stimuli\\filler.mp4,9,0,0,0,0,0,6,6,6,,,,,,,,,,,,,,,,,,,,,242.2638207,242.2638207,space,5.965307499999653,262.8297156000003,263.8982390000001,260.6197506000003,262.8297156000003,263.8982390000001,263.8982390000001,263.8982390000001,263.8982390000001,c,2.9060695999996824,266.93435480000016,266.93435480000016,266.93435480000016,266.93435480000016,266.93435480000016,266.93435480000016,266.93435480000016,266.93435480000016,None,None,None,,,,,,,,,,,,,,,,,,,,,,,,,,,9,001,2024-07-01_11h00.39.182,robot_sternberg_sign,2022.2.5,59.970698316820474,
"['N', 'B', 'K', 'X', 'T', 'F']",True,F,6,letter,2,False,False,"['robot_stimuli\\\\filler.mp4', 'robot_stimuli\\\\filler.mp4', 'robot_stimuli\\\\filler.mp4', 'robot_stimuli\\\\filler.mp4', 'robot_stimuli\\\\filler.mp4', 'robot_stimuli\\\\filler.mp4']",robot_stimuli\\filler.mp4,9,0,0,0,0,0,7,7,7,,,,,,,,,,,,,,,,,,,,,266.93435480000016,266.93435480000016,None,,280.87634500000013,281.9418839,278.65700300000026,280.87634500000013,281.9418839,281.9418839,281.9418839,281.9418839,c,0.951150399999733,282.9636644000002,282.9636644000002,282.9636644000002,282.9636644000002,282.9636644000002,282.9636644000002,282.9636644000002,282.9636644000002,None,None,None,266.93435480000016,266.93435480000016,,,,,,,,,,,,,,,,,,,,,,,,,9,001,2024-07-01_11h00.39.182,robot_sternberg_sign,2022.2.5,59.970698316820474,
"['B', 'P', 'J', 'R', 'F', 'Q']",False,W,6,letter,2,False,True,"['robot_stimuli\\\\filler.mp4', 'robot_stimuli\\\\filler.mp4', 'robot_stimuli\\\\filler.mp4', 'robot_stimuli\\\\filler.mp4', 'robot_stimuli\\\\filler.mp4', 'robot_stimuli\\\\filler.mp4']",robot_stimuli\\filler.mp4,9,0,0,0,0,0,8,8,8,,,,,,,,,,,,,,,,,,,,,282.9636644000002,282.9636644000002,None,,297.10968189999994,298.17293910000035,295.1015620000003,297.10968189999994,298.17293910000035,298.17293910000035,298.17293910000035,298.17293910000035,n,1.2165280999997776,299.63081660000034,303.71424350000007,299.63081660000034,303.71424350000007,299.63081660000034,303.71424350000007,299.63081660000034,303.71424350000007,13.487654320987652,3.375898600000255,space,282.9636644000002,282.9636644000002,4.029029699999683,,,,,,,,,,,,,,,,,,,,,,,,9,001,2024-07-01_11h00.39.182,robot_sternberg_sign,2022.2.5,59.970698316820474,
"['L_Head_Z_Back', 'R_Head_Y_For']",False,R_Arm_X_Back,2,robot,1,True,False,"['robot_stimuli\\L_Head_Z_Back.mp4', 'robot_stimuli\\R_Head_Y_For.mp4']",robot_stimuli\R_Arm_X_Back.mp4,9,0,0,0,0,0,9,9,9,,,,,,,,,,,,,,,,,,,,,303.71424350000007,303.71424350000007,space,5.3952682999997705,317.59162749999996,318.6896349000003,,,,318.6896349000003,318.6896349000003,318.6896349000003,n,2.6112215999996806,322.3294571000001,322.3294571000001,322.3294571000001,322.3294571000001,322.3294571000001,322.3294571000001,322.3294571000001,322.3294571000001,None,None,None,,,,313.95224110000026,318.6896349000003,,,,,,,,,,,,,,,,,,,,,,9,001,2024-07-01_11h00.39.182,robot_sternberg_sign,2022.2.5,59.970698316820474,
"['R_Arm_X_For', 'R_Torso_X_Back']",True,R_Arm_X_For,2,robot,1,False,False,"['robot_stimuli\\R_Arm_X_For.mp4', 'robot_stimuli\\R_Torso_X_Back.mp4']",robot_stimuli\R_Arm_X_For.mp4,9,0,0,0,0,0,10,10,10,,,,,,,,,,,,,,,,,,,,,322.3294571000001,322.3294571000001,None,,330.78599209999993,323.41268830000035,,,,331.8834202000003,331.8834202000003,331.8834202000003,c,2.2007902000000286,335.5362490000002,335.5362490000002,335.5362490000002,335.5362490000002,335.5362490000002,335.5362490000002,335.5362490000002,335.5362490000002,None,None,None,322.3294571000001,322.3294571000001,,327.15512430000035,331.8834202000003,,,,,,,,,,,,,,,,,,,,,,9,001,2024-07-01_11h00.39.182,robot_sternberg_sign,2022.2.5,59.970698316820474,
"['L_Head_X_Back', 'R_Base_X_Back']",True,R_Base_X_Back,2,robot,1,False,True,"['robot_stimuli\\L_Head_X_Back.mp4', 'robot_stimuli\\R_Base_X_Back.mp4']",robot_stimuli\R_Base_X_Back.mp4,9,0,0,0,0,0,11,11,11,,,,,,,,,,,,,,,,,,,,,335.5362490000002,335.5362490000002,None,,344.00853940000025,345.1002818000002,,,,345.1002818000002,345.1002818000002,345.1002818000002,c,2.1679952999998022,348.78028760000007,357.4389489,348.78028760000007,357.4389489,348.78028760000007,357.4389489,348.78028760000007,357.4389489,15.030864197530864,7.2587539999999535,space,335.5362490000002,335.5362490000002,8.615775199999462,340.3651712000001,345.1002818000002,,,,,,,,,,,,,,,,,,,,,,9,001,2024-07-01_11h00.39.182,robot_sternberg_sign,2022.2.5,59.970698316820474,
"['L_Base_X_Back', 'R_Base_Y_Back', 'R_Arm_X_For', 'L_Arm_Y_For']",False,L_Torso_Z_Back,4,robot,1,True,False,"['robot_stimuli\\L_Base_X_Back.mp4', 'robot_stimuli\\R_Base_Y_Back.mp4', 'robot_stimuli\\R_Arm_X_For.mp4', 'robot_stimuli\\L_Arm_Y_For.mp4']",robot_stimuli\L_Torso_Z_Back.mp4,9,0,0,0,0,0,12,12,12,,,,,,,,,,,,,,,,,,,,,357.4389489,357.4389489,space,2.6545150999995712,376.0099596,377.1012409,,,,377.1012409,377.1012409,377.1012409,n,2.815364899999622,380.61536780000006,380.61536780000006,380.61536780000006,380.61536780000006,380.61536780000006,380.61536780000006,380.61536780000006,380.61536780000006,None,None,None,,,,372.36693719999994,377.1012409,,,,,,,,,,,,,,,,,,,,,,9,001,2024-07-01_11h00.39.182,robot_sternberg_sign,2022.2.5,59.970698316820474,
"['L_Arm_Z_Back', 'L_Arm_X_Back', 'R_Torso_Z_Back', 'R_Base_Z_Back']",True,R_Torso_Z_Back,4,robot,1,False,False,"['robot_stimuli\\L_Arm_Z_Back.mp4', 'robot_stimuli\\L_Arm_X_Back.mp4', 'robot_stimuli\\R_Torso_Z_Back.mp4', 'robot_stimuli\\R_Base_Z_Back.mp4']",robot_stimuli\R_Torso_Z_Back.mp4,9,0,0,0,0,0,13,13,13,,,,,,,,,,,,,,,,,,,,,380.61536780000006,380.61536780000006,None,,396.45556540000007,397.54608740000003,,,,397.54608740000003,397.54608740000003,397.54608740000003,c,3.538044699999773,401.1836459000001,401.1836459000001,401.1836459000001,401.1836459000001,401.1836459000001,401.1836459000001,401.1836459000001,401.1836459000001,None,None,None,380.61536780000006,380.61536780000006,,392.9086589000003,397.54608740000003,,,,,,,,,,,,,,,,,,,,,,9,001,2024-07-01_11h00.39.182,robot_sternberg_sign,2022.2.5,59.970698316820474,
"['L_Arm_Y_For', 'L_Torso_X_Back', 'L_Head_Y_Back', 'L_Arm_X_Back']",True,L_Torso_X_Back,4,robot,1,False,True,"['robot_stimuli\\L_Arm_Y_For.mp4', 'robot_stimuli\\L_Torso_X_Back.mp4', 'robot_stimuli\\L_Head_Y_Back.mp4', 'robot_stimuli\\L_Arm_X_Back.mp4']",robot_stimuli\L_Torso_X_Back.mp4,9,0,0,0,0,0,14,14,14,,,,,,,,,,,,,,,,,,,,,401.1836459000001,401.1836459000001,None,,417.0762264,418.16429210000024,,,,418.16429210000024,418.16429210000024,418.16429210000024,n,4.3517533999997795,422.5813640000001,426.07616770000004,422.5813640000001,426.07616770000004,422.5813640000001,426.07616770000004,422.5813640000001,426.07616770000004,23.98148148148148,3.0058508000001893,space,401.1836459000001,401.1836459000001,3.454634299999725,413.43491900000026,418.16429210000024,,,,,,,,,,,,,,,,,,,,,,9,001,2024-07-01_11h00.39.182,robot_sternberg_sign,2022.2.5,59.970698316820474,
"['L_Arm_X_Back', 'R_Head_Y_Back', 'L_Base_X_Back', 'R_Arm_Y_Back', 'L_Head_Y_Back', 'L_Arm_Z_For']",True,R_Arm_Y_Back,6,robot,1,True,False,"['robot_stimuli\\L_Arm_X_Back.mp4', 'robot_stimuli\\R_Head_Y_Back.mp4', 'robot_stimuli\\L_Base_X_Back.mp4', 'robot_stimuli\\R_Arm_Y_Back.mp4', 'robot_stimuli\\L_Head_Y_Back.mp4', 'robot_stimuli\\L_Arm_Z_For.mp4']",robot_stimuli\R_Arm_Y_Back.mp4,9,0,0,0,0,0,15,15,15,,,,,,,,,,,,,,,,,,,,,426.07616770000004,426.07616770000004,space,1.1913118999996186,450.6266025,451.7284788000002,,,,451.7284788000002,451.7284788000002,451.7284788000002,n,4.3555789999995795,456.10955409999997,456.10955409999997,456.10955409999997,456.10955409999997,456.10955409999997,456.10955409999997,456.10955409999997,456.10955409999997,None,None,None,,,,446.9805120000001,451.7284788000002,,,,,,,,,,,,,,,,,,,,,,9,001,2024-07-01_11h00.39.182,robot_sternberg_sign,2022.2.5,59.970698316820474,
"['R_Torso_Z_For', 'R_Torso_X_For', 'L_Torso_X_For', 'L_Torso_Y_For', 'R_Torso_Z_Back', 'L_Arm_X_Back']",True,L_Torso_Y_For,6,robot,1,False,False,"['robot_stimuli\\R_Torso_Z_For.mp4', 'robot_stimuli\\R_Torso_X_For.mp4', 'robot_stimuli\\L_Torso_X_For.mp4', 'robot_stimuli\\L_Torso_Y_For.mp4', 'robot_stimuli\\R_Torso_Z_Back.mp4', 'robot_stimuli\\L_Arm_X_Back.mp4']",robot_stimuli\L_Torso_Y_For.mp4,9,0,0,0,0,0,16,16,16,,,,,,,,,,,,,,,,,,,,,456.10955409999997,456.10955409999997,None,,479.50271650000013,457.19417360000034,,,,480.5945049000002,480.5945049000002,480.5945049000002,c,3.586199499999566,484.22566210000014,484.22566210000014,484.22566210000014,484.22566210000014,484.22566210000014,484.22566210000014,484.22566210000014,484.22566210000014,None,None,None,456.10955409999997,456.10955409999997,,475.8726590000001,480.5945049000002,,,,,,,,,,,,,,,,,,,,,,9,001,2024-07-01_11h00.39.182,robot_sternberg_sign,2022.2.5,59.970698316820474,
"['R_Base_Y_For', 'L_Base_Z_For', 'R_Torso_Z_For', 'R_Head_X_Back', 'L_Arm_Y_Back', 'L_Head_X_For']",False,R_Torso_Y_For,6,robot,1,False,True,"['robot_stimuli\\R_Base_Y_For.mp4', 'robot_stimuli\\L_Base_Z_For.mp4', 'robot_stimuli\\R_Torso_Z_For.mp4', 'robot_stimuli\\R_Head_X_Back.mp4', 'robot_stimuli\\L_Arm_Y_Back.mp4', 'robot_stimuli\\L_Head_X_For.mp4']",robot_stimuli\R_Torso_Y_For.mp4,9,0,0,0,0,0,17,17,17,,,,,,,,,,,,,,,,,,,,,484.22566210000014,484.22566210000014,None,,507.49233790000017,508.57605300000023,,,,508.57605300000023,508.57605300000023,508.57605300000023,c,3.0204124999995656,512.2405754000001,517.0057228000001,512.2405754000001,517.0057228000001,512.2405754000001,517.0057228000001,512.2405754000001,517.0057228000001,37.098765432098766,4.405729099999917,space,484.22566210000014,484.22566210000014,4.707077599999593,503.92678079999996,508.57605300000023,,,,,,,,,,,,,,,,,,,,,,9,001,2024-07-01_11h00.39.182,robot_sternberg_sign,2022.2.5,59.970698316820474,
,,,,,,,,,,,0,0,0,0,,,,,,,,,,,,,,,,,,,,,,,,,,,,,,,,,,,,,,,,,,,,,,,,,,,,,,,517.0057228000001,517.0057228000001,517.0057228000001,c,5.2143154999994294,,,,,,,,,,,,,,,,,9,001,2024-07-01_11h00.39.182,robot_sternberg_sign,2022.2.5,59.970698316820474,
"['L_Base_X_For', 'L_Arm_Y_Back', 'L_Arm_Z_Back', 'R_Arm_Y_For', 'R_Torso_X_Back', 'L_Torso_Y_Back']",True,L_Arm_Y_Back,6,robot,1,True,False,"['robot_stimuli\\L_Base_X_For.mp4', 'robot_stimuli\\L_Arm_Y_Back.mp4', 'robot_stimuli\\L_Arm_Z_Back.mp4', 'robot_stimuli\\R_Arm_Y_For.mp4', 'robot_stimuli\\R_Torso_X_Back.mp4', 'robot_stimuli\\L_Torso_Y_Back.mp4']",robot_stimuli\L_Arm_Y_Back.mp4,9,,,,,,,,,,,,,0,0,0,0,,,,,,,,,,,,,,,,,550.5533570000002,528.5941014,,,,,,,,,555.2758035000002,555.2758035000002,555.2758035000002,555.2758035000002,555.2758035000002,555.2758035000002,555.2758035000002,555.2758035000002,None,None,None,,,,,,,,,,,522.2651827,522.2651827,space,5.227351899999576,547.0538176,551.6466229000002,551.6466229000002,551.6466229000002,551.6466229000002,c,2.581330799999705,,,,,,9,001,2024-07-01_11h00.39.182,robot_sternberg_sign,2022.2.5,59.970698316820474,
"['L_Head_Y_Back', 'L_Arm_Y_For', 'R_Torso_Z_Back', 'R_Torso_Z_For', 'L_Base_Y_For', 'L_Head_X_For']",False,R_Torso_X_For,6,robot,1,False,False,"['robot_stimuli\\L_Head_Y_Back.mp4', 'robot_stimuli\\L_Arm_Y_For.mp4', 'robot_stimuli\\R_Torso_Z_Back.mp4', 'robot_stimuli\\R_Torso_Z_For.mp4', 'robot_stimuli\\L_Base_Y_For.mp4', 'robot_stimuli\\L_Head_X_For.mp4']",robot_stimuli\R_Torso_X_For.mp4,9,,,,,,,,,,,,,0,1,1,1,,,,,,,,,,,,,,,,,578.5243507,579.6131478000002,,,,,,,,,584.4023219000001,584.4023219000001,584.4023219000001,584.4023219000001,584.4023219000001,584.4023219000001,584.4023219000001,584.4023219000001,None,None,None,,,,,,,,,,,555.2758035000002,555.2758035000002,None,,574.9481863999999,579.6131478000002,579.6131478000002,579.6131478000002,579.6131478000002,c,4.742176099999597,555.2758035000002,555.2758035000002,,,,9,001,2024-07-01_11h00.39.182,robot_sternberg_sign,2022.2.5,59.970698316820474,
"['R_Head_X_For', 'L_Torso_Y_For', 'R_Head_X_Back', 'R_Base_X_Back', 'R_Head_Z_Back', 'R_Base_Z_Back']",True,R_Head_X_For,6,robot,1,False,False,"['robot_stimuli\\R_Head_X_For.mp4', 'robot_stimuli\\L_Torso_Y_For.mp4', 'robot_stimuli\\R_Head_X_Back.mp4', 'robot_stimuli\\R_Base_X_Back.mp4', 'robot_stimuli\\R_Head_Z_Back.mp4', 'robot_stimuli\\R_Base_Z_Back.mp4']",robot_stimuli\R_Head_X_For.mp4,9,,,,,,,,,,,,,0,2,2,2,,,,,,,,,,,,,,,,,607.6721489000001,608.762581,,,,,,,,,612.4007597,612.4007597,612.4007597,612.4007597,612.4007597,612.4007597,612.4007597,612.4007597,None,None,None,,,,,,,,,,,584.4023219000001,584.4023219000001,None,,604.1295193999999,608.762581,608.762581,608.762581,608.762581,c,3.034021899999516,584.4023219000001,584.4023219000001,,,,9,001,2024-07-01_11h00.39.182,robot_sternberg_sign,2022.2.5,59.970698316820474,
"['R_Head_X_For', 'L_Torso_Y_For', 'R_Torso_X_For', 'R_Arm_Z_For', 'R_Arm_Y_For', 'R_Head_Y_Back']",False,L_Torso_X_Back,6,robot,1,False,False,"['robot_stimuli\\R_Head_X_For.mp4', 'robot_stimuli\\L_Torso_Y_For.mp4', 'robot_stimuli\\R_Torso_X_For.mp4', 'robot_stimuli\\R_Arm_Z_For.mp4', 'robot_stimuli\\R_Arm_Y_For.mp4', 'robot_stimuli\\R_Head_Y_Back.mp4']",robot_stimuli\L_Torso_X_Back.mp4,9,,,,,,,,,,,,,0,3,3,3,,,,,,,,,,,,,,,,,635.5722779000002,636.6693161000003,,,,,,,,,648.0448190000002,648.0448190000002,648.0448190000002,648.0448190000002,648.0448190000002,648.0448190000002,648.0448190000002,648.0448190000002,None,None,None,,,,,,,,,,,612.4007597,612.4007597,None,,631.9302415000002,636.6693161000003,636.6693161000003,636.6693161000003,636.6693161000003,n,11.335613699999612,612.4007597,612.4007597,,,,9,001,2024-07-01_11h00.39.182,robot_sternberg_sign,2022.2.5,59.970698316820474,
"['L_Head_X_Back', 'L_Torso_X_For', 'R_Torso_X_Back', 'L_Base_Y_For', 'R_Torso_Z_Back', 'L_Head_Y_For']",False,R_Arm_Z_For,6,robot,1,False,False,"['robot_stimuli\\L_Head_X_Back.mp4', 'robot_stimuli\\L_Torso_X_For.mp4', 'robot_stimuli\\R_Torso_X_Back.mp4', 'robot_stimuli\\L_Base_Y_For.mp4', 'robot_stimuli\\R_Torso_Z_Back.mp4', 'robot_stimuli\\L_Head_Y_For.mp4']",robot_stimuli\R_Arm_Z_For.mp4,9,,,,,,,,,,,,,0,4,4,4,,,,,,,,,,,,,,,,,671.2906662,672.3820004000004,,,,,,,,,676.0300204,676.0300204,676.0300204,676.0300204,676.0300204,676.0300204,676.0300204,676.0300204,None,None,None,,,,,,,,,,,648.0448190000002,648.0448190000002,None,,667.6506595000001,672.3820004000004,672.3820004000004,672.3820004000004,672.3820004000004,n,2.8540445999997246,648.0448190000002,648.0448190000002,,,,9,001,2024-07-01_11h00.39.182,robot_sternberg_sign,2022.2.5,59.970698316820474,
"['R_Arm_X_Back', 'L_Head_Z_For', 'L_Torso_X_Back', 'L_Arm_Y_Back', 'L_Base_Z_For', 'L_Torso_Z_For']",True,L_Base_Z_For,6,robot,1,False,False,"['robot_stimuli\\R_Arm_X_Back.mp4', 'robot_stimuli\\L_Head_Z_For.mp4', 'robot_stimuli\\L_Torso_X_Back.mp4', 'robot_stimuli\\L_Arm_Y_Back.mp4', 'robot_stimuli\\L_Base_Z_For.mp4', 'robot_stimuli\\L_Torso_Z_For.mp4']",robot_stimuli\L_Base_Z_For.mp4,9,,,,,,,,,,,,,0,5,5,5,,,,,,,,,,,,,,,,,699.3709148000003,677.1080198,,,,,,,,,704.6842304000002,704.6842304000002,704.6842304000002,704.6842304000002,704.6842304000002,704.6842304000002,704.6842304000002,704.6842304000002,None,None,None,,,,,,,,,,,676.0300204,676.0300204,None,,695.7298485000001,700.4641308,700.4641308,700.4641308,700.4641308,c,4.188702599999488,676.0300204,676.0300204,,,,9,001,2024-07-01_11h00.39.182,robot_sternberg_sign,2022.2.5,59.970698316820474,
"['L_Arm_Y_For', 'L_Arm_Z_For', 'R_Arm_Y_Back', 'L_Arm_Z_Back', 'R_Arm_Z_Back', 'L_Torso_X_For']",False,R_Torso_Z_Back,6,robot,1,False,False,"['robot_stimuli\\L_Arm_Y_For.mp4', 'robot_stimuli\\L_Arm_Z_For.mp4', 'robot_stimuli\\R_Arm_Y_Back.mp4', 'robot_stimuli\\L_Arm_Z_Back.mp4', 'robot_stimuli\\R_Arm_Z_Back.mp4', 'robot_stimuli\\L_Torso_X_For.mp4']",robot_stimuli\R_Torso_Z_Back.mp4,9,,,,,,,,,,,,,0,6,6,6,,,,,,,,,,,,,,,,,728.0027829,705.7586286000001,,,,,,,,,732.7464795999999,732.7464795999999,732.7464795999999,732.7464795999999,732.7464795999999,732.7464795999999,732.7464795999999,732.7464795999999,None,None,None,,,,,,,,,,,704.6842304000002,704.6842304000002,None,,724.3722369000002,729.0971610000001,729.0971610000001,729.0971610000001,729.0971610000001,n,2.6199510000001283,704.6842304000002,704.6842304000002,,,,9,001,2024-07-01_11h00.39.182,robot_sternberg_sign,2022.2.5,59.970698316820474,
"['L_Arm_X_For', 'R_Head_Y_For', 'L_Torso_Z_Back', 'L_Torso_X_For', 'R_Arm_Z_Back', 'L_Base_Z_For']",True,L_Arm_X_For,6,robot,1,False,False,"['robot_stimuli\\L_Arm_X_For.mp4', 'robot_stimuli\\R_Head_Y_For.mp4', 'robot_stimuli\\L_Torso_Z_Back.mp4', 'robot_stimuli\\L_Torso_X_For.mp4', 'robot_stimuli\\R_Arm_Z_Back.mp4', 'robot_stimuli\\L_Base_Z_For.mp4']",robot_stimuli\L_Arm_X_For.mp4,9,,,,,,,,,,,,,0,7,7,7,,,,,,,,,,,,,,,,,755.9247660000001,757.0135089,,,,,,,,,760.6615267000002,760.6615267000002,760.6615267000002,760.6615267000002,760.6615267000002,760.6615267000002,760.6615267000002,760.6615267000002,None,None,None,,,,,,,,,,,732.7464795999999,732.7464795999999,None,,752.2890909000002,757.0135089,757.0135089,757.0135089,757.0135089,n,2.7350900999995247,732.7464795999999,732.7464795999999,,,,9,001,2024-07-01_11h00.39.182,robot_sternberg_sign,2022.2.5,59.970698316820474,
"['R_Head_X_Back', 'R_Base_X_Back', 'L_Base_X_Back', 'R_Arm_Z_For', 'L_Arm_Z_For', 'L_Torso_Y_Back']",True,R_Base_X_Back,6,robot,1,False,False,"['robot_stimuli\\R_Head_X_Back.mp4', 'robot_stimuli\\R_Base_X_Back.mp4', 'robot_stimuli\\L_Base_X_Back.mp4', 'robot_stimuli\\R_Arm_Z_For.mp4', 'robot_stimuli\\L_Arm_Z_For.mp4', 'robot_stimuli\\L_Torso_Y_Back.mp4']",robot_stimuli\R_Base_X_Back.mp4,9,,,,,,,,,,,,,0,8,8,8,,,,,,,,,,,,,,,,,783.8591236000002,784.9443919,,,,,,,,,788.5836521000001,788.5836521000001,788.5836521000001,788.5836521000001,788.5836521000001,788.5836521000001,788.5836521000001,788.5836521000001,None,None,None,,,,,,,,,,,760.6615267000002,760.6615267000002,None,,780.3567867000002,784.9443919,784.9443919,784.9443919,784.9443919,c,3.243046499999764,760.6615267000002,760.6615267000002,,,,9,001,2024-07-01_11h00.39.182,robot_sternberg_sign,2022.2.5,59.970698316820474,
"['L_Arm_Z_Back', 'R_Torso_X_For', 'L_Base_Z_Back', 'L_Arm_X_For', 'L_Head_X_For', 'R_Torso_Z_Back']",False,R_Torso_Y_Back,6,robot,1,False,True,"['robot_stimuli\\L_Arm_Z_Back.mp4', 'robot_stimuli\\R_Torso_X_For.mp4', 'robot_stimuli\\L_Base_Z_Back.mp4', 'robot_stimuli\\L_Arm_X_For.mp4', 'robot_stimuli\\L_Head_X_For.mp4', 'robot_stimuli\\R_Torso_Z_Back.mp4']",robot_stimuli\R_Torso_Y_Back.mp4,9,,,,,,,,,,,,,0,9,9,9,,,,,,,,,,,,,,,,,811.8558250000001,812.9468102000001,,,,,,,,,818.7625531000003,833.4034860000002,818.7625531000003,833.4034860000002,818.7625531000003,833.4034860000002,818.7625531000003,833.4034860000002,48.364197530864196,12.747091000000182,space,,,14.593059799999992,,,,,,,,788.5836521000001,788.5836521000001,None,,808.2252509,812.9468102000001,812.9468102000001,812.9468102000001,812.9468102000001,n,5.74501889999965,788.5836521000001,788.5836521000001,,,,9,001,2024-07-01_11h00.39.182,robot_sternberg_sign,2022.2.5,59.970698316820474,
"['L_Torso_Y_For', 'L_Arm_Y_Back']",False,R_Arm_Y_For,2,robot,1,True,False,"['robot_stimuli\\L_Torso_Y_For.mp4', 'robot_stimuli\\L_Arm_Y_Back.mp4']",robot_stimuli\R_Arm_Y_For.mp4,9,,,,,,,,,,,,,0,10,10,10,,,,,,,,,,,,,,,,,845.0846781,846.1633704999999,,,,,,,,,849.6675308000003,849.6675308000003,849.6675308000003,849.6675308000003,849.6675308000003,849.6675308000003,849.6675308000003,849.6675308000003,None,None,None,,,,,,,,,,,833.4034860000002,833.4034860000002,space,3.2166175999996085,841.4541362,846.1633704999999,846.1633704999999,846.1633704999999,846.1633704999999,n,1.8806659999995645,,,,,,9,001,2024-07-01_11h00.39.182,robot_sternberg_sign,2022.2.5,59.970698316820474,
"['L_Arm_Z_For', 'L_Head_X_Back']",False,R_Base_Z_Back,2,robot,1,False,False,"['robot_stimuli\\L_Arm_Z_For.mp4', 'robot_stimuli\\L_Head_X_Back.mp4']",robot_stimuli\R_Base_Z_Back.mp4,9,,,,,,,,,,,,,0,11,11,11,,,,,,,,,,,,,,,,,858.1072624000003,859.1958366000003,,,,,,,,,862.7450647000001,862.7450647000001,862.7450647000001,862.7450647000001,862.7450647000001,862.7450647000001,862.7450647000001,862.7450647000001,None,None,None,,,,,,,,,,,849.6675308000003,849.6675308000003,None,,854.4662462000001,859.1958366000003,859.1958366000003,859.1958366000003,859.1958366000003,n,2.016320399999586,849.6675308000003,849.6675308000003,,,,9,001,2024-07-01_11h00.39.182,robot_sternberg_sign,2022.2.5,59.970698316820474,
"['L_Arm_X_For', 'L_Base_Z_For']",True,L_Arm_X_For,2,robot,1,False,False,"['robot_stimuli\\L_Arm_X_For.mp4', 'robot_stimuli\\L_Base_Z_For.mp4']",robot_stimuli\L_Arm_X_For.mp4,9,,,,,,,,,,,,,0,12,12,12,,,,,,,,,,,,,,,,,871.1730430000002,872.2641658000002,,,,,,,,,875.9127111000003,875.9127111000003,875.9127111000003,875.9127111000003,875.9127111000003,875.9127111000003,875.9127111000003,875.9127111000003,None,None,None,,,,,,,,,,,862.7450647000001,862.7450647000001,None,,867.5464208000003,872.2641658000002,872.2641658000002,872.2641658000002,872.2641658000002,c,2.020116799999414,862.7450647000001,862.7450647000001,,,,9,001,2024-07-01_11h00.39.182,robot_sternberg_sign,2022.2.5,59.970698316820474,
"['L_Head_Z_Back', 'L_Head_X_For']",True,L_Head_Z_Back,2,robot,1,False,False,"['robot_stimuli\\L_Head_Z_Back.mp4', 'robot_stimuli\\L_Head_X_For.mp4']",robot_stimuli\L_Head_Z_Back.mp4,9,,,,,,,,,,,,,0,13,13,13,,,,,,,,,,,,,,,,,884.2898168000002,885.378056,,,,,,,,,889.0176213,889.0176213,889.0176213,889.0176213,889.0176213,889.0176213,889.0176213,889.0176213,None,None,None,,,,,,,,,,,875.9127111000003,875.9127111000003,None,,880.7153194000002,885.378056,885.378056,885.378056,885.378056,c,1.6101822999999058,875.9127111000003,875.9127111000003,,,,9,001,2024-07-01_11h00.39.182,robot_sternberg_sign,2022.2.5,59.970698316820474,
"['L_Torso_X_Back', 'L_Arm_X_For']",False,R_Torso_X_For,2,robot,1,False,False,"['robot_stimuli\\L_Torso_X_Back.mp4', 'robot_stimuli\\L_Arm_X_For.mp4']",robot_stimuli\R_Torso_X_For.mp4,9,,,,,,,,,,,,,0,14,14,14,,,,,,,,,,,,,,,,,897.4548261,898.5469974000002,,,,,,,,,902.1962317000002,902.1962317000002,902.1962317000002,902.1962317000002,902.1962317000002,902.1962317000002,902.1962317000002,902.1962317000002,None,None,None,,,,,,,,,,,889.0176213,889.0176213,None,,893.8142891000002,898.5469974000002,898.5469974000002,898.5469974000002,898.5469974000002,n,1.2969318999998904,889.0176213,889.0176213,,,,9,001,2024-07-01_11h00.39.182,robot_sternberg_sign,2022.2.5,59.970698316820474,
"['L_Base_X_Back', 'R_Torso_Y_Back']",False,R_Head_X_For,2,robot,1,False,False,"['robot_stimuli\\L_Base_X_Back.mp4', 'robot_stimuli\\R_Torso_Y_Back.mp4']",robot_stimuli\R_Head_X_For.mp4,9,,,,,,,,,,,,,0,15,15,15,,,,,,,,,,,,,,,,,910.5846102,911.6634051999999,,,,,,,,,915.3139333000004,915.3139333000004,915.3139333000004,915.3139333000004,915.3139333000004,915.3139333000004,915.3139333000004,915.3139333000004,None,None,None,,,,,,,,,,,902.1962317000002,902.1962317000002,None,,906.9640606000003,911.6634051999999,911.6634051999999,911.6634051999999,911.6634051999999,n,1.356011099999705,902.1962317000002,902.1962317000002,,,,9,001,2024-07-01_11h00.39.182,robot_sternberg_sign,2022.2.5,59.970698316820474,
"['L_Base_Y_Back', 'R_Arm_Z_Back']",True,L_Base_Y_Back,2,robot,1,False,False,"['robot_stimuli\\L_Base_Y_Back.mp4', 'robot_stimuli\\R_Arm_Z_Back.mp4']",robot_stimuli\L_Base_Y_Back.mp4,9,,,,,,,,,,,,,0,16,16,16,,,,,,,,,,,,,,,,,923.6923166000001,924.7762028000002,,,,,,,,,928.3525658000003,928.3525658000003,928.3525658000003,928.3525658000003,928.3525658000003,928.3525658000003,928.3525658000003,928.3525658000003,None,None,None,,,,,,,,,,,915.3139333000004,915.3139333000004,None,,920.0609833000003,924.7762028000002,924.7762028000002,924.7762028000002,924.7762028000002,n,1.282717899999625,915.3139333000004,915.3139333000004,,,,9,001,2024-07-01_11h00.39.182,robot_sternberg_sign,2022.2.5,59.970698316820474,
"['R_Head_Y_For', 'L_Torso_X_Back']",True,L_Torso_X_Back,2,robot,1,False,False,"['robot_stimuli\\R_Head_Y_For.mp4', 'robot_stimuli\\L_Torso_X_Back.mp4']",robot_stimuli\L_Torso_X_Back.mp4,9,,,,,,,,,,,,,0,17,17,17,,,,,,,,,,,,,,,,,936.8060871000002,937.8970748000002,,,,,,,,,941.5477363,941.5477363,941.5477363,941.5477363,941.5477363,941.5477363,941.5477363,941.5477363,None,None,None,,,,,,,,,,,928.3525658000003,928.3525658000003,None,,933.1648909,937.8970748000002,937.8970748000002,937.8970748000002,937.8970748000002,c,1.6990733999996337,928.3525658000003,928.3525658000003,,,,9,001,2024-07-01_11h00.39.182,robot_sternberg_sign,2022.2.5,59.970698316820474,
"['L_Arm_Y_For', 'L_Base_X_For']",False,L_Torso_Z_For,2,robot,1,False,False,"['robot_stimuli\\L_Arm_Y_For.mp4', 'robot_stimuli\\L_Base_X_For.mp4']",robot_stimuli\L_Torso_Z_For.mp4,9,,,,,,,,,,,,,0,18,18,18,,,,,,,,,,,,,,,,,949.9012315,950.9761884,,,,,,,,,954.6173294,954.6173294,954.6173294,954.6173294,954.6173294,954.6173294,954.6173294,954.6173294,None,None,None,,,,,,,,,,,941.5477363,941.5477363,None,,946.3372550000004,950.9761884,950.9761884,950.9761884,950.9761884,n,2.4279272999997374,941.5477363,941.5477363,,,,9,001,2024-07-01_11h00.39.182,robot_sternberg_sign,2022.2.5,59.970698316820474,
"['R_Base_X_For', 'L_Base_X_Back']",True,L_Base_X_Back,2,robot,1,False,True,"['robot_stimuli\\R_Base_X_For.mp4', 'robot_stimuli\\L_Base_X_Back.mp4']",robot_stimuli\L_Base_X_Back.mp4,9,,,,,,,,,,,,,0,19,19,19,,,,,,,,,,,,,,,,,962.9080635,963.996216,,,,,,,,,967.6458892,972.6412243,967.6458892,972.6412243,967.6458892,972.6412243,967.6458892,972.6412243,37.87037037037037,3.6096535000001495,space,,,4.948962899999515,,,,,,,,954.6173294,954.6173294,None,,959.3126630000002,963.996216,963.996216,963.996216,963.996216,c,3.255207299999711,954.6173294,954.6173294,,,,9,001,2024-07-01_11h00.39.182,robot_sternberg_sign,2022.2.5,59.970698316820474,
"['R_Head_X_Back', 'R_Arm_Y_Back', 'R_Torso_Z_For', 'L_Base_Y_For']",False,R_Torso_Y_For,4,robot,1,True,False,"['robot_stimuli\\R_Head_X_Back.mp4', 'robot_stimuli\\R_Arm_Y_Back.mp4', 'robot_stimuli\\R_Torso_Z_For.mp4', 'robot_stimuli\\L_Base_Y_For.mp4']",robot_stimuli\R_Torso_Y_For.mp4,9,,,,,,,,,,,,,0,20,20,20,,,,,,,,,,,,,,,,,990.2717188000001,991.3628546,,,,,,,,,995.0135004000003,995.0135004000003,995.0135004000003,995.0135004000003,995.0135004000003,995.0135004000003,995.0135004000003,995.0135004000003,None,None,None,,,,,,,,,,,972.6412243,972.6412243,space,1.8507681999999477,986.7394847,991.3628546,991.3628546,991.3628546,991.3628546,c,2.0402343999994628,,,,,,9,001,2024-07-01_11h00.39.182,robot_sternberg_sign,2022.2.5,59.970698316820474,
"['L_Head_Z_Back', 'L_Torso_Y_Back', 'R_Arm_X_Back', 'L_Head_Y_For']",True,R_Arm_X_Back,4,robot,1,False,False,"['robot_stimuli\\L_Head_Z_Back.mp4', 'robot_stimuli\\L_Torso_Y_Back.mp4', 'robot_stimuli\\R_Arm_X_Back.mp4', 'robot_stimuli\\L_Head_Y_For.mp4']",robot_stimuli\R_Arm_X_Back.mp4,9,,,,,,,,,,,,,0,21,21,21,,,,,,,,,,,,,,,,,1010.7592240000004,1011.8558356000003,,,,,,,,,1015.4981782,1015.4981782,1015.4981782,1015.4981782,1015.4981782,1015.4981782,1015.4981782,1015.4981782,None,None,None,,,,,,,,,,,995.0135004000003,995.0135004000003,None,,1007.1124824000003,1011.8558356000003,1011.8558356000003,1011.8558356000003,1011.8558356000003,c,3.323471999999583,995.0135004000003,995.0135004000003,,,,9,001,2024-07-01_11h00.39.182,robot_sternberg_sign,2022.2.5,59.970698316820474,
"['L_Head_X_For', 'R_Arm_X_Back', 'R_Arm_X_For', 'R_Torso_Y_Back']",True,R_Arm_X_For,4,robot,1,False,False,"['robot_stimuli\\L_Head_X_For.mp4', 'robot_stimuli\\R_Arm_X_Back.mp4', 'robot_stimuli\\R_Arm_X_For.mp4', 'robot_stimuli\\R_Torso_Y_Back.mp4']",robot_stimuli\R_Arm_X_For.mp4,9,,,,,,,,,,,,,0,22,22,22,,,,,,,,,,,,,,,,,1031.3392782,1032.4287485,,,,,,,,,1036.0685623,1036.0685623,1036.0685623,1036.0685623,1036.0685623,1036.0685623,1036.0685623,1036.0685623,None,None,None,,,,,,,,,,,1015.4981782,1015.4981782,None,,1027.6952094000003,1032.4287485,1032.4287485,1032.4287485,1032.4287485,c,2.2866900999997597,1015.4981782,1015.4981782,,,,9,001,2024-07-01_11h00.39.182,robot_sternberg_sign,2022.2.5,59.970698316820474,
"['R_Torso_Z_For', 'L_Torso_Y_Back', 'R_Arm_X_For', 'L_Arm_Y_For']",False,R_Torso_Y_For,4,robot,1,False,False,"['robot_stimuli\\R_Torso_Z_For.mp4', 'robot_stimuli\\L_Torso_Y_Back.mp4', 'robot_stimuli\\R_Arm_X_For.mp4', 'robot_stimuli\\L_Arm_Y_For.mp4']",robot_stimuli\R_Torso_Y_For.mp4,9,,,,,,,,,,,,,0,23,23,23,,,,,,,,,,,,,,,,,1051.7898418,1052.8778232,,,,,,,,,1061.7967862,1061.7967862,1061.7967862,1061.7967862,1061.7967862,1061.7967862,1061.7967862,1061.7967862,None,None,None,,,,,,,,,,,1036.0685623,1036.0685623,None,,1048.1592745000003,1052.8778232,1052.8778232,1052.8778232,1052.8778232,n,8.885877100000016,1036.0685623,1036.0685623,,,,9,001,2024-07-01_11h00.39.182,robot_sternberg_sign,2022.2.5,59.970698316820474,
"['R_Arm_X_For', 'L_Torso_X_Back', 'L_Torso_Z_Back', 'L_Arm_X_For']",True,L_Arm_X_For,4,robot,1,False,False,"['robot_stimuli\\R_Arm_X_For.mp4', 'robot_stimuli\\L_Torso_X_Back.mp4', 'robot_stimuli\\L_Torso_Z_Back.mp4', 'robot_stimuli\\L_Arm_X_For.mp4']",robot_stimuli\L_Arm_X_For.mp4,9,,,,,,,,,,,,,0,24,24,24,,,,,,,,,,,,,,,,,1077.5203513000001,1062.8753637,,,,,,,,,1082.2406501,1082.2406501,1082.2406501,1082.2406501,1082.2406501,1082.2406501,1082.2406501,1082.2406501,None,None,None,,,,,,,,,,,1061.7967862,1061.7967862,None,,1073.8869519,1078.6127708000004,1078.6127708000004,1078.6127708000004,1078.6127708000004,c,1.9838403999997354,1061.7967862,1061.7967862,,,,9,001,2024-07-01_11h00.39.182,robot_sternberg_sign,2022.2.5,59.970698316820474,
"['L_Torso_Y_For', 'L_Base_X_Back', 'R_Head_X_For', 'L_Head_Y_Back']",False,R_Head_Y_For,4,robot,1,False,False,"['robot_stimuli\\L_Torso_Y_For.mp4', 'robot_stimuli\\L_Base_X_Back.mp4', 'robot_stimuli\\R_Head_X_For.mp4', 'robot_stimuli\\L_Head_Y_Back.mp4']",robot_stimuli\R_Head_Y_For.mp4,9,,,,,,,,,,,,,0,25,25,25,,,,,,,,,,,,,,,,,1098.1052203,1099.1968415000001,,,,,,,,,1102.8469760000003,1102.8469760000003,1102.8469760000003,1102.8469760000003,1102.8469760000003,1102.8469760000003,1102.8469760000003,1102.8469760000003,None,None,None,,,,,,,,,,,1082.2406501,1082.2406501,None,,1094.4643494000002,1099.1968415000001,1099.1968415000001,1099.1968415000001,1099.1968415000001,n,1.5498791999993955,1082.2406501,1082.2406501,,,,9,001,2024-07-01_11h00.39.182,robot_sternberg_sign,2022.2.5,59.970698316820474,
"['L_Head_X_For', 'R_Head_X_For', 'L_Base_Y_Back', 'L_Torso_Y_For']",False,R_Torso_Y_For,4,robot,1,False,False,"['robot_stimuli\\L_Head_X_For.mp4', 'robot_stimuli\\R_Head_X_For.mp4', 'robot_stimuli\\L_Base_Y_Back.mp4', 'robot_stimuli\\L_Torso_Y_For.mp4']",robot_stimuli\R_Torso_Y_For.mp4,9,,,,,,,,,,,,,0,26,26,26,,,,,,,,,,,,,,,,,1118.5713441000003,1119.6642259,,,,,,,,,1123.3142167,1123.3142167,1123.3142167,1123.3142167,1123.3142167,1123.3142167,1123.3142167,1123.3142167,None,None,None,,,,,,,,,,,1102.8469760000003,1102.8469760000003,None,,1114.9413582000002,1119.6642259,1119.6642259,1119.6642259,1119.6642259,n,2.290957100000014,1102.8469760000003,1102.8469760000003,,,,9,001,2024-07-01_11h00.39.182,robot_sternberg_sign,2022.2.5,59.970698316820474,
"['R_Arm_Y_Back', 'R_Base_X_Back', 'R_Torso_Z_For', 'R_Arm_Z_For']",True,R_Torso_Z_For,4,robot,1,False,False,"['robot_stimuli\\R_Arm_Y_Back.mp4', 'robot_stimuli\\R_Base_X_Back.mp4', 'robot_stimuli\\R_Torso_Z_For.mp4', 'robot_stimuli\\R_Arm_Z_For.mp4']",robot_stimuli\R_Torso_Z_For.mp4,9,,,,,,,,,,,,,0,27,27,27,,,,,,,,,,,,,,,,,1139.2059097000001,1140.2960282000004,,,,,,,,,1143.9456423000001,1143.9456423000001,1143.9456423000001,1143.9456423000001,1143.9456423000001,1143.9456423000001,1143.9456423000001,1143.9456423000001,None,None,None,,,,,,,,,,,1123.3142167,1123.3142167,None,,1135.5646803,1140.2960282000004,1140.2960282000004,1140.2960282000004,1140.2960282000004,c,2.55518579999989,1123.3142167,1123.3142167,,,,9,001,2024-07-01_11h00.39.182,robot_sternberg_sign,2022.2.5,59.970698316820474,
"['R_Torso_X_Back', 'R_Base_Z_For', 'R_Head_Y_For', 'R_Head_X_Back']",True,R_Head_X_Back,4,robot,1,False,False,"['robot_stimuli\\R_Torso_X_Back.mp4', 'robot_stimuli\\R_Base_Z_For.mp4', 'robot_stimuli\\R_Head_Y_For.mp4', 'robot_stimuli\\R_Head_X_Back.mp4']",robot_stimuli\R_Head_X_Back.mp4,9,,,,,,,,,,,,,0,28,28,28,,,,,,,,,,,,,,,,,1159.8213186000003,1160.9133500000003,,,,,,,,,1164.5505070000004,1164.5505070000004,1164.5505070000004,1164.5505070000004,1164.5505070000004,1164.5505070000004,1164.5505070000004,1164.5505070000004,None,None,None,,,,,,,,,,,1143.9456423000001,1143.9456423000001,None,,1156.179059,1160.9133500000003,1160.9133500000003,1160.9133500000003,1160.9133500000003,c,2.1611630999996123,1143.9456423000001,1143.9456423000001,,,,9,001,2024-07-01_11h00.39.182,robot_sternberg_sign,2022.2.5,59.970698316820474,
"['L_Torso_Y_Back', 'R_Torso_X_For', 'R_Arm_Z_Back', 'R_Base_Y_Back']",False,L_Head_Z_For,4,robot,1,False,True,"['robot_stimuli\\L_Torso_Y_Back.mp4', 'robot_stimuli\\R_Torso_X_For.mp4', 'robot_stimuli\\R_Arm_Z_Back.mp4', 'robot_stimuli\\R_Base_Y_Back.mp4']",robot_stimuli\L_Head_Z_For.mp4,9,,,,,,,,,,,,,0,29,29,29,,,,,,,,,,,,,,,,,1180.2741859000002,1181.3668973000003,,,,,,,,,1185.0483762000003,1195.7881021000003,1185.0483762000003,1195.7881021000003,1185.0483762000003,1195.7881021000003,1185.0483762000003,1195.7881021000003,53.91975308641976,4.510432099999889,space,,,10.68278859999964,,,,,,,,1164.5505070000004,1164.5505070000004,None,,1176.6425555,1181.3668973000003,1181.3668973000003,1181.3668973000003,1181.3668973000003,n,3.4122504999995726,1164.5505070000004,1164.5505070000004,,,,9,001,2024-07-01_11h00.39.182,robot_sternberg_sign,2022.2.5,59.970698316820474,
"['X', 'K', 'C', 'F', 'D', 'S']",True,C,6,letter,2,True,False,"['robot_stimuli\\\\filler.mp4', 'robot_stimuli\\\\filler.mp4', 'robot_stimuli\\\\filler.mp4', 'robot_stimuli\\\\filler.mp4', 'robot_stimuli\\\\filler.mp4', 'robot_stimuli\\\\filler.mp4']",robot_stimuli\\filler.mp4,9,,,,,,,,,,,,,0,30,30,30,,,,,,,,,,,,,,,,,1212.3586565,1213.4214492,,,,,,,,,1214.8445624,1214.8445624,1214.8445624,1214.8445624,1214.8445624,1214.8445624,1214.8445624,1214.8445624,None,None,None,,,,,,,,,,,1195.7881021000003,1195.7881021000003,space,2.6319321999994827,,,1213.4214492,1213.4214492,1213.4214492,c,1.2610642999998163,,,1210.1485091,1212.3586565,1213.4214492,9,001,2024-07-01_11h00.39.182,robot_sternberg_sign,2022.2.5,59.970698316820474,
"['S', 'M', 'L', 'B', 'Z', 'X']",False,D,6,letter,2,False,False,"['robot_stimuli\\\\filler.mp4', 'robot_stimuli\\\\filler.mp4', 'robot_stimuli\\\\filler.mp4', 'robot_stimuli\\\\filler.mp4', 'robot_stimuli\\\\filler.mp4', 'robot_stimuli\\\\filler.mp4']",robot_stimuli\\filler.mp4,9,,,,,,,,,,,,,0,31,31,31,,,,,,,,,,,,,,,,,1229.1770085000003,1230.2374103000002,,,,,,,,,1232.0592602000002,1232.0592602000002,1232.0592602000002,1232.0592602000002,1232.0592602000002,1232.0592602000002,1232.0592602000002,1232.0592602000002,None,None,None,,,,,,,,,,,1214.8445624,1214.8445624,None,,,,1230.2374103000002,1230.2374103000002,1230.2374103000002,n,1.5904781999997795,1214.8445624,1214.8445624,1226.9546621,1229.1770085000003,1230.2374103000002,9,001,2024-07-01_11h00.39.182,robot_sternberg_sign,2022.2.5,59.970698316820474,
"['B', 'C', 'S', 'D', 'K', 'W']",False,L,6,letter,2,False,False,"['robot_stimuli\\\\filler.mp4', 'robot_stimuli\\\\filler.mp4', 'robot_stimuli\\\\filler.mp4', 'robot_stimuli\\\\filler.mp4', 'robot_stimuli\\\\filler.mp4', 'robot_stimuli\\\\filler.mp4']",robot_stimuli\\filler.mp4,9,,,,,,,,,,,,,0,32,32,32,,,,,,,,,,,,,,,,,1245.9718003000003,1233.1235186000004,,,,,,,,,1248.6688306,1248.6688306,1248.6688306,1248.6688306,1248.6688306,1248.6688306,1248.6688306,1248.6688306,None,None,None,,,,,,,,,,,1232.0592602000002,1232.0592602000002,None,,,,1247.0422125,1247.0422125,1247.0422125,n,1.5925566999994771,1232.0592602000002,1232.0592602000002,1243.7544785,1245.9718003000003,1247.0422125,9,001,2024-07-01_11h00.39.182,robot_sternberg_sign,2022.2.5,59.970698316820474,
"['V', 'P', 'K', 'X', 'D', 'Z']",True,V,6,letter,2,False,False,"['robot_stimuli\\\\filler.mp4', 'robot_stimuli\\\\filler.mp4', 'robot_stimuli\\\\filler.mp4', 'robot_stimuli\\\\filler.mp4', 'robot_stimuli\\\\filler.mp4', 'robot_stimuli\\\\filler.mp4']",robot_stimuli\\filler.mp4,9,,,,,,,,,,,,,0,33,33,33,,,,,,,,,,,,,,,,,1262.3643340000003,1263.4205014000004,,,,,,,,,1264.8483331000002,1264.8483331000002,1264.8483331000002,1264.8483331000002,1264.8483331000002,1264.8483331000002,1264.8483331000002,1264.8483331000002,None,None,None,,,,,,,,,,,1248.6688306,1248.6688306,None,,,,1263.4205014000004,1263.4205014000004,1263.4205014000004,c,1.2952042999995683,1248.6688306,1248.6688306,1260.3500941000002,1262.3643340000003,1263.4205014000004,9,001,2024-07-01_11h00.39.182,robot_sternberg_sign,2022.2.5,59.970698316820474,
"['F', 'N', 'C', 'M', 'W', 'H']",True,M,6,letter,2,False,False,"['robot_stimuli\\\\filler.mp4', 'robot_stimuli\\\\filler.mp4', 'robot_stimuli\\\\filler.mp4', 'robot_stimuli\\\\filler.mp4', 'robot_stimuli\\\\filler.mp4', 'robot_stimuli\\\\filler.mp4']",robot_stimuli\\filler.mp4,9,,,,,,,,,,,,,0,34,34,34,,,,,,,,,,,,,,,,,1278.9653440000002,1280.0253995000003,,,,,,,,,1283.6485059000001,1283.6485059000001,1283.6485059000001,1283.6485059000001,1283.6485059000001,1283.6485059000001,1283.6485059000001,1283.6485059000001,None,None,None,,,,,,,,,,,1264.8483331000002,1264.8483331000002,None,,,,1280.0253995000003,1280.0253995000003,1280.0253995000003,n,3.522911699999895,1264.8483331000002,1264.8483331000002,1276.9521880000002,1278.9653440000002,1280.0253995000003,9,001,2024-07-01_11h00.39.182,robot_sternberg_sign,2022.2.5,59.970698316820474,
"['B', 'K', 'L', 'V', 'F', 'P']",False,G,6,letter,2,False,False,"['robot_stimuli\\\\filler.mp4', 'robot_stimuli\\\\filler.mp4', 'robot_stimuli\\\\filler.mp4', 'robot_stimuli\\\\filler.mp4', 'robot_stimuli\\\\filler.mp4', 'robot_stimuli\\\\filler.mp4']",robot_stimuli\\filler.mp4,9,,,,,,,,,,,,,0,35,35,35,,,,,,,,,,,,,,,,,1298.1553245,1299.2217408000001,,,,,,,,,1300.2494502,1300.2494502,1300.2494502,1300.2494502,1300.2494502,1300.2494502,1300.2494502,1300.2494502,None,None,None,,,,,,,,,,,1283.6485059000001,1283.6485059000001,None,,,,1299.2217408000001,1299.2217408000001,1299.2217408000001,n,0.9017155999999886,1283.6485059000001,1283.6485059000001,1295.9387328000003,1298.1553245,1299.2217408000001,9,001,2024-07-01_11h00.39.182,robot_sternberg_sign,2022.2.5,59.970698316820474,
"['K', 'P', 'H', 'M', 'Q', 'X']",True,Q,6,letter,2,False,False,"['robot_stimuli\\\\filler.mp4', 'robot_stimuli\\\\filler.mp4', 'robot_stimuli\\\\filler.mp4', 'robot_stimuli\\\\filler.mp4', 'robot_stimuli\\\\filler.mp4', 'robot_stimuli\\\\filler.mp4']",robot_stimuli\\filler.mp4,9,,,,,,,,,,,,,0,36,36,36,,,,,,,,,,,,,,,,,1313.9675781,1315.0214589000002,,,,,,,,,1316.2494450000004,1316.2494450000004,1316.2494450000004,1316.2494450000004,1316.2494450000004,1316.2494450000004,1316.2494450000004,1316.2494450000004,None,None,None,,,,,,,,,,,1300.2494502,1300.2494502,None,,,,1315.0214589000002,1315.0214589000002,1315.0214589000002,c,1.0699460999999246,1300.2494502,1300.2494502,1311.7612760000002,1313.9675781,1315.0214589000002,9,001,2024-07-01_11h00.39.182,robot_sternberg_sign,2022.2.5,59.970698316820474,
"['R', 'Z', 'K', 'V', 'Q', 'F']",False,H,6,letter,2,False,False,"['robot_stimuli\\\\filler.mp4', 'robot_stimuli\\\\filler.mp4', 'robot_stimuli\\\\filler.mp4', 'robot_stimuli\\\\filler.mp4', 'robot_stimuli\\\\filler.mp4', 'robot_stimuli\\\\filler.mp4']",robot_stimuli\\filler.mp4,9,,,,,,,,,,,,,0,37,37,37,,,,,,,,,,,,,,,,,1330.546253,1331.6079686000003,,,,,,,,,1333.2316963000003,1333.2316963000003,1333.2316963000003,1333.2316963000003,1333.2316963000003,1333.2316963000003,1333.2316963000003,1333.2316963000003,None,None,None,,,,,,,,,,,1316.2494450000004,1316.2494450000004,None,,,,1331.6079686000003,1331.6079686000003,1331.6079686000003,n,1.4200314999998227,1316.2494450000004,1316.2494450000004,1328.5352575000002,1330.546253,1331.6079686000003,9,001,2024-07-01_11h00.39.182,robot_sternberg_sign,2022.2.5,59.970698316820474,
"['X', 'P', 'G', 'D', 'Q', 'K']",False,H,6,letter,2,False,False,"['robot_stimuli\\\\filler.mp4', 'robot_stimuli\\\\filler.mp4', 'robot_stimuli\\\\filler.mp4', 'robot_stimuli\\\\filler.mp4', 'robot_stimuli\\\\filler.mp4', 'robot_stimuli\\\\filler.mp4']",robot_stimuli\\filler.mp4,9,,,,,,,,,,,,,0,38,38,38,,,,,,,,,,,,,,,,,1347.3404798000001,1348.4029718000002,,,,,,,,,1349.4290216,1349.4290216,1349.4290216,1349.4290216,1349.4290216,1349.4290216,1349.4290216,1349.4290216,None,None,None,,,,,,,,,,,1333.2316963000003,1333.2316963000003,None,,,,1348.4029718000002,1348.4029718000002,1348.4029718000002,n,0.8564760999997816,1333.2316963000003,1333.2316963000003,1345.1238454,1347.3404798000001,1348.4029718000002,9,001,2024-07-01_11h00.39.182,robot_sternberg_sign,2022.2.5,59.970698316820474,
"['D', 'K', 'F', 'Q', 'V', 'S']",True,D,6,letter,2,False,True,"['robot_stimuli\\\\filler.mp4', 'robot_stimuli\\\\filler.mp4', 'robot_stimuli\\\\filler.mp4', 'robot_stimuli\\\\filler.mp4', 'robot_stimuli\\\\filler.mp4', 'robot_stimuli\\\\filler.mp4']",robot_stimuli\\filler.mp4,9,,,,,,,,,,,,,0,39,39,39,,,,,,,,,,,,,,,,,1363.7502243000004,1364.804071,,,,,,,,,1366.2637643000003,1370.2737198,1366.2637643000003,1370.2737198,1366.2637643000003,1370.2737198,1366.2637643000003,1370.2737198,39.5679012345679,3.072080900000401,space,,,3.9473870999995597,,,,,,,,1349.4290216,1349.4290216,None,,,,1364.804071,1364.804071,1364.804071,c,1.2306580999998005,1349.4290216,1349.4290216,1361.5381203000002,1363.7502243000004,1364.804071,9,001,2024-07-01_11h00.39.182,robot_sternberg_sign,2022.2.5,59.970698316820474,
"['N', 'S']",False,M,2,letter,2,True,False,"['robot_stimuli\\\\filler.mp4', 'robot_stimuli\\\\filler.mp4']",robot_stimuli\\filler.mp4,9,,,,,,,,,,,,,0,40,40,40,,,,,,,,,,,,,,,,,1380.7564765000002,1381.8211535,,,,,,,,,1382.8437935000002,1382.8437935000002,1382.8437935000002,1382.8437935000002,1382.8437935000002,1382.8437935000002,1382.8437935000002,1382.8437935000002,None,None,None,,,,,,,,,,,1370.2737198,1370.2737198,space,4.896481099999619,,,1381.8211535,1381.8211535,1381.8211535,n,0.8788720999996258,,,1378.5445629,1380.7564765000002,1381.8211535,9,001,2024-07-01_11h00.39.182,robot_sternberg_sign,2022.2.5,59.970698316820474,
"['H', 'N']",False,J,2,letter,2,False,False,"['robot_stimuli\\\\filler.mp4', 'robot_stimuli\\\\filler.mp4']",robot_stimuli\\filler.mp4,9,,,,,,,,,,,,,0,41,41,41,,,,,,,,,,,,,,,,,1388.4089652000002,1389.4712146000002,,,,,,,,,1390.6953482000004,1390.6953482000004,1390.6953482000004,1390.6953482000004,1390.6953482000004,1390.6953482000004,1390.6953482000004,1390.6953482000004,None,None,None,,,,,,,,,,,1382.8437935000002,1382.8437935000002,None,,,,1389.4712146000002,1389.4712146000002,1389.4712146000002,n,1.131784400000015,1382.8437935000002,1382.8437935000002,1386.193612,1388.4089652000002,1389.4712146000002,9,001,2024-07-01_11h00.39.182,robot_sternberg_sign,2022.2.5,59.970698316820474,
"['J', 'C']",True,J,2,letter,2,False,False,"['robot_stimuli\\\\filler.mp4', 'robot_stimuli\\\\filler.mp4']",robot_stimuli\\filler.mp4,9,,,,,,,,,,,,,0,42,42,42,,,,,,,,,,,,,,,,,1396.2509143000002,1397.3039433000004,,,,,,,,,1398.3279018000003,1398.3279018000003,1398.3279018000003,1398.3279018000003,1398.3279018000003,1398.3279018000003,1398.3279018000003,1398.3279018000003,None,None,None,,,,,,,,,,,1390.6953482000004,1390.6953482000004,None,,,,1397.3039433000004,1397.3039433000004,1397.3039433000004,c,0.9470460999996249,1390.6953482000004,1390.6953482000004,1394.0397343,1396.2509143000002,1397.3039433000004,9,001,2024-07-01_11h00.39.182,robot_sternberg_sign,2022.2.5,59.970698316820474,
"['V', 'M']",False,C,2,letter,2,False,False,"['robot_stimuli\\\\filler.mp4', 'robot_stimuli\\\\filler.mp4']",robot_stimuli\\filler.mp4,9,,,,,,,,,,,,,0,43,43,43,,,,,,,,,,,,,,,,,1403.6914345,1404.7543531000001,,,,,,,,,1405.7827587000002,1405.7827587000002,1405.7827587000002,1405.7827587000002,1405.7827587000002,1405.7827587000002,1405.7827587000002,1405.7827587000002,None,None,None,,,,,,,,,,,1398.3279018000003,1398.3279018000003,None,,,,1404.7543531000001,1404.7543531000001,1404.7543531000001,n,0.9296786999993856,1398.3279018000003,1398.3279018000003,1401.6781540000002,1403.6914345,1404.7543531000001,9,001,2024-07-01_11h00.39.182,robot_sternberg_sign,2022.2.5,59.970698316820474,
"['T', 'C']",False,J,2,letter,2,False,False,"['robot_stimuli\\\\filler.mp4', 'robot_stimuli\\\\filler.mp4']",robot_stimuli\\filler.mp4,9,,,,,,,,,,,,,0,44,44,44,,,,,,,,,,,,,,,,,1411.3436904,1412.4053912,,,,,,,,,1413.4341796000003,1413.4341796000003,1413.4341796000003,1413.4341796000003,1413.4341796000003,1413.4341796000003,1413.4341796000003,1413.4341796000003,None,None,None,,,,,,,,,,,1405.7827587000002,1405.7827587000002,None,,,,1412.4053912,1412.4053912,1412.4053912,n,0.7895667999996476,1405.7827587000002,1405.7827587000002,1409.1201654000001,1411.3436904,1412.4053912,9,001,2024-07-01_11h00.39.182,robot_sternberg_sign,2022.2.5,59.970698316820474,
"['H', 'G']",True,G,2,letter,2,False,False,"['robot_stimuli\\\\filler.mp4', 'robot_stimuli\\\\filler.mp4']",robot_stimuli\\filler.mp4,9,,,,,,,,,,,,,0,45,45,45,,,,,,,,,,,,,,,,,1418.9902853000003,1420.055864,,,,,,,,,1421.0761448000003,1421.0761448000003,1421.0761448000003,1421.0761448000003,1421.0761448000003,1421.0761448000003,1421.0761448000003,1421.0761448000003,None,None,None,,,,,,,,,,,1413.4341796000003,1413.4341796000003,None,,,,1420.055864,1420.055864,1420.055864,c,0.8109637000002294,1413.4341796000003,1413.4341796000003,1416.7728723,1418.9902853000003,1420.055864,9,001,2024-07-01_11h00.39.182,robot_sternberg_sign,2022.2.5,59.970698316820474,
"['N', 'T']",False,B,2,letter,2,False,False,"['robot_stimuli\\\\filler.mp4', 'robot_stimuli\\\\filler.mp4']",robot_stimuli\\filler.mp4,9,,,,,,,,,,,,,0,46,46,46,,,,,,,,,,,,,,,,,1426.6457111999998,1427.705382,,,,,,,,,1428.7336753,1428.7336753,1428.7336753,1428.7336753,1428.7336753,1428.7336753,1428.7336753,1428.7336753,None,None,None,,,,,,,,,,,1421.0761448000003,1421.0761448000003,None,,,,1427.705382,1427.705382,1427.705382,n,0.8007463999997526,1421.0761448000003,1421.0761448000003,1424.4273118,1426.6457111999998,1427.705382,9,001,2024-07-01_11h00.39.182,robot_sternberg_sign,2022.2.5,59.970698316820474,
"['Z', 'X']",True,X,2,letter,2,False,False,"['robot_stimuli\\\\filler.mp4', 'robot_stimuli\\\\filler.mp4']",robot_stimuli\\filler.mp4,9,,,,,,,,,,,,,0,47,47,47,,,,,,,,,,,,,,,,,1434.2853142000004,1435.3365883000006,,,,,,,,,1436.3645744000005,1436.3645744000005,1436.3645744000005,1436.3645744000005,1436.3645744000005,1436.3645744000005,1436.3645744000005,1436.3645744000005,None,None,None,,,,,,,,,,,1428.7336753,1428.7336753,None,,,,1435.3365883000006,1435.3365883000006,1435.3365883000006,c,0.7864792000004854,1428.7336753,1428.7336753,1432.0765726,1434.2853142000004,1435.3365883000006,9,001,2024-07-01_11h00.39.182,robot_sternberg_sign,2022.2.5,59.970698316820474,
"['M', 'P']",True,M,2,letter,2,False,False,"['robot_stimuli\\\\filler.mp4', 'robot_stimuli\\\\filler.mp4']",robot_stimuli\\filler.mp4,9,,,,,,,,,,,,,0,48,48,48,,,,,,,,,,,,,,,,,1441.7298132000005,1442.7868927,,,,,,,,,1443.8110907,1443.8110907,1443.8110907,1443.8110907,1443.8110907,1443.8110907,1443.8110907,1443.8110907,None,None,None,,,,,,,,,,,1436.3645744000005,1436.3645744000005,None,,,,1442.7868927,1442.7868927,1442.7868927,c,0.8091156999994382,1436.3645744000005,1436.3645744000005,1439.7153614999997,1441.7298132000005,1442.7868927,9,001,2024-07-01_11h00.39.182,robot_sternberg_sign,2022.2.5,59.970698316820474,
"['Q', 'W']",True,W,2,letter,2,False,True,"['robot_stimuli\\\\filler.mp4', 'robot_stimuli\\\\filler.mp4']",robot_stimuli\\filler.mp4,9,,,,,,,,,,,,,0,49,49,49,,,,,,,,,,,,,,,,,1449.1693356000005,1444.8700465000002,,,,,,,,,1451.0985882000004,1455.2506278,1451.0985882000004,1455.2506278,1451.0985882000004,1455.2506278,1451.0985882000004,1455.2506278,2.9938271604938227,3.2743053000003783,space,,,4.080426899999566,,,,,,,,1443.8110907,1443.8110907,None,,,,1450.2368612,1450.2368612,1450.2368612,c,0.7502306999999746,1443.8110907,1443.8110907,1447.1631729,1449.1693356000005,1450.2368612,9,001,2024-07-01_11h00.39.182,robot_sternberg_sign,2022.2.5,59.970698316820474,
"['J', 'T', 'M', 'H']",False,L,4,letter,2,True,False,"['robot_stimuli\\\\filler.mp4', 'robot_stimuli\\\\filler.mp4', 'robot_stimuli\\\\filler.mp4', 'robot_stimuli\\\\filler.mp4']",robot_stimuli\\filler.mp4,9,,,,,,,,,,,,,0,50,50,50,,,,,,,,,,,,,,,,,1468.1995894000001,1469.2545311000003,,,,,,,,,1470.2778298000003,1470.2778298000003,1470.2778298000003,1470.2778298000003,1470.2778298000003,1470.2778298000003,1470.2778298000003,1470.2778298000003,None,None,None,,,,,,,,,,,1455.2506278,1455.2506278,space,2.9999738000001344,,,1469.2545311000003,1469.2545311000003,1469.2545311000003,n,0.8917447999997421,,,1465.9882388000005,1468.1995894000001,1469.2545311000003,9,001,2024-07-01_11h00.39.182,robot_sternberg_sign,2022.2.5,59.970698316820474,
"['X', 'T', 'L', 'B']",False,Z,4,letter,2,False,False,"['robot_stimuli\\\\filler.mp4', 'robot_stimuli\\\\filler.mp4', 'robot_stimuli\\\\filler.mp4', 'robot_stimuli\\\\filler.mp4']",robot_stimuli\\filler.mp4,9,,,,,,,,,,,,,0,51,51,51,,,,,,,,,,,,,,,,,1480.4387557,1481.5042586999998,,,,,,,,,1483.3293167000002,1483.3293167000002,1483.3293167000002,1483.3293167000002,1483.3293167000002,1483.3293167000002,1483.3293167000002,1483.3293167000002,None,None,None,,,,,,,,,,,1470.2778298000003,1470.2778298000003,None,,,,1481.5042586999998,1481.5042586999998,1481.5042586999998,n,1.5873151999990114,1470.2778298000003,1470.2778298000003,1478.2215141000006,1480.4387557,1481.5042586999998,9,001,2024-07-01_11h00.39.182,robot_sternberg_sign,2022.2.5,59.970698316820474,
"['G', 'J', 'S', 'F']",True,G,4,letter,2,False,False,"['robot_stimuli\\\\filler.mp4', 'robot_stimuli\\\\filler.mp4', 'robot_stimuli\\\\filler.mp4', 'robot_stimuli\\\\filler.mp4']",robot_stimuli\\filler.mp4,9,,,,,,,,,,,,,0,52,52,52,,,,,,,,,,,,,,,,,1493.4521909000005,1484.3880052000004,,,,,,,,,1495.5493174000003,1495.5493174000003,1495.5493174000003,1495.5493174000003,1495.5493174000003,1495.5493174000003,1495.5493174000003,1495.5493174000003,None,None,None,,,,,,,,,,,1483.3293167000002,1483.3293167000002,None,,,,1494.5220590999998,1494.5220590999998,1494.5220590999998,c,0.8335474999998951,1483.3293167000002,1483.3293167000002,1491.2445477,1493.4521909000005,1494.5220590999998,9,001,2024-07-01_11h00.39.182,robot_sternberg_sign,2022.2.5,59.970698316820474,
"['V', 'G', 'P', 'N']",False,C,4,letter,2,False,False,"['robot_stimuli\\\\filler.mp4', 'robot_stimuli\\\\filler.mp4', 'robot_stimuli\\\\filler.mp4', 'robot_stimuli\\\\filler.mp4']",robot_stimuli\\filler.mp4,9,,,,,,,,,,,,,0,53,53,53,,,,,,,,,,,,,,,,,1505.4735797000003,1506.5391451000005,,,,,,,,,1507.3670754000004,1507.3670754000004,1507.3670754000004,1507.3670754000004,1507.3670754000004,1507.3670754000004,1507.3670754000004,1507.3670754000004,None,None,None,,,,,,,,,,,1495.5493174000003,1495.5493174000003,None,,,,1506.5391451000005,1506.5391451000005,1506.5391451000005,n,0.6797805999999582,1495.5493174000003,1495.5493174000003,1503.4610127000005,1505.4735797000003,1506.5391451000005,9,001,2024-07-01_11h00.39.182,robot_sternberg_sign,2022.2.5,59.970698316820474,
"['F', 'X', 'K', 'D']",True,K,4,letter,2,False,False,"['robot_stimuli\\\\filler.mp4', 'robot_stimuli\\\\filler.mp4', 'robot_stimuli\\\\filler.mp4', 'robot_stimuli\\\\filler.mp4']",robot_stimuli\\filler.mp4,9,,,,,,,,,,,,,0,54,54,54,,,,,,,,,,,,,,,,,1517.1019373,1518.1559096,,,,,,,,,1519.5875887000002,1519.5875887000002,1519.5875887000002,1519.5875887000002,1519.5875887000002,1519.5875887000002,1519.5875887000002,1519.5875887000002,None,None,None,,,,,,,,,,,1507.3670754000004,1507.3670754000004,None,,,,1518.1559096,1518.1559096,1518.1559096,c,1.2394288999998935,1507.3670754000004,1507.3670754000004,1514.8928703000001,1517.1019373,1518.1559096,9,001,2024-07-01_11h00.39.182,robot_sternberg_sign,2022.2.5,59.970698316820474,
"['K', 'J', 'S', 'M']",True,J,4,letter,2,False,False,"['robot_stimuli\\\\filler.mp4', 'robot_stimuli\\\\filler.mp4', 'robot_stimuli\\\\filler.mp4', 'robot_stimuli\\\\filler.mp4']",robot_stimuli\\filler.mp4,9,,,,,,,,,,,,,0,55,55,55,,,,,,,,,,,,,,,,,1529.3397624999998,1530.4046554000006,,,,,,,,,1532.8289857,1532.8289857,1532.8289857,1532.8289857,1532.8289857,1532.8289857,1532.8289857,1532.8289857,None,None,None,,,,,,,,,,,1519.5875887000002,1519.5875887000002,None,,,,1530.4046554000006,1530.4046554000006,1530.4046554000006,c,2.181856300000163,1519.5875887000002,1519.5875887000002,1527.120841,1529.3397624999998,1530.4046554000006,9,001,2024-07-01_11h00.39.182,robot_sternberg_sign,2022.2.5,59.970698316820474,
"['B', 'D', 'M', 'V']",True,D,4,letter,2,False,False,"['robot_stimuli\\\\filler.mp4', 'robot_stimuli\\\\filler.mp4', 'robot_stimuli\\\\filler.mp4', 'robot_stimuli\\\\filler.mp4']",robot_stimuli\\filler.mp4,9,,,,,,,,,,,,,0,56,56,56,,,,,,,,,,,,,,,,,1542.775737,1543.8429016999999,,,,,,,,,1545.2699041000005,1545.2699041000005,1545.2699041000005,1545.2699041000005,1545.2699041000005,1545.2699041000005,1545.2699041000005,1545.2699041000005,None,None,None,,,,,,,,,,,1532.8289857,1532.8289857,None,,,,1543.8429016999999,1543.8429016999999,1543.8429016999999,c,1.2647845999995297,1532.8289857,1532.8289857,1540.7610188999997,1542.775737,1543.8429016999999,9,001,2024-07-01_11h00.39.182,robot_sternberg_sign,2022.2.5,59.970698316820474,
"['H', 'Z', 'G', 'F']",False,D,4,letter,2,False,False,"['robot_stimuli\\\\filler.mp4', 'robot_stimuli\\\\filler.mp4', 'robot_stimuli\\\\filler.mp4', 'robot_stimuli\\\\filler.mp4']",robot_stimuli\\filler.mp4,9,,,,,,,,,,,,,0,57,57,57,,,,,,,,,,,,,,,,,1555.4091874000005,1556.4712621999997,,,,,,,,,1561.1058862999998,1561.1058862999998,1561.1058862999998,1561.1058862999998,1561.1058862999998,1561.1058862999998,1561.1058862999998,1561.1058862999998,None,None,None,,,,,,,,,,,1545.2699041000005,1545.2699041000005,None,,,,1556.4712621999997,1556.4712621999997,1556.4712621999997,n,4.515282099999695,1545.2699041000005,1545.2699041000005,1553.2109839000004,1555.4091874000005,1556.4712621999997,9,001,2024-07-01_11h00.39.182,robot_sternberg_sign,2022.2.5,59.970698316820474,
"['J', 'F', 'X', 'H']",False,W,4,letter,2,False,False,"['robot_stimuli\\\\filler.mp4', 'robot_stimuli\\\\filler.mp4', 'robot_stimuli\\\\filler.mp4', 'robot_stimuli\\\\filler.mp4']",robot_stimuli\\filler.mp4,9,,,,,,,,,,,,,0,58,58,58,,,,,,,,,,,,,,,,,1570.8530732,1562.1728982000004,,,,,,,,,1573.1449671,1573.1449671,1573.1449671,1573.1449671,1573.1449671,1573.1449671,1573.1449671,1573.1449671,None,None,None,,,,,,,,,,,1561.1058862999998,1561.1058862999998,None,,,,1571.9202175,1571.9202175,1571.9202175,n,1.0503817999992862,1561.1058862999998,1561.1058862999998,1568.6365359000001,1570.8530732,1571.9202175,9,001,2024-07-01_11h00.39.182,robot_sternberg_sign,2022.2.5,59.970698316820474,
"['D', 'W', 'Z', 'K']",True,W,4,letter,2,False,True,"['robot_stimuli\\\\filler.mp4', 'robot_stimuli\\\\filler.mp4', 'robot_stimuli\\\\filler.mp4', 'robot_stimuli\\\\filler.mp4']",robot_stimuli\\filler.mp4,9,,,,,,,,,,,,,0,59,59,59,,,,,,,,,,,,,,,,,1582.8767017,1583.9379678000005,,,,,,,,,1584.7981778000003,1593.1333161000002,1584.7981778000003,1593.1333161000002,1584.7981778000003,1593.1333161000002,1584.7981778000003,1593.1333161000002,25.370370370370367,7.295068100000208,space,,,8.293397099999765,,,,,,,,1573.1449671,1573.1449671,None,,,,1583.9379678000005,1583.9379678000005,1583.9379678000005,c,0.7767492999996648,1573.1449671,1573.1449671,1580.8597700999999,1582.8767017,1583.9379678000005,9,001,2024-07-01_11h00.39.182,robot_sternberg_sign,2022.2.5,59.970698316820474,
"['L_Head_X_Back', 'L_Arm_Z_For', 'R_Base_Y_For', 'L_Head_Z_For', 'L_Torso_Z_Back', 'L_Torso_X_For']",True,L_Head_X_Back,6,robot,3,True,False,"['robot_stimuli\\L_Head_X_Back.mp4', 'robot_stimuli\\L_Arm_Z_For.mp4', 'robot_stimuli\\R_Base_Y_For.mp4', 'robot_stimuli\\L_Head_Z_For.mp4', 'robot_stimuli\\L_Torso_Z_Back.mp4', 'robot_stimuli\\L_Torso_X_For.mp4']",robot_stimuli\L_Head_X_Back.mp4,9,,,,,,,,,,,,,0,60,60,60,,,,,,,,,,,,,,,,,1621.7282446,1622.8285254000002,,,,,,,,,1627.4649035000002,1627.4649035000002,1627.4649035000002,1627.4649035000002,1627.4649035000002,1627.4649035000002,1627.4649035000002,1627.4649035000002,None,None,None,,,,,,,,,,,1593.1333161000002,1593.1333161000002,space,5.3973620999991,1618.0914831999999,1622.8285254000002,1622.8285254000002,1622.8285254000002,1622.8285254000002,c,4.597656999999799,,,,,,9,001,2024-07-01_11h00.39.182,robot_sternberg_sign,2022.2.5,59.970698316820474,
"['R_Torso_Y_For', 'R_Head_X_For', 'R_Base_Y_For', 'L_Base_Z_Back', 'R_Torso_Y_Back', 'R_Torso_Z_Back']",False,R_Arm_Y_For,6,robot,3,False,False,"['robot_stimuli\\R_Torso_Y_For.mp4', 'robot_stimuli\\R_Head_X_For.mp4', 'robot_stimuli\\R_Base_Y_For.mp4', 'robot_stimuli\\L_Base_Z_Back.mp4', 'robot_stimuli\\R_Torso_Y_Back.mp4', 'robot_stimuli\\R_Torso_Z_Back.mp4']",robot_stimuli\R_Arm_Y_For.mp4,9,,,,,,,,,,,,,0,61,61,61,,,,,,,,,,,,,,,,,1650.8012344999997,1651.8787339,,,,,,,,,1655.3847397,1655.3847397,1655.3847397,1655.3847397,1655.3847397,1655.3847397,1655.3847397,1655.3847397,None,None,None,,,,,,,,,,,1627.4649035000002,1627.4649035000002,None,,1647.1683395,1651.8787339,1651.8787339,1651.8787339,1651.8787339,n,1.8431278999992173,1627.4649035000002,1627.4649035000002,,,,9,001,2024-07-01_11h00.39.182,robot_sternberg_sign,2022.2.5,59.970698316820474,
"['L_Base_Y_Back', 'L_Base_X_Back', 'L_Arm_X_For', 'R_Arm_Y_Back', 'R_Base_Z_Back', 'L_Arm_Y_Back']",False,L_Torso_Y_Back,6,robot,3,False,False,"['robot_stimuli\\L_Base_Y_Back.mp4', 'robot_stimuli\\L_Base_X_Back.mp4', 'robot_stimuli\\L_Arm_X_For.mp4', 'robot_stimuli\\R_Arm_Y_Back.mp4', 'robot_stimuli\\R_Base_Z_Back.mp4', 'robot_stimuli\\L_Arm_Y_Back.mp4']",robot_stimuli\L_Torso_Y_Back.mp4,9,,,,,,,,,,,,,0,62,62,62,,,,,,,,,,,,,,,,,1678.4755184000005,1679.5609586,,,,,,,,,1683.0667282000004,1683.0667282000004,1683.0667282000004,1683.0667282000004,1683.0667282000004,1683.0667282000004,1683.0667282000004,1683.0667282000004,None,None,None,,,,,,,,,,,1655.3847397,1655.3847397,None,,1674.8398604000004,1679.5609586,1679.5609586,1679.5609586,1679.5609586,c,3.209750200000144,1655.3847397,1655.3847397,,,,9,001,2024-07-01_11h00.39.182,robot_sternberg_sign,2022.2.5,59.970698316820474,
"['R_Head_Z_For', 'L_Arm_Z_For', 'L_Head_Z_Back', 'R_Base_Z_For', 'R_Arm_Z_For', 'L_Arm_Z_Back']",False,L_Base_Z_Back,6,robot,3,False,False,"['robot_stimuli\\R_Head_Z_For.mp4', 'robot_stimuli\\L_Arm_Z_For.mp4', 'robot_stimuli\\L_Head_Z_Back.mp4', 'robot_stimuli\\R_Base_Z_For.mp4', 'robot_stimuli\\R_Arm_Z_For.mp4', 'robot_stimuli\\L_Arm_Z_Back.mp4']",robot_stimuli\L_Base_Z_Back.mp4,9,,,,,,,,,,,,,0,63,63,63,,,,,,,,,,,,,,,,,1706.3758677000005,1707.4638258000004,,,,,,,,,1713.4768067000005,1713.4768067000005,1713.4768067000005,1713.4768067000005,1713.4768067000005,1713.4768067000005,1713.4768067000005,1713.4768067000005,None,None,None,,,,,,,,,,,1683.0667282000004,1683.0667282000004,None,,1702.7443021,1707.4638258000004,1707.4638258000004,1707.4638258000004,1707.4638258000004,n,5.986902699999973,1683.0667282000004,1683.0667282000004,,,,9,001,2024-07-01_11h00.39.182,robot_sternberg_sign,2022.2.5,59.970698316820474,
"['L_Torso_X_For', 'L_Head_Z_Back', 'L_Torso_Y_For', 'R_Head_Z_Back', 'R_Head_Z_For', 'L_Base_Y_Back']",True,L_Base_Y_Back,6,robot,3,False,False,"['robot_stimuli\\L_Torso_X_For.mp4', 'robot_stimuli\\L_Head_Z_Back.mp4', 'robot_stimuli\\L_Torso_Y_For.mp4', 'robot_stimuli\\R_Head_Z_Back.mp4', 'robot_stimuli\\R_Head_Z_For.mp4', 'robot_stimuli\\L_Base_Y_Back.mp4']",robot_stimuli\L_Base_Y_Back.mp4,9,,,,,,,,,,,,,0,64,64,64,,,,,,,,,,,,,,,,,1736.7373454999997,1714.5589799,,,,,,,,,1741.4002122000002,1741.4002122000002,1741.4002122000002,1741.4002122000002,1741.4002122000002,1741.4002122000002,1741.4002122000002,1741.4002122000002,None,None,None,,,,,,,,,,,1713.4768067000005,1713.4768067000005,None,,1733.1729869,1737.8253317999997,1737.8253317999997,1737.8253317999997,1737.8253317999997,c,1.8093133999996098,1713.4768067000005,1713.4768067000005,,,,9,001,2024-07-01_11h00.39.182,robot_sternberg_sign,2022.2.5,59.970698316820474,
"['R_Arm_X_Back', 'R_Base_X_Back', 'R_Arm_Z_Back', 'R_Head_Z_Back', 'R_Arm_Y_Back', 'L_Torso_X_Back']",True,R_Head_Z_Back,6,robot,3,False,False,"['robot_stimuli\\R_Arm_X_Back.mp4', 'robot_stimuli\\R_Base_X_Back.mp4', 'robot_stimuli\\R_Arm_Z_Back.mp4', 'robot_stimuli\\R_Head_Z_Back.mp4', 'robot_stimuli\\R_Arm_Y_Back.mp4', 'robot_stimuli\\L_Torso_X_Back.mp4']",robot_stimuli\R_Head_Z_Back.mp4,9,,,,,,,,,,,,,0,65,65,65,,,,,,,,,,,,,,,,,1764.7194386,1742.4746777999999,,,,,,,,,1769.4616352000003,1769.4616352000003,1769.4616352000003,1769.4616352000003,1769.4616352000003,1769.4616352000003,1769.4616352000003,1769.4616352000003,None,None,None,,,,,,,,,,,1741.4002122000002,1741.4002122000002,None,,1761.079318,1765.8139293000004,1765.8139293000004,1765.8139293000004,1765.8139293000004,c,1.445778299999347,1741.4002122000002,1741.4002122000002,,,,9,001,2024-07-01_11h00.39.182,robot_sternberg_sign,2022.2.5,59.970698316820474,
"['R_Base_Z_For', 'L_Base_Z_For', 'L_Arm_Y_Back', 'R_Arm_X_Back', 'L_Base_Y_Back', 'L_Head_Y_Back']",False,L_Arm_Y_For,6,robot,3,False,False,"['robot_stimuli\\R_Base_Z_For.mp4', 'robot_stimuli\\L_Base_Z_For.mp4', 'robot_stimuli\\L_Arm_Y_Back.mp4', 'robot_stimuli\\R_Arm_X_Back.mp4', 'robot_stimuli\\L_Base_Y_Back.mp4', 'robot_stimuli\\L_Head_Y_Back.mp4']",robot_stimuli\L_Arm_Y_For.mp4,9,,,,,,,,,,,,,0,66,66,66,,,,,,,,,,,,,,,,,1792.7545390000005,1770.5429622000001,,,,,,,,,1797.4749370999998,1797.4749370999998,1797.4749370999998,1797.4749370999998,1797.4749370999998,1797.4749370999998,1797.4749370999998,1797.4749370999998,None,None,None,,,,,,,,,,,1769.4616352000003,1769.4616352000003,None,,1789.1123575000001,1793.8452175000002,1793.8452175000002,1793.8452175000002,1793.8452175000002,n,2.12573250000014,1769.4616352000003,1769.4616352000003,,,,9,001,2024-07-01_11h00.39.182,robot_sternberg_sign,2022.2.5,59.970698316820474,
"['R_Base_Z_For', 'L_Arm_Z_For', 'L_Head_Y_Back', 'L_Torso_X_Back', 'R_Base_X_For', 'R_Arm_X_For']",True,L_Head_Y_Back,6,robot,3,False,False,"['robot_stimuli\\R_Base_Z_For.mp4', 'robot_stimuli\\L_Arm_Z_For.mp4', 'robot_stimuli\\L_Head_Y_Back.mp4', 'robot_stimuli\\L_Torso_X_Back.mp4', 'robot_stimuli\\R_Base_X_For.mp4', 'robot_stimuli\\R_Arm_X_For.mp4']",robot_stimuli\L_Head_Y_Back.mp4,9,,,,,,,,,,,,,0,67,67,67,,,,,,,,,,,,,,,,,1820.6920334000006,1821.7798819,,,,,,,,,1825.4282589000004,1825.4282589000004,1825.4282589000004,1825.4282589000004,1825.4282589000004,1825.4282589000004,1825.4282589000004,1825.4282589000004,None,None,None,,,,,,,,,,,1797.4749370999998,1797.4749370999998,None,,1817.0622296000001,1821.7798819,1821.7798819,1821.7798819,1821.7798819,c,2.1916784000000007,1797.4749370999998,1797.4749370999998,,,,9,001,2024-07-01_11h00.39.182,robot_sternberg_sign,2022.2.5,59.970698316820474,
"['R_Arm_Y_For', 'R_Base_X_For', 'L_Base_Z_Back', 'R_Arm_X_For', 'R_Torso_Z_Back', 'R_Base_Z_For']",True,R_Arm_X_For,6,robot,3,False,False,"['robot_stimuli\\R_Arm_Y_For.mp4', 'robot_stimuli\\R_Base_X_For.mp4', 'robot_stimuli\\L_Base_Z_Back.mp4', 'robot_stimuli\\R_Arm_X_For.mp4', 'robot_stimuli\\R_Torso_Z_Back.mp4', 'robot_stimuli\\R_Base_Z_For.mp4']",robot_stimuli\R_Arm_X_For.mp4,9,,,,,,,,,,,,,0,68,68,68,,,,,,,,,,,,,,,,,1848.5520373,1849.6287355000004,,,,,,,,,1853.2646223000002,1853.2646223000002,1853.2646223000002,1853.2646223000002,1853.2646223000002,1853.2646223000002,1853.2646223000002,1853.2646223000002,None,None,None,,,,,,,,,,,1825.4282589000004,1825.4282589000004,None,,1844.9139848000004,1849.6287355000004,1849.6287355000004,1849.6287355000004,1849.6287355000004,c,2.4296286999992844,1825.4282589000004,1825.4282589000004,,,,9,001,2024-07-01_11h00.39.182,robot_sternberg_sign,2022.2.5,59.970698316820474,
"['R_Head_Z_For', 'R_Arm_X_Back', 'L_Arm_Z_Back', 'R_Head_X_Back', 'L_Head_X_Back', 'L_Base_X_For']",False,R_Head_X_For,6,robot,3,False,True,"['robot_stimuli\\R_Head_Z_For.mp4', 'robot_stimuli\\R_Arm_X_Back.mp4', 'robot_stimuli\\L_Arm_Z_Back.mp4', 'robot_stimuli\\R_Head_X_Back.mp4', 'robot_stimuli\\L_Head_X_Back.mp4', 'robot_stimuli\\L_Base_X_For.mp4']",robot_stimuli\R_Head_X_For.mp4,9,,,,,,,,,,,,,0,69,69,69,,,,,,,,,,,,,,,,,1876.5243225000004,1877.6125680000005,,,,,,,,,1881.2887654000006,1891.7820626000002,1881.2887654000006,1891.7820626000002,1881.2887654000006,1891.7820626000002,1881.2887654000006,1891.7820626000002,55.15432098765432,7.026600899999721,space,,,10.450096699999904,,,,,,,,1853.2646223000002,1853.2646223000002,None,,1872.959758,1877.6125680000005,1877.6125680000005,1877.6125680000005,1877.6125680000005,n,2.5182042000001275,1853.2646223000002,1853.2646223000002,,,,9,001,2024-07-01_11h00.39.182,robot_sternberg_sign,2022.2.5,59.970698316820474,
"['R_Head_X_Back', 'R_Base_Y_Back', 'L_Base_Y_Back', 'R_Torso_Y_Back']",True,L_Base_Y_Back,4,robot,3,True,False,"['robot_stimuli\\R_Head_X_Back.mp4', 'robot_stimuli\\R_Base_Y_Back.mp4', 'robot_stimuli\\L_Base_Y_Back.mp4', 'robot_stimuli\\R_Torso_Y_Back.mp4']",robot_stimuli\L_Base_Y_Back.mp4,9,,,,,,,,,,,,,0,70,70,70,,,,,,,,,,,,,,,,,1910.8227686,1911.9124861,,,,,,,,,1915.4829883000002,1915.4829883000002,1915.4829883000002,1915.4829883000002,1915.4829883000002,1915.4829883000002,1915.4829883000002,1915.4829883000002,None,None,None,,,,,,,,,,,1891.7820626000002,1891.7820626000002,space,3.172320299999683,1907.1801831000002,1911.9124861,1911.9124861,1911.9124861,1911.9124861,c,2.666148499999963,,,,,,9,001,2024-07-01_11h00.39.182,robot_sternberg_sign,2022.2.5,59.970698316820474,
"['L_Base_Z_Back', 'R_Torso_Y_Back', 'L_Torso_X_Back', 'L_Head_X_Back']",False,L_Arm_Z_For,4,robot,3,False,False,"['robot_stimuli\\L_Base_Z_Back.mp4', 'robot_stimuli\\R_Torso_Y_Back.mp4', 'robot_stimuli\\L_Torso_X_Back.mp4', 'robot_stimuli\\L_Head_X_Back.mp4']",robot_stimuli\L_Arm_Z_For.mp4,9,,,,,,,,,,,,,0,71,71,71,,,,,,,,,,,,,,,,,1931.3728011000003,1932.4607618,,,,,,,,,1936.0985562000005,1936.0985562000005,1936.0985562000005,1936.0985562000005,1936.0985562000005,1936.0985562000005,1936.0985562000005,1936.0985562000005,None,None,None,,,,,,,,,,,1915.4829883000002,1915.4829883000002,None,,1927.7313814999998,1932.4607618,1932.4607618,1932.4607618,1932.4607618,n,1.7729451000000154,1915.4829883000002,1915.4829883000002,,,,9,001,2024-07-01_11h00.39.182,robot_sternberg_sign,2022.2.5,59.970698316820474,
"['R_Head_Z_Back', 'L_Torso_Y_Back', 'L_Arm_X_Back', 'R_Head_X_For']",False,R_Base_Z_For,4,robot,3,False,False,"['robot_stimuli\\R_Head_Z_Back.mp4', 'robot_stimuli\\L_Torso_Y_Back.mp4', 'robot_stimuli\\L_Arm_X_Back.mp4', 'robot_stimuli\\R_Head_X_For.mp4']",robot_stimuli\R_Base_Z_For.mp4,9,,,,,,,,,,,,,0,72,72,72,,,,,,,,,,,,,,,,,1951.8560431000005,1952.9464263999998,,,,,,,,,1956.5839201,1956.5839201,1956.5839201,1956.5839201,1956.5839201,1956.5839201,1956.5839201,1956.5839201,None,None,None,,,,,,,,,,,1936.0985562000005,1936.0985562000005,None,,1948.2138351000003,1952.9464263999998,1952.9464263999998,1952.9464263999998,1952.9464263999998,n,2.095936399999573,1936.0985562000005,1936.0985562000005,,,,9,001,2024-07-01_11h00.39.182,robot_sternberg_sign,2022.2.5,59.970698316820474,
"['L_Torso_Y_For', 'L_Arm_Y_Back', 'R_Head_Y_Back', 'L_Arm_X_For']",True,R_Head_Y_Back,4,robot,3,False,False,"['robot_stimuli\\L_Torso_Y_For.mp4', 'robot_stimuli\\L_Arm_Y_Back.mp4', 'robot_stimuli\\R_Head_Y_Back.mp4', 'robot_stimuli\\L_Arm_X_For.mp4']",robot_stimuli\R_Head_Y_Back.mp4,9,,,,,,,,,,,,,0,73,73,73,,,,,,,,,,,,,,,,,1972.4537920000002,1957.6575168999998,,,,,,,,,1977.1838591000005,1977.1838591000005,1977.1838591000005,1977.1838591000005,1977.1838591000005,1977.1838591000005,1977.1838591000005,1977.1838591000005,None,None,None,,,,,,,,,,,1956.5839201,1956.5839201,None,,1968.8151546999998,1973.5431519000003,1973.5431519000003,1973.5431519000003,1973.5431519000003,c,2.371733700000277,1956.5839201,1956.5839201,,,,9,001,2024-07-01_11h00.39.182,robot_sternberg_sign,2022.2.5,59.970698316820474,
"['R_Torso_X_For', 'L_Torso_X_For', 'R_Base_X_For', 'R_Head_X_Back']",False,R_Head_Y_Back,4,robot,3,False,False,"['robot_stimuli\\R_Torso_X_For.mp4', 'robot_stimuli\\L_Torso_X_For.mp4', 'robot_stimuli\\R_Base_X_For.mp4', 'robot_stimuli\\R_Head_X_Back.mp4']",robot_stimuli\R_Head_Y_Back.mp4,9,,,,,,,,,,,,,0,74,74,74,,,,,,,,,,,,,,,,,1992.9732204000002,1994.0558023000003,,,,,,,,,1997.6973545,1997.6973545,1997.6973545,1997.6973545,1997.6973545,1997.6973545,1997.6973545,1997.6973545,None,None,None,,,,,,,,,,,1977.1838591000005,1977.1838591000005,None,,1989.3266811000003,1994.0558023000003,1994.0558023000003,1994.0558023000003,1994.0558023000003,n,1.6343148999999357,1977.1838591000005,1977.1838591000005,,,,9,001,2024-07-01_11h00.39.182,robot_sternberg_sign,2022.2.5,59.970698316820474,
"['L_Arm_Y_For', 'L_Base_Z_For', 'L_Base_X_For', 'R_Arm_X_Back']",True,L_Arm_Y_For,4,robot,3,False,False,"['robot_stimuli\\L_Arm_Y_For.mp4', 'robot_stimuli\\L_Base_Z_For.mp4', 'robot_stimuli\\L_Base_X_For.mp4', 'robot_stimuli\\R_Arm_X_Back.mp4']",robot_stimuli\L_Arm_Y_For.mp4,9,,,,,,,,,,,,,0,75,75,75,,,,,,,,,,,,,,,,,2013.5199432999998,1998.7756943000004,,,,,,,,,2018.2476818000005,2018.2476818000005,2018.2476818000005,2018.2476818000005,2018.2476818000005,2018.2476818000005,2018.2476818000005,2018.2476818000005,None,None,None,,,,,,,,,,,1997.6973545,1997.6973545,None,,2009.8798037000006,2014.6114777000003,2014.6114777000003,2014.6114777000003,2014.6114777000003,n,2.42270469999994,1997.6973545,1997.6973545,,,,9,001,2024-07-01_11h00.39.182,robot_sternberg_sign,2022.2.5,59.970698316820474,
"['R_Arm_X_Back', 'L_Base_X_For', 'R_Torso_X_For', 'L_Arm_X_Back']",False,L_Torso_X_For,4,robot,3,False,False,"['robot_stimuli\\R_Arm_X_Back.mp4', 'robot_stimuli\\L_Base_X_For.mp4', 'robot_stimuli\\R_Torso_X_For.mp4', 'robot_stimuli\\L_Arm_X_Back.mp4']",robot_stimuli\L_Torso_X_For.mp4,9,,,,,,,,,,,,,0,76,76,76,,,,,,,,,,,,,,,,,2034.0586858000006,2035.1458847000004,,,,,,,,,2040.8286818000006,2040.8286818000006,2040.8286818000006,2040.8286818000006,2040.8286818000006,2040.8286818000006,2040.8286818000006,2040.8286818000006,None,None,None,,,,,,,,,,,2018.2476818000005,2018.2476818000005,None,,2030.4227859000002,2035.1458847000004,2035.1458847000004,2035.1458847000004,2035.1458847000004,c,5.6481924000004256,2018.2476818000005,2018.2476818000005,,,,9,001,2024-07-01_11h00.39.182,robot_sternberg_sign,2022.2.5,59.970698316820474,
"['R_Torso_Z_For', 'L_Base_Z_For', 'R_Arm_X_Back', 'L_Arm_X_Back']",False,R_Arm_Y_Back,4,robot,3,False,False,"['robot_stimuli\\R_Torso_Z_For.mp4', 'robot_stimuli\\L_Base_Z_For.mp4', 'robot_stimuli\\R_Arm_X_Back.mp4', 'robot_stimuli\\L_Arm_X_Back.mp4']",robot_stimuli\R_Arm_Y_Back.mp4,9,,,,,,,,,,,,,0,77,77,77,,,,,,,,,,,,,,,,,2056.726235,2057.8132566000004,,,,,,,,,2061.4610633,2061.4610633,2061.4610633,2061.4610633,2061.4610633,2061.4610633,2061.4610633,2061.4610633,None,None,None,,,,,,,,,,,2040.8286818000006,2040.8286818000006,None,,2053.0922839000004,2057.8132566000004,2057.8132566000004,2057.8132566000004,2057.8132566000004,n,2.9894576000001507,2040.8286818000006,2040.8286818000006,,,,9,001,2024-07-01_11h00.39.182,robot_sternberg_sign,2022.2.5,59.970698316820474,
"['L_Base_Y_For', 'L_Head_X_Back', 'L_Arm_Z_Back', 'R_Arm_X_Back']",True,R_Arm_X_Back,4,robot,3,False,False,"['robot_stimuli\\L_Base_Y_For.mp4', 'robot_stimuli\\L_Head_X_Back.mp4', 'robot_stimuli\\L_Arm_Z_Back.mp4', 'robot_stimuli\\R_Arm_X_Back.mp4']",robot_stimuli\R_Arm_X_Back.mp4,9,,,,,,,,,,,,,0,78,78,78,,,,,,,,,,,,,,,,,2077.2722602000003,2078.3635385,,,,,,,,,2082.0119322,2082.0119322,2082.0119322,2082.0119322,2082.0119322,2082.0119322,2082.0119322,2082.0119322,None,None,None,,,,,,,,,,,2061.4610633,2061.4610633,None,,2073.6267624,2078.3635385,2078.3635385,2078.3635385,2078.3635385,c,2.5028416999998626,2061.4610633,2061.4610633,,,,9,001,2024-07-01_11h00.39.182,robot_sternberg_sign,2022.2.5,59.970698316820474,
"['R_Base_Y_Back', 'L_Base_Z_For', 'R_Arm_Z_For', 'L_Arm_X_For']",True,R_Arm_Z_For,4,robot,3,False,True,"['robot_stimuli\\R_Base_Y_Back.mp4', 'robot_stimuli\\L_Base_Z_For.mp4', 'robot_stimuli\\R_Arm_Z_For.mp4', 'robot_stimuli\\L_Arm_X_For.mp4']",robot_stimuli\R_Arm_Z_For.mp4,9,,,,,,,,,,,,,0,79,79,79,,,,,,,,,,,,,,,,,2097.9068015000003,2098.9975435000006,,,,,,,,,2102.6834817999998,2114.6341032,2102.6834817999998,2114.6341032,2102.6834817999998,2114.6341032,2102.6834817999998,2114.6341032,53.148148148148145,9.84491159999925,space,,,11.893978099999458,,,,,,,,2082.0119322,2082.0119322,None,,2094.2770691000005,2098.9975435000006,2098.9975435000006,2098.9975435000006,2098.9975435000006,c,2.5728530999990653,2082.0119322,2082.0119322,,,,9,001,2024-07-01_11h00.39.182,robot_sternberg_sign,2022.2.5,59.970698316820474,
"['L_Head_Z_Back', 'L_Base_X_Back']",False,L_Head_Z_For,2,robot,3,True,False,"['robot_stimuli\\L_Head_Z_Back.mp4', 'robot_stimuli\\L_Base_X_Back.mp4']",robot_stimuli\L_Head_Z_For.mp4,9,,,,,,,,,,,,,0,80,80,80,,,,,,,,,,,,,,,,,2124.4235504,2125.5121934999997,,,,,,,,,2129.1505009,2129.1505009,2129.1505009,2129.1505009,2129.1505009,2129.1505009,2129.1505009,2129.1505009,None,None,None,,,,,,,,,,,2114.6341032,2114.6341032,space,1.3610846999995374,2120.8287514000003,2125.5121934999997,2125.5121934999997,2125.5121934999997,2125.5121934999997,c,1.9772073999997701,,,,,,9,001,2024-07-01_11h00.39.182,robot_sternberg_sign,2022.2.5,59.970698316820474,
"['L_Torso_X_For', 'R_Arm_X_For']",True,R_Arm_X_For,2,robot,3,False,False,"['robot_stimuli\\L_Torso_X_For.mp4', 'robot_stimuli\\R_Arm_X_For.mp4']",robot_stimuli\R_Arm_X_For.mp4,9,,,,,,,,,,,,,0,81,81,81,,,,,,,,,,,,,,,,,2137.5734989000002,2138.6658766,,,,,,,,,2142.3145528000005,2142.3145528000005,2142.3145528000005,2142.3145528000005,2142.3145528000005,2142.3145528000005,2142.3145528000005,2142.3145528000005,None,None,None,,,,,,,,,,,2129.1505009,2129.1505009,None,,2133.9462986999997,2138.6658766,2138.6658766,2138.6658766,2138.6658766,c,2.2254400999995596,2129.1505009,2129.1505009,,,,9,001,2024-07-01_11h00.39.182,robot_sternberg_sign,2022.2.5,59.970698316820474,
"['R_Head_Z_Back', 'L_Head_Z_For']",True,R_Head_Z_Back,2,robot,3,False,False,"['robot_stimuli\\R_Head_Z_Back.mp4', 'robot_stimuli\\L_Head_Z_For.mp4']",robot_stimuli\R_Head_Z_Back.mp4,9,,,,,,,,,,,,,0,82,82,82,,,,,,,,,,,,,,,,,2150.7538684,2143.3925114000003,,,,,,,,,2155.5008445000003,2155.5008445000003,2155.5008445000003,2155.5008445000003,2155.5008445000003,2155.5008445000003,2155.5008445000003,2155.5008445000003,None,None,None,,,,,,,,,,,2142.3145528000005,2142.3145528000005,None,,2147.1152194000006,2151.853414,2151.853414,2151.853414,2151.853414,c,1.8218079000002945,2142.3145528000005,2142.3145528000005,,,,9,001,2024-07-01_11h00.39.182,robot_sternberg_sign,2022.2.5,59.970698316820474,
"['L_Base_Z_For', 'R_Arm_X_Back']",True,R_Arm_X_Back,2,robot,3,False,False,"['robot_stimuli\\L_Base_Z_For.mp4', 'robot_stimuli\\R_Arm_X_Back.mp4']",robot_stimuli\R_Arm_X_Back.mp4,9,,,,,,,,,,,,,0,83,83,83,,,,,,,,,,,,,,,,,2163.9387181,2165.0284821000005,,,,,,,,,2168.6668251,2168.6668251,2168.6668251,2168.6668251,2168.6668251,2168.6668251,2168.6668251,2168.6668251,None,None,None,,,,,,,,,,,2155.5008445000003,2155.5008445000003,None,,2160.2991389,2165.0284821000005,2165.0284821000005,2165.0284821000005,2165.0284821000005,c,2.0139727999999195,2155.5008445000003,2155.5008445000003,,,,9,001,2024-07-01_11h00.39.182,robot_sternberg_sign,2022.2.5,59.970698316820474,
"['L_Arm_Y_For', 'R_Torso_Y_For']",False,L_Torso_X_Back,2,robot,3,False,False,"['robot_stimuli\\L_Arm_Y_For.mp4', 'robot_stimuli\\R_Torso_Y_For.mp4']",robot_stimuli\L_Torso_X_Back.mp4,9,,,,,,,,,,,,,0,84,84,84,,,,,,,,,,,,,,,,,2177.1070867999997,2178.1985643,,,,,,,,,2181.8464570000006,2181.8464570000006,2181.8464570000006,2181.8464570000006,2181.8464570000006,2181.8464570000006,2181.8464570000006,2181.8464570000006,None,None,None,,,,,,,,,,,2168.6668251,2168.6668251,None,,2173.4640352000006,2178.1985643,2178.1985643,2178.1985643,2178.1985643,n,2.6426928999994743,2168.6668251,2168.6668251,,,,9,001,2024-07-01_11h00.39.182,robot_sternberg_sign,2022.2.5,59.970698316820474,
"['L_Base_X_For', 'L_Torso_X_For']",False,R_Torso_Z_For,2,robot,3,False,False,"['robot_stimuli\\L_Base_X_For.mp4', 'robot_stimuli\\L_Torso_X_For.mp4']",robot_stimuli\R_Torso_Z_For.mp4,9,,,,,,,,,,,,,0,85,85,85,,,,,,,,,,,,,,,,,2190.2087716000005,2191.295279,,,,,,,,,2194.9373216000004,2194.9373216000004,2194.9373216000004,2194.9373216000004,2194.9373216000004,2194.9373216000004,2194.9373216000004,2194.9373216000004,None,None,None,,,,,,,,,,,2181.8464570000006,2181.8464570000006,None,,2186.5799054999998,2191.295279,2191.295279,2191.295279,2191.295279,n,2.507171300000209,2181.8464570000006,2181.8464570000006,,,,9,001,2024-07-01_11h00.39.182,robot_sternberg_sign,2022.2.5,59.970698316820474,
"['L_Torso_X_Back', 'R_Base_Z_Back']",False,R_Base_Y_Back,2,robot,3,False,False,"['robot_stimuli\\L_Torso_X_Back.mp4', 'robot_stimuli\\R_Base_Z_Back.mp4']",robot_stimuli\R_Base_Y_Back.mp4,9,,,,,,,,,,,,,0,86,86,86,,,,,,,,,,,,,,,,,2203.3046765999998,2204.3985761000004,,,,,,,,,2208.0461458,2208.0461458,2208.0461458,2208.0461458,2208.0461458,2208.0461458,2208.0461458,2208.0461458,None,None,None,,,,,,,,,,,2194.9373216000004,2194.9373216000004,None,,2199.7649280000005,2204.3985761000004,2204.3985761000004,2204.3985761000004,2204.3985761000004,n,2.2126061000003574,2194.9373216000004,2194.9373216000004,,,,9,001,2024-07-01_11h00.39.182,robot_sternberg_sign,2022.2.5,59.970698316820474,
"['R_Base_X_Back', 'L_Head_Y_For']",True,L_Head_Y_For,2,robot,3,False,False,"['robot_stimuli\\R_Base_X_Back.mp4', 'robot_stimuli\\L_Head_Y_For.mp4']",robot_stimuli\L_Head_Y_For.mp4,9,,,,,,,,,,,,,0,87,87,87,,,,,,,,,,,,,,,,,2216.4756949000002,2217.5619028,,,,,,,,,2221.1998059,2221.1998059,2221.1998059,2221.1998059,2221.1998059,2221.1998059,2221.1998059,2221.1998059,None,None,None,,,,,,,,,,,2208.0461458,2208.0461458,None,,2212.8434794000004,2217.5619028,2217.5619028,2217.5619028,2217.5619028,c,1.6884027999990394,2208.0461458,2208.0461458,,,,9,001,2024-07-01_11h00.39.182,robot_sternberg_sign,2022.2.5,59.970698316820474,
"['R_Head_Z_Back', 'L_Torso_Z_For']",False,R_Torso_X_For,2,robot,3,False,False,"['robot_stimuli\\R_Head_Z_Back.mp4', 'robot_stimuli\\L_Torso_Z_For.mp4']",robot_stimuli\R_Torso_X_For.mp4,9,,,,,,,,,,,,,0,88,88,88,,,,,,,,,,,,,,,,,2229.6410044000004,2230.7256665000004,,,,,,,,,2234.357691,2234.357691,2234.357691,2234.357691,2234.357691,2234.357691,2234.357691,2234.357691,None,None,None,,,,,,,,,,,2221.1998059,2221.1998059,None,,2225.9981741,2230.7256665000004,2230.7256665000004,2230.7256665000004,2230.7256665000004,n,2.236643300000196,2221.1998059,2221.1998059,,,,9,001,2024-07-01_11h00.39.182,robot_sternberg_sign,2022.2.5,59.970698316820474,
"['L_Arm_Y_For', 'L_Arm_Y_Back']",True,L_Arm_Y_For,2,robot,3,False,True,"['robot_stimuli\\L_Arm_Y_For.mp4', 'robot_stimuli\\L_Arm_Y_Back.mp4']",robot_stimuli\L_Arm_Y_For.mp4,9,,,,,,,,,,,,,0,89,89,89,,,,,,,,,,,,,,,,,2242.8071049,2243.8944713,,,,,,,,,2247.5621589,2253.8117124,2247.5621589,2253.8117124,2247.5621589,2253.8117124,2247.5621589,2253.8117124,13.950617283950626,5.531632199999876,space,,,6.183616099999654,,,,,,,,2234.357691,2234.357691,None,,2239.1677158,2243.8944713,2243.8944713,2243.8944713,2243.8944713,c,2.691929600000094,2234.357691,2234.357691,,,,9,001,2024-07-01_11h00.39.182,robot_sternberg_sign,2022.2.5,59.970698316820474,
"['N', 'C']",False,D,2,letter,4,True,False,"['robot_stimuli\\\\filler.mp4', 'robot_stimuli\\\\filler.mp4']",robot_stimuli\\filler.mp4,9,,,,,,,,,,,,,0,90,90,90,,,,,,,,,,,,,,,,,2262.6605457000005,2263.7228525,,,,,,,,,2264.5446991,2264.5446991,2264.5446991,2264.5446991,2264.5446991,2264.5446991,2264.5446991,2264.5446991,None,None,None,,,,,,,,,,,2253.8117124,2253.8117124,space,3.470162699999946,,,2263.7228525,2263.7228525,2263.7228525,n,0.7518692999997256,,,2260.6502716000005,2262.6605457000005,2263.7228525,9,001,2024-07-01_11h00.39.182,robot_sternberg_sign,2022.2.5,59.970698316820474,
"['X', 'L']",True,L,2,letter,4,False,False,"['robot_stimuli\\\\filler.mp4', 'robot_stimuli\\\\filler.mp4']",robot_stimuli\\filler.mp4,9,,,,,,,,,,,,,0,91,91,91,,,,,,,,,,,,,,,,,2270.1130548,2271.1709239,,,,,,,,,2272.0004218000004,2272.0004218000004,2272.0004218000004,2272.0004218000004,2272.0004218000004,2272.0004218000004,2272.0004218000004,2272.0004218000004,None,None,None,,,,,,,,,,,2264.5446991,2264.5446991,None,,,,2271.1709239,2271.1709239,2271.1709239,c,0.7276691000001847,2264.5446991,2264.5446991,2267.9034165000003,2270.1130548,2271.1709239,9,001,2024-07-01_11h00.39.182,robot_sternberg_sign,2022.2.5,59.970698316820474,
"['X', 'G']",True,G,2,letter,4,False,False,"['robot_stimuli\\\\filler.mp4', 'robot_stimuli\\\\filler.mp4']",robot_stimuli\\filler.mp4,9,,,,,,,,,,,,,0,92,92,92,,,,,,,,,,,,,,,,,2277.3700645999998,2273.0557295,,,,,,,,,2280.0671085000004,2280.0671085000004,2280.0671085000004,2280.0671085000004,2280.0671085000004,2280.0671085000004,2280.0671085000004,2280.0671085000004,None,None,None,,,,,,,,,,,2272.0004218000004,2272.0004218000004,None,,,,2278.4377986,2278.4377986,2278.4377986,c,1.5312595999998848,2272.0004218000004,2272.0004218000004,2275.152836,2277.3700645999998,2278.4377986,9,001,2024-07-01_11h00.39.182,robot_sternberg_sign,2022.2.5,59.970698316820474,
"['R', 'F']",True,R,2,letter,4,False,False,"['robot_stimuli\\\\filler.mp4', 'robot_stimuli\\\\filler.mp4']",robot_stimuli\\filler.mp4,9,,,,,,,,,,,,,0,93,93,93,,,,,,,,,,,,,,,,,2285.4261753,2286.4905555000005,,,,,,,,,2287.7142667,2287.7142667,2287.7142667,2287.7142667,2287.7142667,2287.7142667,2287.7142667,2287.7142667,None,None,None,,,,,,,,,,,2280.0671085000004,2280.0671085000004,None,,,,2286.4905555000005,2286.4905555000005,2286.4905555000005,c,0.9997014999994462,2280.0671085000004,2280.0671085000004,2283.4155595,2285.4261753,2286.4905555000005,9,001,2024-07-01_11h00.39.182,robot_sternberg_sign,2022.2.5,59.970698316820474,
"['S', 'L']",False,W,2,letter,4,False,False,"['robot_stimuli\\\\filler.mp4', 'robot_stimuli\\\\filler.mp4']",robot_stimuli\\filler.mp4,9,,,,,,,,,,,,,0,94,94,94,,,,,,,,,,,,,,,,,2293.2718292,2294.3380457000003,,,,,,,,,2295.1715636,2295.1715636,2295.1715636,2295.1715636,2295.1715636,2295.1715636,2295.1715636,2295.1715636,None,None,None,,,,,,,,,,,2287.7142667,2287.7142667,None,,,,2294.3380457000003,2294.3380457000003,2294.3380457000003,n,0.7357746999991832,2287.7142667,2287.7142667,2291.0586624,2293.2718292,2294.3380457000003,9,001,2024-07-01_11h00.39.182,robot_sternberg_sign,2022.2.5,59.970698316820474,
"['B', 'Z']",True,B,2,letter,4,False,False,"['robot_stimuli\\\\filler.mp4', 'robot_stimuli\\\\filler.mp4']",robot_stimuli\\filler.mp4,9,,,,,,,,,,,,,0,95,95,95,,,,,,,,,,,,,,,,,2300.3594121000006,2301.4228917,,,,,,,,,2302.6499249999997,2302.6499249999997,2302.6499249999997,2302.6499249999997,2302.6499249999997,2302.6499249999997,2302.6499249999997,2302.6499249999997,None,None,None,,,,,,,,,,,2295.1715636,2295.1715636,None,,,,2301.4228917,2301.4228917,2301.4228917,c,1.1628086999994593,2295.1715636,2295.1715636,2298.3407515,2300.3594121000006,2301.4228917,9,001,2024-07-01_11h00.39.182,robot_sternberg_sign,2022.2.5,59.970698316820474,
"['Z', 'B']",True,B,2,letter,4,False,False,"['robot_stimuli\\\\filler.mp4', 'robot_stimuli\\\\filler.mp4']",robot_stimuli\\filler.mp4,9,,,,,,,,,,,,,0,96,96,96,,,,,,,,,,,,,,,,,2308.0196639000005,2303.7129456000002,,,,,,,,,2310.7110168,2310.7110168,2310.7110168,2310.7110168,2310.7110168,2310.7110168,2310.7110168,2310.7110168,None,None,None,,,,,,,,,,,2302.6499249999997,2302.6499249999997,None,,,,2309.0878552000004,2309.0878552000004,2309.0878552000004,c,1.4332628999995904,2302.6499249999997,2302.6499249999997,2305.8064255,2308.0196639000005,2309.0878552000004,9,001,2024-07-01_11h00.39.182,robot_sternberg_sign,2022.2.5,59.970698316820474,
"['N', 'J']",False,W,2,letter,4,False,False,"['robot_stimuli\\\\filler.mp4', 'robot_stimuli\\\\filler.mp4']",robot_stimuli\\filler.mp4,9,,,,,,,,,,,,,0,97,97,97,,,,,,,,,,,,,,,,,2316.0707043,2311.7716827000004,,,,,,,,,2317.9580041,2317.9580041,2317.9580041,2317.9580041,2317.9580041,2317.9580041,2317.9580041,2317.9580041,None,None,None,,,,,,,,,,,2310.7110168,2310.7110168,None,,,,2317.1389289999997,2317.1389289999997,2317.1389289999997,n,0.5983849999997801,2310.7110168,2310.7110168,2314.0610293,2316.0707043,2317.1389289999997,9,001,2024-07-01_11h00.39.182,robot_sternberg_sign,2022.2.5,59.970698316820474,
"['D', 'W']",False,P,2,letter,4,False,False,"['robot_stimuli\\\\filler.mp4', 'robot_stimuli\\\\filler.mp4']",robot_stimuli\\filler.mp4,9,,,,,,,,,,,,,0,98,98,98,,,,,,,,,,,,,,,,,2323.3268306,2324.388197,,,,,,,,,2325.01192,2325.01192,2325.01192,2325.01192,2325.01192,2325.01192,2325.01192,2325.01192,None,None,None,,,,,,,,,,,2317.9580041,2317.9580041,None,,,,2324.388197,2324.388197,2324.388197,n,0.5728596999992988,2317.9580041,2317.9580041,2321.3110812000004,2323.3268306,2324.388197,9,001,2024-07-01_11h00.39.182,robot_sternberg_sign,2022.2.5,59.970698316820474,
"['Z', 'D']",False,N,2,letter,4,False,True,"['robot_stimuli\\\\filler.mp4', 'robot_stimuli\\\\filler.mp4']",robot_stimuli\\filler.mp4,9,,,,,,,,,,,,,0,99,99,99,,,,,,,,,,,,,,,,,2330.5889279000003,2331.6547103000003,,,,,,,,,2333.1082389000003,2336.9975638000005,2333.1082389000003,2336.9975638000005,2333.1082389000003,2336.9975638000005,2333.1082389000003,2336.9975638000005,2.9938271604938227,2.9342075000004115,space,,,3.8209620999991785,,,,,,,,2325.01192,2325.01192,None,,,,2331.6547103000003,2331.6547103000003,2331.6547103000003,n,1.2908881999996993,2325.01192,2325.01192,2328.3698366,2330.5889279000003,2331.6547103000003,9,001,2024-07-01_11h00.39.182,robot_sternberg_sign,2022.2.5,59.970698316820474,
"['H', 'P', 'M', 'L']",True,L,4,letter,4,True,False,"['robot_stimuli\\\\filler.mp4', 'robot_stimuli\\\\filler.mp4', 'robot_stimuli\\\\filler.mp4', 'robot_stimuli\\\\filler.mp4']",robot_stimuli\\filler.mp4,9,,,,,,,,,,,,,0,100,100,100,,,,,,,,,,,,,,,,,2348.0856285,2339.4132668,,,,,,,,,2350.7806092,2350.7806092,2350.7806092,2350.7806092,2350.7806092,2350.7806092,2350.7806092,2350.7806092,None,None,None,,,,,,,,,,,2336.9975638000005,2336.9975638000005,space,1.333462399999462,,,2349.1546563,2349.1546563,2349.1546563,c,1.4070952999995825,,,2346.067505,2348.0856285,2349.1546563,9,001,2024-07-01_11h00.39.182,robot_sternberg_sign,2022.2.5,59.970698316820474,
"['G', 'Q', 'B', 'V']",True,B,4,letter,4,False,False,"['robot_stimuli\\\\filler.mp4', 'robot_stimuli\\\\filler.mp4', 'robot_stimuli\\\\filler.mp4', 'robot_stimuli\\\\filler.mp4']",robot_stimuli\\filler.mp4,9,,,,,,,,,,,,,0,101,101,101,,,,,,,,,,,,,,,,,2360.9146392000002,2361.9715974,,,,,,,,,2364.2038554,2364.2038554,2364.2038554,2364.2038554,2364.2038554,2364.2038554,2364.2038554,2364.2038554,None,None,None,,,,,,,,,,,2350.7806092,2350.7806092,None,,,,2361.9715974,2361.9715974,2361.9715974,c,2.1266891000000214,2350.7806092,2350.7806092,2358.7040096,2360.9146392000002,2361.9715974,9,001,2024-07-01_11h00.39.182,robot_sternberg_sign,2022.2.5,59.970698316820474,
"['V', 'J', 'R', 'Z']",False,X,4,letter,4,False,False,"['robot_stimuli\\\\filler.mp4', 'robot_stimuli\\\\filler.mp4', 'robot_stimuli\\\\filler.mp4', 'robot_stimuli\\\\filler.mp4']",robot_stimuli\\filler.mp4,9,,,,,,,,,,,,,0,102,102,102,,,,,,,,,,,,,,,,,2374.1761011999997,2375.2422857,,,,,,,,,2376.6617787000005,2376.6617787000005,2376.6617787000005,2376.6617787000005,2376.6617787000005,2376.6617787000005,2376.6617787000005,2376.6617787000005,None,None,None,,,,,,,,,,,2364.2038554,2364.2038554,None,,,,2375.2422857,2375.2422857,2375.2422857,n,1.2951618999991297,2364.2038554,2364.2038554,2371.9521743000005,2374.1761011999997,2375.2422857,9,001,2024-07-01_11h00.39.182,robot_sternberg_sign,2022.2.5,59.970698316820474,
"['L', 'F', 'W', 'R']",True,L,4,letter,4,False,False,"['robot_stimuli\\\\filler.mp4', 'robot_stimuli\\\\filler.mp4', 'robot_stimuli\\\\filler.mp4', 'robot_stimuli\\\\filler.mp4']",robot_stimuli\\filler.mp4,9,,,,,,,,,,,,,0,103,103,103,,,,,,,,,,,,,,,,,2386.4059528,2387.4749633,,,,,,,,,2388.4930873000003,2388.4930873000003,2388.4930873000003,2388.4930873000003,2388.4930873000003,2388.4930873000003,2388.4930873000003,2388.4930873000003,None,None,None,,,,,,,,,,,2376.6617787000005,2376.6617787000005,None,,,,2387.4749633,2387.4749633,2387.4749633,c,0.8720005000000128,2376.6617787000005,2376.6617787000005,2384.1869914999997,2386.4059528,2387.4749633,9,001,2024-07-01_11h00.39.182,robot_sternberg_sign,2022.2.5,59.970698316820474,
"['X', 'C', 'Z', 'J']",False,D,4,letter,4,False,False,"['robot_stimuli\\\\filler.mp4', 'robot_stimuli\\\\filler.mp4', 'robot_stimuli\\\\filler.mp4', 'robot_stimuli\\\\filler.mp4']",robot_stimuli\\filler.mp4,9,,,,,,,,,,,,,0,104,104,104,,,,,,,,,,,,,,,,,2398.4306926,2399.4893694,,,,,,,,,2400.5188778,2400.5188778,2400.5188778,2400.5188778,2400.5188778,2400.5188778,2400.5188778,2400.5188778,None,None,None,,,,,,,,,,,2388.4930873000003,2388.4930873000003,None,,,,2399.4893694,2399.4893694,2399.4893694,n,0.8091337000000749,2388.4930873000003,2388.4930873000003,2396.2228296000003,2398.4306926,2399.4893694,9,001,2024-07-01_11h00.39.182,robot_sternberg_sign,2022.2.5,59.970698316820474,
"['V', 'N', 'Z', 'S']",False,C,4,letter,4,False,False,"['robot_stimuli\\\\filler.mp4', 'robot_stimuli\\\\filler.mp4', 'robot_stimuli\\\\filler.mp4', 'robot_stimuli\\\\filler.mp4']",robot_stimuli\\filler.mp4,9,,,,,,,,,,,,,0,105,105,105,,,,,,,,,,,,,,,,,2410.258454,2411.3206596,,,,,,,,,2412.3509309,2412.3509309,2412.3509309,2412.3509309,2412.3509309,2412.3509309,2412.3509309,2412.3509309,None,None,None,,,,,,,,,,,2400.5188778,2400.5188778,None,,,,2411.3206596,2411.3206596,2411.3206596,n,0.8095712999997886,2400.5188778,2400.5188778,2408.0414165,2410.258454,2411.3206596,9,001,2024-07-01_11h00.39.182,robot_sternberg_sign,2022.2.5,59.970698316820474,
"['C', 'S', 'X', 'D']",True,X,4,letter,4,False,False,"['robot_stimuli\\\\filler.mp4', 'robot_stimuli\\\\filler.mp4', 'robot_stimuli\\\\filler.mp4', 'robot_stimuli\\\\filler.mp4']",robot_stimuli\\filler.mp4,9,,,,,,,,,,,,,0,106,106,106,,,,,,,,,,,,,,,,,2422.0973203000003,2423.1590246000005,,,,,,,,,2424.1891603000004,2424.1891603000004,2424.1891603000004,2424.1891603000004,2424.1891603000004,2424.1891603000004,2424.1891603000004,2424.1891603000004,None,None,None,,,,,,,,,,,2412.3509309,2412.3509309,None,,,,2423.1590246000005,2423.1590246000005,2423.1590246000005,c,0.9069872999994004,2412.3509309,2412.3509309,2420.0787148,2422.0973203000003,2423.1590246000005,9,001,2024-07-01_11h00.39.182,robot_sternberg_sign,2022.2.5,59.970698316820474,
"['H', 'W', 'K', 'J']",False,L,4,letter,4,False,False,"['robot_stimuli\\\\filler.mp4', 'robot_stimuli\\\\filler.mp4', 'robot_stimuli\\\\filler.mp4', 'robot_stimuli\\\\filler.mp4']",robot_stimuli\\filler.mp4,9,,,,,,,,,,,,,0,107,107,107,,,,,,,,,,,,,,,,,2433.7626757,2434.8236748,,,,,,,,,2435.6488812,2435.6488812,2435.6488812,2435.6488812,2435.6488812,2435.6488812,2435.6488812,2435.6488812,None,None,None,,,,,,,,,,,2424.1891603000004,2424.1891603000004,None,,,,2434.8236748,2434.8236748,2434.8236748,n,0.6343661999994765,2424.1891603000004,2424.1891603000004,2431.5661737,2433.7626757,2434.8236748,9,001,2024-07-01_11h00.39.182,robot_sternberg_sign,2022.2.5,59.970698316820474,
"['W', 'Q', 'G', 'S']",False,N,4,letter,4,False,False,"['robot_stimuli\\\\filler.mp4', 'robot_stimuli\\\\filler.mp4', 'robot_stimuli\\\\filler.mp4', 'robot_stimuli\\\\filler.mp4']",robot_stimuli\\filler.mp4,9,,,,,,,,,,,,,0,108,108,108,,,,,,,,,,,,,,,,,2445.388954,2446.4554973000004,,,,,,,,,2447.2758853000005,2447.2758853000005,2447.2758853000005,2447.2758853000005,2447.2758853000005,2447.2758853000005,2447.2758853000005,2447.2758853000005,None,None,None,,,,,,,,,,,2435.6488812,2435.6488812,None,,,,2446.4554973000004,2446.4554973000004,2446.4554973000004,n,0.6668297000001076,2435.6488812,2435.6488812,2443.170139,2445.388954,2446.4554973000004,9,001,2024-07-01_11h00.39.182,robot_sternberg_sign,2022.2.5,59.970698316820474,
"['P', 'B', 'K', 'T']",True,P,4,letter,4,False,True,"['robot_stimuli\\\\filler.mp4', 'robot_stimuli\\\\filler.mp4', 'robot_stimuli\\\\filler.mp4', 'robot_stimuli\\\\filler.mp4']",robot_stimuli\\filler.mp4,9,,,,,,,,,,,,,0,109,109,109,,,,,,,,,,,,,,,,,2457.0138544,2458.0707797000005,,,,,,,,,2459.1262619,2462.3365446,2459.1262619,2462.3365446,2459.1262619,2462.3365446,2459.1262619,2462.3365446,2.3765432098765418,1.7980087999994794,space,,,3.163353699999334,,,,,,,,2447.2758853000005,2447.2758853000005,None,,,,2458.0707797000005,2458.0707797000005,2458.0707797000005,c,0.8829384999994545,2447.2758853000005,2447.2758853000005,2455.0018103,2457.0138544,2458.0707797000005,9,001,2024-07-01_11h00.39.182,robot_sternberg_sign,2022.2.5,59.970698316820474,
"['Z', 'V', 'W', 'M', 'P', 'R']",True,W,6,letter,4,True,False,"['robot_stimuli\\\\filler.mp4', 'robot_stimuli\\\\filler.mp4', 'robot_stimuli\\\\filler.mp4', 'robot_stimuli\\\\filler.mp4', 'robot_stimuli\\\\filler.mp4', 'robot_stimuli\\\\filler.mp4']",robot_stimuli\\filler.mp4,9,,,,,,,,,,,,,0,110,110,110,,,,,,,,,,,,,,,,,2478.9760041,2480.0387169000005,,,,,,,,,2483.4670002000003,2483.4670002000003,2483.4670002000003,2483.4670002000003,2483.4670002000003,2483.4670002000003,2483.4670002000003,2483.4670002000003,None,None,None,,,,,,,,,,,2462.3365446,2462.3365446,space,2.705778499999269,,,2480.0387169000005,2480.0387169000005,2480.0387169000005,c,3.3140920999999253,,,2476.9566081000003,2478.9760041,2480.0387169000005,9,001,2024-07-01_11h00.39.182,robot_sternberg_sign,2022.2.5,59.970698316820474,
