sequence,odd_ones,parameter,choices,target,target_idx,condition,stimuli,block,is_block_beginning,is_block_ending,sequence_fnames,target_fname,subject,retraining.thisRepN,retraining.thisTrialN,retraining.thisN,retraining.thisIndex,training.thisRepN,training.thisTrialN,training.thisN,training.thisIndex,training_sequence_loop.thisRepN,training_sequence_loop.thisTrialN,training_sequence_loop.thisN,training_sequence_loop.thisIndex,trials.thisRepN,trials.thisTrialN,trials.thisN,trials.thisIndex,sequence_loop.thisRepN,sequence_loop.thisTrialN,sequence_loop.thisN,sequence_loop.thisIndex,langage_text.started,langage_key.started,langage_key.keys,langage_key.rt,intro_text.started,intro_key.started,intro_key.keys,intro_key.rt,training_intro_text.started,training_intro_key.started,training_intro_key.keys,training_intro_key.rt,polygon.started,polygon.stopped,cue_before_text.started,cue_before_text.stopped,training_presentation_letter.started,training_presentation_letter.stopped,recall_key.started,recall_question.started,recall_answer.started,recall_key.keys,recall_key.rt,RSME_labels.started,RSME_labels.stopped,RSME_ticks.started,RSME_ticks.stopped,RSME_text.started,RSME_text.stopped,RSME_key.started,RSME_key.stopped,RSME_ticks.response,RSME_ticks.rt,RSME_key.keys,training_intro_text.stopped,training_intro_key.stopped,RSME_key.rt,training_presentation_movie.started,experiment_beginning_text.started,experiment_beginning_keys.started,experiment_beginning_key.started,experiment_beginning_key.keys,experiment_beginning_key.rt,block_intro_text.started,block_intro_key.started,block_intro_key.keys,block_intro_key.rt,presentation_movie.started,block_intro_text.stopped,block_intro_key.stopped,presentation_letter.started,presentation_letter.stopped,participant,session,date,expName,psychopyVersion,frameRate,
,,,,,,,,,,,,,,,,,,,,,,,,,,,,,,,,,,13.034972599999975,13.034972599999975,f,0.398362800000001,,,,,,,,,,,,,,,,,,,,,,,,,,,,,,,,,,,,,,,,,,,,,,,,,9,001,2024-07-25_10h33.03.948,robot_cogshifting_sign,2022.2.5,59.99761209504396,
,,,,,,,,,,,,,,,,,,,,,,,,,,,,,,,,,,,,,,13.491957999999983,13.491957999999983,space,151.04468630000002,,,,,,,,,,,,,,,,,,,,,,,,,,,,,,,,,,,,,,,,,,,,,9,001,2024-07-25_10h33.03.948,robot_cogshifting_sign,2022.2.5,59.99761209504396,
"['blue_top_W_45', 'red_top_G_45', 'red_right_W_45', 'red_top_H_0']","{'color': 'blue_top_W_45', 'position': 'red_right_W_45', 'orientation': 'red_top_H_0'}",color,['color'],blue_top_W_45,0,1,letter,2,True,False,"['robot_stimuli\\\\filler.mp4', 'robot_stimuli\\\\filler.mp4', 'robot_stimuli\\\\filler.mp4', 'robot_stimuli\\\\filler.mp4']",robot_stimuli\\filler.mp4,9,0,0,0,0,0,0,0,0,,,,,,,,,,,,,,,,,,,,,164.57250269999997,164.57250269999997,space,4.436492500000014,169.03592549999996,170.03586719999998,170.03586719999998,172.53871679999997,179.44430159999996,181.68088089999998,181.68088089999998,181.68088089999998,181.68088089999998,1,5.567550800000021,187.32259089999997,187.32259089999997,187.32259089999997,187.32259089999997,187.32259089999997,187.32259089999997,187.32259089999997,187.32259089999997,None,None,None,,,,,,,,,,,,,,,,,,,9,001,2024-07-25_10h33.03.948,robot_cogshifting_sign,2022.2.5,59.99761209504396,
"['red_left_W_45', 'red_bottom_M_0', 'blue_left_N_0', 'red_left_G_0']","{'color': 'blue_left_N_0', 'position': 'red_bottom_M_0', 'orientation': 'red_left_W_45'}",position,['position'],red_bottom_M_0,1,1,letter,2,False,False,"['robot_stimuli\\\\filler.mp4', 'robot_stimuli\\\\filler.mp4', 'robot_stimuli\\\\filler.mp4', 'robot_stimuli\\\\filler.mp4']",robot_stimuli\\filler.mp4,9,0,0,0,0,0,1,1,1,,,,,,,,,,,,,,,,,,,,,187.32259089999997,187.32259089999997,None,,187.32259089999997,,188.3362651,,197.314619,199.3388776,199.3388776,199.3388776,199.3388776,3,3.6297081000000446,202.9860557,202.9860557,202.9860557,202.9860557,202.9860557,202.9860557,202.9860557,202.9860557,None,None,None,187.32259089999997,187.32259089999997,,,,,,,,,,,,,,,,,9,001,2024-07-25_10h33.03.948,robot_cogshifting_sign,2022.2.5,59.99761209504396,
"['blue_top_D_45', 'red_top_B_0', 'blue_right_F_0', 'blue_top_P_0']","{'color': 'red_top_B_0', 'position': 'blue_right_F_0', 'orientation': 'blue_top_D_45'}",orientation,['orientation'],blue_top_D_45,0,1,letter,2,False,True,"['robot_stimuli\\\\filler.mp4', 'robot_stimuli\\\\filler.mp4', 'robot_stimuli\\\\filler.mp4', 'robot_stimuli\\\\filler.mp4']",robot_stimuli\\filler.mp4,9,0,0,0,0,0,2,2,2,,,,,,,,,,,,,,,,,,,,,202.9860557,202.9860557,None,,202.9860557,203.98610959999996,203.98610959999996,206.05810889999998,212.9718737,215.1922156,215.1922156,215.1922156,215.1922156,2,1.2246984999999597,216.49167209999996,230.1014098,216.49167209999996,230.1014098,216.49167209999996,230.1014098,216.49167209999996,230.1014098,7.006172839506167,11.826255800000013,space,202.9860557,202.9860557,13.532611199999991,,,,,,,,,,,,,,,,9,001,2024-07-25_10h33.03.948,robot_cogshifting_sign,2022.2.5,59.99761209504396,
"['blue_bottom_V_45', 'blue_left_D_0', 'red_left_B_45', 'blue_left_N_45']","{'color': 'red_left_B_45', 'position': 'blue_bottom_V_45', 'orientation': 'blue_left_D_0'}",color,"['color', 'orientation']",red_left_B_45,2,2,letter,2,True,False,"['robot_stimuli\\\\filler.mp4', 'robot_stimuli\\\\filler.mp4', 'robot_stimuli\\\\filler.mp4', 'robot_stimuli\\\\filler.mp4']",robot_stimuli\\filler.mp4,9,0,0,0,0,0,3,3,3,,,,,,,,,,,,,,,,,,,,,230.1014098,230.1014098,space,7.514589199999961,237.63615369999997,238.6364039,238.6364039,240.7198801,247.0147753,249.0474645,249.0474645,249.0474645,249.0474645,3,5.369077200000021,254.43632839999998,254.43632839999998,254.43632839999998,254.43632839999998,254.43632839999998,254.43632839999998,254.43632839999998,254.43632839999998,None,None,None,,,,,,,,,,,,,,,,,,,9,001,2024-07-25_10h33.03.948,robot_cogshifting_sign,2022.2.5,59.99761209504396,
"['red_left_T_0', 'blue_left_W_45', 'blue_left_J_0', 'blue_top_S_0']","{'color': 'red_left_T_0', 'position': 'blue_top_S_0', 'orientation': 'blue_left_W_45'}",position,"['color', 'position']",blue_top_S_0,3,2,letter,2,False,False,"['robot_stimuli\\\\filler.mp4', 'robot_stimuli\\\\filler.mp4', 'robot_stimuli\\\\filler.mp4', 'robot_stimuli\\\\filler.mp4']",robot_stimuli\\filler.mp4,9,0,0,0,0,0,4,4,4,,,,,,,,,,,,,,,,,,,,,254.43632839999998,254.43632839999998,None,,254.43632839999998,255.43629019999997,255.43629019999997,257.5042871,264.4115796,266.43250359999996,266.43250359999996,266.43250359999996,266.43250359999996,2,6.2084632999999485,272.66947039999997,272.66947039999997,272.66947039999997,272.66947039999997,272.66947039999997,272.66947039999997,272.66947039999997,272.66947039999997,None,None,None,254.43632839999998,254.43632839999998,,,,,,,,,,,,,,,,,9,001,2024-07-25_10h33.03.948,robot_cogshifting_sign,2022.2.5,59.99761209504396,
"['red_bottom_F_0', 'red_left_T_0', 'red_bottom_M_45', 'blue_bottom_Z_0']","{'color': 'blue_bottom_Z_0', 'position': 'red_left_T_0', 'orientation': 'red_bottom_M_45'}",orientation,"['color', 'orientation']",red_bottom_M_45,2,2,letter,2,False,True,"['robot_stimuli\\\\filler.mp4', 'robot_stimuli\\\\filler.mp4', 'robot_stimuli\\\\filler.mp4', 'robot_stimuli\\\\filler.mp4']",robot_stimuli\\filler.mp4,9,0,0,0,0,0,5,5,5,,,,,,,,,,,,,,,,,,,,,272.66947039999997,272.66947039999997,None,,272.66947039999997,273.6696501,273.6696501,275.736807,282.4441858,284.6616439,284.6616439,284.6616439,284.6616439,3,8.41848639999995,293.12999909999996,298.2774199,293.12999909999996,298.2774199,293.12999909999996,298.2774199,293.12999909999996,298.2774199,20.740740740740733,4.235458499999993,space,272.66947039999997,272.66947039999997,5.0775443,,,,,,,,,,,,,,,,9,001,2024-07-25_10h33.03.948,robot_cogshifting_sign,2022.2.5,59.99761209504396,
"['blue_bottom_P_45', 'blue_left_P_45', 'red_left_L_45', 'blue_left_K_0']","{'color': 'red_left_L_45', 'position': 'blue_bottom_P_45', 'orientation': 'blue_left_K_0'}",color,"['color', 'orientation', 'position']",red_left_L_45,2,3,letter,2,True,False,"['robot_stimuli\\\\filler.mp4', 'robot_stimuli\\\\filler.mp4', 'robot_stimuli\\\\filler.mp4', 'robot_stimuli\\\\filler.mp4']",robot_stimuli\\filler.mp4,9,0,0,0,0,0,6,6,6,,,,,,,,,,,,,,,,,,,,,298.2774199,298.2774199,space,45.643651100000056,343.95293839999994,344.95297569999997,344.95297569999997,347.02391029999995,353.92603560000003,356.14539929999995,356.14539929999995,356.14539929999995,356.14539929999995,3,4.248021400000027,360.41969209999996,360.41969209999996,360.41969209999996,360.41969209999996,360.41969209999996,360.41969209999996,360.41969209999996,360.41969209999996,None,None,None,,,,,,,,,,,,,,,,,,,9,001,2024-07-25_10h33.03.948,robot_cogshifting_sign,2022.2.5,59.99761209504396,
"['blue_left_F_0', 'red_left_B_45', 'blue_left_T_45', 'blue_right_V_45']","{'color': 'red_left_B_45', 'position': 'blue_right_V_45', 'orientation': 'blue_left_F_0'}",orientation,"['color', 'orientation', 'position']",blue_left_F_0,0,3,letter,2,False,False,"['robot_stimuli\\\\filler.mp4', 'robot_stimuli\\\\filler.mp4', 'robot_stimuli\\\\filler.mp4', 'robot_stimuli\\\\filler.mp4']",robot_stimuli\\filler.mp4,9,0,0,0,0,0,7,7,7,,,,,,,,,,,,,,,,,,,,,360.41969209999996,360.41969209999996,None,,360.41969209999996,361.42017300000003,361.42017300000003,363.4860227,370.1782708,372.2047591,372.2047591,372.2047591,372.2047591,1,2.482873999999981,374.7195962,374.7195962,374.7195962,374.7195962,374.7195962,374.7195962,374.7195962,374.7195962,None,None,None,360.41969209999996,360.41969209999996,,,,,,,,,,,,,,,,,9,001,2024-07-25_10h33.03.948,robot_cogshifting_sign,2022.2.5,59.99761209504396,
"['blue_bottom_R_0', 'red_bottom_F_0', 'blue_right_P_0', 'blue_bottom_B_45']","{'color': 'red_bottom_F_0', 'position': 'blue_right_P_0', 'orientation': 'blue_bottom_B_45'}",position,"['color', 'orientation', 'position']",blue_right_P_0,2,3,letter,2,False,True,"['robot_stimuli\\\\filler.mp4', 'robot_stimuli\\\\filler.mp4', 'robot_stimuli\\\\filler.mp4', 'robot_stimuli\\\\filler.mp4']",robot_stimuli\\filler.mp4,9,0,0,0,0,0,8,8,8,,,,,,,,,,,,,,,,,,,,,374.7195962,374.7195962,None,,374.7195962,375.7197475,375.7197475,377.78975280000003,384.4729179,386.69198109999996,386.69198109999996,386.69198109999996,386.69198109999996,3,4.476409300000057,391.2114013,403.83683849999994,391.2114013,403.83683849999994,391.2114013,403.83683849999994,391.2114013,403.83683849999994,18.580246913580243,10.813822399999935,space,374.7195962,374.7195962,12.580774500000018,,,,,,,,,,,,,,,,9,001,2024-07-25_10h33.03.948,robot_cogshifting_sign,2022.2.5,59.99761209504396,
"['L_Arm_Y_For', 'R_Arm_X_For', 'L_Arm_X_Back', 'L_Head_X_Back']","{'laterality': 'R_Arm_X_For', 'localisation': 'L_Head_X_Back', 'movement': 'L_Arm_Y_For'}",movement,['movement'],L_Arm_Y_For,0,1,robot,1,True,False,"['robot_stimuli\\L_Arm_Y_For.mp4', 'robot_stimuli\\R_Arm_X_For.mp4', 'robot_stimuli\\L_Arm_X_Back.mp4', 'robot_stimuli\\L_Head_X_Back.mp4']",robot_stimuli\L_Arm_Y_For.mp4,9,0,0,0,0,0,9,9,9,,,,,,,,,,,,,,,,,,,,,403.83683849999994,403.83683849999994,space,4.204223900000045,408.06966589999996,409.06968119999993,409.06968119999993,411.1620771,,,425.9955441,425.9955441,425.9955441,4,11.060468000000071,437.08596029999995,437.08596029999995,437.08596029999995,437.08596029999995,437.08596029999995,437.08596029999995,437.08596029999995,437.08596029999995,None,None,None,,,,422.36398230000003,,,,,,,,,,,,,,,9,001,2024-07-25_10h33.03.948,robot_cogshifting_sign,2022.2.5,59.99761209504396,
"['R_Torso_Y_Back', 'L_Torso_X_For', 'R_Head_X_Back', 'R_Torso_X_For']","{'laterality': 'L_Torso_X_For', 'localisation': 'R_Head_X_Back', 'movement': 'R_Torso_Y_Back'}",localisation,['localisation'],R_Head_X_Back,2,1,robot,1,False,False,"['robot_stimuli\\R_Torso_Y_Back.mp4', 'robot_stimuli\\L_Torso_X_For.mp4', 'robot_stimuli\\R_Head_X_Back.mp4', 'robot_stimuli\\R_Torso_X_For.mp4']",robot_stimuli\R_Head_X_Back.mp4,9,0,0,0,0,0,10,10,10,,,,,,,,,,,,,,,,,,,,,437.08596029999995,437.08596029999995,None,,437.08596029999995,438.08607920000003,438.08607920000003,440.17836099999994,,,454.9976234,454.9976234,454.9976234,1,0.5949968000000467,455.6196871,455.6196871,455.6196871,455.6196871,455.6196871,455.6196871,455.6196871,455.6196871,None,None,None,437.08596029999995,437.08596029999995,,451.36089699999997,,,,,,,,,,,,,,,9,001,2024-07-25_10h33.03.948,robot_cogshifting_sign,2022.2.5,59.99761209504396,
"['L_Base_Y_For', 'R_Arm_Y_Back', 'L_Arm_Z_Back', 'L_Arm_Y_For']","{'laterality': 'R_Arm_Y_Back', 'localisation': 'L_Base_Y_For', 'movement': 'L_Arm_Z_Back'}",laterality,['laterality'],R_Arm_Y_Back,1,1,robot,1,False,True,"['robot_stimuli\\L_Base_Y_For.mp4', 'robot_stimuli\\R_Arm_Y_Back.mp4', 'robot_stimuli\\L_Arm_Z_Back.mp4', 'robot_stimuli\\L_Arm_Y_For.mp4']",robot_stimuli\R_Arm_Y_Back.mp4,9,0,0,0,0,0,11,11,11,,,,,,,,,,,,,,,,,,,,,455.6196871,455.6196871,None,,455.6196871,456.6197665,456.6197665,458.6985537,,,473.4393951,473.4393951,473.4393951,3,11.14551350000005,484.6278954,491.25211499999995,484.6278954,491.25211499999995,484.6278954,491.25211499999995,484.6278954,491.25211499999995,34.01234567901235,5.774240599999985,space,455.6196871,455.6196871,6.580323899999996,469.8122785,,,,,,,,,,,,,,,9,001,2024-07-25_10h33.03.948,robot_cogshifting_sign,2022.2.5,59.99761209504396,
"['L_Head_Z_For', 'R_Head_Y_Back', 'L_Head_Y_For', 'L_Base_Y_For']","{'laterality': 'R_Head_Y_Back', 'localisation': 'L_Base_Y_For', 'movement': 'L_Head_Z_For'}",localisation,"['localisation', 'movement']",L_Base_Y_For,3,2,robot,1,True,False,"['robot_stimuli\\L_Head_Z_For.mp4', 'robot_stimuli\\R_Head_Y_Back.mp4', 'robot_stimuli\\L_Head_Y_For.mp4', 'robot_stimuli\\L_Base_Y_For.mp4']",robot_stimuli\L_Base_Y_For.mp4,9,0,0,0,0,0,12,12,12,,,,,,,,,,,,,,,,,,,,,491.25211499999995,491.25211499999995,space,3.435725600000012,494.71965240000003,495.7197838,495.7197838,497.8021538,,,512.5292317999999,512.5292317999999,512.5292317999999,4,2.215610199999958,514.7697869000001,514.7697869000001,514.7697869000001,514.7697869000001,514.7697869000001,514.7697869000001,514.7697869000001,514.7697869000001,None,None,None,,,,508.99376649999994,,,,,,,,,,,,,,,9,001,2024-07-25_10h33.03.948,robot_cogshifting_sign,2022.2.5,59.99761209504396,
"['R_Base_X_For', 'R_Head_X_For', 'L_Base_X_Back', 'R_Base_Y_For']","{'laterality': 'L_Base_X_Back', 'localisation': 'R_Head_X_For', 'movement': 'R_Base_Y_For'}",movement,"['localisation', 'movement']",R_Base_Y_For,3,2,robot,1,False,False,"['robot_stimuli\\R_Base_X_For.mp4', 'robot_stimuli\\R_Head_X_For.mp4', 'robot_stimuli\\L_Base_X_Back.mp4', 'robot_stimuli\\R_Base_Y_For.mp4']",robot_stimuli\R_Base_Y_For.mp4,9,0,0,0,0,0,13,13,13,,,,,,,,,,,,,,,,,,,,,514.7697869000001,514.7697869000001,None,,514.7697869000001,515.7699795000001,515.7699795000001,517.8514250999999,,,532.5468017000001,532.5468017000001,532.5468017000001,4,4.510790200000031,537.0865233,537.0865233,537.0865233,537.0865233,537.0865233,537.0865233,537.0865233,537.0865233,None,None,None,514.7697869000001,514.7697869000001,,528.8988446000001,,,,,,,,,,,,,,,9,001,2024-07-25_10h33.03.948,robot_cogshifting_sign,2022.2.5,59.99761209504396,
"['L_Head_Y_For', 'L_Torso_Y_Back', 'L_Head_Z_For', 'R_Head_Y_Back']","{'laterality': 'R_Head_Y_Back', 'localisation': 'L_Torso_Y_Back', 'movement': 'L_Head_Z_For'}",laterality,"['laterality', 'movement']",R_Head_Y_Back,3,2,robot,1,False,True,"['robot_stimuli\\L_Head_Y_For.mp4', 'robot_stimuli\\L_Torso_Y_Back.mp4', 'robot_stimuli\\L_Head_Z_For.mp4', 'robot_stimuli\\R_Head_Y_Back.mp4']",robot_stimuli\R_Head_Y_Back.mp4,9,0,0,0,0,0,14,14,14,,,,,,,,,,,,,,,,,,,,,537.0865233,537.0865233,None,,537.0865233,538.0864525,538.0864525,540.1596608,,,554.829557,554.829557,554.829557,4,1.595365500000014,556.4777887,560.1062009,556.4777887,560.1062009,556.4777887,560.1062009,556.4777887,560.1062009,36.48148148148148,2.7542918999999983,space,537.0865233,537.0865233,3.578361599999937,551.1909912000001,,,,,,,,,,,,,,,9,001,2024-07-25_10h33.03.948,robot_cogshifting_sign,2022.2.5,59.99761209504396,
"['R_Torso_Y_For', 'R_Torso_Z_Back', 'R_Base_Y_For', 'L_Torso_Y_For']","{'laterality': 'L_Torso_Y_For', 'localisation': 'R_Base_Y_For', 'movement': 'R_Torso_Z_Back'}",localisation,"['laterality', 'localisation', 'movement']",R_Base_Y_For,2,3,robot,1,True,False,"['robot_stimuli\\R_Torso_Y_For.mp4', 'robot_stimuli\\R_Torso_Z_Back.mp4', 'robot_stimuli\\R_Base_Y_For.mp4', 'robot_stimuli\\L_Torso_Y_For.mp4']",robot_stimuli\R_Base_Y_For.mp4,9,0,0,0,0,0,15,15,15,,,,,,,,,,,,,,,,,,,,,560.1062009,560.1062009,space,20.342466300000012,580.4699022,581.4700069999999,581.4700069999999,583.5535394000001,,,598.3592755,598.3592755,598.3592755,3,3.5769635999999423,601.9531274000001,601.9531274000001,601.9531274000001,601.9531274000001,601.9531274000001,601.9531274000001,601.9531274000001,601.9531274000001,None,None,None,,,,594.7149563,,,,,,,,,,,,,,,9,001,2024-07-25_10h33.03.948,robot_cogshifting_sign,2022.2.5,59.99761209504396,
"['R_Arm_Y_Back', 'R_Base_Z_For', 'L_Base_Y_For', 'R_Base_Y_For']","{'laterality': 'L_Base_Y_For', 'localisation': 'R_Arm_Y_Back', 'movement': 'R_Base_Z_For'}",movement,"['laterality', 'localisation', 'movement']",R_Base_Z_For,1,3,robot,1,False,False,"['robot_stimuli\\R_Arm_Y_Back.mp4', 'robot_stimuli\\R_Base_Z_For.mp4', 'robot_stimuli\\L_Base_Y_For.mp4', 'robot_stimuli\\R_Base_Y_For.mp4']",robot_stimuli\R_Base_Z_For.mp4,9,0,0,0,0,0,16,16,16,,,,,,,,,,,,,,,,,,,,,601.9531274000001,601.9531274000001,None,,601.9531274000001,602.9534262,602.9534262,605.0337076999999,,,619.7757634,619.7757634,619.7757634,3,14.776164300000062,634.5698451000001,634.5698451000001,634.5698451000001,634.5698451000001,634.5698451000001,634.5698451000001,634.5698451000001,634.5698451000001,None,None,None,601.9531274000001,601.9531274000001,,616.1467047000001,,,,,,,,,,,,,,,9,001,2024-07-25_10h33.03.948,robot_cogshifting_sign,2022.2.5,59.99761209504396,
"['R_Head_Y_For', 'L_Head_X_For', 'R_Torso_X_For', 'R_Head_X_For']","{'laterality': 'L_Head_X_For', 'localisation': 'R_Torso_X_For', 'movement': 'R_Head_Y_For'}",laterality,"['laterality', 'localisation', 'movement']",L_Head_X_For,1,3,robot,1,False,True,"['robot_stimuli\\R_Head_Y_For.mp4', 'robot_stimuli\\L_Head_X_For.mp4', 'robot_stimuli\\R_Torso_X_For.mp4', 'robot_stimuli\\R_Head_X_For.mp4']",robot_stimuli\L_Head_X_For.mp4,9,0,0,0,0,0,17,17,17,,,,,,,,,,,,,,,,,,,,,634.5698451000001,634.5698451000001,None,,634.5698451000001,635.5698869,635.5698869,637.662581,,,652.4088308,652.4088308,652.4088308,2,2.4631239000000846,654.9312889,659.5835706999999,654.9312889,659.5835706999999,654.9312889,659.5835706999999,654.9312889,659.5835706999999,37.561728395061735,3.7943059000000403,space,634.5698451000001,634.5698451000001,4.596482500000036,648.7792420000001,,,,,,,,,,,,,,,9,001,2024-07-25_10h33.03.948,robot_cogshifting_sign,2022.2.5,59.99761209504396,
,,,,,,,,,,,,,,0,0,0,0,,,,,,,,,,,,,,,,,,,,,,,,,,,,,,,,,,,,,,,,,,,,,,,,,,,,,,,659.5835706999999,659.5835706999999,659.5835706999999,c,2.641219000000035,,,,,,,,,,9,001,2024-07-25_10h33.03.948,robot_cogshifting_sign,2022.2.5,59.99761209504396,
"['L_Torso_Z_Back', 'R_Arm_Z_Back', 'L_Arm_X_For', 'L_Arm_Z_Back']","{'laterality': 'R_Arm_Z_Back', 'localisation': 'L_Torso_Z_Back', 'movement': 'L_Arm_X_For'}",localisation,['localisation'],L_Torso_Z_Back,0,1,robot,1,True,False,"['robot_stimuli\\L_Torso_Z_Back.mp4', 'robot_stimuli\\R_Arm_Z_Back.mp4', 'robot_stimuli\\L_Arm_X_For.mp4', 'robot_stimuli\\L_Arm_Z_Back.mp4']",robot_stimuli\L_Torso_Z_Back.mp4,9,,,,,,,,,,,,,0,0,0,0,,,,,,,,,,,,,,,,,,,665.5199054,667.5981042999999,,,682.2615453999999,682.2615453999999,682.2615453999999,1,4.179866200000049,686.4699963,686.4699963,686.4699963,686.4699963,686.4699963,686.4699963,686.4699963,686.4699963,None,None,None,,,,,,,,,,662.2694633000001,662.2694633000001,space,3.226269899999977,678.6260228000001,,,,,9,001,2024-07-25_10h33.03.948,robot_cogshifting_sign,2022.2.5,59.99761209504396,
"['R_Head_Y_For', 'L_Head_Z_Back', 'R_Head_Z_Back', 'R_Arm_Z_Back']","{'laterality': 'L_Head_Z_Back', 'localisation': 'R_Arm_Z_Back', 'movement': 'R_Head_Y_For'}",localisation,['localisation'],R_Arm_Z_Back,3,1,robot,1,False,False,"['robot_stimuli\\R_Head_Y_For.mp4', 'robot_stimuli\\L_Head_Z_Back.mp4', 'robot_stimuli\\R_Head_Z_Back.mp4', 'robot_stimuli\\R_Arm_Z_Back.mp4']",robot_stimuli\R_Arm_Z_Back.mp4,9,,,,,,,,,,,,,0,1,1,1,,,,,,,,,,,,,,,,,,,686.4699963,688.5410936000001,,,703.3630592,703.3630592,703.3630592,4,1.1179425000000833,704.5034390999999,704.5034390999999,704.5034390999999,704.5034390999999,704.5034390999999,704.5034390999999,704.5034390999999,704.5034390999999,None,None,None,,,,,,,,,,686.4699963,686.4699963,None,,699.7271831999999,686.4699963,686.4699963,,,9,001,2024-07-25_10h33.03.948,robot_cogshifting_sign,2022.2.5,59.99761209504396,
"['L_Arm_X_For', 'R_Base_X_For', 'L_Base_X_For', 'L_Base_Z_Back']","{'laterality': 'R_Base_X_For', 'localisation': 'L_Arm_X_For', 'movement': 'L_Base_Z_Back'}",movement,['movement'],L_Base_Z_Back,3,1,robot,1,False,False,"['robot_stimuli\\L_Arm_X_For.mp4', 'robot_stimuli\\R_Base_X_For.mp4', 'robot_stimuli\\L_Base_X_For.mp4', 'robot_stimuli\\L_Base_Z_Back.mp4']",robot_stimuli\L_Base_Z_Back.mp4,9,,,,,,,,,,,,,0,2,2,2,,,,,,,,,,,,,,,,,,,704.5034390999999,706.5935953000001,,,721.2468231,721.2468231,721.2468231,4,1.353406600000028,722.6199340999999,722.6199340999999,722.6199340999999,722.6199340999999,722.6199340999999,722.6199340999999,722.6199340999999,722.6199340999999,None,None,None,,,,,,,,,,704.5034390999999,704.5034390999999,None,,717.6030708999999,704.5034390999999,704.5034390999999,,,9,001,2024-07-25_10h33.03.948,robot_cogshifting_sign,2022.2.5,59.99761209504396,
"['L_Base_Z_Back', 'R_Torso_Z_Back', 'R_Base_Y_Back', 'R_Base_Z_For']","{'laterality': 'L_Base_Z_Back', 'localisation': 'R_Torso_Z_Back', 'movement': 'R_Base_Y_Back'}",laterality,['laterality'],L_Base_Z_Back,0,1,robot,1,False,False,"['robot_stimuli\\L_Base_Z_Back.mp4', 'robot_stimuli\\R_Torso_Z_Back.mp4', 'robot_stimuli\\R_Base_Y_Back.mp4', 'robot_stimuli\\R_Base_Z_For.mp4']",robot_stimuli\L_Base_Z_Back.mp4,9,,,,,,,,,,,,,0,3,3,3,,,,,,,,,,,,,,,,,,,722.6199340999999,724.6967024,,,739.5291843,739.5291843,739.5291843,1,1.3591475999999716,740.9200638,740.9200638,740.9200638,740.9200638,740.9200638,740.9200638,740.9200638,740.9200638,None,None,None,,,,,,,,,,722.6199340999999,722.6199340999999,None,,735.8822498,722.6199340999999,722.6199340999999,,,9,001,2024-07-25_10h33.03.948,robot_cogshifting_sign,2022.2.5,59.99761209504396,
"['R_Base_Z_For', 'R_Arm_X_For', 'R_Base_X_For', 'L_Base_X_Back']","{'laterality': 'L_Base_X_Back', 'localisation': 'R_Arm_X_For', 'movement': 'R_Base_Z_For'}",movement,['movement'],R_Base_Z_For,0,1,robot,1,False,False,"['robot_stimuli\\R_Base_Z_For.mp4', 'robot_stimuli\\R_Arm_X_For.mp4', 'robot_stimuli\\R_Base_X_For.mp4', 'robot_stimuli\\L_Base_X_Back.mp4']",robot_stimuli\R_Base_Z_For.mp4,9,,,,,,,,,,,,,0,4,4,4,,,,,,,,,,,,,,,,,,,740.9200638,742.9944677000001,,,757.671877,757.671877,757.671877,2,0.34560679999998456,758.0372030999999,758.0372030999999,758.0372030999999,758.0372030999999,758.0372030999999,758.0372030999999,758.0372030999999,758.0372030999999,None,None,None,,,,,,,,,,740.9200638,740.9200638,None,,754.0807399999999,740.9200638,740.9200638,,,9,001,2024-07-25_10h33.03.948,robot_cogshifting_sign,2022.2.5,59.99761209504396,
"['L_Head_Y_For', 'R_Head_Z_Back', 'L_Head_Z_Back', 'L_Torso_Z_For']","{'laterality': 'R_Head_Z_Back', 'localisation': 'L_Torso_Z_For', 'movement': 'L_Head_Y_For'}",localisation,['localisation'],L_Torso_Z_For,3,1,robot,1,False,False,"['robot_stimuli\\L_Head_Y_For.mp4', 'robot_stimuli\\R_Head_Z_Back.mp4', 'robot_stimuli\\L_Head_Z_Back.mp4', 'robot_stimuli\\L_Torso_Z_For.mp4']",robot_stimuli\L_Torso_Z_For.mp4,9,,,,,,,,,,,,,0,5,5,5,,,,,,,,,,,,,,,,,,,758.0372030999999,760.1085052999999,,,774.9289942999999,774.9289942999999,774.9289942999999,4,0.3843411000000856,775.3369332,775.3369332,775.3369332,775.3369332,775.3369332,775.3369332,775.3369332,775.3369332,None,None,None,,,,,,,,,,758.0372030999999,758.0372030999999,None,,771.2932179,758.0372030999999,758.0372030999999,,,9,001,2024-07-25_10h33.03.948,robot_cogshifting_sign,2022.2.5,59.99761209504396,
"['L_Head_Y_For', 'L_Torso_Z_For', 'R_Head_Z_For', 'L_Head_Z_Back']","{'laterality': 'R_Head_Z_For', 'localisation': 'L_Torso_Z_For', 'movement': 'L_Head_Y_For'}",laterality,['laterality'],R_Head_Z_For,2,1,robot,1,False,False,"['robot_stimuli\\L_Head_Y_For.mp4', 'robot_stimuli\\L_Torso_Z_For.mp4', 'robot_stimuli\\R_Head_Z_For.mp4', 'robot_stimuli\\L_Head_Z_Back.mp4']",robot_stimuli\R_Head_Z_For.mp4,9,,,,,,,,,,,,,0,6,6,6,,,,,,,,,,,,,,,,,,,775.3369332,777.4111923999999,,,792.1967930000001,792.1967930000001,792.1967930000001,3,0.5244720000000029,792.7534673,792.7534673,792.7534673,792.7534673,792.7534673,792.7534673,792.7534673,792.7534673,None,None,None,,,,,,,,,,775.3369332,775.3369332,None,,788.56115,775.3369332,775.3369332,,,9,001,2024-07-25_10h33.03.948,robot_cogshifting_sign,2022.2.5,59.99761209504396,
"['R_Base_Z_For', 'L_Base_Z_For', 'R_Base_X_Back', 'R_Head_Z_Back']","{'laterality': 'L_Base_Z_For', 'localisation': 'R_Head_Z_Back', 'movement': 'R_Base_X_Back'}",movement,['movement'],R_Base_X_Back,2,1,robot,1,False,False,"['robot_stimuli\\R_Base_Z_For.mp4', 'robot_stimuli\\L_Base_Z_For.mp4', 'robot_stimuli\\R_Base_X_Back.mp4', 'robot_stimuli\\R_Head_Z_Back.mp4']",robot_stimuli\R_Base_X_Back.mp4,9,,,,,,,,,,,,,0,7,7,7,,,,,,,,,,,,,,,,,,,792.7534673,794.8237237999999,,,809.6472663,809.6472663,809.6472663,3,0.6088142000000403,810.2867013,810.2867013,810.2867013,810.2867013,810.2867013,810.2867013,810.2867013,810.2867013,None,None,None,,,,,,,,,,792.7534673,792.7534673,None,,806.0078765000001,792.7534673,792.7534673,,,9,001,2024-07-25_10h33.03.948,robot_cogshifting_sign,2022.2.5,59.99761209504396,
"['L_Torso_Z_Back', 'L_Arm_X_For', 'L_Torso_X_Back', 'R_Torso_X_For']","{'laterality': 'R_Torso_X_For', 'localisation': 'L_Arm_X_For', 'movement': 'L_Torso_Z_Back'}",laterality,['laterality'],R_Torso_X_For,3,1,robot,1,False,True,"['robot_stimuli\\L_Torso_Z_Back.mp4', 'robot_stimuli\\L_Arm_X_For.mp4', 'robot_stimuli\\L_Torso_X_Back.mp4', 'robot_stimuli\\R_Torso_X_For.mp4']",robot_stimuli\R_Torso_X_For.mp4,9,,,,,,,,,,,,,0,8,8,8,,,,,,,,,,,,,,,,,,,810.2867013,812.3615437000001,,,827.0299921999999,827.0299921999999,827.0299921999999,4,0.4192276000000561,827.4956818999999,829.9799107000001,827.4956818999999,829.9799107000001,827.4956818999999,829.9799107000001,827.4956818999999,829.9799107000001,37.25308641975308,1.6077675000000227,space,,,2.4166777000000934,,,,,,,810.2867013,810.2867013,None,,823.3929848,810.2867013,810.2867013,,,9,001,2024-07-25_10h33.03.948,robot_cogshifting_sign,2022.2.5,59.99761209504396,
"['L_Head_Y_Back', 'R_Head_Z_For', 'L_Head_Z_Back', 'L_Base_Z_Back']","{'laterality': 'R_Head_Z_For', 'localisation': 'L_Base_Z_Back', 'movement': 'L_Head_Y_Back'}",laterality,"['laterality', 'movement']",R_Head_Z_For,1,2,robot,1,True,False,"['robot_stimuli\\L_Head_Y_Back.mp4', 'robot_stimuli\\R_Head_Z_For.mp4', 'robot_stimuli\\L_Head_Z_Back.mp4', 'robot_stimuli\\L_Base_Z_Back.mp4']",robot_stimuli\R_Head_Z_For.mp4,9,,,,,,,,,,,,,0,9,9,9,,,,,,,,,,,,,,,,,,,847.1534859000001,849.2319486000001,,,864.0035516,864.0035516,864.0035516,2,2.2368071000000214,866.2704435,866.2704435,866.2704435,866.2704435,866.2704435,866.2704435,866.2704435,866.2704435,None,None,None,,,,,,,,,,829.9799107000001,829.9799107000001,space,17.14826009999996,860.3792674000001,,,,,9,001,2024-07-25_10h33.03.948,robot_cogshifting_sign,2022.2.5,59.99761209504396,
"['L_Torso_Z_Back', 'L_Arm_Y_Back', 'L_Arm_Z_For', 'R_Arm_Z_Back']","{'laterality': 'R_Arm_Z_Back', 'localisation': 'L_Torso_Z_Back', 'movement': 'L_Arm_Y_Back'}",movement,"['laterality', 'movement']",L_Arm_Y_Back,1,2,robot,1,False,False,"['robot_stimuli\\L_Torso_Z_Back.mp4', 'robot_stimuli\\L_Arm_Y_Back.mp4', 'robot_stimuli\\L_Arm_Z_For.mp4', 'robot_stimuli\\R_Arm_Z_Back.mp4']",robot_stimuli\L_Arm_Y_Back.mp4,9,,,,,,,,,,,,,0,10,10,10,,,,,,,,,,,,,,,,,,,866.2704435,868.3426328,,,883.0238128999999,883.0238128999999,883.0238128999999,2,1.0641634000000408,884.1202761,884.1202761,884.1202761,884.1202761,884.1202761,884.1202761,884.1202761,884.1202761,None,None,None,,,,,,,,,,866.2704435,866.2704435,None,,879.3911784,866.2704435,866.2704435,,,9,001,2024-07-25_10h33.03.948,robot_cogshifting_sign,2022.2.5,59.99761209504396,
"['R_Arm_X_For', 'L_Base_X_For', 'L_Arm_Z_Back', 'L_Arm_X_Back']","{'laterality': 'R_Arm_X_For', 'localisation': 'L_Base_X_For', 'movement': 'L_Arm_Z_Back'}",localisation,"['localisation', 'movement']",L_Base_X_For,1,2,robot,1,False,False,"['robot_stimuli\\R_Arm_X_For.mp4', 'robot_stimuli\\L_Base_X_For.mp4', 'robot_stimuli\\L_Arm_Z_Back.mp4', 'robot_stimuli\\L_Arm_X_Back.mp4']",robot_stimuli\L_Base_X_For.mp4,9,,,,,,,,,,,,,0,11,11,11,,,,,,,,,,,,,,,,,,,884.1202761,886.1944975000001,,,900.911615,900.911615,900.911615,3,9.649364899999853,910.5870032,910.5870032,910.5870032,910.5870032,910.5870032,910.5870032,910.5870032,910.5870032,None,None,None,,,,,,,,,,884.1202761,884.1202761,None,,897.277259,884.1202761,884.1202761,,,9,001,2024-07-25_10h33.03.948,robot_cogshifting_sign,2022.2.5,59.99761209504396,
"['R_Base_Y_For', 'R_Base_X_Back', 'L_Base_X_For', 'R_Torso_X_Back']","{'laterality': 'L_Base_X_For', 'localisation': 'R_Torso_X_Back', 'movement': 'R_Base_Y_For'}",localisation,"['laterality', 'localisation']",R_Torso_X_Back,3,2,robot,1,False,False,"['robot_stimuli\\R_Base_Y_For.mp4', 'robot_stimuli\\R_Base_X_Back.mp4', 'robot_stimuli\\L_Base_X_For.mp4', 'robot_stimuli\\R_Torso_X_Back.mp4']",robot_stimuli\R_Torso_X_Back.mp4,9,,,,,,,,,,,,,0,12,12,12,,,,,,,,,,,,,,,,,,,910.5870032,912.6607243999999,,,927.4271712,927.4271712,927.4271712,4,2.140427799999941,929.586904,929.586904,929.586904,929.586904,929.586904,929.586904,929.586904,929.586904,None,None,None,,,,,,,,,,910.5870032,910.5870032,None,,923.7845348000001,910.5870032,910.5870032,,,9,001,2024-07-25_10h33.03.948,robot_cogshifting_sign,2022.2.5,59.99761209504396,
"['L_Head_Y_Back', 'R_Base_Y_Back', 'L_Base_Z_For', 'L_Base_Y_For']","{'laterality': 'R_Base_Y_Back', 'localisation': 'L_Head_Y_Back', 'movement': 'L_Base_Z_For'}",movement,"['laterality', 'movement']",L_Base_Z_For,2,2,robot,1,False,False,"['robot_stimuli\\L_Head_Y_Back.mp4', 'robot_stimuli\\R_Base_Y_Back.mp4', 'robot_stimuli\\L_Base_Z_For.mp4', 'robot_stimuli\\L_Base_Y_For.mp4']",robot_stimuli\L_Base_Z_For.mp4,9,,,,,,,,,,,,,0,13,13,13,,,,,,,,,,,,,,,,,,,929.586904,931.6615171999999,,,946.3801888,946.3801888,946.3801888,3,15.99610290000004,962.4036423,962.4036423,962.4036423,962.4036423,962.4036423,962.4036423,962.4036423,962.4036423,None,None,None,,,,,,,,,,929.586904,929.586904,None,,942.8325584000002,929.586904,929.586904,,,9,001,2024-07-25_10h33.03.948,robot_cogshifting_sign,2022.2.5,59.99761209504396,
"['L_Arm_X_Back', 'L_Arm_Y_For', 'R_Arm_X_Back', 'L_Torso_X_Back']","{'laterality': 'R_Arm_X_Back', 'localisation': 'L_Torso_X_Back', 'movement': 'L_Arm_Y_For'}",laterality,"['laterality', 'movement']",R_Arm_X_Back,2,2,robot,1,False,False,"['robot_stimuli\\L_Arm_X_Back.mp4', 'robot_stimuli\\L_Arm_Y_For.mp4', 'robot_stimuli\\R_Arm_X_Back.mp4', 'robot_stimuli\\L_Torso_X_Back.mp4']",robot_stimuli\R_Arm_X_Back.mp4,9,,,,,,,,,,,,,0,14,14,14,,,,,,,,,,,,,,,,,,,962.4036423,964.4792468,,,979.2788584,979.2788584,979.2788584,3,1.2492873999999006,980.5535923,980.5535923,980.5535923,980.5535923,980.5535923,980.5535923,980.5535923,980.5535923,None,None,None,,,,,,,,,,962.4036423,962.4036423,None,,975.6334849,962.4036423,962.4036423,,,9,001,2024-07-25_10h33.03.948,robot_cogshifting_sign,2022.2.5,59.99761209504396,
"['L_Head_Y_For', 'L_Head_X_Back', 'L_Base_Y_Back', 'R_Head_Y_For']","{'laterality': 'R_Head_Y_For', 'localisation': 'L_Base_Y_Back', 'movement': 'L_Head_X_Back'}",localisation,"['laterality', 'localisation']",L_Base_Y_Back,2,2,robot,1,False,False,"['robot_stimuli\\L_Head_Y_For.mp4', 'robot_stimuli\\L_Head_X_Back.mp4', 'robot_stimuli\\L_Base_Y_Back.mp4', 'robot_stimuli\\R_Head_Y_For.mp4']",robot_stimuli\L_Base_Y_Back.mp4,9,,,,,,,,,,,,,0,15,15,15,,,,,,,,,,,,,,,,,,,980.5535923,982.629238,,,997.3529522000001,997.3529522000001,997.3529522000001,3,2.528604199999961,999.9037227000001,999.9037227000001,999.9037227000001,999.9037227000001,999.9037227000001,999.9037227000001,999.9037227000001,999.9037227000001,None,None,None,,,,,,,,,,980.5535923,980.5535923,None,,993.7136520000001,980.5535923,980.5535923,,,9,001,2024-07-25_10h33.03.948,robot_cogshifting_sign,2022.2.5,59.99761209504396,
"['R_Arm_X_For', 'L_Arm_X_Back', 'L_Base_X_For', 'L_Arm_Z_Back']","{'laterality': 'R_Arm_X_For', 'localisation': 'L_Base_X_For', 'movement': 'L_Arm_Z_Back'}",movement,"['localisation', 'movement']",L_Arm_Z_Back,3,2,robot,1,False,False,"['robot_stimuli\\R_Arm_X_For.mp4', 'robot_stimuli\\L_Arm_X_Back.mp4', 'robot_stimuli\\L_Base_X_For.mp4', 'robot_stimuli\\L_Arm_Z_Back.mp4']",robot_stimuli\L_Arm_Z_Back.mp4,9,,,,,,,,,,,,,0,16,16,16,,,,,,,,,,,,,,,,,,,999.9037227000001,1001.9929905000001,,,1016.7088696000001,1016.7088696000001,1016.7088696000001,3,4.859829200000092,1021.5865914000001,1021.5865914000001,1021.5865914000001,1021.5865914000001,1021.5865914000001,1021.5865914000001,1021.5865914000001,1021.5865914000001,None,None,None,,,,,,,,,,999.9037227000001,999.9037227000001,None,,1013.0747904,999.9037227000001,999.9037227000001,,,9,001,2024-07-25_10h33.03.948,robot_cogshifting_sign,2022.2.5,59.99761209504396,
"['L_Head_Y_Back', 'R_Arm_Y_For', 'R_Head_X_For', 'R_Head_Y_Back']","{'laterality': 'L_Head_Y_Back', 'localisation': 'R_Arm_Y_For', 'movement': 'R_Head_X_For'}",laterality,"['laterality', 'localisation']",L_Head_Y_Back,0,2,robot,1,False,True,"['robot_stimuli\\L_Head_Y_Back.mp4', 'robot_stimuli\\R_Arm_Y_For.mp4', 'robot_stimuli\\R_Head_X_For.mp4', 'robot_stimuli\\R_Head_Y_Back.mp4']",robot_stimuli\L_Head_Y_Back.mp4,9,,,,,,,,,,,,,0,17,17,17,,,,,,,,,,,,,,,,,,,1021.5865914000001,1023.6619843000001,,,1038.3254752,1038.3254752,1038.3254752,1,4.82682200000005,1043.1954620000001,1047.5937434,1043.1954620000001,1047.5937434,1043.1954620000001,1047.5937434,1043.1954620000001,1047.5937434,45.27777777777778,3.3909724000000097,space,,,4.333298099999922,,,,,,,1021.5865914000001,1021.5865914000001,None,,1034.6895792,1021.5865914000001,1021.5865914000001,,,9,001,2024-07-25_10h33.03.948,robot_cogshifting_sign,2022.2.5,59.99761209504396,
"['R_Arm_X_Back', 'L_Arm_X_Back', 'L_Head_X_Back', 'L_Arm_Z_Back']","{'laterality': 'R_Arm_X_Back', 'localisation': 'L_Head_X_Back', 'movement': 'L_Arm_Z_Back'}",laterality,"['laterality', 'localisation', 'movement']",R_Arm_X_Back,0,3,robot,1,True,False,"['robot_stimuli\\R_Arm_X_Back.mp4', 'robot_stimuli\\L_Arm_X_Back.mp4', 'robot_stimuli\\L_Head_X_Back.mp4', 'robot_stimuli\\L_Arm_Z_Back.mp4']",robot_stimuli\R_Arm_X_Back.mp4,9,,,,,,,,,,,,,0,18,18,18,,,,,,,,,,,,,,,,,,,1054.1371669,1056.2133865,,,1071.0085719,1071.0085719,1071.0085719,2,0.8798446999999783,1071.9203824,1071.9203824,1071.9203824,1071.9203824,1071.9203824,1071.9203824,1071.9203824,1071.9203824,None,None,None,,,,,,,,,,1047.5937434,1047.5937434,space,6.52634879999988,1067.3777809,,,,,9,001,2024-07-25_10h33.03.948,robot_cogshifting_sign,2022.2.5,59.99761209504396,
"['L_Base_X_Back', 'R_Base_X_For', 'L_Head_X_Back', 'L_Base_Y_For']","{'laterality': 'R_Base_X_For', 'localisation': 'L_Head_X_Back', 'movement': 'L_Base_Y_For'}",localisation,"['laterality', 'localisation', 'movement']",L_Head_X_Back,2,3,robot,1,False,False,"['robot_stimuli\\L_Base_X_Back.mp4', 'robot_stimuli\\R_Base_X_For.mp4', 'robot_stimuli\\L_Head_X_Back.mp4', 'robot_stimuli\\L_Base_Y_For.mp4']",robot_stimuli\L_Head_X_Back.mp4,9,,,,,,,,,,,,,0,19,19,19,,,,,,,,,,,,,,,,,,,1071.9203824,1073.9939932,,,1088.6134012,1088.6134012,1088.6134012,3,1.9787307999998234,1090.62058,1090.62058,1090.62058,1090.62058,1090.62058,1090.62058,1090.62058,1090.62058,None,None,None,,,,,,,,,,1071.9203824,1071.9203824,None,,1085.0663646,1071.9203824,1071.9203824,,,9,001,2024-07-25_10h33.03.948,robot_cogshifting_sign,2022.2.5,59.99761209504396,
"['R_Base_Y_Back', 'R_Arm_Y_Back', 'L_Arm_Y_Back', 'R_Arm_Z_For']","{'laterality': 'L_Arm_Y_Back', 'localisation': 'R_Base_Y_Back', 'movement': 'R_Arm_Z_For'}",movement,"['laterality', 'localisation', 'movement']",R_Arm_Z_For,3,3,robot,1,False,False,"['robot_stimuli\\R_Base_Y_Back.mp4', 'robot_stimuli\\R_Arm_Y_Back.mp4', 'robot_stimuli\\L_Arm_Y_Back.mp4', 'robot_stimuli\\R_Arm_Z_For.mp4']",robot_stimuli\R_Arm_Z_For.mp4,9,,,,,,,,,,,,,0,20,20,20,,,,,,,,,,,,,,,,,,,1090.62058,1092.7107425000002,,,1107.5250379000001,1107.5250379000001,1107.5250379000001,4,1.1237878000000023,1108.6706372,1108.6706372,1108.6706372,1108.6706372,1108.6706372,1108.6706372,1108.6706372,1108.6706372,None,None,None,,,,,,,,,,1090.62058,1090.62058,None,,1103.8810417,1090.62058,1090.62058,,,9,001,2024-07-25_10h33.03.948,robot_cogshifting_sign,2022.2.5,59.99761209504396,
"['R_Torso_Y_Back', 'R_Base_Y_Back', 'R_Torso_Z_For', 'L_Torso_Y_For']","{'laterality': 'L_Torso_Y_For', 'localisation': 'R_Base_Y_Back', 'movement': 'R_Torso_Z_For'}",movement,"['laterality', 'localisation', 'movement']",R_Torso_Z_For,2,3,robot,1,False,False,"['robot_stimuli\\R_Torso_Y_Back.mp4', 'robot_stimuli\\R_Base_Y_Back.mp4', 'robot_stimuli\\R_Torso_Z_For.mp4', 'robot_stimuli\\L_Torso_Y_For.mp4']",robot_stimuli\R_Torso_Z_For.mp4,9,,,,,,,,,,,,,0,21,21,21,,,,,,,,,,,,,,,,,,,1108.6706372,1110.7411723,,,1125.5537926,1125.5537926,1125.5537926,3,3.5344181999999478,1129.120664,1129.120664,1129.120664,1129.120664,1129.120664,1129.120664,1129.120664,1129.120664,None,None,None,,,,,,,,,,1108.6706372,1108.6706372,None,,1121.9311715000001,1108.6706372,1108.6706372,,,9,001,2024-07-25_10h33.03.948,robot_cogshifting_sign,2022.2.5,59.99761209504396,
"['R_Arm_Y_For', 'R_Head_Z_Back', 'L_Head_Y_For', 'R_Head_Y_For']","{'laterality': 'L_Head_Y_For', 'localisation': 'R_Arm_Y_For', 'movement': 'R_Head_Z_Back'}",laterality,"['laterality', 'localisation', 'movement']",L_Head_Y_For,2,3,robot,1,False,False,"['robot_stimuli\\R_Arm_Y_For.mp4', 'robot_stimuli\\R_Head_Z_Back.mp4', 'robot_stimuli\\L_Head_Y_For.mp4', 'robot_stimuli\\R_Head_Y_For.mp4']",robot_stimuli\L_Head_Y_For.mp4,9,,,,,,,,,,,,,0,22,22,22,,,,,,,,,,,,,,,,,,,1129.120664,1131.1949048000001,,,1145.8807531,1145.8807531,1145.8807531,3,3.816465599999731,1149.7205942,1149.7205942,1149.7205942,1149.7205942,1149.7205942,1149.7205942,1149.7205942,1149.7205942,None,None,None,,,,,,,,,,1129.120664,1129.120664,None,,1142.2361929,1129.120664,1129.120664,,,9,001,2024-07-25_10h33.03.948,robot_cogshifting_sign,2022.2.5,59.99761209504396,
"['L_Head_Z_For', 'R_Torso_Z_For', 'R_Head_Z_Back', 'R_Head_Y_For']","{'laterality': 'L_Head_Z_For', 'localisation': 'R_Torso_Z_For', 'movement': 'R_Head_Y_For'}",movement,"['laterality', 'localisation', 'movement']",R_Head_Y_For,3,3,robot,1,False,False,"['robot_stimuli\\L_Head_Z_For.mp4', 'robot_stimuli\\R_Torso_Z_For.mp4', 'robot_stimuli\\R_Head_Z_Back.mp4', 'robot_stimuli\\R_Head_Y_For.mp4']",robot_stimuli\R_Head_Y_For.mp4,9,,,,,,,,,,,,,0,23,23,23,,,,,,,,,,,,,,,,,,,1149.7205942,1151.793908,,,1166.6135949,1166.6135949,1166.6135949,1,5.7869329999999195,1172.4205121,1172.4205121,1172.4205121,1172.4205121,1172.4205121,1172.4205121,1172.4205121,1172.4205121,None,None,None,,,,,,,,,,1149.7205942,1149.7205942,None,,1162.9784102,1149.7205942,1149.7205942,,,9,001,2024-07-25_10h33.03.948,robot_cogshifting_sign,2022.2.5,59.99761209504396,
"['R_Head_Y_Back', 'R_Arm_Y_Back', 'L_Arm_Y_For', 'R_Arm_Z_For']","{'laterality': 'L_Arm_Y_For', 'localisation': 'R_Head_Y_Back', 'movement': 'R_Arm_Z_For'}",localisation,"['laterality', 'localisation', 'movement']",R_Head_Y_Back,0,3,robot,1,False,False,"['robot_stimuli\\R_Head_Y_Back.mp4', 'robot_stimuli\\R_Arm_Y_Back.mp4', 'robot_stimuli\\L_Arm_Y_For.mp4', 'robot_stimuli\\R_Arm_Z_For.mp4']",robot_stimuli\R_Head_Y_Back.mp4,9,,,,,,,,,,,,,0,24,24,24,,,,,,,,,,,,,,,,,,,1172.4205121,1174.490836,,,1189.289639,1189.289639,1189.289639,1,1.654500100000007,1190.9705513000001,1190.9705513000001,1190.9705513000001,1190.9705513000001,1190.9705513000001,1190.9705513000001,1190.9705513000001,1190.9705513000001,None,None,None,,,,,,,,,,1172.4205121,1172.4205121,None,,1185.6605874,1172.4205121,1172.4205121,,,9,001,2024-07-25_10h33.03.948,robot_cogshifting_sign,2022.2.5,59.99761209504396,
"['L_Arm_Y_Back', 'R_Arm_Y_For', 'L_Head_Y_Back', 'L_Arm_X_For']","{'laterality': 'R_Arm_Y_For', 'localisation': 'L_Head_Y_Back', 'movement': 'L_Arm_X_For'}",laterality,"['laterality', 'localisation', 'movement']",R_Arm_Y_For,1,3,robot,1,False,False,"['robot_stimuli\\L_Arm_Y_Back.mp4', 'robot_stimuli\\R_Arm_Y_For.mp4', 'robot_stimuli\\L_Head_Y_Back.mp4', 'robot_stimuli\\L_Arm_X_For.mp4']",robot_stimuli\R_Arm_Y_For.mp4,9,,,,,,,,,,,,,0,25,25,25,,,,,,,,,,,,,,,,,,,1190.9705513000001,1193.0448784,,,1207.7110174,1207.7110174,1207.7110174,1,4.384635800000126,1212.1206446,1212.1206446,1212.1206446,1212.1206446,1212.1206446,1212.1206446,1212.1206446,1212.1206446,None,None,None,,,,,,,,,,1190.9705513000001,1190.9705513000001,None,,1204.0727083,1190.9705513000001,1190.9705513000001,,,9,001,2024-07-25_10h33.03.948,robot_cogshifting_sign,2022.2.5,59.99761209504396,
"['L_Head_Y_For', 'L_Head_Z_Back', 'R_Head_Z_Back', 'L_Base_Z_For']","{'laterality': 'R_Head_Z_Back', 'localisation': 'L_Base_Z_For', 'movement': 'L_Head_Y_For'}",localisation,"['laterality', 'localisation', 'movement']",L_Base_Z_For,3,3,robot,1,False,True,"['robot_stimuli\\L_Head_Y_For.mp4', 'robot_stimuli\\L_Head_Z_Back.mp4', 'robot_stimuli\\R_Head_Z_Back.mp4', 'robot_stimuli\\L_Base_Z_For.mp4']",robot_stimuli\L_Base_Z_For.mp4,9,,,,,,,,,,,,,0,26,26,26,,,,,,,,,,,,,,,,,,,1212.1206446,1214.1947045,,,1228.9919036000001,1228.9919036000001,1228.9919036000001,4,6.256748200000004,1235.2959051,1239.4687318000001,1235.2959051,1239.4687318000001,1235.2959051,1239.4687318000001,1235.2959051,1239.4687318000001,50.833333333333336,3.1731922000001305,space,,,4.111426199999926,,,,,,,1212.1206446,1212.1206446,None,,1225.3566903,1212.1206446,1212.1206446,,,9,001,2024-07-25_10h33.03.948,robot_cogshifting_sign,2022.2.5,59.99761209504396,
"['red_top_H_0', 'blue_bottom_R_0', 'blue_top_N_0', 'blue_top_T_45']","{'color': 'red_top_H_0', 'position': 'blue_bottom_R_0', 'orientation': 'blue_top_T_45'}",color,['color'],red_top_H_0,0,1,letter,2,True,False,"['robot_stimuli\\\\filler.mp4', 'robot_stimuli\\\\filler.mp4', 'robot_stimuli\\\\filler.mp4', 'robot_stimuli\\\\filler.mp4']",robot_stimuli\\filler.mp4,9,,,,,,,,,,,,,0,27,27,27,,,,,,,,,,,,,,,,,,,1242.9039359,1244.9611372,,,1253.8516557,1253.8516557,1253.8516557,1,0.5736958000000527,1254.4540649,1254.4540649,1254.4540649,1254.4540649,1254.4540649,1254.4540649,1254.4540649,1254.4540649,None,None,None,,,,,,,,,,1239.4687318000001,1239.4687318000001,space,3.411887399999898,,,,1251.6384687,1253.8516557,9,001,2024-07-25_10h33.03.948,robot_cogshifting_sign,2022.2.5,59.99761209504396,
"['blue_left_J_45', 'blue_right_Q_45', 'blue_left_N_0', 'red_left_K_45']","{'color': 'red_left_K_45', 'position': 'blue_right_Q_45', 'orientation': 'blue_left_N_0'}",color,['color'],red_left_K_45,3,1,letter,2,False,False,"['robot_stimuli\\\\filler.mp4', 'robot_stimuli\\\\filler.mp4', 'robot_stimuli\\\\filler.mp4', 'robot_stimuli\\\\filler.mp4']",robot_stimuli\\filler.mp4,9,,,,,,,,,,,,,0,28,28,28,,,,,,,,,,,,,,,,,,,1254.4540649,1256.5063724000001,,,1265.4111598,1265.4111598,1265.4111598,4,0.49345079999994823,1265.9375465,1265.9375465,1265.9375465,1265.9375465,1265.9375465,1265.9375465,1265.9375465,1265.9375465,None,None,None,,,,,,,,,,1254.4540649,1254.4540649,None,,,1254.4540649,1254.4540649,1263.3855752,1265.4111598,9,001,2024-07-25_10h33.03.948,robot_cogshifting_sign,2022.2.5,59.99761209504396,
"['red_left_W_0', 'red_left_S_45', 'blue_left_F_45', 'red_right_D_45']","{'color': 'blue_left_F_45', 'position': 'red_right_D_45', 'orientation': 'red_left_W_0'}",orientation,['orientation'],red_left_W_0,0,1,letter,2,False,False,"['robot_stimuli\\\\filler.mp4', 'robot_stimuli\\\\filler.mp4', 'robot_stimuli\\\\filler.mp4', 'robot_stimuli\\\\filler.mp4']",robot_stimuli\\filler.mp4,9,,,,,,,,,,,,,0,29,29,29,,,,,,,,,,,,,,,,,,,1265.9375465,1268.0000677,,,1276.9131307,1276.9131307,1276.9131307,1,2.311733399999923,1279.2538498000001,1279.2538498000001,1279.2538498000001,1279.2538498000001,1279.2538498000001,1279.2538498000001,1279.2538498000001,1279.2538498000001,None,None,None,,,,,,,,,,1265.9375465,1265.9375465,None,,,1265.9375465,1265.9375465,1274.6956254000002,1276.9131307,9,001,2024-07-25_10h33.03.948,robot_cogshifting_sign,2022.2.5,59.99761209504396,
"['red_right_N_45', 'blue_right_S_0', 'blue_right_P_45', 'blue_top_L_45']","{'color': 'red_right_N_45', 'position': 'blue_top_L_45', 'orientation': 'blue_right_S_0'}",position,['position'],blue_top_L_45,3,1,letter,2,False,False,"['robot_stimuli\\\\filler.mp4', 'robot_stimuli\\\\filler.mp4', 'robot_stimuli\\\\filler.mp4', 'robot_stimuli\\\\filler.mp4']",robot_stimuli\\filler.mp4,9,,,,,,,,,,,,,0,30,30,30,,,,,,,,,,,,,,,,,,,1279.2538498000001,1281.3102947,,,1289.9844494000001,1289.9844494000001,1289.9844494000001,4,0.3756017999999699,1290.3873585000001,1290.3873585000001,1290.3873585000001,1290.3873585000001,1290.3873585000001,1290.3873585000001,1290.3873585000001,1290.3873585000001,None,None,None,,,,,,,,,,1279.2538498000001,1279.2538498000001,None,,,1279.2538498000001,1279.2538498000001,1287.7722789,1289.9844494000001,9,001,2024-07-25_10h33.03.948,robot_cogshifting_sign,2022.2.5,59.99761209504396,
"['blue_top_J_45', 'blue_top_F_0', 'blue_bottom_J_0', 'red_top_S_0']","{'color': 'red_top_S_0', 'position': 'blue_bottom_J_0', 'orientation': 'blue_top_J_45'}",color,['color'],red_top_S_0,3,1,letter,2,False,False,"['robot_stimuli\\\\filler.mp4', 'robot_stimuli\\\\filler.mp4', 'robot_stimuli\\\\filler.mp4', 'robot_stimuli\\\\filler.mp4']",robot_stimuli\\filler.mp4,9,,,,,,,,,,,,,0,31,31,31,,,,,,,,,,,,,,,,,,,1290.3873585000001,1292.4511981,,,1301.3470926,1301.3470926,1301.3470926,4,1.1255074999999692,1302.5042027,1302.5042027,1302.5042027,1302.5042027,1302.5042027,1302.5042027,1302.5042027,1302.5042027,None,None,None,,,,,,,,,,1290.3873585000001,1290.3873585000001,None,,,1290.3873585000001,1290.3873585000001,1299.1264296,1301.3470926,9,001,2024-07-25_10h33.03.948,robot_cogshifting_sign,2022.2.5,59.99761209504396,
"['blue_right_L_0', 'blue_right_B_45', 'blue_top_V_0', 'red_right_Q_0']","{'color': 'red_right_Q_0', 'position': 'blue_top_V_0', 'orientation': 'blue_right_B_45'}",orientation,['orientation'],blue_right_B_45,1,1,letter,2,False,False,"['robot_stimuli\\\\filler.mp4', 'robot_stimuli\\\\filler.mp4', 'robot_stimuli\\\\filler.mp4', 'robot_stimuli\\\\filler.mp4']",robot_stimuli\\filler.mp4,9,,,,,,,,,,,,,0,32,32,32,,,,,,,,,,,,,,,,,,,1302.5042027,1304.5595136,,,1313.4369073,1313.4369073,1313.4369073,2,0.5715674999997304,1314.037201,1314.037201,1314.037201,1314.037201,1314.037201,1314.037201,1314.037201,1314.037201,None,None,None,,,,,,,,,,1302.5042027,1302.5042027,None,,,1302.5042027,1302.5042027,1311.2251706,1313.4369073,9,001,2024-07-25_10h33.03.948,robot_cogshifting_sign,2022.2.5,59.99761209504396,
"['blue_right_Z_45', 'blue_bottom_J_45', 'red_bottom_H_45', 'blue_bottom_D_0']","{'color': 'red_bottom_H_45', 'position': 'blue_right_Z_45', 'orientation': 'blue_bottom_D_0'}",position,['position'],blue_right_Z_45,0,1,letter,2,False,False,"['robot_stimuli\\\\filler.mp4', 'robot_stimuli\\\\filler.mp4', 'robot_stimuli\\\\filler.mp4', 'robot_stimuli\\\\filler.mp4']",robot_stimuli\\filler.mp4,9,,,,,,,,,,,,,0,33,33,33,,,,,,,,,,,,,,,,,,,1314.037201,1316.0967441,,,1325.2044857,1325.2044857,1325.2044857,1,3.1483644999999,1328.370566,1328.370566,1328.370566,1328.370566,1328.370566,1328.370566,1328.370566,1328.370566,None,None,None,,,,,,,,,,1314.037201,1314.037201,None,,,1314.037201,1314.037201,1322.9775987,1325.2044857,9,001,2024-07-25_10h33.03.948,robot_cogshifting_sign,2022.2.5,59.99761209504396,
"['blue_bottom_F_0', 'blue_right_R_45', 'blue_right_P_0', 'red_right_J_0']","{'color': 'red_right_J_0', 'position': 'blue_bottom_F_0', 'orientation': 'blue_right_R_45'}",orientation,['orientation'],blue_right_R_45,1,1,letter,2,False,False,"['robot_stimuli\\\\filler.mp4', 'robot_stimuli\\\\filler.mp4', 'robot_stimuli\\\\filler.mp4', 'robot_stimuli\\\\filler.mp4']",robot_stimuli\\filler.mp4,9,,,,,,,,,,,,,0,34,34,34,,,,,,,,,,,,,,,,,,,1328.370566,1330.427342,,,1339.3014958,1339.3014958,1339.3014958,2,1.4019097000000897,1340.7214346,1340.7214346,1340.7214346,1340.7214346,1340.7214346,1340.7214346,1340.7214346,1340.7214346,None,None,None,,,,,,,,,,1328.370566,1328.370566,None,,,1328.370566,1328.370566,1337.0904804,1339.3014958,9,001,2024-07-25_10h33.03.948,robot_cogshifting_sign,2022.2.5,59.99761209504396,
"['blue_bottom_H_0', 'red_right_K_0', 'red_bottom_N_45', 'red_bottom_M_0']","{'color': 'blue_bottom_H_0', 'position': 'red_right_K_0', 'orientation': 'red_bottom_N_45'}",position,['position'],red_right_K_0,1,1,letter,2,False,True,"['robot_stimuli\\\\filler.mp4', 'robot_stimuli\\\\filler.mp4', 'robot_stimuli\\\\filler.mp4', 'robot_stimuli\\\\filler.mp4']",robot_stimuli\\filler.mp4,9,,,,,,,,,,,,,0,35,35,35,,,,,,,,,,,,,,,,,,,1340.7214346,1342.7737877,,,1351.2484477,1351.2484477,1351.2484477,2,1.431506499999898,1352.7299822,1359.7150063000001,1352.7299822,1359.7150063000001,1352.7299822,1359.7150063000001,1352.7299822,1359.7150063000001,11.790123456790116,6.3748805999998694,space,,,6.925982099999885,,,,,,,1340.7214346,1340.7214346,None,,,1340.7214346,1340.7214346,1349.2351265,1351.2484477,9,001,2024-07-25_10h33.03.948,robot_cogshifting_sign,2022.2.5,59.99761209504396,
"['blue_left_X_0', 'red_left_P_0', 'blue_bottom_W_0', 'blue_left_Z_45']","{'color': 'red_left_P_0', 'position': 'blue_bottom_W_0', 'orientation': 'blue_left_Z_45'}",color,"['color', 'position']",red_left_P_0,1,2,letter,2,True,False,"['robot_stimuli\\\\filler.mp4', 'robot_stimuli\\\\filler.mp4', 'robot_stimuli\\\\filler.mp4', 'robot_stimuli\\\\filler.mp4']",robot_stimuli\\filler.mp4,9,,,,,,,,,,,,,0,36,36,36,,,,,,,,,,,,,,,,,,,1362.0539717000001,1364.1174446,,,1372.7966967,1372.7966967,1372.7966967,2,1.8195248000000106,1374.6376614,1374.6376614,1374.6376614,1374.6376614,1374.6376614,1374.6376614,1374.6376614,1374.6376614,None,None,None,,,,,,,,,,1359.7150063000001,1359.7150063000001,space,2.3101532999999677,,,,1370.5758623000002,1372.7966967,9,001,2024-07-25_10h33.03.948,robot_cogshifting_sign,2022.2.5,59.99761209504396,
"['red_left_Z_45', 'blue_left_V_0', 'blue_top_V_45', 'blue_left_G_45']","{'color': 'red_left_Z_45', 'position': 'blue_top_V_45', 'orientation': 'blue_left_V_0'}",orientation,"['color', 'orientation']",blue_left_V_0,1,2,letter,2,False,False,"['robot_stimuli\\\\filler.mp4', 'robot_stimuli\\\\filler.mp4', 'robot_stimuli\\\\filler.mp4', 'robot_stimuli\\\\filler.mp4']",robot_stimuli\\filler.mp4,9,,,,,,,,,,,,,0,37,37,37,,,,,,,,,,,,,,,,,,,1374.6376614,1376.6908293000001,,,1385.563748,1385.563748,1385.563748,2,1.661125400000003,1387.2543594,1387.2543594,1387.2543594,1387.2543594,1387.2543594,1387.2543594,1387.2543594,1387.2543594,None,None,None,,,,,,,,,,1374.6376614,1374.6376614,None,,,1374.6376614,1374.6376614,1383.5527926,1385.563748,9,001,2024-07-25_10h33.03.948,robot_cogshifting_sign,2022.2.5,59.99761209504396,
"['blue_left_S_0', 'blue_right_G_45', 'red_left_H_45', 'blue_left_M_45']","{'color': 'red_left_H_45', 'position': 'blue_right_G_45', 'orientation': 'blue_left_S_0'}",orientation,"['orientation', 'position']",blue_left_S_0,0,2,letter,2,False,False,"['robot_stimuli\\\\filler.mp4', 'robot_stimuli\\\\filler.mp4', 'robot_stimuli\\\\filler.mp4', 'robot_stimuli\\\\filler.mp4']",robot_stimuli\\filler.mp4,9,,,,,,,,,,,,,0,38,38,38,,,,,,,,,,,,,,,,,,,1387.2543594,1389.3121346,,,1397.7941442000001,1397.7941442000001,1397.7941442000001,1,9.845890199999815,1407.6707906000001,1407.6707906000001,1407.6707906000001,1407.6707906000001,1407.6707906000001,1407.6707906000001,1407.6707906000001,1407.6707906000001,None,None,None,,,,,,,,,,1387.2543594,1387.2543594,None,,,1387.2543594,1387.2543594,1395.779553,1397.7941442000001,9,001,2024-07-25_10h33.03.948,robot_cogshifting_sign,2022.2.5,59.99761209504396,
"['blue_bottom_R_0', 'blue_right_F_45', 'red_right_J_0', 'blue_right_R_0']","{'color': 'red_right_J_0', 'position': 'blue_bottom_R_0', 'orientation': 'blue_right_F_45'}",position,"['color', 'position']",blue_bottom_R_0,0,2,letter,2,False,False,"['robot_stimuli\\\\filler.mp4', 'robot_stimuli\\\\filler.mp4', 'robot_stimuli\\\\filler.mp4', 'robot_stimuli\\\\filler.mp4']",robot_stimuli\\filler.mp4,9,,,,,,,,,,,,,0,39,39,39,,,,,,,,,,,,,,,,,,,1407.6707906000001,1409.7285669,,,1418.6124412000001,1418.6124412000001,1418.6124412000001,1,1.2598403000000076,1419.903984,1419.903984,1419.903984,1419.903984,1419.903984,1419.903984,1419.903984,1419.903984,None,None,None,,,,,,,,,,1407.6707906000001,1407.6707906000001,None,,,1407.6707906000001,1407.6707906000001,1416.3901356000001,1418.6124412000001,9,001,2024-07-25_10h33.03.948,robot_cogshifting_sign,2022.2.5,59.99761209504396,
"['blue_bottom_C_0', 'blue_top_F_0', 'blue_bottom_X_45', 'red_bottom_T_0']","{'color': 'red_bottom_T_0', 'position': 'blue_top_F_0', 'orientation': 'blue_bottom_X_45'}",orientation,"['orientation', 'position']",blue_bottom_X_45,2,2,letter,2,False,False,"['robot_stimuli\\\\filler.mp4', 'robot_stimuli\\\\filler.mp4', 'robot_stimuli\\\\filler.mp4', 'robot_stimuli\\\\filler.mp4']",robot_stimuli\\filler.mp4,9,,,,,,,,,,,,,0,40,40,40,,,,,,,,,,,,,,,,,,,1419.903984,1421.9657789,,,1430.8696198,1430.8696198,1430.8696198,4,2.5469319999997992,1433.4374427,1433.4374427,1433.4374427,1433.4374427,1433.4374427,1433.4374427,1433.4374427,1433.4374427,None,None,None,,,,,,,,,,1419.903984,1419.903984,None,,,1419.903984,1419.903984,1428.8521456,1430.8696198,9,001,2024-07-25_10h33.03.948,robot_cogshifting_sign,2022.2.5,59.99761209504396,
"['blue_top_C_0', 'red_top_J_0', 'blue_top_P_45', 'blue_right_D_0']","{'color': 'red_top_J_0', 'position': 'blue_right_D_0', 'orientation': 'blue_top_P_45'}",position,"['color', 'position']",blue_right_D_0,3,2,letter,2,False,False,"['robot_stimuli\\\\filler.mp4', 'robot_stimuli\\\\filler.mp4', 'robot_stimuli\\\\filler.mp4', 'robot_stimuli\\\\filler.mp4']",robot_stimuli\\filler.mp4,9,,,,,,,,,,,,,0,41,41,41,,,,,,,,,,,,,,,,,,,1433.4374427,1435.4938301,,,1443.9776102,1443.9776102,1443.9776102,4,1.3115593000000558,1445.3206811,1445.3206811,1445.3206811,1445.3206811,1445.3206811,1445.3206811,1445.3206811,1445.3206811,None,None,None,,,,,,,,,,1433.4374427,1433.4374427,None,,,1433.4374427,1433.4374427,1441.9646813,1443.9776102,9,001,2024-07-25_10h33.03.948,robot_cogshifting_sign,2022.2.5,59.99761209504396,
"['blue_top_Q_45', 'blue_right_B_0', 'blue_top_X_0', 'red_top_P_0']","{'color': 'red_top_P_0', 'position': 'blue_right_B_0', 'orientation': 'blue_top_Q_45'}",position,"['orientation', 'position']",blue_right_B_0,1,2,letter,2,False,False,"['robot_stimuli\\\\filler.mp4', 'robot_stimuli\\\\filler.mp4', 'robot_stimuli\\\\filler.mp4', 'robot_stimuli\\\\filler.mp4']",robot_stimuli\\filler.mp4,9,,,,,,,,,,,,,0,42,42,42,,,,,,,,,,,,,,,,,,,1445.3206811,1447.3752299,,,1455.8647094,1455.8647094,1455.8647094,2,3.5358287999998197,1459.420697,1459.420697,1459.420697,1459.420697,1459.420697,1459.420697,1459.420697,1459.420697,None,None,None,,,,,,,,,,1445.3206811,1445.3206811,None,,,1445.3206811,1445.3206811,1453.8480691,1455.8647094,9,001,2024-07-25_10h33.03.948,robot_cogshifting_sign,2022.2.5,59.99761209504396,
"['blue_bottom_D_45', 'red_right_B_45', 'blue_right_P_45', 'blue_right_P_0']","{'color': 'red_right_B_45', 'position': 'blue_bottom_D_45', 'orientation': 'blue_right_P_0'}",color,"['color', 'orientation']",red_right_B_45,1,2,letter,2,False,False,"['robot_stimuli\\\\filler.mp4', 'robot_stimuli\\\\filler.mp4', 'robot_stimuli\\\\filler.mp4', 'robot_stimuli\\\\filler.mp4']",robot_stimuli\\filler.mp4,9,,,,,,,,,,,,,0,43,43,43,,,,,,,,,,,,,,,,,,,1459.420697,1461.497086,,,1470.3655489,1470.3655489,1470.3655489,2,1.4584341999998855,1471.8541318,1471.8541318,1471.8541318,1471.8541318,1471.8541318,1471.8541318,1471.8541318,1471.8541318,None,None,None,,,,,,,,,,1459.420697,1459.420697,None,,,1459.420697,1459.420697,1468.3467914,1470.3655489,9,001,2024-07-25_10h33.03.948,robot_cogshifting_sign,2022.2.5,59.99761209504396,
"['blue_left_L_0', 'red_right_J_0', 'blue_right_P_45', 'blue_right_K_0']","{'color': 'red_right_J_0', 'position': 'blue_left_L_0', 'orientation': 'blue_right_P_45'}",color,"['color', 'orientation']",red_right_J_0,1,2,letter,2,False,True,"['robot_stimuli\\\\filler.mp4', 'robot_stimuli\\\\filler.mp4', 'robot_stimuli\\\\filler.mp4', 'robot_stimuli\\\\filler.mp4']",robot_stimuli\\filler.mp4,9,,,,,,,,,,,,,0,44,44,44,,,,,,,,,,,,,,,,,,,1471.8541318,1473.9133366,,,1482.5879133,1482.5879133,1482.5879133,2,1.7971018999999728,1484.4352259,1487.7537086,1484.4352259,1487.7537086,1484.4352259,1487.7537086,1484.4352259,1487.7537086,20.432098765432094,2.777456499999971,space,,,3.2761157999999,,,,,,,1471.8541318,1471.8541318,None,,,1471.8541318,1471.8541318,1480.3730452,1482.5879133,9,001,2024-07-25_10h33.03.948,robot_cogshifting_sign,2022.2.5,59.99761209504396,
"['red_top_D_0', 'red_top_Q_45', 'blue_top_C_0', 'red_bottom_G_0']","{'color': 'blue_top_C_0', 'position': 'red_bottom_G_0', 'orientation': 'red_top_Q_45'}",position,"['color', 'orientation', 'position']",red_bottom_G_0,3,3,letter,2,True,False,"['robot_stimuli\\\\filler.mp4', 'robot_stimuli\\\\filler.mp4', 'robot_stimuli\\\\filler.mp4', 'robot_stimuli\\\\filler.mp4']",robot_stimuli\\filler.mp4,9,,,,,,,,,,,,,0,45,45,45,,,,,,,,,,,,,,,,,,,1489.5876427,1491.6417981,,,1500.3329736,1500.3329736,1500.3329736,4,2.2917237999998292,1502.6541685,1502.6541685,1502.6541685,1502.6541685,1502.6541685,1502.6541685,1502.6541685,1502.6541685,None,None,None,,,,,,,,,,1487.7537086,1487.7537086,space,1.8142487000000642,,,,1498.3215267,1500.3329736,9,001,2024-07-25_10h33.03.948,robot_cogshifting_sign,2022.2.5,59.99761209504396,
"['blue_right_X_0', 'red_bottom_G_0', 'red_right_R_45', 'red_right_M_0']","{'color': 'blue_right_X_0', 'position': 'red_bottom_G_0', 'orientation': 'red_right_R_45'}",color,"['color', 'orientation', 'position']",blue_right_X_0,0,3,letter,2,False,False,"['robot_stimuli\\\\filler.mp4', 'robot_stimuli\\\\filler.mp4', 'robot_stimuli\\\\filler.mp4', 'robot_stimuli\\\\filler.mp4']",robot_stimuli\\filler.mp4,9,,,,,,,,,,,,,0,46,46,46,,,,,,,,,,,,,,,,,,,1502.6541685,1504.7204757,,,1513.3933811,1513.3933811,1513.3933811,1,3.0620256999998787,1516.4875458000001,1516.4875458000001,1516.4875458000001,1516.4875458000001,1516.4875458000001,1516.4875458000001,1516.4875458000001,1516.4875458000001,None,None,None,,,,,,,,,,1502.6541685,1502.6541685,None,,,1502.6541685,1502.6541685,1511.1726413000001,1513.3933811,9,001,2024-07-25_10h33.03.948,robot_cogshifting_sign,2022.2.5,59.99761209504396,
"['red_bottom_V_0', 'blue_right_M_0', 'red_right_R_45', 'red_right_W_0']","{'color': 'blue_right_M_0', 'position': 'red_bottom_V_0', 'orientation': 'red_right_R_45'}",color,"['color', 'orientation', 'position']",blue_right_M_0,1,3,letter,2,False,False,"['robot_stimuli\\\\filler.mp4', 'robot_stimuli\\\\filler.mp4', 'robot_stimuli\\\\filler.mp4', 'robot_stimuli\\\\filler.mp4']",robot_stimuli\\filler.mp4,9,,,,,,,,,,,,,0,47,47,47,,,,,,,,,,,,,,,,,,,1516.4875458000001,1518.545779,,,1527.2175762,1527.2175762,1527.2175762,2,1.741900199999975,1528.987609,1528.987609,1528.987609,1528.987609,1528.987609,1528.987609,1528.987609,1528.987609,None,None,None,,,,,,,,,,1516.4875458000001,1516.4875458000001,None,,,1516.4875458000001,1516.4875458000001,1525.2032613000001,1527.2175762,9,001,2024-07-25_10h33.03.948,robot_cogshifting_sign,2022.2.5,59.99761209504396,
"['red_bottom_L_0', 'blue_bottom_B_45', 'red_bottom_S_45', 'red_left_L_45']","{'color': 'blue_bottom_B_45', 'position': 'red_left_L_45', 'orientation': 'red_bottom_L_0'}",color,"['color', 'orientation', 'position']",blue_bottom_B_45,1,3,letter,2,False,False,"['robot_stimuli\\\\filler.mp4', 'robot_stimuli\\\\filler.mp4', 'robot_stimuli\\\\filler.mp4', 'robot_stimuli\\\\filler.mp4']",robot_stimuli\\filler.mp4,9,,,,,,,,,,,,,0,48,48,48,,,,,,,,,,,,,,,,,,,1528.987609,1531.0416753,,,1539.9274818000001,1539.9274818000001,1539.9274818000001,2,2.080634499999917,1542.0375517,1542.0375517,1542.0375517,1542.0375517,1542.0375517,1542.0375517,1542.0375517,1542.0375517,None,None,None,,,,,,,,,,1528.987609,1528.987609,None,,,1528.987609,1528.987609,1537.919771,1539.9274818000001,9,001,2024-07-25_10h33.03.948,robot_cogshifting_sign,2022.2.5,59.99761209504396,
"['blue_top_G_0', 'blue_top_W_45', 'blue_left_J_45', 'red_top_K_45']","{'color': 'red_top_K_45', 'position': 'blue_left_J_45', 'orientation': 'blue_top_G_0'}",position,"['color', 'orientation', 'position']",blue_left_J_45,2,3,letter,2,False,False,"['robot_stimuli\\\\filler.mp4', 'robot_stimuli\\\\filler.mp4', 'robot_stimuli\\\\filler.mp4', 'robot_stimuli\\\\filler.mp4']",robot_stimuli\\filler.mp4,9,,,,,,,,,,,,,0,49,49,49,,,,,,,,,,,,,,,,,,,1542.0375517,1544.1029805,,,1552.9871663000001,1552.9871663000001,1552.9871663000001,3,4.9804666999999085,1557.9872375,1557.9872375,1557.9872375,1557.9872375,1557.9872375,1557.9872375,1557.9872375,1557.9872375,None,None,None,,,,,,,,,,1542.0375517,1542.0375517,None,,,1542.0375517,1542.0375517,1550.7729487000001,1552.9871663000001,9,001,2024-07-25_10h33.03.948,robot_cogshifting_sign,2022.2.5,59.99761209504396,
"['blue_right_J_45', 'red_top_V_45', 'red_right_L_0', 'red_right_N_45']","{'color': 'blue_right_J_45', 'position': 'red_top_V_45', 'orientation': 'red_right_L_0'}",position,"['color', 'orientation', 'position']",red_top_V_45,1,3,letter,2,False,False,"['robot_stimuli\\\\filler.mp4', 'robot_stimuli\\\\filler.mp4', 'robot_stimuli\\\\filler.mp4', 'robot_stimuli\\\\filler.mp4']",robot_stimuli\\filler.mp4,9,,,,,,,,,,,,,0,50,50,50,,,,,,,,,,,,,,,,,,,1557.9872375,1560.0445034,,,1568.9411534,1568.9411534,1568.9411534,2,2.314126499999986,1571.2874569,1571.2874569,1571.2874569,1571.2874569,1571.2874569,1571.2874569,1571.2874569,1571.2874569,None,None,None,,,,,,,,,,1557.9872375,1557.9872375,None,,,1557.9872375,1557.9872375,1566.7240143000001,1568.9411534,9,001,2024-07-25_10h33.03.948,robot_cogshifting_sign,2022.2.5,59.99761209504396,
"['red_left_L_0', 'red_right_V_45', 'red_left_Q_45', 'blue_left_J_45']","{'color': 'blue_left_J_45', 'position': 'red_right_V_45', 'orientation': 'red_left_L_0'}",orientation,"['color', 'orientation', 'position']",red_left_L_0,0,3,letter,2,False,False,"['robot_stimuli\\\\filler.mp4', 'robot_stimuli\\\\filler.mp4', 'robot_stimuli\\\\filler.mp4', 'robot_stimuli\\\\filler.mp4']",robot_stimuli\\filler.mp4,9,,,,,,,,,,,,,0,51,51,51,,,,,,,,,,,,,,,,,,,1571.2874569,1573.351355,,,1582.0277118000001,1582.0277118000001,1582.0277118000001,1,2.1636567999999556,1584.220646,1584.220646,1584.220646,1584.220646,1584.220646,1584.220646,1584.220646,1584.220646,None,None,None,,,,,,,,,,1571.2874569,1571.2874569,None,,,1571.2874569,1571.2874569,1580.0001154000001,1582.0277118000001,9,001,2024-07-25_10h33.03.948,robot_cogshifting_sign,2022.2.5,59.99761209504396,
"['red_left_M_45', 'red_top_R_45', 'red_left_W_0', 'blue_left_H_45']","{'color': 'blue_left_H_45', 'position': 'red_top_R_45', 'orientation': 'red_left_W_0'}",orientation,"['color', 'orientation', 'position']",red_left_W_0,2,3,letter,2,False,False,"['robot_stimuli\\\\filler.mp4', 'robot_stimuli\\\\filler.mp4', 'robot_stimuli\\\\filler.mp4', 'robot_stimuli\\\\filler.mp4']",robot_stimuli\\filler.mp4,9,,,,,,,,,,,,,0,52,52,52,,,,,,,,,,,,,,,,,,,1584.220646,1586.2855939,,,1594.9808658,1594.9808658,1594.9808658,3,2.0344109000000685,1597.037475,1597.037475,1597.037475,1597.037475,1597.037475,1597.037475,1597.037475,1597.037475,None,None,None,,,,,,,,,,1584.220646,1584.220646,None,,,1584.220646,1584.220646,1592.7571451000001,1594.9808658,9,001,2024-07-25_10h33.03.948,robot_cogshifting_sign,2022.2.5,59.99761209504396,
"['blue_top_M_0', 'red_top_T_45', 'blue_bottom_K_45', 'blue_top_R_45']","{'color': 'red_top_T_45', 'position': 'blue_bottom_K_45', 'orientation': 'blue_top_M_0'}",orientation,"['color', 'orientation', 'position']",blue_top_M_0,0,3,letter,2,False,True,"['robot_stimuli\\\\filler.mp4', 'robot_stimuli\\\\filler.mp4', 'robot_stimuli\\\\filler.mp4', 'robot_stimuli\\\\filler.mp4']",robot_stimuli\\filler.mp4,9,,,,,,,,,,,,,0,53,53,53,,,,,,,,,,,,,,,,,,,1597.037475,1599.1141989,,,1607.8136899,1607.8136899,1607.8136899,1,8.203553799999838,1616.0638953,1619.7288473,1616.0638953,1619.7288473,1616.0638953,1619.7288473,1616.0638953,1619.7288473,35.092592592592595,2.0998950999999124,space,,,3.6073924000000375,,,,,,,1597.037475,1597.037475,None,,,1597.037475,1597.037475,1605.8015144,1607.8136899,9,001,2024-07-25_10h33.03.948,robot_cogshifting_sign,2022.2.5,59.99761209504396,
"['L_Head_X_For', 'L_Head_Z_For', 'R_Head_X_Back', 'L_Arm_X_Back']","{'laterality': 'R_Head_X_Back', 'localisation': 'L_Arm_X_Back', 'movement': 'L_Head_Z_For'}",localisation,"['laterality', 'localisation', 'movement']",L_Arm_X_Back,3,3,robot,3,True,False,"['robot_stimuli\\L_Head_X_For.mp4', 'robot_stimuli\\L_Head_Z_For.mp4', 'robot_stimuli\\R_Head_X_Back.mp4', 'robot_stimuli\\L_Arm_X_Back.mp4']",robot_stimuli\L_Arm_X_Back.mp4,9,,,,,,,,,,,,,0,54,54,54,,,,,,,,,,,,,,,,,,,1623.0045364,1625.086999,,,1639.8814302,1639.8814302,1639.8814302,4,1.8540720999999962,1641.7543981000001,1641.7543981000001,1641.7543981000001,1641.7543981000001,1641.7543981000001,1641.7543981000001,1641.7543981000001,1641.7543981000001,None,None,None,,,,,,,,,,1619.7288473,1619.7288473,space,3.2553082999998537,1636.2416095,,,,,9,001,2024-07-25_10h33.03.948,robot_cogshifting_sign,2022.2.5,59.99761209504396,
"['R_Head_X_Back', 'R_Head_Y_For', 'R_Torso_X_For', 'L_Head_X_For']","{'laterality': 'L_Head_X_For', 'localisation': 'R_Torso_X_For', 'movement': 'R_Head_Y_For'}",laterality,"['laterality', 'localisation', 'movement']",L_Head_X_For,3,3,robot,3,False,False,"['robot_stimuli\\R_Head_X_Back.mp4', 'robot_stimuli\\R_Head_Y_For.mp4', 'robot_stimuli\\R_Torso_X_For.mp4', 'robot_stimuli\\L_Head_X_For.mp4']",robot_stimuli\L_Head_X_For.mp4,9,,,,,,,,,,,,,0,55,55,55,,,,,,,,,,,,,,,,,,,1641.7543981000001,1643.8292993,,,1658.5633064,1658.5633064,1658.5633064,2,1.3495679999999197,1659.9378863,1659.9378863,1659.9378863,1659.9378863,1659.9378863,1659.9378863,1659.9378863,1659.9378863,None,None,None,,,,,,,,,,1641.7543981000001,1641.7543981000001,None,,1654.9952759,1641.7543981000001,1641.7543981000001,,,9,001,2024-07-25_10h33.03.948,robot_cogshifting_sign,2022.2.5,59.99761209504396,
"['L_Base_X_For', 'R_Base_X_Back', 'R_Base_Y_Back', 'R_Torso_X_Back']","{'laterality': 'L_Base_X_For', 'localisation': 'R_Torso_X_Back', 'movement': 'R_Base_Y_Back'}",localisation,"['laterality', 'localisation', 'movement']",R_Torso_X_Back,3,3,robot,3,False,False,"['robot_stimuli\\L_Base_X_For.mp4', 'robot_stimuli\\R_Base_X_Back.mp4', 'robot_stimuli\\R_Base_Y_Back.mp4', 'robot_stimuli\\R_Torso_X_Back.mp4']",robot_stimuli\R_Torso_X_Back.mp4,9,,,,,,,,,,,,,0,56,56,56,,,,,,,,,,,,,,,,,,,1659.9378863,1662.0098067000001,,,1676.7655362,1676.7655362,1676.7655362,1,7.066512599999953,1683.8546119,1683.8546119,1683.8546119,1683.8546119,1683.8546119,1683.8546119,1683.8546119,1683.8546119,None,None,None,,,,,,,,,,1659.9378863,1659.9378863,None,,1673.1193571000001,1659.9378863,1659.9378863,,,9,001,2024-07-25_10h33.03.948,robot_cogshifting_sign,2022.2.5,59.99761209504396,
"['L_Arm_X_Back', 'R_Arm_X_For', 'L_Base_X_For', 'L_Arm_Z_For']","{'laterality': 'R_Arm_X_For', 'localisation': 'L_Base_X_For', 'movement': 'L_Arm_Z_For'}",movement,"['laterality', 'localisation', 'movement']",L_Arm_Z_For,3,3,robot,3,False,False,"['robot_stimuli\\L_Arm_X_Back.mp4', 'robot_stimuli\\R_Arm_X_For.mp4', 'robot_stimuli\\L_Base_X_For.mp4', 'robot_stimuli\\L_Arm_Z_For.mp4']",robot_stimuli\L_Arm_Z_For.mp4,9,,,,,,,,,,,,,0,57,57,57,,,,,,,,,,,,,,,,,,,1683.8546119,1685.934213,,,1700.6778413,1700.6778413,1700.6778413,4,9.202322799999877,1709.9048116000001,1709.9048116000001,1709.9048116000001,1709.9048116000001,1709.9048116000001,1709.9048116000001,1709.9048116000001,1709.9048116000001,None,None,None,,,,,,,,,,1683.8546119,1683.8546119,None,,1697.0433538,1683.8546119,1683.8546119,,,9,001,2024-07-25_10h33.03.948,robot_cogshifting_sign,2022.2.5,59.99761209504396,
"['L_Arm_Z_For', 'L_Torso_Z_Back', 'R_Arm_Z_For', 'L_Arm_X_Back']","{'laterality': 'R_Arm_Z_For', 'localisation': 'L_Torso_Z_Back', 'movement': 'L_Arm_X_Back'}",localisation,"['laterality', 'localisation', 'movement']",L_Torso_Z_Back,1,3,robot,3,False,False,"['robot_stimuli\\L_Arm_Z_For.mp4', 'robot_stimuli\\L_Torso_Z_Back.mp4', 'robot_stimuli\\R_Arm_Z_For.mp4', 'robot_stimuli\\L_Arm_X_Back.mp4']",robot_stimuli\L_Torso_Z_Back.mp4,9,,,,,,,,,,,,,0,58,58,58,,,,,,,,,,,,,,,,,,,1709.9048116000001,1711.9782642,,,1726.6485645,1726.6485645,1726.6485645,3,10.93609429999998,1737.6045715,1737.6045715,1737.6045715,1737.6045715,1737.6045715,1737.6045715,1737.6045715,1737.6045715,None,None,None,,,,,,,,,,1709.9048116000001,1709.9048116000001,None,,1723.0138024,1709.9048116000001,1709.9048116000001,,,9,001,2024-07-25_10h33.03.948,robot_cogshifting_sign,2022.2.5,59.99761209504396,
"['R_Base_Y_For', 'R_Torso_Y_Back', 'R_Base_X_For', 'L_Base_Y_For']","{'laterality': 'L_Base_Y_For', 'localisation': 'R_Torso_Y_Back', 'movement': 'R_Base_X_For'}",laterality,"['laterality', 'localisation', 'movement']",L_Base_Y_For,3,3,robot,3,False,False,"['robot_stimuli\\R_Base_Y_For.mp4', 'robot_stimuli\\R_Torso_Y_Back.mp4', 'robot_stimuli\\R_Base_X_For.mp4', 'robot_stimuli\\L_Base_Y_For.mp4']",robot_stimuli\L_Base_Y_For.mp4,9,,,,,,,,,,,,,0,59,59,59,,,,,,,,,,,,,,,,,,,1737.6045715,1739.6810638,,,1754.2904198,1754.2904198,1754.2904198,4,2.0299327999999264,1756.3382623,1756.3382623,1756.3382623,1756.3382623,1756.3382623,1756.3382623,1756.3382623,1756.3382623,None,None,None,,,,,,,,,,1737.6045715,1737.6045715,None,,1750.7639712,1737.6045715,1737.6045715,,,9,001,2024-07-25_10h33.03.948,robot_cogshifting_sign,2022.2.5,59.99761209504396,
"['R_Head_Y_Back', 'R_Head_Z_Back', 'L_Head_Z_For', 'R_Base_Z_Back']","{'laterality': 'L_Head_Z_For', 'localisation': 'R_Base_Z_Back', 'movement': 'R_Head_Y_Back'}",movement,"['laterality', 'localisation', 'movement']",R_Head_Y_Back,0,3,robot,3,False,False,"['robot_stimuli\\R_Head_Y_Back.mp4', 'robot_stimuli\\R_Head_Z_Back.mp4', 'robot_stimuli\\L_Head_Z_For.mp4', 'robot_stimuli\\R_Base_Z_Back.mp4']",robot_stimuli\R_Head_Y_Back.mp4,9,,,,,,,,,,,,,0,60,60,60,,,,,,,,,,,,,,,,,,,1756.3382623,1758.410398,,,1773.1135455,1773.1135455,1773.1135455,1,3.0464691999998763,1776.1880127,1776.1880127,1776.1880127,1776.1880127,1776.1880127,1776.1880127,1776.1880127,1776.1880127,None,None,None,,,,,,,,,,1756.3382623,1756.3382623,None,,1769.5784332,1756.3382623,1756.3382623,,,9,001,2024-07-25_10h33.03.948,robot_cogshifting_sign,2022.2.5,59.99761209504396,
"['L_Arm_Z_Back', 'R_Arm_X_Back', 'L_Arm_X_Back', 'L_Head_X_Back']","{'laterality': 'R_Arm_X_Back', 'localisation': 'L_Head_X_Back', 'movement': 'L_Arm_Z_Back'}",movement,"['laterality', 'localisation', 'movement']",L_Arm_Z_Back,0,3,robot,3,False,False,"['robot_stimuli\\L_Arm_Z_Back.mp4', 'robot_stimuli\\R_Arm_X_Back.mp4', 'robot_stimuli\\L_Arm_X_Back.mp4', 'robot_stimuli\\L_Head_X_Back.mp4']",robot_stimuli\L_Arm_Z_Back.mp4,9,,,,,,,,,,,,,0,61,61,61,,,,,,,,,,,,,,,,,,,1776.1880127,1778.258532,,,1793.0634259,1793.0634259,1793.0634259,3,9.984724499999913,1803.0712448,1803.0712448,1803.0712448,1803.0712448,1803.0712448,1803.0712448,1803.0712448,1803.0712448,None,None,None,,,,,,,,,,1776.1880127,1776.1880127,None,,1789.4315835,1776.1880127,1776.1880127,,,9,001,2024-07-25_10h33.03.948,robot_cogshifting_sign,2022.2.5,59.99761209504396,
"['R_Head_Y_Back', 'L_Head_X_Back', 'L_Base_Y_For', 'L_Head_Y_For']","{'laterality': 'R_Head_Y_Back', 'localisation': 'L_Base_Y_For', 'movement': 'L_Head_X_Back'}",laterality,"['laterality', 'localisation', 'movement']",R_Head_Y_Back,0,3,robot,3,False,True,"['robot_stimuli\\R_Head_Y_Back.mp4', 'robot_stimuli\\L_Head_X_Back.mp4', 'robot_stimuli\\L_Base_Y_For.mp4', 'robot_stimuli\\L_Head_Y_For.mp4']",robot_stimuli\R_Head_Y_Back.mp4,9,,,,,,,,,,,,,0,62,62,62,,,,,,,,,,,,,,,,,,,1803.0712448,1805.1469424,,,1819.8493748,1819.8493748,1819.8493748,2,7.750676299999952,1827.6468531,1831.1521773,1827.6468531,1831.1521773,1827.6468531,1831.1521773,1827.6468531,1831.1521773,50.21604938271606,2.6252620000000206,space,,,3.4489514999998505,,,,,,,1803.0712448,1803.0712448,None,,1816.2132103000001,1803.0712448,1803.0712448,,,9,001,2024-07-25_10h33.03.948,robot_cogshifting_sign,2022.2.5,59.99761209504396,
"['L_Base_X_For', 'L_Arm_X_For', 'R_Arm_X_Back', 'L_Arm_Z_For']","{'laterality': 'R_Arm_X_Back', 'localisation': 'L_Base_X_For', 'movement': 'L_Arm_Z_For'}",movement,"['laterality', 'movement']",L_Arm_Z_For,3,2,robot,3,True,False,"['robot_stimuli\\L_Base_X_For.mp4', 'robot_stimuli\\L_Arm_X_For.mp4', 'robot_stimuli\\R_Arm_X_Back.mp4', 'robot_stimuli\\L_Arm_Z_For.mp4']",robot_stimuli\L_Arm_Z_For.mp4,9,,,,,,,,,,,,,0,63,63,63,,,,,,,,,,,,,,,,,,,1832.8712307,1834.9464748,,,1849.6598664,1849.6598664,1849.6598664,4,1.7324834999997734,1851.4213118,1851.4213118,1851.4213118,1851.4213118,1851.4213118,1851.4213118,1851.4213118,1851.4213118,None,None,None,,,,,,,,,,1831.1521773,1831.1521773,space,1.6881594999998129,1846.0246088000001,,,,,9,001,2024-07-25_10h33.03.948,robot_cogshifting_sign,2022.2.5,59.99761209504396,
"['L_Torso_Y_For', 'R_Torso_X_Back', 'R_Base_Y_For', 'R_Torso_Y_For']","{'laterality': 'L_Torso_Y_For', 'localisation': 'R_Base_Y_For', 'movement': 'R_Torso_X_Back'}",laterality,"['laterality', 'movement']",L_Torso_Y_For,0,2,robot,3,False,False,"['robot_stimuli\\L_Torso_Y_For.mp4', 'robot_stimuli\\R_Torso_X_Back.mp4', 'robot_stimuli\\R_Base_Y_For.mp4', 'robot_stimuli\\R_Torso_Y_For.mp4']",robot_stimuli\L_Torso_Y_For.mp4,9,,,,,,,,,,,,,0,64,64,64,,,,,,,,,,,,,,,,,,,1851.4213118,1853.4957177,,,1868.2991570000002,1868.2991570000002,1868.2991570000002,1,1.5815674000000968,1869.9046529999998,1869.9046529999998,1869.9046529999998,1869.9046529999998,1869.9046529999998,1869.9046529999998,1869.9046529999998,1869.9046529999998,None,None,None,,,,,,,,,,1851.4213118,1851.4213118,None,,1864.6632674999998,1851.4213118,1851.4213118,,,9,001,2024-07-25_10h33.03.948,robot_cogshifting_sign,2022.2.5,59.99761209504396,
"['L_Torso_X_For', 'R_Torso_Z_Back', 'L_Arm_Z_For', 'L_Torso_Z_Back']","{'laterality': 'R_Torso_Z_Back', 'localisation': 'L_Arm_Z_For', 'movement': 'L_Torso_X_For'}",laterality,"['laterality', 'movement']",R_Torso_Z_Back,1,2,robot,3,False,False,"['robot_stimuli\\L_Torso_X_For.mp4', 'robot_stimuli\\R_Torso_Z_Back.mp4', 'robot_stimuli\\L_Arm_Z_For.mp4', 'robot_stimuli\\L_Torso_Z_Back.mp4']",robot_stimuli\R_Torso_Z_Back.mp4,9,,,,,,,,,,,,,0,65,65,65,,,,,,,,,,,,,,,,,,,1869.9046529999998,1871.9752460000002,,,1886.6579423,1886.6579423,1886.6579423,2,5.854082100000198,1892.5383006,1892.5383006,1892.5383006,1892.5383006,1892.5383006,1892.5383006,1892.5383006,1892.5383006,None,None,None,,,,,,,,,,1869.9046529999998,1869.9046529999998,None,,1883.1486685000002,1869.9046529999998,1869.9046529999998,,,9,001,2024-07-25_10h33.03.948,robot_cogshifting_sign,2022.2.5,59.99761209504396,
"['L_Base_Y_Back', 'R_Base_Z_For', 'L_Base_Z_Back', 'L_Torso_Z_Back']","{'laterality': 'R_Base_Z_For', 'localisation': 'L_Torso_Z_Back', 'movement': 'L_Base_Y_Back'}",localisation,"['localisation', 'movement']",L_Torso_Z_Back,3,2,robot,3,False,False,"['robot_stimuli\\L_Base_Y_Back.mp4', 'robot_stimuli\\R_Base_Z_For.mp4', 'robot_stimuli\\L_Base_Z_Back.mp4', 'robot_stimuli\\L_Torso_Z_Back.mp4']",robot_stimuli\L_Torso_Z_Back.mp4,9,,,,,,,,,,,,,0,66,66,66,,,,,,,,,,,,,,,,,,,1892.5383006,1894.6125936,,,1909.2449777,1909.2449777,1909.2449777,1,1.1789576000001603,1910.4545335,1910.4545335,1910.4545335,1910.4545335,1910.4545335,1910.4545335,1910.4545335,1910.4545335,None,None,None,,,,,,,,,,1892.5383006,1892.5383006,None,,1905.7321513,1892.5383006,1892.5383006,,,9,001,2024-07-25_10h33.03.948,robot_cogshifting_sign,2022.2.5,59.99761209504396,
"['L_Arm_Y_For', 'R_Arm_Y_For', 'R_Base_Y_Back', 'R_Arm_Z_For']","{'laterality': 'L_Arm_Y_For', 'localisation': 'R_Base_Y_Back', 'movement': 'R_Arm_Z_For'}",movement,"['localisation', 'movement']",R_Arm_Z_For,3,2,robot,3,False,False,"['robot_stimuli\\L_Arm_Y_For.mp4', 'robot_stimuli\\R_Arm_Y_For.mp4', 'robot_stimuli\\R_Base_Y_Back.mp4', 'robot_stimuli\\R_Arm_Z_For.mp4']",robot_stimuli\R_Arm_Z_For.mp4,9,,,,,,,,,,,,,0,67,67,67,,,,,,,,,,,,,,,,,,,1910.4545335,1912.5310447,,,1927.1966527000002,1927.1966527000002,1927.1966527000002,4,1.0040266000001452,1928.2213993000003,1928.2213993000003,1928.2213993000003,1928.2213993000003,1928.2213993000003,1928.2213993000003,1928.2213993000003,1928.2213993000003,None,None,None,,,,,,,,,,1910.4545335,1910.4545335,None,,1923.5614793000002,1910.4545335,1910.4545335,,,9,001,2024-07-25_10h33.03.948,robot_cogshifting_sign,2022.2.5,59.99761209504396,
"['L_Arm_Y_Back', 'R_Arm_X_For', 'L_Arm_X_For', 'L_Head_X_For']","{'laterality': 'R_Arm_X_For', 'localisation': 'L_Head_X_For', 'movement': 'L_Arm_Y_Back'}",laterality,"['laterality', 'localisation']",R_Arm_X_For,1,2,robot,3,False,False,"['robot_stimuli\\L_Arm_Y_Back.mp4', 'robot_stimuli\\R_Arm_X_For.mp4', 'robot_stimuli\\L_Arm_X_For.mp4', 'robot_stimuli\\L_Head_X_For.mp4']",robot_stimuli\R_Arm_X_For.mp4,9,,,,,,,,,,,,,0,68,68,68,,,,,,,,,,,,,,,,,,,1928.2213993000003,1930.2946387,,,1945.0472046000002,1945.0472046000002,1945.0472046000002,2,0.7771305000001689,1945.8548610999999,1945.8548610999999,1945.8548610999999,1945.8548610999999,1945.8548610999999,1945.8548610999999,1945.8548610999999,1945.8548610999999,None,None,None,,,,,,,,,,1928.2213993000003,1928.2213993000003,None,,1941.4783162,1928.2213993000003,1928.2213993000003,,,9,001,2024-07-25_10h33.03.948,robot_cogshifting_sign,2022.2.5,59.99761209504396,
"['R_Arm_X_For', 'L_Arm_X_Back', 'R_Head_X_Back', 'R_Arm_Y_For']","{'laterality': 'L_Arm_X_Back', 'localisation': 'R_Head_X_Back', 'movement': 'R_Arm_Y_For'}",localisation,"['localisation', 'movement']",R_Head_X_Back,2,2,robot,3,False,False,"['robot_stimuli\\R_Arm_X_For.mp4', 'robot_stimuli\\L_Arm_X_Back.mp4', 'robot_stimuli\\R_Head_X_Back.mp4', 'robot_stimuli\\R_Arm_Y_For.mp4']",robot_stimuli\R_Head_X_Back.mp4,9,,,,,,,,,,,,,0,69,69,69,,,,,,,,,,,,,,,,,,,1945.8548610999999,1947.9283275999999,,,1962.5933966999999,1962.5933966999999,1962.5933966999999,3,1.1107152999998675,1963.7213316999998,1963.7213316999998,1963.7213316999998,1963.7213316999998,1963.7213316999998,1963.7213316999998,1963.7213316999998,1963.7213316999998,None,None,None,,,,,,,,,,1945.8548610999999,1945.8548610999999,None,,1959.0916504,1945.8548610999999,1945.8548610999999,,,9,001,2024-07-25_10h33.03.948,robot_cogshifting_sign,2022.2.5,59.99761209504396,
"['L_Head_Y_Back', 'R_Head_Y_Back', 'R_Arm_Y_Back', 'R_Head_Z_Back']","{'laterality': 'L_Head_Y_Back', 'localisation': 'R_Arm_Y_Back', 'movement': 'R_Head_Z_Back'}",localisation,"['localisation', 'movement']",R_Arm_Y_Back,2,2,robot,3,False,False,"['robot_stimuli\\L_Head_Y_Back.mp4', 'robot_stimuli\\R_Head_Y_Back.mp4', 'robot_stimuli\\R_Arm_Y_Back.mp4', 'robot_stimuli\\R_Head_Z_Back.mp4']",robot_stimuli\R_Arm_Y_Back.mp4,9,,,,,,,,,,,,,0,70,70,70,,,,,,,,,,,,,,,,,,,1963.7213316999998,1965.7941895000001,,,1980.5999791000002,1980.5999791000002,1980.5999791000002,3,1.7451975999998126,1982.3714853,1982.3714853,1982.3714853,1982.3714853,1982.3714853,1982.3714853,1982.3714853,1982.3714853,None,None,None,,,,,,,,,,1963.7213316999998,1963.7213316999998,None,,1976.960801,1963.7213316999998,1963.7213316999998,,,9,001,2024-07-25_10h33.03.948,robot_cogshifting_sign,2022.2.5,59.99761209504396,
"['R_Base_Z_Back', 'R_Arm_Z_Back', 'R_Arm_Y_For', 'L_Arm_Z_For']","{'laterality': 'L_Arm_Z_For', 'localisation': 'R_Base_Z_Back', 'movement': 'R_Arm_Y_For'}",movement,"['laterality', 'movement']",R_Arm_Y_For,2,2,robot,3,False,True,"['robot_stimuli\\R_Base_Z_Back.mp4', 'robot_stimuli\\R_Arm_Z_Back.mp4', 'robot_stimuli\\R_Arm_Y_For.mp4', 'robot_stimuli\\L_Arm_Z_For.mp4']",robot_stimuli\R_Arm_Y_For.mp4,9,,,,,,,,,,,,,0,71,71,71,,,,,,,,,,,,,,,,,,,1982.3714853,1984.4597191999999,,,1999.0308350000003,1999.0308350000003,1999.0308350000003,3,0.6577518999998233,1999.7293953,2003.6968117,1999.7293953,2003.6968117,1999.7293953,2003.6968117,1999.7293953,2003.6968117,30.46296296296296,3.1815850000002683,space,,,3.9105258000000163,,,,,,,1982.3714853,1982.3714853,None,,1995.3951545000002,1982.3714853,1982.3714853,,,9,001,2024-07-25_10h33.03.948,robot_cogshifting_sign,2022.2.5,59.99761209504396,
"['L_Torso_Y_Back', 'L_Head_Z_For', 'R_Head_Y_Back', 'L_Head_Y_For']","{'laterality': 'R_Head_Y_Back', 'localisation': 'L_Torso_Y_Back', 'movement': 'L_Head_Z_For'}",localisation,['localisation'],L_Torso_Y_Back,0,1,robot,3,True,False,"['robot_stimuli\\L_Torso_Y_Back.mp4', 'robot_stimuli\\L_Head_Z_For.mp4', 'robot_stimuli\\R_Head_Y_Back.mp4', 'robot_stimuli\\L_Head_Y_For.mp4']",robot_stimuli\L_Torso_Y_Back.mp4,9,,,,,,,,,,,,,0,72,72,72,,,,,,,,,,,,,,,,,,,2008.6883523,2010.7617212000002,,,2025.4296283,2025.4296283,2025.4296283,1,1.5229085999999938,2026.9714987,2026.9714987,2026.9714987,2026.9714987,2026.9714987,2026.9714987,2026.9714987,2026.9714987,None,None,None,,,,,,,,,,2003.6968117,2003.6968117,space,4.9680254000000446,2021.7949936000002,,,,,9,001,2024-07-25_10h33.03.948,robot_cogshifting_sign,2022.2.5,59.99761209504396,
"['R_Base_Z_Back', 'R_Base_X_Back', 'R_Head_Z_Back', 'L_Base_Z_For']","{'laterality': 'L_Base_Z_For', 'localisation': 'R_Head_Z_Back', 'movement': 'R_Base_X_Back'}",movement,['movement'],R_Base_X_Back,1,1,robot,3,False,False,"['robot_stimuli\\R_Base_Z_Back.mp4', 'robot_stimuli\\R_Base_X_Back.mp4', 'robot_stimuli\\R_Head_Z_Back.mp4', 'robot_stimuli\\L_Base_Z_For.mp4']",robot_stimuli\R_Base_X_Back.mp4,9,,,,,,,,,,,,,0,73,73,73,,,,,,,,,,,,,,,,,,,2026.9714987,2029.0444421999998,,,2043.7446283000002,2043.7446283000002,2043.7446283000002,2,0.3527429000001234,2044.1213292,2044.1213292,2044.1213292,2044.1213292,2044.1213292,2044.1213292,2044.1213292,2044.1213292,None,None,None,,,,,,,,,,2026.9714987,2026.9714987,None,,2040.0993425,2026.9714987,2026.9714987,,,9,001,2024-07-25_10h33.03.948,robot_cogshifting_sign,2022.2.5,59.99761209504396,
"['L_Torso_Z_Back', 'L_Arm_Z_For', 'L_Arm_X_Back', 'R_Arm_Z_For']","{'laterality': 'R_Arm_Z_For', 'localisation': 'L_Torso_Z_Back', 'movement': 'L_Arm_X_Back'}",movement,['movement'],L_Arm_X_Back,2,1,robot,3,False,False,"['robot_stimuli\\L_Torso_Z_Back.mp4', 'robot_stimuli\\L_Arm_Z_For.mp4', 'robot_stimuli\\L_Arm_X_Back.mp4', 'robot_stimuli\\R_Arm_Z_For.mp4']",robot_stimuli\L_Arm_X_Back.mp4,9,,,,,,,,,,,,,0,74,74,74,,,,,,,,,,,,,,,,,,,2044.1213292,2046.1966845,,,2060.8735069,2060.8735069,2060.8735069,3,0.4556207000003383,2061.3546603,2061.3546603,2061.3546603,2061.3546603,2061.3546603,2061.3546603,2061.3546603,2061.3546603,None,None,None,,,,,,,,,,2044.1213292,2044.1213292,None,,2057.2450836999997,2044.1213292,2044.1213292,,,9,001,2024-07-25_10h33.03.948,robot_cogshifting_sign,2022.2.5,59.99761209504396,
"['L_Torso_X_For', 'R_Arm_X_For', 'R_Torso_X_Back', 'R_Torso_Z_Back']","{'laterality': 'L_Torso_X_For', 'localisation': 'R_Arm_X_For', 'movement': 'R_Torso_Z_Back'}",laterality,['laterality'],L_Torso_X_For,0,1,robot,3,False,False,"['robot_stimuli\\L_Torso_X_For.mp4', 'robot_stimuli\\R_Arm_X_For.mp4', 'robot_stimuli\\R_Torso_X_Back.mp4', 'robot_stimuli\\R_Torso_Z_Back.mp4']",robot_stimuli\L_Torso_X_For.mp4,9,,,,,,,,,,,,,0,75,75,75,,,,,,,,,,,,,,,,,,,2061.3546603,2063.4447868999996,,,2078.2299098,2078.2299098,2078.2299098,1,0.394249400000092,2078.6548258,2078.6548258,2078.6548258,2078.6548258,2078.6548258,2078.6548258,2078.6548258,2078.6548258,None,None,None,,,,,,,,,,2061.3546603,2061.3546603,None,,2074.5933725,2061.3546603,2061.3546603,,,9,001,2024-07-25_10h33.03.948,robot_cogshifting_sign,2022.2.5,59.99761209504396,
"['L_Head_Z_For', 'L_Base_Z_For', 'R_Base_Z_Back', 'L_Base_Y_For']","{'laterality': 'R_Base_Z_Back', 'localisation': 'L_Head_Z_For', 'movement': 'L_Base_Y_For'}",laterality,['laterality'],R_Base_Z_Back,2,1,robot,3,False,False,"['robot_stimuli\\L_Head_Z_For.mp4', 'robot_stimuli\\L_Base_Z_For.mp4', 'robot_stimuli\\R_Base_Z_Back.mp4', 'robot_stimuli\\L_Base_Y_For.mp4']",robot_stimuli\R_Base_Z_Back.mp4,9,,,,,,,,,,,,,0,76,76,76,,,,,,,,,,,,,,,,,,,2078.6548258,2080.7276319999996,,,2095.3254586999997,2095.3254586999997,2095.3254586999997,3,0.29791230000029145,2095.6548135,2095.6548135,2095.6548135,2095.6548135,2095.6548135,2095.6548135,2095.6548135,2095.6548135,None,None,None,,,,,,,,,,2078.6548258,2078.6548258,None,,2091.7826132,2078.6548258,2078.6548258,,,9,001,2024-07-25_10h33.03.948,robot_cogshifting_sign,2022.2.5,59.99761209504396,
"['R_Torso_X_Back', 'R_Arm_Y_Back', 'R_Arm_X_For', 'L_Arm_X_For']","{'laterality': 'L_Arm_X_For', 'localisation': 'R_Torso_X_Back', 'movement': 'R_Arm_Y_Back'}",localisation,['localisation'],R_Torso_X_Back,0,1,robot,3,False,False,"['robot_stimuli\\R_Torso_X_Back.mp4', 'robot_stimuli\\R_Arm_Y_Back.mp4', 'robot_stimuli\\R_Arm_X_For.mp4', 'robot_stimuli\\L_Arm_X_For.mp4']",robot_stimuli\R_Torso_X_Back.mp4,9,,,,,,,,,,,,,0,77,77,77,,,,,,,,,,,,,,,,,,,2095.6548135,2097.7276125,,,2112.5322816999997,2112.5322816999997,2112.5322816999997,1,0.31513660000001664,2112.8716213,2112.8716213,2112.8716213,2112.8716213,2112.8716213,2112.8716213,2112.8716213,2112.8716213,None,None,None,,,,,,,,,,2095.6548135,2095.6548135,None,,2108.8838483,2095.6548135,2095.6548135,,,9,001,2024-07-25_10h33.03.948,robot_cogshifting_sign,2022.2.5,59.99761209504396,
"['R_Base_Y_Back', 'R_Base_X_Back', 'L_Base_Y_For', 'R_Head_Y_For']","{'laterality': 'L_Base_Y_For', 'localisation': 'R_Head_Y_For', 'movement': 'R_Base_X_Back'}",localisation,['localisation'],R_Head_Y_For,3,1,robot,3,False,False,"['robot_stimuli\\R_Base_Y_Back.mp4', 'robot_stimuli\\R_Base_X_Back.mp4', 'robot_stimuli\\L_Base_Y_For.mp4', 'robot_stimuli\\R_Head_Y_For.mp4']",robot_stimuli\R_Head_Y_For.mp4,9,,,,,,,,,,,,,0,78,78,78,,,,,,,,,,,,,,,,,,,2112.8716213,2114.9455282999998,,,2129.6432066999996,2129.6432066999996,2129.6432066999996,4,0.28434659999976475,2129.9545153,2129.9545153,2129.9545153,2129.9545153,2129.9545153,2129.9545153,2129.9545153,2129.9545153,None,None,None,,,,,,,,,,2112.8716213,2112.8716213,None,,2126.0082371,2112.8716213,2112.8716213,,,9,001,2024-07-25_10h33.03.948,robot_cogshifting_sign,2022.2.5,59.99761209504396,
"['R_Torso_X_Back', 'R_Base_X_Back', 'L_Base_X_For', 'R_Base_Y_Back']","{'laterality': 'L_Base_X_For', 'localisation': 'R_Torso_X_Back', 'movement': 'R_Base_Y_Back'}",laterality,['laterality'],L_Base_X_For,2,1,robot,3,False,False,"['robot_stimuli\\R_Torso_X_Back.mp4', 'robot_stimuli\\R_Base_X_Back.mp4', 'robot_stimuli\\L_Base_X_For.mp4', 'robot_stimuli\\R_Base_Y_Back.mp4']",robot_stimuli\L_Base_X_For.mp4,9,,,,,,,,,,,,,0,79,79,79,,,,,,,,,,,,,,,,,,,2129.9545153,2132.0253992,,,2146.7838002999997,2146.7838002999997,2146.7838002999997,3,0.26535200000017767,2147.0716685999996,2147.0716685999996,2147.0716685999996,2147.0716685999996,2147.0716685999996,2147.0716685999996,2147.0716685999996,2147.0716685999996,None,None,None,,,,,,,,,,2129.9545153,2129.9545153,None,,2143.1308083999998,2129.9545153,2129.9545153,,,9,001,2024-07-25_10h33.03.948,robot_cogshifting_sign,2022.2.5,59.99761209504396,
"['L_Arm_X_For', 'R_Arm_Y_For', 'L_Base_Y_For', 'L_Arm_Y_Back']","{'laterality': 'R_Arm_Y_For', 'localisation': 'L_Base_Y_For', 'movement': 'L_Arm_X_For'}",movement,['movement'],L_Arm_X_For,0,1,robot,3,False,True,"['robot_stimuli\\L_Arm_X_For.mp4', 'robot_stimuli\\R_Arm_Y_For.mp4', 'robot_stimuli\\L_Base_Y_For.mp4', 'robot_stimuli\\L_Arm_Y_Back.mp4']",robot_stimuli\L_Arm_X_For.mp4,9,,,,,,,,,,,,,0,80,80,80,,,,,,,,,,,,,,,,,,,2147.0716685999996,2149.1595963,,,2163.7275651,2163.7275651,2163.7275651,3,1.4171514000002503,2165.1965182,2169.2781741999997,2165.1965182,2169.2781741999997,2165.1965182,2169.2781741999997,2165.1965182,2169.2781741999997,25.524691358024683,3.8434777000002214,space,,,4.034671700000047,,,,,,,2147.0716685999996,2147.0716685999996,None,,2160.0834646999997,2147.0716685999996,2147.0716685999996,,,9,001,2024-07-25_10h33.03.948,robot_cogshifting_sign,2022.2.5,59.99761209504396,
"['blue_left_C_45', 'red_left_V_45', 'blue_bottom_F_45', 'blue_left_V_0']","{'color': 'red_left_V_45', 'position': 'blue_bottom_F_45', 'orientation': 'blue_left_V_0'}",color,"['color', 'position']",red_left_V_45,1,2,letter,4,True,False,"['robot_stimuli\\\\filler.mp4', 'robot_stimuli\\\\filler.mp4', 'robot_stimuli\\\\filler.mp4', 'robot_stimuli\\\\filler.mp4']",robot_stimuli\\filler.mp4,9,,,,,,,,,,,,,0,81,81,81,,,,,,,,,,,,,,,,,,,2235.8549712,2237.9240247999996,,,2246.6184670999996,2246.6184670999996,2246.6184670999996,2,1.9340052000000583,2248.5716936,2248.5716936,2248.5716936,2248.5716936,2248.5716936,2248.5716936,2248.5716936,2248.5716936,None,None,None,,,,,,,,,,2169.2781741999997,2169.2781741999997,space,66.55427609999998,,,,2244.3936486999996,2246.6184670999996,9,001,2024-07-25_10h33.03.948,robot_cogshifting_sign,2022.2.5,59.99761209504396,
"['red_left_C_45', 'red_left_N_0', 'blue_left_L_45', 'red_bottom_N_45']","{'color': 'blue_left_L_45', 'position': 'red_bottom_N_45', 'orientation': 'red_left_N_0'}",orientation,"['color', 'orientation']",red_left_N_0,1,2,letter,4,False,False,"['robot_stimuli\\\\filler.mp4', 'robot_stimuli\\\\filler.mp4', 'robot_stimuli\\\\filler.mp4', 'robot_stimuli\\\\filler.mp4']",robot_stimuli\\filler.mp4,9,,,,,,,,,,,,,0,82,82,82,,,,,,,,,,,,,,,,,,,2248.5716936,2250.6275536,,,2259.3126511,2259.3126511,2259.3126511,3,2.4480940000001397,2261.7886525999998,2261.7886525999998,2261.7886525999998,2261.7886525999998,2261.7886525999998,2261.7886525999998,2261.7886525999998,2261.7886525999998,None,None,None,,,,,,,,,,2248.5716936,2248.5716936,None,,,2248.5716936,2248.5716936,2257.2868897,2259.3126511,9,001,2024-07-25_10h33.03.948,robot_cogshifting_sign,2022.2.5,59.99761209504396,
"['red_right_X_45', 'blue_right_L_45', 'blue_bottom_V_45', 'blue_right_B_0']","{'color': 'red_right_X_45', 'position': 'blue_bottom_V_45', 'orientation': 'blue_right_B_0'}",color,"['color', 'orientation']",red_right_X_45,0,2,letter,4,False,False,"['robot_stimuli\\\\filler.mp4', 'robot_stimuli\\\\filler.mp4', 'robot_stimuli\\\\filler.mp4', 'robot_stimuli\\\\filler.mp4']",robot_stimuli\\filler.mp4,9,,,,,,,,,,,,,0,83,83,83,,,,,,,,,,,,,,,,,,,2261.7886525999998,2263.8505986,,,2272.7268506,2272.7268506,2272.7268506,1,2.5691386999999963,2275.3217605,2275.3217605,2275.3217605,2275.3217605,2275.3217605,2275.3217605,2275.3217605,2275.3217605,None,None,None,,,,,,,,,,2261.7886525999998,2261.7886525999998,None,,,2261.7886525999998,2261.7886525999998,2270.5066643,2272.7268506,9,001,2024-07-25_10h33.03.948,robot_cogshifting_sign,2022.2.5,59.99761209504396,
"['blue_right_W_45', 'blue_top_X_45', 'blue_top_N_0', 'red_top_B_45']","{'color': 'red_top_B_45', 'position': 'blue_right_W_45', 'orientation': 'blue_top_N_0'}",position,"['orientation', 'position']",blue_right_W_45,0,2,letter,4,False,False,"['robot_stimuli\\\\filler.mp4', 'robot_stimuli\\\\filler.mp4', 'robot_stimuli\\\\filler.mp4', 'robot_stimuli\\\\filler.mp4']",robot_stimuli\\filler.mp4,9,,,,,,,,,,,,,0,84,84,84,,,,,,,,,,,,,,,,,,,2275.3217605,2277.3764634999998,,,2286.2490549,2286.2490549,2286.2490549,1,6.774546500000099,2293.0551102,2293.0551102,2293.0551102,2293.0551102,2293.0551102,2293.0551102,2293.0551102,2293.0551102,None,None,None,,,,,,,,,,2275.3217605,2275.3217605,None,,,2275.3217605,2275.3217605,2284.2311106999996,2286.2490549,9,001,2024-07-25_10h33.03.948,robot_cogshifting_sign,2022.2.5,59.99761209504396,
"['red_left_L_45', 'red_right_W_0', 'red_right_Q_45', 'blue_right_L_45']","{'color': 'blue_right_L_45', 'position': 'red_left_L_45', 'orientation': 'red_right_W_0'}",color,"['color', 'position']",blue_right_L_45,3,2,letter,4,False,False,"['robot_stimuli\\\\filler.mp4', 'robot_stimuli\\\\filler.mp4', 'robot_stimuli\\\\filler.mp4', 'robot_stimuli\\\\filler.mp4']",robot_stimuli\\filler.mp4,9,,,,,,,,,,,,,0,85,85,85,,,,,,,,,,,,,,,,,,,2293.0551102,2295.1110328,,,2303.5946728999998,2303.5946728999998,2303.5946728999998,4,1.4775308999999766,2305.0884431,2305.0884431,2305.0884431,2305.0884431,2305.0884431,2305.0884431,2305.0884431,2305.0884431,None,None,None,,,,,,,,,,2293.0551102,2293.0551102,None,,,2293.0551102,2293.0551102,2301.5685722,2303.5946728999998,9,001,2024-07-25_10h33.03.948,robot_cogshifting_sign,2022.2.5,59.99761209504396,
"['blue_right_L_45', 'blue_left_Z_45', 'blue_right_Z_0', 'red_right_L_45']","{'color': 'red_right_L_45', 'position': 'blue_left_Z_45', 'orientation': 'blue_right_Z_0'}",position,"['orientation', 'position']",blue_left_Z_45,1,2,letter,4,False,False,"['robot_stimuli\\\\filler.mp4', 'robot_stimuli\\\\filler.mp4', 'robot_stimuli\\\\filler.mp4', 'robot_stimuli\\\\filler.mp4']",robot_stimuli\\filler.mp4,9,,,,,,,,,,,,,0,86,86,86,,,,,,,,,,,,,,,,,,,2305.0884431,2307.1406101,,,2315.4208715,2315.4208715,2315.4208715,2,6.131783400000415,2321.5716502,2321.5716502,2321.5716502,2321.5716502,2321.5716502,2321.5716502,2321.5716502,2321.5716502,None,None,None,,,,,,,,,,2305.0884431,2305.0884431,None,,,2305.0884431,2305.0884431,2313.4046657,2315.4208715,9,001,2024-07-25_10h33.03.948,robot_cogshifting_sign,2022.2.5,59.99761209504396,
"['red_bottom_K_0', 'red_left_B_0', 'red_left_P_45', 'blue_left_Q_0']","{'color': 'blue_left_Q_0', 'position': 'red_bottom_K_0', 'orientation': 'red_left_P_45'}",position,"['orientation', 'position']",red_bottom_K_0,0,2,letter,4,False,False,"['robot_stimuli\\\\filler.mp4', 'robot_stimuli\\\\filler.mp4', 'robot_stimuli\\\\filler.mp4', 'robot_stimuli\\\\filler.mp4']",robot_stimuli\\filler.mp4,9,,,,,,,,,,,,,0,87,87,87,,,,,,,,,,,,,,,,,,,2321.5716502,2323.6286419,,,2332.3073474,2332.3073474,2332.3073474,1,1.96499120000027,2334.3051987,2334.3051987,2334.3051987,2334.3051987,2334.3051987,2334.3051987,2334.3051987,2334.3051987,None,None,None,,,,,,,,,,2321.5716502,2321.5716502,None,,,2321.5716502,2321.5716502,2330.0896224,2332.3073474,9,001,2024-07-25_10h33.03.948,robot_cogshifting_sign,2022.2.5,59.99761209504396,
"['blue_left_T_45', 'blue_bottom_D_0', 'blue_left_D_0', 'red_left_B_0']","{'color': 'red_left_B_0', 'position': 'blue_bottom_D_0', 'orientation': 'blue_left_T_45'}",orientation,"['color', 'orientation']",blue_left_T_45,0,2,letter,4,False,False,"['robot_stimuli\\\\filler.mp4', 'robot_stimuli\\\\filler.mp4', 'robot_stimuli\\\\filler.mp4', 'robot_stimuli\\\\filler.mp4']",robot_stimuli\\filler.mp4,9,,,,,,,,,,,,,0,88,88,88,,,,,,,,,,,,,,,,,,,2334.3051987,2336.3595748999996,,,2344.8332834,2344.8332834,2344.8332834,1,3.0476012000002015,2347.9049892,2347.9049892,2347.9049892,2347.9049892,2347.9049892,2347.9049892,2347.9049892,2347.9049892,None,None,None,,,,,,,,,,2334.3051987,2334.3051987,None,,,2334.3051987,2334.3051987,2342.8221974999997,2344.8332834,9,001,2024-07-25_10h33.03.948,robot_cogshifting_sign,2022.2.5,59.99761209504396,
"['blue_top_Q_0', 'red_bottom_X_0', 'blue_bottom_V_45', 'blue_bottom_Z_0']","{'color': 'red_bottom_X_0', 'position': 'blue_top_Q_0', 'orientation': 'blue_bottom_V_45'}",orientation,"['color', 'orientation']",blue_bottom_V_45,2,2,letter,4,False,True,"['robot_stimuli\\\\filler.mp4', 'robot_stimuli\\\\filler.mp4', 'robot_stimuli\\\\filler.mp4', 'robot_stimuli\\\\filler.mp4']",robot_stimuli\\filler.mp4,9,,,,,,,,,,,,,0,89,89,89,,,,,,,,,,,,,,,,,,,2347.9049892,2349.9671495,,,2358.6338207,2358.6338207,2358.6338207,3,5.151320600000247,2363.832919,2366.5012428,2363.832919,2366.5012428,2363.832919,2366.5012428,2363.832919,2366.5012428,34.32098765432099,2.067963399999826,space,,,2.6231403999998406,,,,,,,2347.9049892,2347.9049892,None,,,2347.9049892,2347.9049892,2356.6149486,2358.6338207,9,001,2024-07-25_10h33.03.948,robot_cogshifting_sign,2022.2.5,59.99761209504396,
"['red_bottom_H_0', 'red_left_X_45', 'red_left_V_0', 'blue_left_B_0']","{'color': 'blue_left_B_0', 'position': 'red_bottom_H_0', 'orientation': 'red_left_X_45'}",orientation,['orientation'],red_left_X_45,1,1,letter,4,True,False,"['robot_stimuli\\\\filler.mp4', 'robot_stimuli\\\\filler.mp4', 'robot_stimuli\\\\filler.mp4', 'robot_stimuli\\\\filler.mp4']",robot_stimuli\\filler.mp4,9,,,,,,,,,,,,,0,90,90,90,,,,,,,,,,,,,,,,,,,2367.9218272,2369.9773695,,,2378.8408734,2378.8408734,2378.8408734,2,0.46350819999980786,2379.3217495999997,2379.3217495999997,2379.3217495999997,2379.3217495999997,2379.3217495999997,2379.3217495999997,2379.3217495999997,2379.3217495999997,None,None,None,,,,,,,,,,2366.5012428,2366.5012428,space,1.3879881000000864,,,,2376.8277688999997,2378.8408734,9,001,2024-07-25_10h33.03.948,robot_cogshifting_sign,2022.2.5,59.99761209504396,
"['red_bottom_Z_0', 'blue_bottom_G_0', 'red_left_Z_0', 'red_bottom_W_45']","{'color': 'blue_bottom_G_0', 'position': 'red_left_Z_0', 'orientation': 'red_bottom_W_45'}",color,['color'],blue_bottom_G_0,1,1,letter,4,False,False,"['robot_stimuli\\\\filler.mp4', 'robot_stimuli\\\\filler.mp4', 'robot_stimuli\\\\filler.mp4', 'robot_stimuli\\\\filler.mp4']",robot_stimuli\\filler.mp4,9,,,,,,,,,,,,,0,91,91,91,,,,,,,,,,,,,,,,,,,2379.3217495999997,2381.3775045999996,,,2390.0568365999998,2390.0568365999998,2390.0568365999998,2,0.5030659000001947,2390.5886858,2390.5886858,2390.5886858,2390.5886858,2390.5886858,2390.5886858,2390.5886858,2390.5886858,None,None,None,,,,,,,,,,2379.3217495999997,2379.3217495999997,None,,,2379.3217495999997,2379.3217495999997,2387.8410004999996,2390.0568365999998,9,001,2024-07-25_10h33.03.948,robot_cogshifting_sign,2022.2.5,59.99761209504396,
"['blue_left_Z_0', 'red_left_Z_45', 'red_top_B_0', 'red_left_C_0']","{'color': 'blue_left_Z_0', 'position': 'red_top_B_0', 'orientation': 'red_left_Z_45'}",orientation,['orientation'],red_left_Z_45,1,1,letter,4,False,False,"['robot_stimuli\\\\filler.mp4', 'robot_stimuli\\\\filler.mp4', 'robot_stimuli\\\\filler.mp4', 'robot_stimuli\\\\filler.mp4']",robot_stimuli\\filler.mp4,9,,,,,,,,,,,,,0,92,92,92,,,,,,,,,,,,,,,,,,,2390.5886858,2392.6431598,,,2401.539215,2401.539215,2401.539215,2,1.4377631000000406,2403.0051335999997,2403.0051335999997,2403.0051335999997,2403.0051335999997,2403.0051335999997,2403.0051335999997,2403.0051335999997,2403.0051335999997,None,None,None,,,,,,,,,,2390.5886858,2390.5886858,None,,,2390.5886858,2390.5886858,2399.5221276999996,2401.539215,9,001,2024-07-25_10h33.03.948,robot_cogshifting_sign,2022.2.5,59.99761209504396,
"['blue_top_L_45', 'blue_top_H_0', 'red_top_H_0', 'blue_bottom_Z_0']","{'color': 'red_top_H_0', 'position': 'blue_bottom_Z_0', 'orientation': 'blue_top_L_45'}",position,['position'],blue_bottom_Z_0,3,1,letter,4,False,False,"['robot_stimuli\\\\filler.mp4', 'robot_stimuli\\\\filler.mp4', 'robot_stimuli\\\\filler.mp4', 'robot_stimuli\\\\filler.mp4']",robot_stimuli\\filler.mp4,9,,,,,,,,,,,,,0,93,93,93,,,,,,,,,,,,,,,,,,,2403.0051335999997,2405.0594806999998,,,2413.7355276,2413.7355276,2413.7355276,4,0.29578480000037644,2414.0551387,2414.0551387,2414.0551387,2414.0551387,2414.0551387,2414.0551387,2414.0551387,2414.0551387,None,None,None,,,,,,,,,,2403.0051335999997,2403.0051335999997,None,,,2403.0051335999997,2403.0051335999997,2411.7193795999997,2413.7355276,9,001,2024-07-25_10h33.03.948,robot_cogshifting_sign,2022.2.5,59.99761209504396,
"['red_right_H_0', 'red_bottom_L_45', 'red_bottom_C_0', 'blue_bottom_S_0']","{'color': 'blue_bottom_S_0', 'position': 'red_right_H_0', 'orientation': 'red_bottom_L_45'}",position,['position'],red_right_H_0,0,1,letter,4,False,False,"['robot_stimuli\\\\filler.mp4', 'robot_stimuli\\\\filler.mp4', 'robot_stimuli\\\\filler.mp4', 'robot_stimuli\\\\filler.mp4']",robot_stimuli\\filler.mp4,9,,,,,,,,,,,,,0,94,94,94,,,,,,,,,,,,,,,,,,,2414.0551387,2416.1118573,,,2424.3919822,2424.3919822,2424.3919822,1,0.6889665000001628,2425.1051887999997,2425.1051887999997,2425.1051887999997,2425.1051887999997,2425.1051887999997,2425.1051887999997,2425.1051887999997,2425.1051887999997,None,None,None,,,,,,,,,,2414.0551387,2414.0551387,None,,,2414.0551387,2414.0551387,2422.3707219999997,2424.3919822,9,001,2024-07-25_10h33.03.948,robot_cogshifting_sign,2022.2.5,59.99761209504396,
