sequence,odd_ones,choices,choice_n,parameter,target,condition,stimuli,block,is_block_beginning,is_block_ending,sequence_fnames,target_fname,subject,retraining.thisRepN,retraining.thisTrialN,retraining.thisN,retraining.thisIndex,training.thisRepN,training.thisTrialN,training.thisN,training.thisIndex,training_sequence_loop.thisRepN,training_sequence_loop.thisTrialN,training_sequence_loop.thisN,training_sequence_loop.thisIndex,trials.thisRepN,trials.thisTrialN,trials.thisN,trials.thisIndex,sequence_loop.thisRepN,sequence_loop.thisTrialN,sequence_loop.thisN,sequence_loop.thisIndex,langage_text.started,langage_key.started,langage_key.keys,langage_key.rt,intro_text.started,intro_key.started,intro_key.keys,intro_key.rt,training_intro_text.started,training_intro_key.started,training_intro_key.keys,training_intro_key.rt,polygon.started,polygon.stopped,cue_before_text.started,cue_before_text.stopped,training_presentation_letter.started,training_presentation_letter.stopped,recall_key.started,recall_question.started,recall_answer.started,recall_key.keys,recall_key.rt,RSME_labels.started,RSME_labels.stopped,RSME_ticks.started,RSME_ticks.stopped,RSME_text.started,RSME_text.stopped,RSME_key.started,RSME_key.stopped,RSME_ticks.response,RSME_ticks.rt,RSME_key.keys,training_intro_text.stopped,training_intro_key.stopped,RSME_key.rt,training_presentation_movie.started,experiment_beginning_text.started,experiment_beginning_keys.started,experiment_beginning_key.started,experiment_beginning_key.keys,experiment_beginning_key.rt,block_intro_text.started,block_intro_key.started,block_intro_key.keys,block_intro_key.rt,presentation_letter.started,presentation_letter.stopped,block_intro_text.stopped,block_intro_key.stopped,presentation_movie.started,participant,session,date,expName,psychopyVersion,frameRate,
,,,,,,,,,,,,,,,,,,,,,,,,,,,,,,,,,,6.632950100000016,6.632950100000016,f,2.8493334999948274,,,,,,,,,,,,,,,,,,,,,,,,,,,,,,,,,,,,,,,,,,,,,,,,,0,001,2024-06-24_14h07.51.500,robot_cogshifting_sign,2022.2.5,60.131278616567165,
,,,,,,,,,,,,,,,,,,,,,,,,,,,,,,,,,,,,,,9.500757000001613,9.500757000001613,space,0.44663709998712875,,,,,,,,,,,,,,,,,,,,,,,,,,,,,,,,,,,,,,,,,,,,,0,001,2024-06-24_14h07.51.500,robot_cogshifting_sign,2022.2.5,60.131278616567165,
"['blue_left_R_45', 'blue_bottom_M_45', 'red_bottom_K_45', 'blue_bottom_J_0']","{'color': 'red_bottom_K_45', 'position': 'blue_left_R_45', 'orientation': 'blue_bottom_J_0'}",['color'],0,color,red_bottom_K_45,1,letter,1,True,False,"['robot_stimuli\\\\filler.mp4', 'robot_stimuli\\\\filler.mp4', 'robot_stimuli\\\\filler.mp4', 'robot_stimuli\\\\filler.mp4']",robot_stimuli\\filler.mp4,0,0,0,0,0,0,0,0,0,,,,,,,,,,,,,,,,,,,,,9.982969000004232,9.982969000004232,space,4.187752199970419,14.201233500003582,15.201201200019568,15.201201200019568,17.283407200011425,23.766385900002206,25.9827916000213,25.9827916000213,25.9827916000213,25.9827916000213,3,0.5071343999588862,26.60908890000428,26.60908890000428,26.60908890000428,26.60908890000428,26.60908890000428,26.60908890000428,26.60908890000428,26.60908890000428,None,None,None,,,,,,,,,,,,,,,,,,,0,001,2024-06-24_14h07.51.500,robot_cogshifting_sign,2022.2.5,60.131278616567165,
"['red_right_P_0', 'blue_right_C_45', 'red_right_V_45', 'red_top_H_45']","{'color': 'blue_right_C_45', 'position': 'red_top_H_45', 'orientation': 'red_right_P_0'}",['orientation'],0,orientation,red_right_P_0,1,letter,1,False,False,"['robot_stimuli\\\\filler.mp4', 'robot_stimuli\\\\filler.mp4', 'robot_stimuli\\\\filler.mp4', 'robot_stimuli\\\\filler.mp4']",robot_stimuli\\filler.mp4,0,0,0,0,0,0,1,1,1,,,,,,,,,,,,,,,,,,,,,26.60908890000428,26.60908890000428,None,,26.60908890000428,,27.617925100028515,,36.14980060001835,38.36636980000185,38.36636980000185,38.36636980000185,38.36636980000185,1,0.44361129999742843,38.83420950002619,38.83420950002619,38.83420950002619,38.83420950002619,38.83420950002619,38.83420950002619,38.83420950002619,38.83420950002619,None,None,None,26.60908890000428,26.60908890000428,,,,,,,,,,,,,,,,,0,001,2024-06-24_14h07.51.500,robot_cogshifting_sign,2022.2.5,60.131278616567165,
"['blue_left_J_0', 'red_top_F_0', 'blue_top_K_0', 'blue_top_Q_45']","{'color': 'red_top_F_0', 'position': 'blue_left_J_0', 'orientation': 'blue_top_Q_45'}",['position'],0,position,blue_left_J_0,1,letter,1,False,True,"['robot_stimuli\\\\filler.mp4', 'robot_stimuli\\\\filler.mp4', 'robot_stimuli\\\\filler.mp4', 'robot_stimuli\\\\filler.mp4']",robot_stimuli\\filler.mp4,0,0,0,0,0,0,2,2,2,,,,,,,,,,,,,,,,,,,,,38.83420950002619,38.83420950002619,None,,38.83420950002619,39.83423630002653,39.83423630002653,41.90005940000992,48.567437400022754,50.58288650002214,50.58288650002214,50.58288650002214,50.58288650002214,1,0.42020069996942766,51.06622450001305,55.01788470000611,51.06622450001305,55.01788470000611,51.06622450001305,55.01788470000611,51.06622450001305,55.01788470000611,13.487654320987652,3.155215999984648,space,38.83420950002619,38.83420950002619,3.8888270999887027,,,,,,,,,,,,,,,,0,001,2024-06-24_14h07.51.500,robot_cogshifting_sign,2022.2.5,60.131278616567165,
"['red_bottom_G_0', 'blue_bottom_V_45', 'red_right_N_45', 'red_bottom_Q_45']","{'color': 'blue_bottom_V_45', 'position': 'red_right_N_45', 'orientation': 'red_bottom_G_0'}","['color', 'position']",0,color,blue_bottom_V_45,2,letter,1,True,False,"['robot_stimuli\\\\filler.mp4', 'robot_stimuli\\\\filler.mp4', 'robot_stimuli\\\\filler.mp4', 'robot_stimuli\\\\filler.mp4']",robot_stimuli\\filler.mp4,0,0,0,0,0,0,3,3,3,,,,,,,,,,,,,,,,,,,,,55.01788470000611,55.01788470000611,space,0.8018947999808006,55.85126360002323,56.85123300002306,56.85123300002306,58.91645400002017,65.38286990000051,67.5996487000084,67.5996487000084,67.5996487000084,67.5996487000084,2,1.8348336999770254,69.4675446000183,69.4675446000183,69.4675446000183,69.4675446000183,69.4675446000183,69.4675446000183,69.4675446000183,69.4675446000183,None,None,None,,,,,,,,,,,,,,,,,,,0,001,2024-06-24_14h07.51.500,robot_cogshifting_sign,2022.2.5,60.131278616567165,
"['blue_bottom_Q_0', 'blue_left_B_45', 'blue_left_W_0', 'red_left_V_0']","{'color': 'red_left_V_0', 'position': 'blue_bottom_Q_0', 'orientation': 'blue_left_B_45'}","['position', 'orientation']",0,position,blue_bottom_Q_0,2,letter,1,False,False,"['robot_stimuli\\\\filler.mp4', 'robot_stimuli\\\\filler.mp4', 'robot_stimuli\\\\filler.mp4', 'robot_stimuli\\\\filler.mp4']",robot_stimuli\\filler.mp4,0,0,0,0,0,0,4,4,4,,,,,,,,,,,,,,,,,,,,,69.4675446000183,69.4675446000183,None,,69.4675446000183,70.46754750001128,70.46754750001128,72.53329510000185,78.98341300000902,81.0162589000247,81.0162589000247,81.0162589000247,81.0162589000247,2,2.1619630999630317,83.2011398000177,83.2011398000177,83.2011398000177,83.2011398000177,83.2011398000177,83.2011398000177,83.2011398000177,83.2011398000177,None,None,None,69.4675446000183,69.4675446000183,,,,,,,,,,,,,,,,,0,001,2024-06-24_14h07.51.500,robot_cogshifting_sign,2022.2.5,60.131278616567165,
"['red_bottom_X_0', 'red_right_Z_45', 'blue_bottom_C_45', 'red_bottom_L_45']","{'color': 'blue_bottom_C_45', 'position': 'red_right_Z_45', 'orientation': 'red_bottom_X_0'}","['color', 'orientation']",0,color,blue_bottom_C_45,2,letter,1,False,True,"['robot_stimuli\\\\filler.mp4', 'robot_stimuli\\\\filler.mp4', 'robot_stimuli\\\\filler.mp4', 'robot_stimuli\\\\filler.mp4']",robot_stimuli\\filler.mp4,0,0,0,0,0,0,5,5,5,,,,,,,,,,,,,,,,,,,,,83.2011398000177,83.2011398000177,None,,83.2011398000177,84.20125250000274,84.20125250000274,86.2670203000016,92.73272130000987,94.94956380000804,94.94956380000804,94.94956380000804,94.94956380000804,3,2.7741489999752957,97.7664850000001,101.11734380002599,97.7664850000001,101.11734380002599,97.7664850000001,101.11734380002599,97.7664850000001,101.11734380002599,29.074074074074073,2.6049904000246897,space,83.2011398000177,83.2011398000177,3.2679645999742206,,,,,,,,,,,,,,,,0,001,2024-06-24_14h07.51.500,robot_cogshifting_sign,2022.2.5,60.131278616567165,
"['red_right_Q_0', 'red_right_V_45', 'blue_right_S_45', 'red_bottom_B_45']","{'color': 'blue_right_S_45', 'position': 'red_bottom_B_45', 'orientation': 'red_right_Q_0'}","['color', 'position', 'orientation']",0,color,blue_right_S_45,3,letter,1,True,False,"['robot_stimuli\\\\filler.mp4', 'robot_stimuli\\\\filler.mp4', 'robot_stimuli\\\\filler.mp4', 'robot_stimuli\\\\filler.mp4']",robot_stimuli\\filler.mp4,0,0,0,0,0,0,6,6,6,,,,,,,,,,,,,,,,,,,,,101.11734380002599,101.11734380002599,space,2.926070299989078,104.0674849000061,105.0675056000182,105.0675056000182,107.1327248000016,113.98276940002688,116.19966940002632,116.19966940002632,116.19966940002632,116.19966940002632,2,3.5550266999925952,119.78438530000858,119.78438530000858,119.78438530000858,119.78438530000858,119.78438530000858,119.78438530000858,119.78438530000858,119.78438530000858,None,None,None,,,,,,,,,,,,,,,,,,,0,001,2024-06-24_14h07.51.500,robot_cogshifting_sign,2022.2.5,60.131278616567165,
"['blue_right_R_45', 'blue_left_P_0', 'red_right_G_0', 'blue_right_F_0']","{'color': 'red_right_G_0', 'position': 'blue_left_P_0', 'orientation': 'blue_right_R_45'}","['color', 'position', 'orientation']",1,position,blue_left_P_0,3,letter,1,False,False,"['robot_stimuli\\\\filler.mp4', 'robot_stimuli\\\\filler.mp4', 'robot_stimuli\\\\filler.mp4', 'robot_stimuli\\\\filler.mp4']",robot_stimuli\\filler.mp4,0,0,0,0,0,0,7,7,7,,,,,,,,,,,,,,,,,,,,,119.78438530000858,119.78438530000858,None,,119.78438530000858,120.78440290002618,120.78440290002618,122.84941980001167,129.48342770000454,131.4995956000057,131.4995956000057,131.4995956000057,131.4995956000057,2,3.2154202999954578,134.7340925000026,134.7340925000026,134.7340925000026,134.7340925000026,134.7340925000026,134.7340925000026,134.7340925000026,134.7340925000026,None,None,None,119.78438530000858,119.78438530000858,,,,,,,,,,,,,,,,,0,001,2024-06-24_14h07.51.500,robot_cogshifting_sign,2022.2.5,60.131278616567165,
"['blue_left_X_45', 'red_left_R_0', 'blue_right_B_0', 'blue_left_G_0']","{'color': 'red_left_R_0', 'position': 'blue_right_B_0', 'orientation': 'blue_left_X_45'}","['color', 'position', 'orientation']",2,orientation,blue_left_X_45,3,letter,1,False,True,"['robot_stimuli\\\\filler.mp4', 'robot_stimuli\\\\filler.mp4', 'robot_stimuli\\\\filler.mp4', 'robot_stimuli\\\\filler.mp4']",robot_stimuli\\filler.mp4,0,0,0,0,0,0,8,8,8,,,,,,,,,,,,,,,,,,,,,134.7340925000026,134.7340925000026,None,,134.7340925000026,135.73409020001418,135.73409020001418,137.7993272000167,144.44932450001943,146.66592290002154,146.66592290002154,146.66592290002154,146.66592290002154,3,2.2405977999733295,148.94959850001032,152.96716050000396,148.94959850001032,152.96716050000396,148.94959850001032,152.96716050000396,148.94959850001032,152.96716050000396,48.98148148148148,3.40472900000168,space,134.7340925000026,134.7340925000026,3.95805079996353,,,,,,,,,,,,,,,,0,001,2024-06-24_14h07.51.500,robot_cogshifting_sign,2022.2.5,60.131278616567165,
"['R_Arm_X_For', 'R_Arm_Y_For', 'R_Head_X_Back', 'L_Arm_X_Back']","{'laterality': 'L_Arm_X_Back', 'localisation': 'R_Head_X_Back', 'movement': 'R_Arm_Y_For'}",['movement'],0,movement,R_Arm_Y_For,1,robot,2,True,False,"['robot_stimuli\\R_Arm_X_For.mp4', 'robot_stimuli\\R_Arm_Y_For.mp4', 'robot_stimuli\\R_Head_X_Back.mp4', 'robot_stimuli\\L_Arm_X_Back.mp4']",robot_stimuli\R_Arm_Y_For.mp4,0,0,0,0,0,0,9,9,9,,,,,,,,,,,,,,,,,,,,,152.96716050000396,152.96716050000396,space,2.5949618999729864,155.58408080000663,156.58400160001474,156.58400160001474,158.68439870001748,,,173.38279070000863,173.38279070000863,173.38279070000863,2,0.4838700999680441,173.88406100001885,173.88406100001885,173.88406100001885,173.88406100001885,173.88406100001885,173.88406100001885,173.88406100001885,173.88406100001885,None,None,None,,,,169.73440300000948,,,,,,,,,,,,,,,0,001,2024-06-24_14h07.51.500,robot_cogshifting_sign,2022.2.5,60.131278616567165,
"['L_Arm_Y_Back', 'R_Arm_Z_Back', 'L_Torso_Z_Back', 'L_Arm_Z_For']","{'laterality': 'R_Arm_Z_Back', 'localisation': 'L_Torso_Z_Back', 'movement': 'L_Arm_Y_Back'}",['laterality'],0,laterality,R_Arm_Z_Back,1,robot,2,False,False,"['robot_stimuli\\L_Arm_Y_Back.mp4', 'robot_stimuli\\R_Arm_Z_Back.mp4', 'robot_stimuli\\L_Torso_Z_Back.mp4', 'robot_stimuli\\L_Arm_Z_For.mp4']",robot_stimuli\R_Arm_Z_Back.mp4,0,0,0,0,0,0,10,10,10,,,,,,,,,,,,,,,,,,,,,173.88406100001885,173.88406100001885,None,,173.88406100001885,174.88409410000895,174.88409410000895,176.9844583000231,,,191.66591230002814,191.66591230002814,191.66591230002814,2,0.6167209999694023,192.30074230002356,192.30074230002356,192.30074230002356,192.30074230002356,192.30074230002356,192.30074230002356,192.30074230002356,192.30074230002356,None,None,None,173.88406100001885,173.88406100001885,,188.0177701000066,,,,,,,,,,,,,,,0,001,2024-06-24_14h07.51.500,robot_cogshifting_sign,2022.2.5,60.131278616567165,
"['R_Arm_Y_For', 'R_Base_X_For', 'L_Arm_X_For', 'R_Arm_X_For']","{'laterality': 'L_Arm_X_For', 'localisation': 'R_Base_X_For', 'movement': 'R_Arm_Y_For'}",['localisation'],0,localisation,R_Base_X_For,1,robot,2,False,True,"['robot_stimuli\\R_Arm_Y_For.mp4', 'robot_stimuli\\R_Base_X_For.mp4', 'robot_stimuli\\L_Arm_X_For.mp4', 'robot_stimuli\\R_Arm_X_For.mp4']",robot_stimuli\R_Base_X_For.mp4,0,0,0,0,0,0,11,11,11,,,,,,,,,,,,,,,,,,,,,192.30074230002356,192.30074230002356,None,,192.30074230002356,193.30066650002846,193.30066650002846,195.38441750002676,,,209.9493388000119,209.9493388000119,209.9493388000119,2,0.4451462999568321,210.43290950002847,213.6174863000051,210.43290950002847,213.6174863000051,210.43290950002847,213.6174863000051,210.43290950002847,213.6174863000051,25.061728395061728,2.538063799991505,space,192.30074230002356,192.30074230002356,3.1132251999806613,206.31770800001686,,,,,,,,,,,,,,,0,001,2024-06-24_14h07.51.500,robot_cogshifting_sign,2022.2.5,60.131278616567165,
"['R_Arm_X_For', 'R_Head_X_Back', 'L_Arm_X_For', 'R_Arm_Y_Back']","{'laterality': 'L_Arm_X_For', 'localisation': 'R_Head_X_Back', 'movement': 'R_Arm_Y_Back'}","['laterality', 'localisation']",0,laterality,L_Arm_X_For,2,robot,2,True,False,"['robot_stimuli\\R_Arm_X_For.mp4', 'robot_stimuli\\R_Head_X_Back.mp4', 'robot_stimuli\\L_Arm_X_For.mp4', 'robot_stimuli\\R_Arm_Y_Back.mp4']",robot_stimuli\L_Arm_X_For.mp4,0,0,0,0,0,0,12,12,12,,,,,,,,,,,,,,,,,,,,,213.6174863000051,213.6174863000051,space,0.8255356999870855,214.46728030001395,215.46732670001802,215.46732670001802,217.55100720000337,,,232.39924690002226,232.39924690002226,232.39924690002226,1,3.4506880999542773,235.8673663000227,235.8673663000227,235.8673663000227,235.8673663000227,235.8673663000227,235.8673663000227,235.8673663000227,235.8673663000227,None,None,None,,,,228.75100430002203,,,,,,,,,,,,,,,0,001,2024-06-24_14h07.51.500,robot_cogshifting_sign,2022.2.5,60.131278616567165,
"['L_Base_Z_For', 'R_Base_Z_Back', 'L_Base_Y_For', 'L_Head_Z_Back']","{'laterality': 'R_Base_Z_Back', 'localisation': 'L_Head_Z_Back', 'movement': 'L_Base_Y_For'}","['laterality', 'movement']",0,laterality,R_Base_Z_Back,2,robot,2,False,False,"['robot_stimuli\\L_Base_Z_For.mp4', 'robot_stimuli\\R_Base_Z_Back.mp4', 'robot_stimuli\\L_Base_Y_For.mp4', 'robot_stimuli\\L_Head_Z_Back.mp4']",robot_stimuli\R_Base_Z_Back.mp4,0,0,0,0,0,0,13,13,13,,,,,,,,,,,,,,,,,,,,,235.8673663000227,235.8673663000227,None,,235.8673663000227,236.8672923000122,236.8672923000122,238.95096250000643,,,253.53256760002114,253.53256760002114,253.53256760002114,2,3.0374478999874555,256.6006106000277,256.6006106000277,256.6006106000277,256.6006106000277,256.6006106000277,256.6006106000277,256.6006106000277,256.6006106000277,None,None,None,235.8673663000227,235.8673663000227,,249.90074800001457,,,,,,,,,,,,,,,0,001,2024-06-24_14h07.51.500,robot_cogshifting_sign,2022.2.5,60.131278616567165,
"['R_Torso_Y_Back', 'L_Torso_Z_Back', 'R_Torso_Z_Back', 'R_Arm_Z_For']","{'laterality': 'L_Torso_Z_Back', 'localisation': 'R_Arm_Z_For', 'movement': 'R_Torso_Y_Back'}","['localisation', 'movement']",0,localisation,R_Arm_Z_For,2,robot,2,False,True,"['robot_stimuli\\R_Torso_Y_Back.mp4', 'robot_stimuli\\L_Torso_Z_Back.mp4', 'robot_stimuli\\R_Torso_Z_Back.mp4', 'robot_stimuli\\R_Arm_Z_For.mp4']",robot_stimuli\R_Arm_Z_For.mp4,0,0,0,0,0,0,14,14,14,,,,,,,,,,,,,,,,,,,,,256.6006106000277,256.6006106000277,None,,256.6006106000277,257.6006231000065,257.6006231000065,259.68441020001774,,,274.3325754000107,274.3325754000107,274.3325754000107,4,5.565403999964474,279.93272590002744,283.61703990001115,279.93272590002744,283.61703990001115,279.93272590002744,283.61703990001115,279.93272590002744,283.61703990001115,40.80246913580247,3.038337000005413,space,256.6006106000277,256.6006106000277,3.6131458999880124,270.70089150001877,,,,,,,,,,,,,,,0,001,2024-06-24_14h07.51.500,robot_cogshifting_sign,2022.2.5,60.131278616567165,
"['R_Head_Z_Back', 'R_Head_Y_For', 'L_Head_Y_Back', 'R_Torso_Y_For']","{'laterality': 'L_Head_Y_Back', 'localisation': 'R_Torso_Y_For', 'movement': 'R_Head_Z_Back'}","['laterality', 'localisation', 'movement']",2,movement,R_Head_Z_Back,3,robot,2,True,False,"['robot_stimuli\\R_Head_Z_Back.mp4', 'robot_stimuli\\R_Head_Y_For.mp4', 'robot_stimuli\\L_Head_Y_Back.mp4', 'robot_stimuli\\R_Torso_Y_For.mp4']",robot_stimuli\R_Head_Z_Back.mp4,0,0,0,0,0,0,15,15,15,,,,,,,,,,,,,,,,,,,,,283.61703990001115,283.61703990001115,space,0.7302878999907989,284.366806200007,285.36677520000376,285.36677520000376,287.4503261000209,,,302.2657816000283,302.2657816000283,302.2657816000283,1,3.745097899954999,306.0338272000081,306.0338272000081,306.0338272000081,306.0338272000081,306.0338272000081,306.0338272000081,306.0338272000081,306.0338272000081,None,None,None,,,,298.6342622000084,,,,,,,,,,,,,,,0,001,2024-06-24_14h07.51.500,robot_cogshifting_sign,2022.2.5,60.131278616567165,
"['R_Torso_Y_Back', 'R_Torso_Z_Back', 'L_Torso_Z_For', 'R_Head_Z_Back']","{'laterality': 'L_Torso_Z_For', 'localisation': 'R_Head_Z_Back', 'movement': 'R_Torso_Y_Back'}","['laterality', 'localisation', 'movement']",1,localisation,R_Head_Z_Back,3,robot,2,False,False,"['robot_stimuli\\R_Torso_Y_Back.mp4', 'robot_stimuli\\R_Torso_Z_Back.mp4', 'robot_stimuli\\L_Torso_Z_For.mp4', 'robot_stimuli\\R_Head_Z_Back.mp4']",robot_stimuli\R_Head_Z_Back.mp4,0,0,0,0,0,0,16,16,16,,,,,,,,,,,,,,,,,,,,,306.0338272000081,306.0338272000081,None,,306.0338272000081,307.033849200001,307.033849200001,309.11761250000563,,,323.8992457000131,323.8992457000131,323.8992457000131,2,3.4709447999484837,327.40063790002023,327.40063790002023,327.40063790002023,327.40063790002023,327.40063790002023,327.40063790002023,327.40063790002023,327.40063790002023,None,None,None,306.0338272000081,306.0338272000081,,320.2676161000272,,,,,,,,,,,,,,,0,001,2024-06-24_14h07.51.500,robot_cogshifting_sign,2022.2.5,60.131278616567165,
"['L_Torso_Z_For', 'R_Torso_X_For', 'R_Torso_Z_For', 'R_Arm_Z_Back']","{'laterality': 'L_Torso_Z_For', 'localisation': 'R_Arm_Z_Back', 'movement': 'R_Torso_X_For'}","['laterality', 'localisation', 'movement']",0,laterality,L_Torso_Z_For,3,robot,2,False,True,"['robot_stimuli\\L_Torso_Z_For.mp4', 'robot_stimuli\\R_Torso_X_For.mp4', 'robot_stimuli\\R_Torso_Z_For.mp4', 'robot_stimuli\\R_Arm_Z_Back.mp4']",robot_stimuli\L_Torso_Z_For.mp4,0,0,0,0,0,0,17,17,17,,,,,,,,,,,,,,,,,,,,,327.40063790002023,327.40063790002023,None,,327.40063790002023,328.400531900028,328.400531900028,330.48442640001304,,,345.2657484000083,345.2657484000083,345.2657484000083,2,2.3602800999651663,347.666034200025,350.78385840001283,347.666034200025,350.78385840001283,347.666034200025,350.78385840001283,347.666034200025,350.78385840001283,60.092592592592595,2.305367799999658,space,327.40063790002023,327.40063790002023,3.064191799989203,341.63416660000803,,,,,,,,,,,,,,,0,001,2024-06-24_14h07.51.500,robot_cogshifting_sign,2022.2.5,60.131278616567165,
,,,,,,,,,,,,,,0,0,0,0,,,,,,,,,,,,,,,,,,,,,,,,,,,,,,,,,,,,,,,,,,,,,,,,,,,,,,,350.78385840001283,350.78385840001283,350.78385840001283,c,1.1950895999907516,,,,,,,,,,0,001,2024-06-24_14h07.51.500,robot_cogshifting_sign,2022.2.5,60.131278616567165,
"['blue_top_Q_0', 'red_top_W_45', 'blue_top_M_45', 'blue_right_V_45']","{'color': 'red_top_W_45', 'position': 'blue_right_V_45', 'orientation': 'blue_top_Q_0'}","['color', 'position', 'orientation']",1,position,blue_right_V_45,3,letter,1,True,False,"['robot_stimuli\\\\filler.mp4', 'robot_stimuli\\\\filler.mp4', 'robot_stimuli\\\\filler.mp4', 'robot_stimuli\\\\filler.mp4']",robot_stimuli\\filler.mp4,0,,,,,,,,,,,,,0,0,0,0,,,,,,,,,,,,,,,,,,,354.91708870002185,356.96658070001286,,,365.4158972000005,365.4158972000005,365.4158972000005,4,2.6424746999691706,368.08378400001675,368.08378400001675,368.08378400001675,368.08378400001675,368.08378400001675,368.08378400001675,368.08378400001675,368.08378400001675,None,None,None,,,,,,,,,,352.01589650000096,352.01589650000096,space,2.874671799974749,363.3989767000021,365.4158972000005,,,,0,001,2024-06-24_14h07.51.500,robot_cogshifting_sign,2022.2.5,60.131278616567165,
"['red_left_H_45', 'red_bottom_N_0', 'red_left_T_0', 'blue_left_P_0']","{'color': 'blue_left_P_0', 'position': 'red_bottom_N_0', 'orientation': 'red_left_H_45'}","['color', 'position', 'orientation']",0,color,blue_left_P_0,3,letter,1,False,False,"['robot_stimuli\\\\filler.mp4', 'robot_stimuli\\\\filler.mp4', 'robot_stimuli\\\\filler.mp4', 'robot_stimuli\\\\filler.mp4']",robot_stimuli\\filler.mp4,0,,,,,,,,,,,,,0,1,1,1,,,,,,,,,,,,,,,,,,,368.08378400001675,370.14967880002223,,,378.9824526000011,378.9824526000011,378.9824526000011,4,1.5247513999929652,380.5341958000208,380.5341958000208,380.5341958000208,380.5341958000208,380.5341958000208,380.5341958000208,380.5341958000208,380.5341958000208,None,None,None,,,,,,,,,,368.08378400001675,368.08378400001675,None,,376.9666530000104,378.9824526000011,368.08378400001675,368.08378400001675,,0,001,2024-06-24_14h07.51.500,robot_cogshifting_sign,2022.2.5,60.131278616567165,
"['blue_bottom_B_45', 'blue_left_X_0', 'blue_bottom_K_0', 'red_bottom_K_0']","{'color': 'red_bottom_K_0', 'position': 'blue_left_X_0', 'orientation': 'blue_bottom_B_45'}","['color', 'position', 'orientation']",2,orientation,blue_bottom_B_45,3,letter,1,False,False,"['robot_stimuli\\\\filler.mp4', 'robot_stimuli\\\\filler.mp4', 'robot_stimuli\\\\filler.mp4', 'robot_stimuli\\\\filler.mp4']",robot_stimuli\\filler.mp4,0,,,,,,,,,,,,,0,2,2,2,,,,,,,,,,,,,,,,,,,380.5341958000208,382.59907140000723,,,391.2325980000023,391.2325980000023,391.2325980000023,2,2.5386683999968227,393.8004974000214,393.8004974000214,393.8004974000214,393.8004974000214,393.8004974000214,393.8004974000214,393.8004974000214,393.8004974000214,None,None,None,,,,,,,,,,380.5341958000208,380.5341958000208,None,,389.2167376000143,391.2325980000023,380.5341958000208,380.5341958000208,,0,001,2024-06-24_14h07.51.500,robot_cogshifting_sign,2022.2.5,60.131278616567165,
"['red_left_G_0', 'red_top_K_45', 'red_top_H_0', 'blue_top_D_0']","{'color': 'blue_top_D_0', 'position': 'red_left_G_0', 'orientation': 'red_top_K_45'}","['color', 'position', 'orientation']",2,orientation,red_top_K_45,3,letter,1,False,False,"['robot_stimuli\\\\filler.mp4', 'robot_stimuli\\\\filler.mp4', 'robot_stimuli\\\\filler.mp4', 'robot_stimuli\\\\filler.mp4']",robot_stimuli\\filler.mp4,0,,,,,,,,,,,,,0,3,3,3,,,,,,,,,,,,,,,,,,,393.8004974000214,395.86573020002106,,,404.89930509999976,404.89930509999976,404.89930509999976,2,2.9020657999499235,407.8337803000177,407.8337803000177,407.8337803000177,407.8337803000177,407.8337803000177,407.8337803000177,407.8337803000177,407.8337803000177,None,None,None,,,,,,,,,,393.8004974000214,393.8004974000214,None,,402.68231530001503,404.89930509999976,393.8004974000214,393.8004974000214,,0,001,2024-06-24_14h07.51.500,robot_cogshifting_sign,2022.2.5,60.131278616567165,
"['red_right_S_0', 'blue_right_D_0', 'blue_right_J_45', 'blue_top_T_0']","{'color': 'red_right_S_0', 'position': 'blue_top_T_0', 'orientation': 'blue_right_J_45'}","['color', 'position', 'orientation']",0,color,red_right_S_0,3,letter,1,False,False,"['robot_stimuli\\\\filler.mp4', 'robot_stimuli\\\\filler.mp4', 'robot_stimuli\\\\filler.mp4', 'robot_stimuli\\\\filler.mp4']",robot_stimuli\\filler.mp4,0,,,,,,,,,,,,,0,4,4,4,,,,,,,,,,,,,,,,,,,407.8337803000177,409.89887180001824,,,418.53245940001216,418.53245940001216,418.53245940001216,2,1.6533412999706343,420.2174827000126,420.2174827000126,420.2174827000126,420.2174827000126,420.2174827000126,420.2174827000126,420.2174827000126,420.2174827000126,None,None,None,,,,,,,,,,407.8337803000177,407.8337803000177,None,,416.5163041000196,418.53245940001216,407.8337803000177,407.8337803000177,,0,001,2024-06-24_14h07.51.500,robot_cogshifting_sign,2022.2.5,60.131278616567165,
"['red_right_V_0', 'blue_right_S_0', 'blue_right_P_45', 'blue_left_T_0']","{'color': 'red_right_V_0', 'position': 'blue_left_T_0', 'orientation': 'blue_right_P_45'}","['color', 'position', 'orientation']",2,orientation,blue_right_P_45,3,letter,1,False,False,"['robot_stimuli\\\\filler.mp4', 'robot_stimuli\\\\filler.mp4', 'robot_stimuli\\\\filler.mp4', 'robot_stimuli\\\\filler.mp4']",robot_stimuli\\filler.mp4,0,,,,,,,,,,,,,0,5,5,5,,,,,,,,,,,,,,,,,,,420.2174827000126,422.2663787000056,,,430.91581160001806,430.91581160001806,430.91581160001806,3,2.838106599985622,433.7837118000025,433.7837118000025,433.7837118000025,433.7837118000025,433.7837118000025,433.7837118000025,433.7837118000025,433.7837118000025,None,None,None,,,,,,,,,,420.2174827000126,420.2174827000126,None,,428.8989056000137,430.91581160001806,420.2174827000126,420.2174827000126,,0,001,2024-06-24_14h07.51.500,robot_cogshifting_sign,2022.2.5,60.131278616567165,
"['blue_bottom_M_0', 'red_bottom_V_0', 'red_bottom_F_45', 'red_left_F_0']","{'color': 'blue_bottom_M_0', 'position': 'red_left_F_0', 'orientation': 'red_bottom_F_45'}","['color', 'position', 'orientation']",0,color,blue_bottom_M_0,3,letter,1,False,False,"['robot_stimuli\\\\filler.mp4', 'robot_stimuli\\\\filler.mp4', 'robot_stimuli\\\\filler.mp4', 'robot_stimuli\\\\filler.mp4']",robot_stimuli\\filler.mp4,0,,,,,,,,,,,,,0,6,6,6,,,,,,,,,,,,,,,,,,,433.7837118000025,435.83270920001087,,,444.29891340000904,444.29891340000904,444.29891340000904,1,2.0634249999711756,446.38403770001605,446.38403770001605,446.38403770001605,446.38403770001605,446.38403770001605,446.38403770001605,446.38403770001605,446.38403770001605,None,None,None,,,,,,,,,,433.7837118000025,433.7837118000025,None,,442.08241720002843,444.29891340000904,433.7837118000025,433.7837118000025,,0,001,2024-06-24_14h07.51.500,robot_cogshifting_sign,2022.2.5,60.131278616567165,
"['blue_top_X_45', 'blue_top_H_0', 'blue_left_J_0', 'red_top_B_0']","{'color': 'red_top_B_0', 'position': 'blue_left_J_0', 'orientation': 'blue_top_X_45'}","['color', 'position', 'orientation']",1,position,blue_left_J_0,3,letter,1,False,False,"['robot_stimuli\\\\filler.mp4', 'robot_stimuli\\\\filler.mp4', 'robot_stimuli\\\\filler.mp4', 'robot_stimuli\\\\filler.mp4']",robot_stimuli\\filler.mp4,0,,,,,,,,,,,,,0,7,7,7,,,,,,,,,,,,,,,,,,,446.38403770001605,448.44893890002277,,,456.88224090001313,456.88224090001313,456.88224090001313,3,3.510997499979567,460.4170704999997,460.4170704999997,460.4170704999997,460.4170704999997,460.4170704999997,460.4170704999997,460.4170704999997,460.4170704999997,None,None,None,,,,,,,,,,446.38403770001605,446.38403770001605,None,,454.86650300002657,456.88224090001313,446.38403770001605,446.38403770001605,,0,001,2024-06-24_14h07.51.500,robot_cogshifting_sign,2022.2.5,60.131278616567165,
"['blue_top_H_45', 'red_left_D_45', 'red_top_K_45', 'red_top_L_0']","{'color': 'blue_top_H_45', 'position': 'red_left_D_45', 'orientation': 'red_top_L_0'}","['color', 'position', 'orientation']",2,orientation,red_top_L_0,3,letter,1,False,False,"['robot_stimuli\\\\filler.mp4', 'robot_stimuli\\\\filler.mp4', 'robot_stimuli\\\\filler.mp4', 'robot_stimuli\\\\filler.mp4']",robot_stimuli\\filler.mp4,0,,,,,,,,,,,,,0,8,8,8,,,,,,,,,,,,,,,,,,,460.4170704999997,462.4826146000123,,,471.13245710000047,471.13245710000047,471.13245710000047,3,6.60562239997671,477.7669378000137,477.7669378000137,477.7669378000137,477.7669378000137,477.7669378000137,477.7669378000137,477.7669378000137,477.7669378000137,None,None,None,,,,,,,,,,460.4170704999997,460.4170704999997,None,,468.9157452000072,471.13245710000047,460.4170704999997,460.4170704999997,,0,001,2024-06-24_14h07.51.500,robot_cogshifting_sign,2022.2.5,60.131278616567165,
"['blue_right_H_0', 'blue_right_W_45', 'blue_left_S_45', 'red_right_L_45']","{'color': 'red_right_L_45', 'position': 'blue_left_S_45', 'orientation': 'blue_right_H_0'}","['color', 'position', 'orientation']",1,position,blue_left_S_45,3,letter,1,False,False,"['robot_stimuli\\\\filler.mp4', 'robot_stimuli\\\\filler.mp4', 'robot_stimuli\\\\filler.mp4', 'robot_stimuli\\\\filler.mp4']",robot_stimuli\\filler.mp4,0,,,,,,,,,,,,,0,9,9,9,,,,,,,,,,,,,,,,,,,477.7669378000137,479.8321511000104,,,488.46558130002813,488.46558130002813,488.46558130002813,3,3.865259399957722,492.3506802000047,492.3506802000047,492.3506802000047,492.3506802000047,492.3506802000047,492.3506802000047,492.3506802000047,492.3506802000047,None,None,None,,,,,,,,,,477.7669378000137,477.7669378000137,None,,486.4491194000002,488.46558130002813,477.7669378000137,477.7669378000137,,0,001,2024-06-24_14h07.51.500,robot_cogshifting_sign,2022.2.5,60.131278616567165,
"['blue_left_X_45', 'red_left_N_45', 'red_top_Q_45', 'red_left_K_0']","{'color': 'blue_left_X_45', 'position': 'red_top_Q_45', 'orientation': 'red_left_K_0'}","['color', 'position', 'orientation']",1,position,red_top_Q_45,3,letter,1,False,False,"['robot_stimuli\\\\filler.mp4', 'robot_stimuli\\\\filler.mp4', 'robot_stimuli\\\\filler.mp4', 'robot_stimuli\\\\filler.mp4']",robot_stimuli\\filler.mp4,0,,,,,,,,,,,,,0,10,10,10,,,,,,,,,,,,,,,,,,,492.3506802000047,494.39979980001226,,,502.8321609000268,502.8321609000268,502.8321609000268,3,2.5219085999706294,505.3840179000108,505.3840179000108,505.3840179000108,505.3840179000108,505.3840179000108,505.3840179000108,505.3840179000108,505.3840179000108,None,None,None,,,,,,,,,,492.3506802000047,492.3506802000047,None,,500.81648150002,502.8321609000268,492.3506802000047,492.3506802000047,,0,001,2024-06-24_14h07.51.500,robot_cogshifting_sign,2022.2.5,60.131278616567165,
"['red_bottom_X_0', 'blue_right_R_0', 'blue_bottom_L_45', 'blue_bottom_R_0']","{'color': 'red_bottom_X_0', 'position': 'blue_right_R_0', 'orientation': 'blue_bottom_L_45'}","['color', 'position', 'orientation']",0,color,red_bottom_X_0,3,letter,1,False,True,"['robot_stimuli\\\\filler.mp4', 'robot_stimuli\\\\filler.mp4', 'robot_stimuli\\\\filler.mp4', 'robot_stimuli\\\\filler.mp4']",robot_stimuli\\filler.mp4,0,,,,,,,,,,,,,0,11,11,11,,,,,,,,,,,,,,,,,,,505.3840179000108,507.4491632000136,,,515.8822474000044,515.8822474000044,515.8822474000044,1,2.160849399951985,518.0825017000025,521.5006200000062,518.0825017000025,521.5006200000062,518.0825017000025,521.5006200000062,518.0825017000025,521.5006200000062,38.64197530864198,2.7384355000103824,space,,,3.351771399989957,,,,,,,505.3840179000108,505.3840179000108,None,,513.8661029000068,515.8822474000044,505.3840179000108,505.3840179000108,,0,001,2024-06-24_14h07.51.500,robot_cogshifting_sign,2022.2.5,60.131278616567165,
"['red_right_R_45', 'blue_bottom_K_45', 'red_bottom_H_0', 'red_bottom_D_45']","{'color': 'blue_bottom_K_45', 'position': 'red_right_R_45', 'orientation': 'red_bottom_H_0'}",['position'],0,position,red_right_R_45,1,letter,1,True,False,"['robot_stimuli\\\\filler.mp4', 'robot_stimuli\\\\filler.mp4', 'robot_stimuli\\\\filler.mp4', 'robot_stimuli\\\\filler.mp4']",robot_stimuli\\filler.mp4,0,,,,,,,,,,,,,0,12,12,12,,,,,,,,,,,,,,,,,,,523.2670951000182,525.3165143000078,,,533.9823701000132,533.9823701000132,533.9823701000132,1,3.8517522999609355,537.8672959000105,537.8672959000105,537.8672959000105,537.8672959000105,537.8672959000105,537.8672959000105,537.8672959000105,537.8672959000105,None,None,None,,,,,,,,,,521.5006200000062,521.5006200000062,space,1.7413943999854382,531.949683200015,533.9823701000132,,,,0,001,2024-06-24_14h07.51.500,robot_cogshifting_sign,2022.2.5,60.131278616567165,
"['red_bottom_F_45', 'red_left_G_45', 'red_bottom_W_0', 'blue_bottom_S_45']","{'color': 'blue_bottom_S_45', 'position': 'red_left_G_45', 'orientation': 'red_bottom_W_0'}",['color'],0,color,blue_bottom_S_45,1,letter,1,False,False,"['robot_stimuli\\\\filler.mp4', 'robot_stimuli\\\\filler.mp4', 'robot_stimuli\\\\filler.mp4', 'robot_stimuli\\\\filler.mp4']",robot_stimuli\\filler.mp4,0,,,,,,,,,,,,,0,13,13,13,,,,,,,,,,,,,,,,,,,537.8672959000105,539.9161226000288,,,548.1822454000067,548.1822454000067,548.1822454000067,4,1.0126121999928728,549.2169099000166,549.2169099000166,549.2169099000166,549.2169099000166,549.2169099000166,549.2169099000166,549.2169099000166,549.2169099000166,None,None,None,,,,,,,,,,537.8672959000105,537.8672959000105,None,,546.1495643000235,548.1822454000067,537.8672959000105,537.8672959000105,,0,001,2024-06-24_14h07.51.500,robot_cogshifting_sign,2022.2.5,60.131278616567165,
"['red_left_W_45', 'blue_top_Q_45', 'red_top_X_45', 'red_top_C_0']","{'color': 'blue_top_Q_45', 'position': 'red_left_W_45', 'orientation': 'red_top_C_0'}",['orientation'],0,orientation,red_top_C_0,1,letter,1,False,False,"['robot_stimuli\\\\filler.mp4', 'robot_stimuli\\\\filler.mp4', 'robot_stimuli\\\\filler.mp4', 'robot_stimuli\\\\filler.mp4']",robot_stimuli\\filler.mp4,0,,,,,,,,,,,,,0,14,14,14,,,,,,,,,,,,,,,,,,,549.2169099000166,551.2821784000262,,,559.9320932000119,559.9320932000119,559.9320932000119,4,0.47727809997741133,560.4334984000016,560.4334984000016,560.4334984000016,560.4334984000016,560.4334984000016,560.4334984000016,560.4334984000016,560.4334984000016,None,None,None,,,,,,,,,,549.2169099000166,549.2169099000166,None,,557.7154426000197,559.9320932000119,549.2169099000166,549.2169099000166,,0,001,2024-06-24_14h07.51.500,robot_cogshifting_sign,2022.2.5,60.131278616567165,
"['blue_left_S_45', 'red_left_B_0', 'red_bottom_Q_45', 'red_left_C_45']","{'color': 'blue_left_S_45', 'position': 'red_bottom_Q_45', 'orientation': 'red_left_B_0'}",['color'],0,color,blue_left_S_45,1,letter,1,False,False,"['robot_stimuli\\\\filler.mp4', 'robot_stimuli\\\\filler.mp4', 'robot_stimuli\\\\filler.mp4', 'robot_stimuli\\\\filler.mp4']",robot_stimuli\\filler.mp4,0,,,,,,,,,,,,,0,15,15,15,,,,,,,,,,,,,,,,,,,560.4334984000016,562.4988050000102,,,571.349027600023,571.349027600023,571.349027600023,3,1.4443208999873605,572.8171440000006,572.8171440000006,572.8171440000006,572.8171440000006,572.8171440000006,572.8171440000006,572.8171440000006,572.8171440000006,None,None,None,,,,,,,,,,560.4334984000016,560.4334984000016,None,,569.3325555000047,571.349027600023,560.4334984000016,560.4334984000016,,0,001,2024-06-24_14h07.51.500,robot_cogshifting_sign,2022.2.5,60.131278616567165,
"['red_top_V_0', 'red_bottom_M_45', 'blue_top_F_45', 'red_top_M_45']","{'color': 'blue_top_F_45', 'position': 'red_bottom_M_45', 'orientation': 'red_top_V_0'}",['color'],0,color,blue_top_F_45,1,letter,1,False,False,"['robot_stimuli\\\\filler.mp4', 'robot_stimuli\\\\filler.mp4', 'robot_stimuli\\\\filler.mp4', 'robot_stimuli\\\\filler.mp4']",robot_stimuli\\filler.mp4,0,,,,,,,,,,,,,0,16,16,16,,,,,,,,,,,,,,,,,,,572.8171440000006,574.8821268000174,,,583.3155570000235,583.3155570000235,583.3155570000235,3,0.6627209999714978,584.0004908000119,584.0004908000119,584.0004908000119,584.0004908000119,584.0004908000119,584.0004908000119,584.0004908000119,584.0004908000119,None,None,None,,,,,,,,,,572.8171440000006,572.8171440000006,None,,581.2830282000068,583.3155570000235,572.8171440000006,572.8171440000006,,0,001,2024-06-24_14h07.51.500,robot_cogshifting_sign,2022.2.5,60.131278616567165,
"['blue_bottom_L_0', 'blue_right_Z_0', 'blue_bottom_X_45', 'red_bottom_F_0']","{'color': 'red_bottom_F_0', 'position': 'blue_right_Z_0', 'orientation': 'blue_bottom_X_45'}",['orientation'],0,orientation,blue_bottom_X_45,1,letter,1,False,False,"['robot_stimuli\\\\filler.mp4', 'robot_stimuli\\\\filler.mp4', 'robot_stimuli\\\\filler.mp4', 'robot_stimuli\\\\filler.mp4']",robot_stimuli\\filler.mp4,0,,,,,,,,,,,,,0,17,17,17,,,,,,,,,,,,,,,,,,,584.0004908000119,586.0495474000054,,,594.6988951000094,594.6988951000094,594.6988951000094,3,0.41519249996053986,595.1334137000085,595.1334137000085,595.1334137000085,595.1334137000085,595.1334137000085,595.1334137000085,595.1334137000085,595.1334137000085,None,None,None,,,,,,,,,,584.0004908000119,584.0004908000119,None,,592.6821053000167,594.6988951000094,584.0004908000119,584.0004908000119,,0,001,2024-06-24_14h07.51.500,robot_cogshifting_sign,2022.2.5,60.131278616567165,
"['red_right_L_0', 'red_bottom_G_45', 'red_right_Q_45', 'blue_right_Z_45']","{'color': 'blue_right_Z_45', 'position': 'red_bottom_G_45', 'orientation': 'red_right_L_0'}",['position'],0,position,red_bottom_G_45,1,letter,1,False,False,"['robot_stimuli\\\\filler.mp4', 'robot_stimuli\\\\filler.mp4', 'robot_stimuli\\\\filler.mp4', 'robot_stimuli\\\\filler.mp4']",robot_stimuli\\filler.mp4,0,,,,,,,,,,,,,0,18,18,18,,,,,,,,,,,,,,,,,,,595.1334137000085,597.1827355000132,,,605.8155529000214,605.8155529000214,605.8155529000214,2,0.6574944999592844,606.5004658000253,606.5004658000253,606.5004658000253,606.5004658000253,606.5004658000253,606.5004658000253,606.5004658000253,606.5004658000253,None,None,None,,,,,,,,,,595.1334137000085,595.1334137000085,None,,603.7990256000194,605.8155529000214,595.1334137000085,595.1334137000085,,0,001,2024-06-24_14h07.51.500,robot_cogshifting_sign,2022.2.5,60.131278616567165,
"['blue_right_Z_0', 'red_right_H_45', 'red_right_X_0', 'red_bottom_C_0']","{'color': 'blue_right_Z_0', 'position': 'red_bottom_C_0', 'orientation': 'red_right_H_45'}",['color'],0,color,blue_right_Z_0,1,letter,1,False,False,"['robot_stimuli\\\\filler.mp4', 'robot_stimuli\\\\filler.mp4', 'robot_stimuli\\\\filler.mp4', 'robot_stimuli\\\\filler.mp4']",robot_stimuli\\filler.mp4,0,,,,,,,,,,,,,0,19,19,19,,,,,,,,,,,,,,,,,,,606.5004658000253,608.5653787000047,,,617.3820827000018,617.3820827000018,617.3820827000018,2,2.147680499969283,619.550100100023,619.550100100023,619.550100100023,619.550100100023,619.550100100023,619.550100100023,619.550100100023,619.550100100023,None,None,None,,,,,,,,,,606.5004658000253,606.5004658000253,None,,615.1820222000242,617.3820827000018,606.5004658000253,606.5004658000253,,0,001,2024-06-24_14h07.51.500,robot_cogshifting_sign,2022.2.5,60.131278616567165,
"['red_bottom_V_0', 'red_right_J_45', 'blue_bottom_P_45', 'red_bottom_Z_45']","{'color': 'blue_bottom_P_45', 'position': 'red_right_J_45', 'orientation': 'red_bottom_V_0'}",['position'],0,position,red_right_J_45,1,letter,1,False,False,"['robot_stimuli\\\\filler.mp4', 'robot_stimuli\\\\filler.mp4', 'robot_stimuli\\\\filler.mp4', 'robot_stimuli\\\\filler.mp4']",robot_stimuli\\filler.mp4,0,,,,,,,,,,,,,0,20,20,20,,,,,,,,,,,,,,,,,,,619.550100100023,621.6154026000004,,,630.6656166000175,630.6656166000175,630.6656166000175,2,0.38355879997834563,631.0667733000009,631.0667733000009,631.0667733000009,631.0667733000009,631.0667733000009,631.0667733000009,631.0667733000009,631.0667733000009,None,None,None,,,,,,,,,,619.550100100023,619.550100100023,None,,628.4488880000135,630.6656166000175,619.550100100023,619.550100100023,,0,001,2024-06-24_14h07.51.500,robot_cogshifting_sign,2022.2.5,60.131278616567165,
"['red_left_H_45', 'blue_right_F_45', 'blue_left_W_45', 'blue_left_Q_0']","{'color': 'red_left_H_45', 'position': 'blue_right_F_45', 'orientation': 'blue_left_Q_0'}",['position'],0,position,blue_right_F_45,1,letter,1,False,False,"['robot_stimuli\\\\filler.mp4', 'robot_stimuli\\\\filler.mp4', 'robot_stimuli\\\\filler.mp4', 'robot_stimuli\\\\filler.mp4']",robot_stimuli\\filler.mp4,0,,,,,,,,,,,,,0,21,21,21,,,,,,,,,,,,,,,,,,,631.0667733000009,633.1320747000282,,,641.9986905000114,641.9986905000114,641.9986905000114,2,0.6358252999780234,642.6667400000151,642.6667400000151,642.6667400000151,642.6667400000151,642.6667400000151,642.6667400000151,642.6667400000151,642.6667400000151,None,None,None,,,,,,,,,,631.0667733000009,631.0667733000009,None,,639.7818990000233,641.9986905000114,631.0667733000009,631.0667733000009,,0,001,2024-06-24_14h07.51.500,robot_cogshifting_sign,2022.2.5,60.131278616567165,
"['blue_bottom_R_45', 'red_bottom_G_45', 'blue_bottom_N_0', 'blue_top_X_45']","{'color': 'red_bottom_G_45', 'position': 'blue_top_X_45', 'orientation': 'blue_bottom_N_0'}",['orientation'],0,orientation,blue_bottom_N_0,1,letter,1,False,False,"['robot_stimuli\\\\filler.mp4', 'robot_stimuli\\\\filler.mp4', 'robot_stimuli\\\\filler.mp4', 'robot_stimuli\\\\filler.mp4']",robot_stimuli\\filler.mp4,0,,,,,,,,,,,,,0,22,22,22,,,,,,,,,,,,,,,,,,,642.6667400000151,644.7164184000285,,,653.3821420000168,653.3821420000168,653.3821420000168,3,0.3395016999565996,653.750088700006,653.750088700006,653.750088700006,653.750088700006,653.750088700006,653.750088700006,653.750088700006,653.750088700006,None,None,None,,,,,,,,,,642.6667400000151,642.6667400000151,None,,651.1656320000184,653.3821420000168,642.6667400000151,642.6667400000151,,0,001,2024-06-24_14h07.51.500,robot_cogshifting_sign,2022.2.5,60.131278616567165,
"['red_top_C_0', 'red_bottom_R_0', 'red_bottom_V_45', 'blue_bottom_F_0']","{'color': 'blue_bottom_F_0', 'position': 'red_top_C_0', 'orientation': 'red_bottom_V_45'}",['orientation'],0,orientation,red_bottom_V_45,1,letter,1,False,True,"['robot_stimuli\\\\filler.mp4', 'robot_stimuli\\\\filler.mp4', 'robot_stimuli\\\\filler.mp4', 'robot_stimuli\\\\filler.mp4']",robot_stimuli\\filler.mp4,0,,,,,,,,,,,,,0,23,23,23,,,,,,,,,,,,,,,,,,,653.750088700006,655.8153219000087,,,664.4656038000248,664.4656038000248,664.4656038000248,2,0.6954911999928299,665.1989383000182,669.2835986000136,665.1989383000182,669.2835986000136,665.1989383000182,669.2835986000136,665.1989383000182,669.2835986000136,14.413580246913574,3.7713158999977168,space,,,4.011591199989198,,,,,,,653.750088700006,653.750088700006,None,,662.4326193000015,664.4656038000248,653.750088700006,653.750088700006,,0,001,2024-06-24_14h07.51.500,robot_cogshifting_sign,2022.2.5,60.131278616567165,
"['red_bottom_B_0', 'blue_bottom_X_45', 'blue_left_G_0', 'blue_bottom_J_0']","{'color': 'red_bottom_B_0', 'position': 'blue_left_G_0', 'orientation': 'blue_bottom_X_45'}","['color', 'position']",0,color,red_bottom_B_0,2,letter,1,True,False,"['robot_stimuli\\\\filler.mp4', 'robot_stimuli\\\\filler.mp4', 'robot_stimuli\\\\filler.mp4', 'robot_stimuli\\\\filler.mp4']",robot_stimuli\\filler.mp4,0,,,,,,,,,,,,,0,24,24,24,,,,,,,,,,,,,,,,,,,674.1667354000092,676.2319991000113,,,684.865425200027,684.865425200027,684.865425200027,1,2.1693995999521576,687.0667143000173,687.0667143000173,687.0667143000173,687.0667143000173,687.0667143000173,687.0667143000173,687.0667143000173,687.0667143000173,None,None,None,,,,,,,,,,669.2835986000136,669.2835986000136,space,4.8540505999699235,682.6487634000077,684.865425200027,,,,0,001,2024-06-24_14h07.51.500,robot_cogshifting_sign,2022.2.5,60.131278616567165,
"['blue_left_R_0', 'blue_right_H_0', 'red_right_L_0', 'blue_right_K_45']","{'color': 'red_right_L_0', 'position': 'blue_left_R_0', 'orientation': 'blue_right_K_45'}","['position', 'orientation']",0,position,blue_left_R_0,2,letter,1,False,False,"['robot_stimuli\\\\filler.mp4', 'robot_stimuli\\\\filler.mp4', 'robot_stimuli\\\\filler.mp4', 'robot_stimuli\\\\filler.mp4']",robot_stimuli\\filler.mp4,0,,,,,,,,,,,,,0,25,25,25,,,,,,,,,,,,,,,,,,,687.0667143000173,689.1322147000174,,,697.5654865000106,697.5654865000106,697.5654865000106,1,2.108643999963533,699.7000551000237,699.7000551000237,699.7000551000237,699.7000551000237,699.7000551000237,699.7000551000237,699.7000551000237,699.7000551000237,None,None,None,,,,,,,,,,687.0667143000173,687.0667143000173,None,,695.5325137000182,697.5654865000106,687.0667143000173,687.0667143000173,,0,001,2024-06-24_14h07.51.500,robot_cogshifting_sign,2022.2.5,60.131278616567165,
"['red_left_H_0', 'red_top_R_45', 'blue_left_H_45', 'red_left_M_45']","{'color': 'blue_left_H_45', 'position': 'red_top_R_45', 'orientation': 'red_left_H_0'}","['position', 'orientation']",1,orientation,red_left_H_0,2,letter,1,False,False,"['robot_stimuli\\\\filler.mp4', 'robot_stimuli\\\\filler.mp4', 'robot_stimuli\\\\filler.mp4', 'robot_stimuli\\\\filler.mp4']",robot_stimuli\\filler.mp4,0,,,,,,,,,,,,,0,26,26,26,,,,,,,,,,,,,,,,,,,699.7000551000237,701.7497084000206,,,710.1985818000103,710.1985818000103,710.1985818000103,1,1.9224845999851823,712.1502914000012,712.1502914000012,712.1502914000012,712.1502914000012,712.1502914000012,712.1502914000012,712.1502914000012,712.1502914000012,None,None,None,,,,,,,,,,699.7000551000237,699.7000551000237,None,,708.1828361000225,710.1985818000103,699.7000551000237,699.7000551000237,,0,001,2024-06-24_14h07.51.500,robot_cogshifting_sign,2022.2.5,60.131278616567165,
"['blue_left_Q_45', 'red_left_B_0', 'red_top_B_45', 'red_left_R_45']","{'color': 'blue_left_Q_45', 'position': 'red_top_B_45', 'orientation': 'red_left_B_0'}","['position', 'orientation']",1,orientation,red_left_B_0,2,letter,1,False,False,"['robot_stimuli\\\\filler.mp4', 'robot_stimuli\\\\filler.mp4', 'robot_stimuli\\\\filler.mp4', 'robot_stimuli\\\\filler.mp4']",robot_stimuli\\filler.mp4,0,,,,,,,,,,,,,0,27,27,27,,,,,,,,,,,,,,,,,,,712.1502914000012,714.215293300018,,,722.8487324000162,722.8487324000162,722.8487324000162,3,1.512769999972079,724.3833450000093,724.3833450000093,724.3833450000093,724.3833450000093,724.3833450000093,724.3833450000093,724.3833450000093,724.3833450000093,None,None,None,,,,,,,,,,712.1502914000012,712.1502914000012,None,,720.8327377000242,722.8487324000162,712.1502914000012,712.1502914000012,,0,001,2024-06-24_14h07.51.500,robot_cogshifting_sign,2022.2.5,60.131278616567165,
"['red_top_K_0', 'red_top_H_45', 'red_right_C_45', 'blue_top_K_45']","{'color': 'blue_top_K_45', 'position': 'red_right_C_45', 'orientation': 'red_top_K_0'}","['color', 'position']",0,color,blue_top_K_45,2,letter,1,False,False,"['robot_stimuli\\\\filler.mp4', 'robot_stimuli\\\\filler.mp4', 'robot_stimuli\\\\filler.mp4', 'robot_stimuli\\\\filler.mp4']",robot_stimuli\\filler.mp4,0,,,,,,,,,,,,,0,28,28,28,,,,,,,,,,,,,,,,,,,724.3833450000093,726.4484256000142,,,735.482083800016,735.482083800016,735.482083800016,4,1.4407452999730594,736.9499659000139,736.9499659000139,736.9499659000139,736.9499659000139,736.9499659000139,736.9499659000139,736.9499659000139,736.9499659000139,None,None,None,,,,,,,,,,724.3833450000093,724.3833450000093,None,,733.2652758000186,735.482083800016,724.3833450000093,724.3833450000093,,0,001,2024-06-24_14h07.51.500,robot_cogshifting_sign,2022.2.5,60.131278616567165,
"['blue_top_H_45', 'red_top_K_0', 'red_top_F_45', 'red_bottom_H_45']","{'color': 'blue_top_H_45', 'position': 'red_bottom_H_45', 'orientation': 'red_top_K_0'}","['color', 'orientation']",0,color,blue_top_H_45,2,letter,1,False,False,"['robot_stimuli\\\\filler.mp4', 'robot_stimuli\\\\filler.mp4', 'robot_stimuli\\\\filler.mp4', 'robot_stimuli\\\\filler.mp4']",robot_stimuli\\filler.mp4,0,,,,,,,,,,,,,0,29,29,29,,,,,,,,,,,,,,,,,,,736.9499659000139,739.0152091000054,,,747.4652865000244,747.4652865000244,747.4652865000244,1,3.088646499963943,750.5836681000073,750.5836681000073,750.5836681000073,750.5836681000073,750.5836681000073,750.5836681000073,750.5836681000073,750.5836681000073,None,None,None,,,,,,,,,,736.9499659000139,736.9499659000139,None,,745.4492487000243,747.4652865000244,736.9499659000139,736.9499659000139,,0,001,2024-06-24_14h07.51.500,robot_cogshifting_sign,2022.2.5,60.131278616567165,
"['blue_top_C_45', 'red_right_P_45', 'blue_right_X_45', 'blue_right_F_0']","{'color': 'red_right_P_45', 'position': 'blue_top_C_45', 'orientation': 'blue_right_F_0'}","['position', 'orientation']",0,position,blue_top_C_45,2,letter,1,False,False,"['robot_stimuli\\\\filler.mp4', 'robot_stimuli\\\\filler.mp4', 'robot_stimuli\\\\filler.mp4', 'robot_stimuli\\\\filler.mp4']",robot_stimuli\\filler.mp4,0,,,,,,,,,,,,,0,30,30,30,,,,,,,,,,,,,,,,,,,750.5836681000073,752.648777400027,,,761.098930600012,761.098930600012,761.098930600012,4,2.6554083999653812,763.783651900012,763.783651900012,763.783651900012,763.783651900012,763.783651900012,763.783651900012,763.783651900012,763.783651900012,None,None,None,,,,,,,,,,750.5836681000073,750.5836681000073,None,,759.0658993000106,761.098930600012,750.5836681000073,750.5836681000073,,0,001,2024-06-24_14h07.51.500,robot_cogshifting_sign,2022.2.5,60.131278616567165,
"['red_right_F_45', 'red_left_Q_45', 'red_right_X_0', 'blue_right_C_45']","{'color': 'blue_right_C_45', 'position': 'red_left_Q_45', 'orientation': 'red_right_X_0'}","['color', 'position']",1,position,red_left_Q_45,2,letter,1,False,False,"['robot_stimuli\\\\filler.mp4', 'robot_stimuli\\\\filler.mp4', 'robot_stimuli\\\\filler.mp4', 'robot_stimuli\\\\filler.mp4']",robot_stimuli\\filler.mp4,0,,,,,,,,,,,,,0,31,31,31,,,,,,,,,,,,,,,,,,,763.783651900012,765.8484004000202,,,774.482031600026,774.482031600026,774.482031600026,2,1.5605512999754865,776.0669676000252,776.0669676000252,776.0669676000252,776.0669676000252,776.0669676000252,776.0669676000252,776.0669676000252,776.0669676000252,None,None,None,,,,,,,,,,763.783651900012,763.783651900012,None,,772.4661892000004,774.482031600026,763.783651900012,763.783651900012,,0,001,2024-06-24_14h07.51.500,robot_cogshifting_sign,2022.2.5,60.131278616567165,
"['red_top_Z_0', 'red_top_J_45', 'red_bottom_B_45', 'blue_top_L_45']","{'color': 'blue_top_L_45', 'position': 'red_bottom_B_45', 'orientation': 'red_top_Z_0'}","['color', 'orientation']",1,orientation,red_top_Z_0,2,letter,1,False,False,"['robot_stimuli\\\\filler.mp4', 'robot_stimuli\\\\filler.mp4', 'robot_stimuli\\\\filler.mp4', 'robot_stimuli\\\\filler.mp4']",robot_stimuli\\filler.mp4,0,,,,,,,,,,,,,0,32,32,32,,,,,,,,,,,,,,,,,,,776.0669676000252,778.1321368000063,,,786.9820393000264,786.9820393000264,786.9820393000264,2,1.7315458999946713,788.7334938000131,788.7334938000131,788.7334938000131,788.7334938000131,788.7334938000131,788.7334938000131,788.7334938000131,788.7334938000131,None,None,None,,,,,,,,,,776.0669676000252,776.0669676000252,None,,784.7651324000035,786.9820393000264,776.0669676000252,776.0669676000252,,0,001,2024-06-24_14h07.51.500,robot_cogshifting_sign,2022.2.5,60.131278616567165,
"['red_top_K_45', 'blue_left_D_45', 'blue_top_S_45', 'blue_top_M_0']","{'color': 'red_top_K_45', 'position': 'blue_left_D_45', 'orientation': 'blue_top_M_0'}","['color', 'position']",1,position,blue_left_D_45,2,letter,1,False,False,"['robot_stimuli\\\\filler.mp4', 'robot_stimuli\\\\filler.mp4', 'robot_stimuli\\\\filler.mp4', 'robot_stimuli\\\\filler.mp4']",robot_stimuli\\filler.mp4,0,,,,,,,,,,,,,0,33,33,33,,,,,,,,,,,,,,,,,,,788.7334938000131,790.7829637000104,,,799.431917400012,799.431917400012,799.431917400012,2,1.793658799957484,801.2503203000233,801.2503203000233,801.2503203000233,801.2503203000233,801.2503203000233,801.2503203000233,801.2503203000233,801.2503203000233,None,None,None,,,,,,,,,,788.7334938000131,788.7334938000131,None,,797.2153242000204,799.431917400012,788.7334938000131,788.7334938000131,,0,001,2024-06-24_14h07.51.500,robot_cogshifting_sign,2022.2.5,60.131278616567165,
"['red_bottom_W_45', 'blue_bottom_Q_0', 'blue_left_V_45', 'blue_bottom_J_45']","{'color': 'red_bottom_W_45', 'position': 'blue_left_V_45', 'orientation': 'blue_bottom_Q_0'}","['color', 'orientation']",1,orientation,blue_bottom_Q_0,2,letter,1,False,False,"['robot_stimuli\\\\filler.mp4', 'robot_stimuli\\\\filler.mp4', 'robot_stimuli\\\\filler.mp4', 'robot_stimuli\\\\filler.mp4']",robot_stimuli\\filler.mp4,0,,,,,,,,,,,,,0,34,34,34,,,,,,,,,,,,,,,,,,,801.2503203000233,803.2995651000238,,,811.7485189000145,811.7485189000145,811.7485189000145,2,0.9657345999730751,812.7335428000079,812.7335428000079,812.7335428000079,812.7335428000079,812.7335428000079,812.7335428000079,812.7335428000079,812.7335428000079,None,None,None,,,,,,,,,,801.2503203000233,801.2503203000233,None,,809.7326855000283,811.7485189000145,801.2503203000233,801.2503203000233,,0,001,2024-06-24_14h07.51.500,robot_cogshifting_sign,2022.2.5,60.131278616567165,
"['blue_bottom_P_45', 'red_bottom_L_45', 'blue_left_G_45', 'blue_bottom_K_0']","{'color': 'red_bottom_L_45', 'position': 'blue_left_G_45', 'orientation': 'blue_bottom_K_0'}","['color', 'orientation']",0,color,red_bottom_L_45,2,letter,1,False,True,"['robot_stimuli\\\\filler.mp4', 'robot_stimuli\\\\filler.mp4', 'robot_stimuli\\\\filler.mp4', 'robot_stimuli\\\\filler.mp4']",robot_stimuli\\filler.mp4,0,,,,,,,,,,,,,0,35,35,35,,,,,,,,,,,,,,,,,,,812.7335428000079,814.7821798000077,,,823.4485557000153,823.4485557000153,823.4485557000153,2,1.26465659996029,824.7487177000148,828.3668947000115,824.7487177000148,828.3668947000115,824.7487177000148,828.3668947000115,824.7487177000148,828.3668947000115,30.308641975308642,3.372069000004558,space,,,3.5656892999541014,,,,,,,812.7335428000079,812.7335428000079,None,,821.2318016000208,823.4485557000153,812.7335428000079,812.7335428000079,,0,001,2024-06-24_14h07.51.500,robot_cogshifting_sign,2022.2.5,60.131278616567165,
"['L_Head_Z_For', 'L_Head_X_Back', 'L_Base_X_Back', 'R_Head_X_For']","{'laterality': 'R_Head_X_For', 'localisation': 'L_Base_X_Back', 'movement': 'L_Head_Z_For'}",['movement'],0,movement,L_Head_Z_For,1,robot,2,True,False,"['robot_stimuli\\L_Head_Z_For.mp4', 'robot_stimuli\\L_Head_X_Back.mp4', 'robot_stimuli\\L_Base_X_Back.mp4', 'robot_stimuli\\R_Head_X_For.mp4']",robot_stimuli\L_Head_Z_For.mp4,0,,,,,,,,,,,,,0,36,36,36,,,,,,,,,,,,,,,,,,,831.2334620000038,833.3334659000102,,,848.1318543000089,848.1318543000089,848.1318543000089,1,0.34104519998072647,848.499817200005,848.499817200005,848.499817200005,848.499817200005,848.499817200005,848.499817200005,848.499817200005,848.499817200005,None,None,None,,,,,,,,,,828.3668947000115,828.3668947000115,space,2.842553799971938,,,,,844.4835288000177,0,001,2024-06-24_14h07.51.500,robot_cogshifting_sign,2022.2.5,60.131278616567165,
"['L_Arm_Y_Back', 'L_Base_X_Back', 'R_Arm_X_Back', 'L_Arm_X_For']","{'laterality': 'R_Arm_X_Back', 'localisation': 'L_Base_X_Back', 'movement': 'L_Arm_Y_Back'}",['laterality'],0,laterality,R_Arm_X_Back,1,robot,2,False,False,"['robot_stimuli\\L_Arm_Y_Back.mp4', 'robot_stimuli\\L_Base_X_Back.mp4', 'robot_stimuli\\R_Arm_X_Back.mp4', 'robot_stimuli\\L_Arm_X_For.mp4']",robot_stimuli\R_Arm_X_Back.mp4,0,,,,,,,,,,,,,0,37,37,37,,,,,,,,,,,,,,,,,,,848.499817200005,850.5835089000175,,,865.3652506000071,865.3652506000071,865.3652506000071,3,0.6926135999965481,866.0835016000201,866.0835016000201,866.0835016000201,866.0835016000201,866.0835016000201,866.0835016000201,866.0835016000201,866.0835016000201,None,None,None,,,,,,,,,,848.499817200005,848.499817200005,None,,,,848.499817200005,848.499817200005,861.7168388000282,0,001,2024-06-24_14h07.51.500,robot_cogshifting_sign,2022.2.5,60.131278616567165,
"['R_Torso_X_For', 'L_Torso_Z_Back', 'L_Torso_X_Back', 'L_Base_X_For']","{'laterality': 'R_Torso_X_For', 'localisation': 'L_Base_X_For', 'movement': 'L_Torso_Z_Back'}",['localisation'],0,localisation,L_Base_X_For,1,robot,2,False,False,"['robot_stimuli\\R_Torso_X_For.mp4', 'robot_stimuli\\L_Torso_Z_Back.mp4', 'robot_stimuli\\L_Torso_X_Back.mp4', 'robot_stimuli\\L_Base_X_For.mp4']",robot_stimuli\L_Base_X_For.mp4,0,,,,,,,,,,,,,0,38,38,38,,,,,,,,,,,,,,,,,,,866.0835016000201,868.1667432000104,,,882.8149486000184,882.8149486000184,882.8149486000184,4,0.6186506999656558,883.4668008000008,883.4668008000008,883.4668008000008,883.4668008000008,883.4668008000008,883.4668008000008,883.4668008000008,883.4668008000008,None,None,None,,,,,,,,,,866.0835016000201,866.0835016000201,None,,,,866.0835016000201,866.0835016000201,879.2501267000043,0,001,2024-06-24_14h07.51.500,robot_cogshifting_sign,2022.2.5,60.131278616567165,
"['R_Base_X_Back', 'L_Base_Y_For', 'L_Head_X_Back', 'L_Base_X_Back']","{'laterality': 'R_Base_X_Back', 'localisation': 'L_Head_X_Back', 'movement': 'L_Base_Y_For'}",['movement'],0,movement,L_Base_Y_For,1,robot,2,False,False,"['robot_stimuli\\R_Base_X_Back.mp4', 'robot_stimuli\\L_Base_Y_For.mp4', 'robot_stimuli\\L_Head_X_Back.mp4', 'robot_stimuli\\L_Base_X_Back.mp4']",robot_stimuli\L_Base_Y_For.mp4,0,,,,,,,,,,,,,0,39,39,39,,,,,,,,,,,,,,,,,,,883.4668008000008,885.5500782000017,,,900.1983050000272,900.1983050000272,900.1983050000272,2,0.5143342999508604,900.7331011000206,900.7331011000206,900.7331011000206,900.7331011000206,900.7331011000206,900.7331011000206,900.7331011000206,900.7331011000206,None,None,None,,,,,,,,,,883.4668008000008,883.4668008000008,None,,,,883.4668008000008,883.4668008000008,896.583305600012,0,001,2024-06-24_14h07.51.500,robot_cogshifting_sign,2022.2.5,60.131278616567165,
"['L_Arm_Z_Back', 'L_Arm_Y_Back', 'L_Base_Z_For', 'R_Arm_Z_Back']","{'laterality': 'R_Arm_Z_Back', 'localisation': 'L_Base_Z_For', 'movement': 'L_Arm_Y_Back'}",['localisation'],0,localisation,L_Base_Z_For,1,robot,2,False,False,"['robot_stimuli\\L_Arm_Z_Back.mp4', 'robot_stimuli\\L_Arm_Y_Back.mp4', 'robot_stimuli\\L_Base_Z_For.mp4', 'robot_stimuli\\R_Arm_Z_Back.mp4']",robot_stimuli\L_Base_Z_For.mp4,0,,,,,,,,,,,,,0,40,40,40,,,,,,,,,,,,,,,,,,,900.7331011000206,902.8167722000217,,,917.598264500004,917.598264500004,917.598264500004,3,0.39492769999196753,918.0167414000025,918.0167414000025,918.0167414000025,918.0167414000025,918.0167414000025,918.0167414000025,918.0167414000025,918.0167414000025,None,None,None,,,,,,,,,,900.7331011000206,900.7331011000206,None,,,,900.7331011000206,900.7331011000206,913.9667154000199,0,001,2024-06-24_14h07.51.500,robot_cogshifting_sign,2022.2.5,60.131278616567165,
"['R_Torso_Z_Back', 'R_Head_X_Back', 'R_Head_Z_Back', 'L_Head_Z_Back']","{'laterality': 'L_Head_Z_Back', 'localisation': 'R_Torso_Z_Back', 'movement': 'R_Head_X_Back'}",['movement'],0,movement,R_Head_X_Back,1,robot,2,False,False,"['robot_stimuli\\R_Torso_Z_Back.mp4', 'robot_stimuli\\R_Head_X_Back.mp4', 'robot_stimuli\\R_Head_Z_Back.mp4', 'robot_stimuli\\L_Head_Z_Back.mp4']",robot_stimuli\R_Head_X_Back.mp4,0,,,,,,,,,,,,,0,41,41,41,,,,,,,,,,,,,,,,,,,918.0167414000025,920.1001282000216,,,934.8818442000193,934.8818442000193,934.8818442000193,2,0.47161069998401217,935.3830784000165,935.3830784000165,935.3830784000165,935.3830784000165,935.3830784000165,935.3830784000165,935.3830784000165,935.3830784000165,None,None,None,,,,,,,,,,918.0167414000025,918.0167414000025,None,,,,918.0167414000025,918.0167414000025,931.233480200026,0,001,2024-06-24_14h07.51.500,robot_cogshifting_sign,2022.2.5,60.131278616567165,
"['R_Torso_Z_Back', 'L_Torso_X_For', 'L_Head_Z_Back', 'L_Torso_Z_Back']","{'laterality': 'R_Torso_Z_Back', 'localisation': 'L_Head_Z_Back', 'movement': 'L_Torso_X_For'}",['laterality'],0,laterality,R_Torso_Z_Back,1,robot,2,False,False,"['robot_stimuli\\R_Torso_Z_Back.mp4', 'robot_stimuli\\L_Torso_X_For.mp4', 'robot_stimuli\\L_Head_Z_Back.mp4', 'robot_stimuli\\L_Torso_Z_Back.mp4']",robot_stimuli\R_Torso_Z_Back.mp4,0,,,,,,,,,,,,,0,42,42,42,,,,,,,,,,,,,,,,,,,935.3830784000165,937.4667298000131,,,952.1151233000273,952.1151233000273,952.1151233000273,1,0.4549728999554645,952.6000663000159,952.6000663000159,952.6000663000159,952.6000663000159,952.6000663000159,952.6000663000159,952.6000663000159,952.6000663000159,None,None,None,,,,,,,,,,935.3830784000165,935.3830784000165,None,,,,935.3830784000165,935.3830784000165,948.6167958000151,0,001,2024-06-24_14h07.51.500,robot_cogshifting_sign,2022.2.5,60.131278616567165,
"['L_Torso_Z_Back', 'L_Torso_Y_For', 'L_Arm_Y_Back', 'R_Torso_Y_Back']","{'laterality': 'R_Torso_Y_Back', 'localisation': 'L_Arm_Y_Back', 'movement': 'L_Torso_Z_Back'}",['laterality'],0,laterality,R_Torso_Y_Back,1,robot,2,False,False,"['robot_stimuli\\L_Torso_Z_Back.mp4', 'robot_stimuli\\L_Torso_Y_For.mp4', 'robot_stimuli\\L_Arm_Y_Back.mp4', 'robot_stimuli\\R_Torso_Y_Back.mp4']",robot_stimuli\R_Torso_Y_Back.mp4,0,,,,,,,,,,,,,0,43,43,43,,,,,,,,,,,,,,,,,,,952.6000663000159,954.6832577000023,,,969.3317263000063,969.3317263000063,969.3317263000063,4,0.43834089997108094,969.7996253000165,969.7996253000165,969.7996253000165,969.7996253000165,969.7996253000165,969.7996253000165,969.7996253000165,969.7996253000165,None,None,None,,,,,,,,,,952.6000663000159,952.6000663000159,None,,,,952.6000663000159,952.6000663000159,965.6832980000181,0,001,2024-06-24_14h07.51.500,robot_cogshifting_sign,2022.2.5,60.131278616567165,
"['R_Base_Z_For', 'R_Torso_Z_Back', 'L_Torso_Z_For', 'R_Torso_X_Back']","{'laterality': 'L_Torso_Z_For', 'localisation': 'R_Base_Z_For', 'movement': 'R_Torso_X_Back'}",['localisation'],0,localisation,R_Base_Z_For,1,robot,2,False,False,"['robot_stimuli\\R_Base_Z_For.mp4', 'robot_stimuli\\R_Torso_Z_Back.mp4', 'robot_stimuli\\L_Torso_Z_For.mp4', 'robot_stimuli\\R_Torso_X_Back.mp4']",robot_stimuli\R_Base_Z_For.mp4,0,,,,,,,,,,,,,0,44,44,44,,,,,,,,,,,,,,,,,,,969.7996253000165,971.8833639000077,,,986.6815171000198,986.6815171000198,986.6815171000198,1,0.48009109997656196,987.1828333000012,987.1828333000012,987.1828333000012,987.1828333000012,987.1828333000012,987.1828333000012,987.1828333000012,987.1828333000012,None,None,None,,,,,,,,,,969.7996253000165,969.7996253000165,None,,,,969.7996253000165,969.7996253000165,983.0498791000282,0,001,2024-06-24_14h07.51.500,robot_cogshifting_sign,2022.2.5,60.131278616567165,
"['R_Base_Z_For', 'L_Head_Z_For', 'L_Base_Z_Back', 'L_Base_Y_For']","{'laterality': 'R_Base_Z_For', 'localisation': 'L_Head_Z_For', 'movement': 'L_Base_Y_For'}",['movement'],0,movement,L_Base_Y_For,1,robot,2,False,False,"['robot_stimuli\\R_Base_Z_For.mp4', 'robot_stimuli\\L_Head_Z_For.mp4', 'robot_stimuli\\L_Base_Z_Back.mp4', 'robot_stimuli\\L_Base_Y_For.mp4']",robot_stimuli\L_Base_Y_For.mp4,0,,,,,,,,,,,,,0,45,45,45,,,,,,,,,,,,,,,,,,,987.1828333000012,989.2665942000167,,,1003.9648596000043,1003.9648596000043,1003.9648596000043,4,0.4127646999550052,1004.3995697000064,1004.3995697000064,1004.3995697000064,1004.3995697000064,1004.3995697000064,1004.3995697000064,1004.3995697000064,1004.3995697000064,None,None,None,,,,,,,,,,987.1828333000012,987.1828333000012,None,,,,987.1828333000012,987.1828333000012,1000.4331121000287,0,001,2024-06-24_14h07.51.500,robot_cogshifting_sign,2022.2.5,60.131278616567165,
"['R_Head_X_For', 'R_Head_Z_Back', 'R_Arm_Z_For', 'L_Head_Z_For']","{'laterality': 'L_Head_Z_For', 'localisation': 'R_Arm_Z_For', 'movement': 'R_Head_X_For'}",['laterality'],0,laterality,L_Head_Z_For,1,robot,2,False,False,"['robot_stimuli\\R_Head_X_For.mp4', 'robot_stimuli\\R_Head_Z_Back.mp4', 'robot_stimuli\\R_Arm_Z_For.mp4', 'robot_stimuli\\L_Head_Z_For.mp4']",robot_stimuli\L_Head_Z_For.mp4,0,,,,,,,,,,,,,0,46,46,46,,,,,,,,,,,,,,,,,,,1004.3995697000064,1006.48318380001,,,1021.2815340000088,1021.2815340000088,1021.2815340000088,4,0.3281808999890927,1021.6333166000259,1021.6333166000259,1021.6333166000259,1021.6333166000259,1021.6333166000259,1021.6333166000259,1021.6333166000259,1021.6333166000259,None,None,None,,,,,,,,,,1004.3995697000064,1004.3995697000064,None,,,,1004.3995697000064,1004.3995697000064,1017.6499113000173,0,001,2024-06-24_14h07.51.500,robot_cogshifting_sign,2022.2.5,60.131278616567165,
"['L_Torso_X_For', 'R_Head_X_For', 'L_Head_X_For', 'L_Head_Z_For']","{'laterality': 'R_Head_X_For', 'localisation': 'L_Torso_X_For', 'movement': 'L_Head_Z_For'}",['localisation'],0,localisation,L_Torso_X_For,1,robot,2,False,True,"['robot_stimuli\\L_Torso_X_For.mp4', 'robot_stimuli\\R_Head_X_For.mp4', 'robot_stimuli\\L_Head_X_For.mp4', 'robot_stimuli\\L_Head_Z_For.mp4']",robot_stimuli\L_Torso_X_For.mp4,0,,,,,,,,,,,,,0,47,47,47,,,,,,,,,,,,,,,,,,,1021.6333166000259,1023.7165808000136,,,1038.448083700001,1038.448083700001,1038.448083700001,2,0.39309779996983707,1038.8818981000222,1043.4000957000244,1038.8818981000222,1043.4000957000244,1038.8818981000222,1043.4000957000244,1038.8818981000222,1043.4000957000244,25.061728395061728,4.339274099998875,space,,,4.456529199960642,,,,,,,1021.6333166000259,1021.6333166000259,None,,,,1021.6333166000259,1021.6333166000259,1034.816491400008,0,001,2024-06-24_14h07.51.500,robot_cogshifting_sign,2022.2.5,60.131278616567165,
"['L_Head_Z_Back', 'R_Head_Y_Back', 'R_Torso_Z_Back', 'R_Head_Z_For']","{'laterality': 'L_Head_Z_Back', 'localisation': 'R_Torso_Z_Back', 'movement': 'R_Head_Y_Back'}","['laterality', 'localisation', 'movement']",1,localisation,R_Torso_Z_Back,3,robot,2,True,False,"['robot_stimuli\\L_Head_Z_Back.mp4', 'robot_stimuli\\R_Head_Y_Back.mp4', 'robot_stimuli\\R_Torso_Z_Back.mp4', 'robot_stimuli\\R_Head_Z_For.mp4']",robot_stimuli\R_Torso_Z_Back.mp4,0,,,,,,,,,,,,,0,48,48,48,,,,,,,,,,,,,,,,,,,1047.6162656000233,1049.6999649000063,,,1064.5316680000105,1064.5316680000105,1064.5316680000105,3,4.18104049997055,1068.7328770000022,1068.7328770000022,1068.7328770000022,1068.7328770000022,1068.7328770000022,1068.7328770000022,1068.7328770000022,1068.7328770000022,None,None,None,,,,,,,,,,1043.4000957000244,1043.4000957000244,space,4.19236659994931,,,,,1060.8832996000128,0,001,2024-06-24_14h07.51.500,robot_cogshifting_sign,2022.2.5,60.131278616567165,
"['R_Head_Y_For', 'R_Base_Z_For', 'L_Head_Z_Back', 'R_Head_Z_Back']","{'laterality': 'L_Head_Z_Back', 'localisation': 'R_Base_Z_For', 'movement': 'R_Head_Y_For'}","['laterality', 'localisation', 'movement']",0,laterality,L_Head_Z_Back,3,robot,2,False,False,"['robot_stimuli\\R_Head_Y_For.mp4', 'robot_stimuli\\R_Base_Z_For.mp4', 'robot_stimuli\\L_Head_Z_Back.mp4', 'robot_stimuli\\R_Head_Z_Back.mp4']",robot_stimuli\L_Head_Z_Back.mp4,0,,,,,,,,,,,,,0,49,49,49,,,,,,,,,,,,,,,,,,,1068.7328770000022,1070.8165310000186,,,1085.5982557000243,1085.5982557000243,1085.5982557000243,3,1.916045399964787,1087.532862400025,1087.532862400025,1087.532862400025,1087.532862400025,1087.532862400025,1087.532862400025,1087.532862400025,1087.532862400025,None,None,None,,,,,,,,,,1068.7328770000022,1068.7328770000022,None,,,,1068.7328770000022,1068.7328770000022,1081.9664871000277,0,001,2024-06-24_14h07.51.500,robot_cogshifting_sign,2022.2.5,60.131278616567165,
"['L_Arm_Z_Back', 'L_Torso_Z_Back', 'R_Arm_Z_Back', 'L_Arm_X_Back']","{'laterality': 'R_Arm_Z_Back', 'localisation': 'L_Torso_Z_Back', 'movement': 'L_Arm_X_Back'}","['laterality', 'localisation', 'movement']",2,movement,L_Arm_X_Back,3,robot,2,False,False,"['robot_stimuli\\L_Arm_Z_Back.mp4', 'robot_stimuli\\L_Torso_Z_Back.mp4', 'robot_stimuli\\R_Arm_Z_Back.mp4', 'robot_stimuli\\L_Arm_X_Back.mp4']",robot_stimuli\L_Arm_X_Back.mp4,0,,,,,,,,,,,,,0,50,50,50,,,,,,,,,,,,,,,,,,,1087.532862400025,1089.6164450000215,,,1104.2648163000122,1104.2648163000122,1104.2648163000122,3,5.456379399984144,1109.7498045000248,1109.7498045000248,1109.7498045000248,1109.7498045000248,1109.7498045000248,1109.7498045000248,1109.7498045000248,1109.7498045000248,None,None,None,,,,,,,,,,1087.532862400025,1087.532862400025,None,,,,1087.532862400025,1087.532862400025,1100.633079000021,0,001,2024-06-24_14h07.51.500,robot_cogshifting_sign,2022.2.5,60.131278616567165,
"['L_Head_Y_Back', 'R_Head_X_For', 'R_Base_Y_For', 'R_Head_Y_For']","{'laterality': 'L_Head_Y_Back', 'localisation': 'R_Base_Y_For', 'movement': 'R_Head_X_For'}","['laterality', 'localisation', 'movement']",0,laterality,L_Head_Y_Back,3,robot,2,False,False,"['robot_stimuli\\L_Head_Y_Back.mp4', 'robot_stimuli\\R_Head_X_For.mp4', 'robot_stimuli\\R_Base_Y_For.mp4', 'robot_stimuli\\R_Head_Y_For.mp4']",robot_stimuli\L_Head_Y_Back.mp4,0,,,,,,,,,,,,,0,51,51,51,,,,,,,,,,,,,,,,,,,1109.7498045000248,1111.8331602000108,,,1126.615061300021,1126.615061300021,1126.615061300021,1,6.098455499974079,1132.7331881000136,1132.7331881000136,1132.7331881000136,1132.7331881000136,1132.7331881000136,1132.7331881000136,1132.7331881000136,1132.7331881000136,None,None,None,,,,,,,,,,1109.7498045000248,1109.7498045000248,None,,,,1109.7498045000248,1109.7498045000248,1122.9830899000226,0,001,2024-06-24_14h07.51.500,robot_cogshifting_sign,2022.2.5,60.131278616567165,
"['L_Arm_Z_For', 'L_Arm_Y_For', 'L_Head_Z_Back', 'R_Arm_Z_Back']","{'laterality': 'R_Arm_Z_Back', 'localisation': 'L_Head_Z_Back', 'movement': 'L_Arm_Y_For'}","['laterality', 'localisation', 'movement']",2,movement,L_Arm_Y_For,3,robot,2,False,False,"['robot_stimuli\\L_Arm_Z_For.mp4', 'robot_stimuli\\L_Arm_Y_For.mp4', 'robot_stimuli\\L_Head_Z_Back.mp4', 'robot_stimuli\\R_Arm_Z_Back.mp4']",robot_stimuli\L_Arm_Y_For.mp4,0,,,,,,,,,,,,,0,52,52,52,,,,,,,,,,,,,,,,,,,1132.7331881000136,1134.8164213000273,,,1149.6148770000145,1149.6148770000145,1149.6148770000145,2,6.8423744999745395,1156.4828513000102,1156.4828513000102,1156.4828513000102,1156.4828513000102,1156.4828513000102,1156.4828513000102,1156.4828513000102,1156.4828513000102,None,None,None,,,,,,,,,,1132.7331881000136,1132.7331881000136,None,,,,1132.7331881000136,1132.7331881000136,1145.9667993000185,0,001,2024-06-24_14h07.51.500,robot_cogshifting_sign,2022.2.5,60.131278616567165,
"['L_Head_X_Back', 'R_Base_X_For', 'L_Base_Z_Back', 'L_Base_X_Back']","{'laterality': 'R_Base_X_For', 'localisation': 'L_Head_X_Back', 'movement': 'L_Base_Z_Back'}","['laterality', 'localisation', 'movement']",2,movement,L_Base_Z_Back,3,robot,2,False,False,"['robot_stimuli\\L_Head_X_Back.mp4', 'robot_stimuli\\R_Base_X_For.mp4', 'robot_stimuli\\L_Base_Z_Back.mp4', 'robot_stimuli\\L_Base_X_Back.mp4']",robot_stimuli\L_Base_Z_Back.mp4,0,,,,,,,,,,,,,0,53,53,53,,,,,,,,,,,,,,,,,,,1156.4828513000102,1158.5664561000012,,,1173.2314244000008,1173.2314244000008,1173.2314244000008,3,5.001449399947887,1178.2660625000135,1178.2660625000135,1178.2660625000135,1178.2660625000135,1178.2660625000135,1178.2660625000135,1178.2660625000135,1178.2660625000135,None,None,None,,,,,,,,,,1156.4828513000102,1156.4828513000102,None,,,,1156.4828513000102,1156.4828513000102,1169.6162933000014,0,001,2024-06-24_14h07.51.500,robot_cogshifting_sign,2022.2.5,60.131278616567165,
"['R_Head_Y_For', 'L_Base_Y_Back', 'L_Head_Y_For', 'L_Head_Z_For']","{'laterality': 'R_Head_Y_For', 'localisation': 'L_Base_Y_Back', 'movement': 'L_Head_Z_For'}","['laterality', 'localisation', 'movement']",1,localisation,L_Base_Y_Back,3,robot,2,False,False,"['robot_stimuli\\R_Head_Y_For.mp4', 'robot_stimuli\\L_Base_Y_Back.mp4', 'robot_stimuli\\L_Head_Y_For.mp4', 'robot_stimuli\\L_Head_Z_For.mp4']",robot_stimuli\L_Base_Y_Back.mp4,0,,,,,,,,,,,,,0,54,54,54,,,,,,,,,,,,,,,,,,,1178.2660625000135,1180.3496925000218,,,1195.0816534000041,1195.0816534000041,1195.0816534000041,3,1.4233866999857128,1196.5332326000207,1196.5332326000207,1196.5332326000207,1196.5332326000207,1196.5332326000207,1196.5332326000207,1196.5332326000207,1196.5332326000207,None,None,None,,,,,,,,,,1178.2660625000135,1178.2660625000135,None,,,,1178.2660625000135,1178.2660625000135,1191.4496702000033,0,001,2024-06-24_14h07.51.500,robot_cogshifting_sign,2022.2.5,60.131278616567165,
"['R_Base_X_Back', 'R_Arm_Y_Back', 'L_Base_Y_Back', 'R_Base_Y_Back']","{'laterality': 'L_Base_Y_Back', 'localisation': 'R_Arm_Y_Back', 'movement': 'R_Base_X_Back'}","['laterality', 'localisation', 'movement']",1,localisation,R_Arm_Y_Back,3,robot,2,False,False,"['robot_stimuli\\R_Base_X_Back.mp4', 'robot_stimuli\\R_Arm_Y_Back.mp4', 'robot_stimuli\\L_Base_Y_Back.mp4', 'robot_stimuli\\R_Base_Y_Back.mp4']",robot_stimuli\R_Arm_Y_Back.mp4,0,,,,,,,,,,,,,0,55,55,55,,,,,,,,,,,,,,,,,,,1196.5332326000207,1198.6163401000085,,,1213.3312758000102,1213.3312758000102,1213.3312758000102,1,4.213796399970306,1217.5660959000234,1217.5660959000234,1217.5660959000234,1217.5660959000234,1217.5660959000234,1217.5660959000234,1217.5660959000234,1217.5660959000234,None,None,None,,,,,,,,,,1196.5332326000207,1196.5332326000207,None,,,,1196.5332326000207,1196.5332326000207,1209.6839491000283,0,001,2024-06-24_14h07.51.500,robot_cogshifting_sign,2022.2.5,60.131278616567165,
"['R_Head_Y_For', 'R_Arm_Z_Back', 'R_Head_Z_Back', 'L_Head_Z_For']","{'laterality': 'L_Head_Z_For', 'localisation': 'R_Arm_Z_Back', 'movement': 'R_Head_Y_For'}","['laterality', 'localisation', 'movement']",1,localisation,R_Arm_Z_Back,3,robot,2,False,False,"['robot_stimuli\\R_Head_Y_For.mp4', 'robot_stimuli\\R_Arm_Z_Back.mp4', 'robot_stimuli\\R_Head_Z_Back.mp4', 'robot_stimuli\\L_Head_Z_For.mp4']",robot_stimuli\R_Arm_Z_Back.mp4,0,,,,,,,,,,,,,0,56,56,56,,,,,,,,,,,,,,,,,,,1217.5660959000234,1219.6494801000226,,,1234.4313622000045,1234.4313622000045,1234.4313622000045,2,1.5775729999586474,1236.0327216000005,1236.0327216000005,1236.0327216000005,1236.0327216000005,1236.0327216000005,1236.0327216000005,1236.0327216000005,1236.0327216000005,None,None,None,,,,,,,,,,1217.5660959000234,1217.5660959000234,None,,,,1217.5660959000234,1217.5660959000234,1230.7996755000204,0,001,2024-06-24_14h07.51.500,robot_cogshifting_sign,2022.2.5,60.131278616567165,
"['R_Base_Y_For', 'L_Torso_Y_Back', 'R_Torso_Y_For', 'R_Torso_X_Back']","{'laterality': 'L_Torso_Y_Back', 'localisation': 'R_Base_Y_For', 'movement': 'R_Torso_X_Back'}","['laterality', 'localisation', 'movement']",0,laterality,L_Torso_Y_Back,3,robot,2,False,False,"['robot_stimuli\\R_Base_Y_For.mp4', 'robot_stimuli\\L_Torso_Y_Back.mp4', 'robot_stimuli\\R_Torso_Y_For.mp4', 'robot_stimuli\\R_Torso_X_Back.mp4']",robot_stimuli\L_Torso_Y_Back.mp4,0,,,,,,,,,,,,,0,57,57,57,,,,,,,,,,,,,,,,,,,1236.0327216000005,1238.116303000017,,,1252.764753400028,1252.764753400028,1252.764753400028,2,3.6451043999986723,1256.4325148000207,1256.4325148000207,1256.4325148000207,1256.4325148000207,1256.4325148000207,1256.4325148000207,1256.4325148000207,1256.4325148000207,None,None,None,,,,,,,,,,1236.0327216000005,1236.0327216000005,None,,,,1236.0327216000005,1236.0327216000005,1249.1330303000286,0,001,2024-06-24_14h07.51.500,robot_cogshifting_sign,2022.2.5,60.131278616567165,
"['L_Arm_Y_Back', 'L_Arm_Z_For', 'R_Arm_Z_For', 'L_Head_Z_For']","{'laterality': 'R_Arm_Z_For', 'localisation': 'L_Head_Z_For', 'movement': 'L_Arm_Y_Back'}","['laterality', 'localisation', 'movement']",0,laterality,R_Arm_Z_For,3,robot,2,False,False,"['robot_stimuli\\L_Arm_Y_Back.mp4', 'robot_stimuli\\L_Arm_Z_For.mp4', 'robot_stimuli\\R_Arm_Z_For.mp4', 'robot_stimuli\\L_Head_Z_For.mp4']",robot_stimuli\R_Arm_Z_For.mp4,0,,,,,,,,,,,,,0,58,58,58,,,,,,,,,,,,,,,,,,,1256.4325148000207,1258.5161632000236,,,1273.2978419000283,1273.2978419000283,1273.2978419000283,3,3.047194999991916,1276.3659008000104,1276.3659008000104,1276.3659008000104,1276.3659008000104,1276.3659008000104,1276.3659008000104,1276.3659008000104,1276.3659008000104,None,None,None,,,,,,,,,,1256.4325148000207,1256.4325148000207,None,,,,1256.4325148000207,1256.4325148000207,1269.6659810000274,0,001,2024-06-24_14h07.51.500,robot_cogshifting_sign,2022.2.5,60.131278616567165,
"['L_Base_Y_For', 'R_Arm_Y_Back', 'L_Arm_X_For', 'L_Arm_Y_For']","{'laterality': 'R_Arm_Y_Back', 'localisation': 'L_Base_Y_For', 'movement': 'L_Arm_X_For'}","['laterality', 'localisation', 'movement']",2,movement,L_Arm_X_For,3,robot,2,False,True,"['robot_stimuli\\L_Base_Y_For.mp4', 'robot_stimuli\\R_Arm_Y_Back.mp4', 'robot_stimuli\\L_Arm_X_For.mp4', 'robot_stimuli\\L_Arm_Y_For.mp4']",robot_stimuli\L_Arm_X_For.mp4,0,,,,,,,,,,,,,0,59,59,59,,,,,,,,,,,,,,,,,,,1276.3659008000104,1278.4495007000223,,,1293.1312070000276,1293.1312070000276,1293.1312070000276,2,5.374896399967838,1298.548139200022,1301.799673100002,1298.548139200022,1301.799673100002,1298.548139200022,1301.799673100002,1298.548139200022,1301.799673100002,60.092592592592595,3.0050890000129584,space,,,3.1898425999679603,,,,,,,1276.3659008000104,1276.3659008000104,None,,,,1276.3659008000104,1276.3659008000104,1289.4995179000252,0,001,2024-06-24_14h07.51.500,robot_cogshifting_sign,2022.2.5,60.131278616567165,
"['R_Arm_Y_For', 'R_Arm_Z_Back', 'L_Arm_Y_For', 'R_Torso_Y_For']","{'laterality': 'L_Arm_Y_For', 'localisation': 'R_Torso_Y_For', 'movement': 'R_Arm_Z_Back'}","['localisation', 'movement']",0,localisation,R_Torso_Y_For,2,robot,2,True,False,"['robot_stimuli\\R_Arm_Y_For.mp4', 'robot_stimuli\\R_Arm_Z_Back.mp4', 'robot_stimuli\\L_Arm_Y_For.mp4', 'robot_stimuli\\R_Torso_Y_For.mp4']",robot_stimuli\R_Torso_Y_For.mp4,0,,,,,,,,,,,,,0,60,60,60,,,,,,,,,,,,,,,,,,,1303.0328965000226,1305.1161334000062,,,1319.7646083,1319.7646083,1319.7646083,4,1.7490733999584336,1321.5325550000125,1321.5325550000125,1321.5325550000125,1321.5325550000125,1321.5325550000125,1321.5325550000125,1321.5325550000125,1321.5325550000125,None,None,None,,,,,,,,,,1301.799673100002,1301.799673100002,space,1.2009452999627683,,,,,1316.1163078000245,0,001,2024-06-24_14h07.51.500,robot_cogshifting_sign,2022.2.5,60.131278616567165,
"['R_Head_X_For', 'L_Head_Y_For', 'R_Head_Y_Back', 'R_Torso_Y_For']","{'laterality': 'L_Head_Y_For', 'localisation': 'R_Torso_Y_For', 'movement': 'R_Head_X_For'}","['laterality', 'localisation']",0,laterality,L_Head_Y_For,2,robot,2,False,False,"['robot_stimuli\\R_Head_X_For.mp4', 'robot_stimuli\\L_Head_Y_For.mp4', 'robot_stimuli\\R_Head_Y_Back.mp4', 'robot_stimuli\\R_Torso_Y_For.mp4']",robot_stimuli\L_Head_Y_For.mp4,0,,,,,,,,,,,,,0,61,61,61,,,,,,,,,,,,,,,,,,,1321.5325550000125,1323.6161200000206,,,1338.41451100001,1338.41451100001,1338.41451100001,2,1.6579464999958873,1340.0995832000044,1340.0995832000044,1340.0995832000044,1340.0995832000044,1340.0995832000044,1340.0995832000044,1340.0995832000044,1340.0995832000044,None,None,None,,,,,,,,,,1321.5325550000125,1321.5325550000125,None,,,,1321.5325550000125,1321.5325550000125,1334.7828743000282,0,001,2024-06-24_14h07.51.500,robot_cogshifting_sign,2022.2.5,60.131278616567165,
"['L_Head_X_For', 'L_Base_X_Back', 'L_Head_Y_For', 'R_Head_X_For']","{'laterality': 'R_Head_X_For', 'localisation': 'L_Base_X_Back', 'movement': 'L_Head_Y_For'}","['laterality', 'localisation']",0,laterality,R_Head_X_For,2,robot,2,False,False,"['robot_stimuli\\L_Head_X_For.mp4', 'robot_stimuli\\L_Base_X_Back.mp4', 'robot_stimuli\\L_Head_Y_For.mp4', 'robot_stimuli\\R_Head_X_For.mp4']",robot_stimuli\R_Head_X_For.mp4,0,,,,,,,,,,,,,0,62,62,62,,,,,,,,,,,,,,,,,,,1340.0995832000044,1342.18289310002,,,1356.8811595000152,1356.8811595000152,1356.8811595000152,4,3.399233899981482,1360.2996468000056,1360.2996468000056,1360.2996468000056,1360.2996468000056,1360.2996468000056,1360.2996468000056,1360.2996468000056,1360.2996468000056,None,None,None,,,,,,,,,,1340.0995832000044,1340.0995832000044,None,,,,1340.0995832000044,1340.0995832000044,1353.2328985000204,0,001,2024-06-24_14h07.51.500,robot_cogshifting_sign,2022.2.5,60.131278616567165,
"['R_Base_Z_For', 'L_Base_Z_For', 'R_Base_Y_For', 'R_Torso_Z_For']","{'laterality': 'L_Base_Z_For', 'localisation': 'R_Torso_Z_For', 'movement': 'R_Base_Y_For'}","['laterality', 'movement']",1,movement,R_Base_Y_For,2,robot,2,False,False,"['robot_stimuli\\R_Base_Z_For.mp4', 'robot_stimuli\\L_Base_Z_For.mp4', 'robot_stimuli\\R_Base_Y_For.mp4', 'robot_stimuli\\R_Torso_Z_For.mp4']",robot_stimuli\R_Base_Y_For.mp4,0,,,,,,,,,,,,,0,63,63,63,,,,,,,,,,,,,,,,,,,1360.2996468000056,1362.3826903000008,,,1377.1811880000168,1377.1811880000168,1377.1811880000168,3,0.7474089999741409,1377.9491697000049,1377.9491697000049,1377.9491697000049,1377.9491697000049,1377.9491697000049,1377.9491697000049,1377.9491697000049,1377.9491697000049,None,None,None,,,,,,,,,,1360.2996468000056,1360.2996468000056,None,,,,1360.2996468000056,1360.2996468000056,1373.5327577000135,0,001,2024-06-24_14h07.51.500,robot_cogshifting_sign,2022.2.5,60.131278616567165,
"['L_Head_Y_Back', 'R_Head_Z_For', 'R_Head_Y_For', 'R_Base_Y_For']","{'laterality': 'L_Head_Y_Back', 'localisation': 'R_Base_Y_For', 'movement': 'R_Head_Z_For'}","['laterality', 'localisation']",1,localisation,R_Base_Y_For,2,robot,2,False,False,"['robot_stimuli\\L_Head_Y_Back.mp4', 'robot_stimuli\\R_Head_Z_For.mp4', 'robot_stimuli\\R_Head_Y_For.mp4', 'robot_stimuli\\R_Base_Y_For.mp4']",robot_stimuli\R_Base_Y_For.mp4,0,,,,,,,,,,,,,0,64,64,64,,,,,,,,,,,,,,,,,,,1377.9491697000049,1380.032896800025,,,1394.8312940000033,1394.8312940000033,1394.8312940000033,4,1.1453341999731492,1395.9991328000033,1395.9991328000033,1395.9991328000033,1395.9991328000033,1395.9991328000033,1395.9991328000033,1395.9991328000033,1395.9991328000033,None,None,None,,,,,,,,,,1377.9491697000049,1377.9491697000049,None,,,,1377.9491697000049,1377.9491697000049,1391.1828233000124,0,001,2024-06-24_14h07.51.500,robot_cogshifting_sign,2022.2.5,60.131278616567165,
"['L_Head_X_For', 'L_Head_Y_Back', 'L_Base_X_For', 'R_Head_X_Back']","{'laterality': 'R_Head_X_Back', 'localisation': 'L_Base_X_For', 'movement': 'L_Head_Y_Back'}","['laterality', 'movement']",1,movement,L_Head_Y_Back,2,robot,2,False,False,"['robot_stimuli\\L_Head_X_For.mp4', 'robot_stimuli\\L_Head_Y_Back.mp4', 'robot_stimuli\\L_Base_X_For.mp4', 'robot_stimuli\\R_Head_X_Back.mp4']",robot_stimuli\L_Head_Y_Back.mp4,0,,,,,,,,,,,,,0,65,65,65,,,,,,,,,,,,,,,,,,,1395.9991328000033,1398.0825751000084,,,1412.7478470000206,1412.7478470000206,1412.7478470000206,2,2.349376999947708,1415.1157258000167,1415.1157258000167,1415.1157258000167,1415.1157258000167,1415.1157258000167,1415.1157258000167,1415.1157258000167,1415.1157258000167,None,None,None,,,,,,,,,,1395.9991328000033,1395.9991328000033,None,,,,1395.9991328000033,1395.9991328000033,1409.0993904000206,0,001,2024-06-24_14h07.51.500,robot_cogshifting_sign,2022.2.5,60.131278616567165,
"['R_Head_Z_Back', 'R_Arm_Y_Back', 'R_Arm_Z_Back', 'L_Arm_Z_Back']","{'laterality': 'L_Arm_Z_Back', 'localisation': 'R_Head_Z_Back', 'movement': 'R_Arm_Y_Back'}","['laterality', 'movement']",0,laterality,L_Arm_Z_Back,2,robot,2,False,False,"['robot_stimuli\\R_Head_Z_Back.mp4', 'robot_stimuli\\R_Arm_Y_Back.mp4', 'robot_stimuli\\R_Arm_Z_Back.mp4', 'robot_stimuli\\L_Arm_Z_Back.mp4']",robot_stimuli\L_Arm_Z_Back.mp4,0,,,,,,,,,,,,,0,66,66,66,,,,,,,,,,,,,,,,,,,1415.1157258000167,1417.199428700027,,,1431.9979047000234,1431.9979047000234,1431.9979047000234,4,1.4823241999547463,1433.4988904000202,1433.4988904000202,1433.4988904000202,1433.4988904000202,1433.4988904000202,1433.4988904000202,1433.4988904000202,1433.4988904000202,None,None,None,,,,,,,,,,1415.1157258000167,1415.1157258000167,None,,,,1415.1157258000167,1415.1157258000167,1428.3660529000044,0,001,2024-06-24_14h07.51.500,robot_cogshifting_sign,2022.2.5,60.131278616567165,
"['L_Arm_X_For', 'R_Arm_Y_For', 'L_Torso_Y_For', 'L_Arm_Y_For']","{'laterality': 'R_Arm_Y_For', 'localisation': 'L_Torso_Y_For', 'movement': 'L_Arm_X_For'}","['localisation', 'movement']",0,localisation,L_Torso_Y_For,2,robot,2,False,False,"['robot_stimuli\\L_Arm_X_For.mp4', 'robot_stimuli\\R_Arm_Y_For.mp4', 'robot_stimuli\\L_Torso_Y_For.mp4', 'robot_stimuli\\L_Arm_Y_For.mp4']",robot_stimuli\L_Torso_Y_For.mp4,0,,,,,,,,,,,,,0,67,67,67,,,,,,,,,,,,,,,,,,,1433.4988904000202,1435.582684700028,,,1450.2310192000004,1450.2310192000004,1450.2310192000004,3,1.7467801999591757,1451.9990398000227,1451.9990398000227,1451.9990398000227,1451.9990398000227,1451.9990398000227,1451.9990398000227,1451.9990398000227,1451.9990398000227,None,None,None,,,,,,,,,,1433.4988904000202,1433.4988904000202,None,,,,1433.4988904000202,1433.4988904000202,1446.5826618000283,0,001,2024-06-24_14h07.51.500,robot_cogshifting_sign,2022.2.5,60.131278616567165,
"['L_Head_X_For', 'R_Head_X_Back', 'R_Head_Z_Back', 'R_Torso_X_Back']","{'laterality': 'L_Head_X_For', 'localisation': 'R_Torso_X_Back', 'movement': 'R_Head_Z_Back'}","['laterality', 'localisation']",1,localisation,R_Torso_X_Back,2,robot,2,False,False,"['robot_stimuli\\L_Head_X_For.mp4', 'robot_stimuli\\R_Head_X_Back.mp4', 'robot_stimuli\\R_Head_Z_Back.mp4', 'robot_stimuli\\R_Torso_X_Back.mp4']",robot_stimuli\R_Torso_X_Back.mp4,0,,,,,,,,,,,,,0,68,68,68,,,,,,,,,,,,,,,,,,,1451.9990398000227,1454.0827367000165,,,1468.7975398000272,1468.7975398000272,1468.7975398000272,1,1.4519894999684766,1470.2827080000134,1470.2827080000134,1470.2827080000134,1470.2827080000134,1470.2827080000134,1470.2827080000134,1470.2827080000134,1470.2827080000134,None,None,None,,,,,,,,,,1451.9990398000227,1451.9990398000227,None,,,,1451.9990398000227,1451.9990398000227,1465.1659583,0,001,2024-06-24_14h07.51.500,robot_cogshifting_sign,2022.2.5,60.131278616567165,
"['R_Base_Z_For', 'L_Base_Y_For', 'R_Arm_Y_Back', 'R_Base_Y_For']","{'laterality': 'L_Base_Y_For', 'localisation': 'R_Arm_Y_Back', 'movement': 'R_Base_Z_For'}","['localisation', 'movement']",1,movement,R_Base_Z_For,2,robot,2,False,False,"['robot_stimuli\\R_Base_Z_For.mp4', 'robot_stimuli\\L_Base_Y_For.mp4', 'robot_stimuli\\R_Arm_Y_Back.mp4', 'robot_stimuli\\R_Base_Y_For.mp4']",robot_stimuli\R_Base_Z_For.mp4,0,,,,,,,,,,,,,0,69,69,69,,,,,,,,,,,,,,,,,,,1470.2827080000134,1472.3660646000062,,,1487.0475909000088,1487.0475909000088,1487.0475909000088,2,2.737540699978126,1489.8156490000256,1489.8156490000256,1489.8156490000256,1489.8156490000256,1489.8156490000256,1489.8156490000256,1489.8156490000256,1489.8156490000256,None,None,None,,,,,,,,,,1470.2827080000134,1470.2827080000134,None,,,,1470.2827080000134,1470.2827080000134,1483.4160227000248,0,001,2024-06-24_14h07.51.500,robot_cogshifting_sign,2022.2.5,60.131278616567165,
"['R_Arm_Y_For', 'L_Arm_Y_For', 'R_Arm_X_For', 'R_Base_Y_For']","{'laterality': 'L_Arm_Y_For', 'localisation': 'R_Base_Y_For', 'movement': 'R_Arm_X_For'}","['localisation', 'movement']",1,movement,R_Arm_X_For,2,robot,2,False,False,"['robot_stimuli\\R_Arm_Y_For.mp4', 'robot_stimuli\\L_Arm_Y_For.mp4', 'robot_stimuli\\R_Arm_X_For.mp4', 'robot_stimuli\\R_Base_Y_For.mp4']",robot_stimuli\R_Arm_X_For.mp4,0,,,,,,,,,,,,,0,70,70,70,,,,,,,,,,,,,,,,,,,1489.8156490000256,1491.8992961000185,,,1506.564219700027,1506.564219700027,1506.564219700027,3,1.587852299970109,1508.1827557000215,1508.1827557000215,1508.1827557000215,1508.1827557000215,1508.1827557000215,1508.1827557000215,1508.1827557000215,1508.1827557000215,None,None,None,,,,,,,,,,1489.8156490000256,1489.8156490000256,None,,,,1489.8156490000256,1489.8156490000256,1502.9161999000062,0,001,2024-06-24_14h07.51.500,robot_cogshifting_sign,2022.2.5,60.131278616567165,
"['R_Torso_X_Back', 'R_Torso_Y_For', 'R_Base_Y_For', 'L_Torso_Y_For']","{'laterality': 'L_Torso_Y_For', 'localisation': 'R_Base_Y_For', 'movement': 'R_Torso_X_Back'}","['laterality', 'movement']",0,laterality,L_Torso_Y_For,2,robot,2,False,True,"['robot_stimuli\\R_Torso_X_Back.mp4', 'robot_stimuli\\R_Torso_Y_For.mp4', 'robot_stimuli\\R_Base_Y_For.mp4', 'robot_stimuli\\L_Torso_Y_For.mp4']",robot_stimuli\L_Torso_Y_For.mp4,0,,,,,,,,,,,,,0,71,71,71,,,,,,,,,,,,,,,,,,,1508.1827557000215,1510.2659468000056,,,1525.0642405000108,1525.0642405000108,1525.0642405000108,4,1.5355989999952726,1526.6479510000208,1559.2991473000147,1526.6479510000208,1559.2991473000147,1526.6479510000208,1559.2991473000147,1526.6479510000208,1559.2991473000147,39.25925925925926,32.274010099994484,space,,,32.5932345999754,,,,,,,1508.1827557000215,1508.1827557000215,None,,,,1508.1827557000215,1508.1827557000215,1521.415910700016,0,001,2024-06-24_14h07.51.500,robot_cogshifting_sign,2022.2.5,60.131278616567165,
"['red_bottom_R_45', 'red_left_N_45', 'red_bottom_N_0', 'blue_bottom_H_45']","{'color': 'blue_bottom_H_45', 'position': 'red_left_N_45', 'orientation': 'red_bottom_N_0'}",['position'],0,position,red_left_N_45,1,letter,3,True,False,"['robot_stimuli\\\\filler.mp4', 'robot_stimuli\\\\filler.mp4', 'robot_stimuli\\\\filler.mp4', 'robot_stimuli\\\\filler.mp4']",robot_stimuli\\filler.mp4,0,,,,,,,,,,,,,0,72,72,72,,,,,,,,,,,,,,,,,,,1561.8658580000047,1563.9308923000062,,,1572.580969600007,1572.580969600007,1572.580969600007,2,0.37241459998767823,1572.9835803000024,1572.9835803000024,1572.9835803000024,1572.9835803000024,1572.9835803000024,1572.9835803000024,1572.9835803000024,1572.9835803000024,None,None,None,,,,,,,,,,1559.2991473000147,1559.2991473000147,space,2.5337603999942075,1570.5647251000046,1572.580969600007,,,,0,001,2024-06-24_14h07.51.500,robot_cogshifting_sign,2022.2.5,60.131278616567165,
"['red_bottom_J_0', 'blue_right_S_0', 'red_right_V_0', 'red_right_S_45']","{'color': 'blue_right_S_0', 'position': 'red_bottom_J_0', 'orientation': 'red_right_S_45'}",['position'],0,position,red_bottom_J_0,1,letter,3,False,False,"['robot_stimuli\\\\filler.mp4', 'robot_stimuli\\\\filler.mp4', 'robot_stimuli\\\\filler.mp4', 'robot_stimuli\\\\filler.mp4']",robot_stimuli\\filler.mp4,0,,,,,,,,,,,,,0,73,73,73,,,,,,,,,,,,,,,,,,,1572.9835803000024,,,,1583.480744200002,1583.480744200002,1583.480744200002,2,1.7443483999813907,1585.2488016000134,1585.2488016000134,1585.2488016000134,1585.2488016000134,1585.2488016000134,1585.2488016000134,1585.2488016000134,1585.2488016000134,None,None,None,,,,,,,,,,1572.9835803000024,1572.9835803000024,None,,1581.4646883000096,1583.480744200002,1572.9835803000024,1572.9835803000024,,0,001,2024-06-24_14h07.51.500,robot_cogshifting_sign,2022.2.5,60.131278616567165,
"['blue_left_V_45', 'blue_top_V_0', 'blue_top_L_45', 'red_top_N_45']","{'color': 'red_top_N_45', 'position': 'blue_left_V_45', 'orientation': 'blue_top_V_0'}",['color'],0,color,red_top_N_45,1,letter,3,False,False,"['robot_stimuli\\\\filler.mp4', 'robot_stimuli\\\\filler.mp4', 'robot_stimuli\\\\filler.mp4', 'robot_stimuli\\\\filler.mp4']",robot_stimuli\\filler.mp4,0,,,,,,,,,,,,,0,74,74,74,,,,,,,,,,,,,,,,,,,1585.2488016000134,1587.3139641000016,,,1595.9473981000192,1595.9473981000192,1595.9473981000192,4,0.2686476999660954,1596.24868650001,1596.24868650001,1596.24868650001,1596.24868650001,1596.24868650001,1596.24868650001,1596.24868650001,1596.24868650001,None,None,None,,,,,,,,,,1585.2488016000134,1585.2488016000134,None,,1593.9309817000176,1595.9473981000192,1585.2488016000134,1585.2488016000134,,0,001,2024-06-24_14h07.51.500,robot_cogshifting_sign,2022.2.5,60.131278616567165,
"['red_left_V_0', 'red_left_M_45', 'blue_left_Q_45', 'red_right_S_45']","{'color': 'blue_left_Q_45', 'position': 'red_right_S_45', 'orientation': 'red_left_V_0'}",['color'],0,color,blue_left_Q_45,1,letter,3,False,False,"['robot_stimuli\\\\filler.mp4', 'robot_stimuli\\\\filler.mp4', 'robot_stimuli\\\\filler.mp4', 'robot_stimuli\\\\filler.mp4']",robot_stimuli\\filler.mp4,0,,,,,,,,,,,,,0,75,75,75,,,,,,,,,,,,,,,,,,,1596.24868650001,1598.3140781000257,,,1607.1641806000262,1607.1641806000262,1607.1641806000262,3,0.30067309996229596,1607.482450600015,1607.482450600015,1607.482450600015,1607.482450600015,1607.482450600015,1607.482450600015,1607.482450600015,1607.482450600015,None,None,None,,,,,,,,,,1596.24868650001,1596.24868650001,None,,1604.9474731000082,1607.1641806000262,1596.24868650001,1596.24868650001,,0,001,2024-06-24_14h07.51.500,robot_cogshifting_sign,2022.2.5,60.131278616567165,
"['red_top_M_45', 'blue_left_W_45', 'red_left_T_0', 'red_left_W_45']","{'color': 'blue_left_W_45', 'position': 'red_top_M_45', 'orientation': 'red_left_T_0'}",['orientation'],0,orientation,red_left_T_0,1,letter,3,False,False,"['robot_stimuli\\\\filler.mp4', 'robot_stimuli\\\\filler.mp4', 'robot_stimuli\\\\filler.mp4', 'robot_stimuli\\\\filler.mp4']",robot_stimuli\\filler.mp4,0,,,,,,,,,,,,,0,76,76,76,,,,,,,,,,,,,,,,,,,1607.482450600015,1609.5315333000035,,,1617.7807063000218,1617.7807063000218,1617.7807063000218,3,0.41900369996437803,1618.2324786000245,1618.2324786000245,1618.2324786000245,1618.2324786000245,1618.2324786000245,1618.2324786000245,1618.2324786000245,1618.2324786000245,None,None,None,,,,,,,,,,1607.482450600015,1607.482450600015,None,,1615.7644953000126,1617.7807063000218,1607.482450600015,1607.482450600015,,0,001,2024-06-24_14h07.51.500,robot_cogshifting_sign,2022.2.5,60.131278616567165,
"['red_right_B_0', 'blue_right_H_45', 'red_right_C_45', 'red_left_M_45']","{'color': 'blue_right_H_45', 'position': 'red_left_M_45', 'orientation': 'red_right_B_0'}",['orientation'],0,orientation,red_right_B_0,1,letter,3,False,False,"['robot_stimuli\\\\filler.mp4', 'robot_stimuli\\\\filler.mp4', 'robot_stimuli\\\\filler.mp4', 'robot_stimuli\\\\filler.mp4']",robot_stimuli\\filler.mp4,0,,,,,,,,,,,,,0,77,77,77,,,,,,,,,,,,,,,,,,,1618.2324786000245,1620.2814327000233,,,1628.947663400002,1628.947663400002,1628.947663400002,1,0.45235039995168336,1629.432589700009,1629.432589700009,1629.432589700009,1629.432589700009,1629.432589700009,1629.432589700009,1629.432589700009,1629.432589700009,None,None,None,,,,,,,,,,1618.2324786000245,1618.2324786000245,None,,1626.7307887000206,1628.947663400002,1618.2324786000245,1618.2324786000245,,0,001,2024-06-24_14h07.51.500,robot_cogshifting_sign,2022.2.5,60.131278616567165,
"['blue_right_K_0', 'red_right_F_0', 'red_right_W_45', 'red_bottom_L_0']","{'color': 'blue_right_K_0', 'position': 'red_bottom_L_0', 'orientation': 'red_right_W_45'}",['position'],0,position,red_bottom_L_0,1,letter,3,False,False,"['robot_stimuli\\\\filler.mp4', 'robot_stimuli\\\\filler.mp4', 'robot_stimuli\\\\filler.mp4', 'robot_stimuli\\\\filler.mp4']",robot_stimuli\\filler.mp4,0,,,,,,,,,,,,,0,78,78,78,,,,,,,,,,,,,,,,,,,1629.432589700009,1631.497263200028,,,1640.3640580000065,1640.3640580000065,1640.3640580000065,4,0.42911389996879734,1640.8158326000266,1640.8158326000266,1640.8158326000266,1640.8158326000266,1640.8158326000266,1640.8158326000266,1640.8158326000266,1640.8158326000266,None,None,None,,,,,,,,,,1629.432589700009,1629.432589700009,None,,1638.1476835000212,1640.3640580000065,1629.432589700009,1629.432589700009,,0,001,2024-06-24_14h07.51.500,robot_cogshifting_sign,2022.2.5,60.131278616567165,
"['red_right_P_0', 'blue_right_N_0', 'red_right_Z_45', 'red_left_Z_0']","{'color': 'blue_right_N_0', 'position': 'red_left_Z_0', 'orientation': 'red_right_Z_45'}",['color'],0,color,blue_right_N_0,1,letter,3,False,False,"['robot_stimuli\\\\filler.mp4', 'robot_stimuli\\\\filler.mp4', 'robot_stimuli\\\\filler.mp4', 'robot_stimuli\\\\filler.mp4']",robot_stimuli\\filler.mp4,0,,,,,,,,,,,,,0,79,79,79,,,,,,,,,,,,,,,,,,,1640.8158326000266,1642.8812625000137,,,1651.5139073000173,1651.5139073000173,1651.5139073000173,2,0.43074650000198744,1651.9657951000263,1651.9657951000263,1651.9657951000263,1651.9657951000263,1651.9657951000263,1651.9657951000263,1651.9657951000263,1651.9657951000263,None,None,None,,,,,,,,,,1640.8158326000266,1640.8158326000266,None,,1649.2975737000233,1651.5139073000173,1640.8158326000266,1640.8158326000266,,0,001,2024-06-24_14h07.51.500,robot_cogshifting_sign,2022.2.5,60.131278616567165,
"['blue_right_H_0', 'blue_right_H_45', 'red_right_R_45', 'blue_bottom_W_45']","{'color': 'red_right_R_45', 'position': 'blue_bottom_W_45', 'orientation': 'blue_right_H_0'}",['orientation'],0,orientation,blue_right_H_0,1,letter,3,False,False,"['robot_stimuli\\\\filler.mp4', 'robot_stimuli\\\\filler.mp4', 'robot_stimuli\\\\filler.mp4', 'robot_stimuli\\\\filler.mp4']",robot_stimuli\\filler.mp4,0,,,,,,,,,,,,,0,80,80,80,,,,,,,,,,,,,,,,,,,1651.9657951000263,1654.0306725000264,,,1662.464032900025,1662.464032900025,1662.464032900025,1,0.34536719997413456,1662.8320368000132,1662.8320368000132,1662.8320368000132,1662.8320368000132,1662.8320368000132,1662.8320368000132,1662.8320368000132,1662.8320368000132,None,None,None,,,,,,,,,,1651.9657951000263,1651.9657951000263,None,,1660.4481530000048,1662.464032900025,1651.9657951000263,1651.9657951000263,,0,001,2024-06-24_14h07.51.500,robot_cogshifting_sign,2022.2.5,60.131278616567165,
"['red_left_S_0', 'blue_left_X_0', 'red_top_H_0', 'red_left_P_45']","{'color': 'blue_left_X_0', 'position': 'red_top_H_0', 'orientation': 'red_left_P_45'}",['orientation'],0,orientation,red_left_P_45,1,letter,3,False,False,"['robot_stimuli\\\\filler.mp4', 'robot_stimuli\\\\filler.mp4', 'robot_stimuli\\\\filler.mp4', 'robot_stimuli\\\\filler.mp4']",robot_stimuli\\filler.mp4,0,,,,,,,,,,,,,0,81,81,81,,,,,,,,,,,,,,,,,,,1662.8320368000132,1664.897367700003,,,1673.5308819000202,1673.5308819000202,1673.5308819000202,4,0.5099680999701377,1674.0654402000073,1674.0654402000073,1674.0654402000073,1674.0654402000073,1674.0654402000073,1674.0654402000073,1674.0654402000073,1674.0654402000073,None,None,None,,,,,,,,,,1662.8320368000132,1662.8320368000132,None,,1671.3140172000276,1673.5308819000202,1662.8320368000132,1662.8320368000132,,0,001,2024-06-24_14h07.51.500,robot_cogshifting_sign,2022.2.5,60.131278616567165,
"['red_right_L_45', 'red_bottom_C_45', 'blue_right_K_45', 'red_right_X_0']","{'color': 'blue_right_K_45', 'position': 'red_bottom_C_45', 'orientation': 'red_right_X_0'}",['color'],0,color,blue_right_K_45,1,letter,3,False,False,"['robot_stimuli\\\\filler.mp4', 'robot_stimuli\\\\filler.mp4', 'robot_stimuli\\\\filler.mp4', 'robot_stimuli\\\\filler.mp4']",robot_stimuli\\filler.mp4,0,,,,,,,,,,,,,0,82,82,82,,,,,,,,,,,,,,,,,,,1674.0654402000073,1676.1307125000167,,,1684.5641040000191,1684.5641040000191,1684.5641040000191,3,0.676422599965008,1685.2654527000268,1685.2654527000268,1685.2654527000268,1685.2654527000268,1685.2654527000268,1685.2654527000268,1685.2654527000268,1685.2654527000268,None,None,None,,,,,,,,,,1674.0654402000073,1674.0654402000073,None,,1682.547602000006,1684.5641040000191,1674.0654402000073,1674.0654402000073,,0,001,2024-06-24_14h07.51.500,robot_cogshifting_sign,2022.2.5,60.131278616567165,
"['blue_left_L_45', 'red_left_P_45', 'blue_left_R_0', 'blue_right_W_45']","{'color': 'red_left_P_45', 'position': 'blue_right_W_45', 'orientation': 'blue_left_R_0'}",['position'],0,position,blue_right_W_45,1,letter,3,False,True,"['robot_stimuli\\\\filler.mp4', 'robot_stimuli\\\\filler.mp4', 'robot_stimuli\\\\filler.mp4', 'robot_stimuli\\\\filler.mp4']",robot_stimuli\\filler.mp4,0,,,,,,,,,,,,,0,83,83,83,,,,,,,,,,,,,,,,,,,1685.2654527000268,1687.330586200027,,,1696.1641474000062,1696.1641474000062,1696.1641474000062,4,2.037202099978458,1698.2473766000185,1701.199085900007,1698.2473766000185,1701.199085900007,1698.2473766000185,1701.199085900007,1698.2473766000185,1701.199085900007,12.87037037037037,2.4716228999895975,space,,,2.8813331999699585,,,,,,,1685.2654527000268,1685.2654527000268,None,,1694.1475925000268,1696.1641474000062,1685.2654527000268,1685.2654527000268,,0,001,2024-06-24_14h07.51.500,robot_cogshifting_sign,2022.2.5,60.131278616567165,
"['red_left_R_45', 'red_left_S_0', 'blue_left_B_0', 'red_top_M_0']","{'color': 'blue_left_B_0', 'position': 'red_top_M_0', 'orientation': 'red_left_R_45'}","['color', 'position', 'orientation']",0,color,blue_left_B_0,3,letter,3,True,False,"['robot_stimuli\\\\filler.mp4', 'robot_stimuli\\\\filler.mp4', 'robot_stimuli\\\\filler.mp4', 'robot_stimuli\\\\filler.mp4']",robot_stimuli\\filler.mp4,0,,,,,,,,,,,,,0,84,84,84,,,,,,,,,,,,,,,,,,,1703.015353100025,1705.0647529000125,,,1713.5305739000032,1713.5305739000032,1713.5305739000032,3,2.6379871999961324,1716.1987095000222,1716.1987095000222,1716.1987095000222,1716.1987095000222,1716.1987095000222,1716.1987095000222,1716.1987095000222,1716.1987095000222,None,None,None,,,,,,,,,,1701.199085900007,1701.199085900007,space,1.7850781999877654,1711.314381300006,1713.5305739000032,,,,0,001,2024-06-24_14h07.51.500,robot_cogshifting_sign,2022.2.5,60.131278616567165,
"['red_right_C_0', 'red_right_N_45', 'red_bottom_V_45', 'blue_right_R_45']","{'color': 'blue_right_R_45', 'position': 'red_bottom_V_45', 'orientation': 'red_right_C_0'}","['color', 'position', 'orientation']",2,orientation,red_right_C_0,3,letter,3,False,False,"['robot_stimuli\\\\filler.mp4', 'robot_stimuli\\\\filler.mp4', 'robot_stimuli\\\\filler.mp4', 'robot_stimuli\\\\filler.mp4']",robot_stimuli\\filler.mp4,0,,,,,,,,,,,,,0,85,85,85,,,,,,,,,,,,,,,,,,,1716.1987095000222,1718.2638255000056,,,1726.8974452000111,1726.8974452000111,1726.8974452000111,2,3.1741160999808926,1730.0986227000249,1730.0986227000249,1730.0986227000249,1730.0986227000249,1730.0986227000249,1730.0986227000249,1730.0986227000249,1730.0986227000249,None,None,None,,,,,,,,,,1716.1987095000222,1716.1987095000222,None,,1724.8811056000122,1726.8974452000111,1716.1987095000222,1716.1987095000222,,0,001,2024-06-24_14h07.51.500,robot_cogshifting_sign,2022.2.5,60.131278616567165,
