sequence,is_target,condition,stimuli,block,is_block_beginning,is_block_ending,fname,subject,retraining.thisRepN,retraining.thisTrialN,retraining.thisN,retraining.thisIndex,training.thisRepN,training.thisTrialN,training.thisN,training.thisIndex,trials.thisRepN,trials.thisTrialN,trials.thisN,trials.thisIndex,langage_text.started,langage_key.started,langage_key.keys,langage_key.rt,intro_text.started,intro_key.started,intro_key.keys,intro_key.rt,training_robot_intro_text.started,training_robot_intro_key.started,training_robot_intro_key.keys,training_robot_intro_key.rt,cross.started,cross.stopped,training_letter.started,training_robot_key.started,training_robot_question.started,training_robot_keys.started,training_letter.stopped,training_robot_key.keys,RSME_labels.started,RSME_labels.stopped,RSME_ticks.started,RSME_ticks.stopped,RSME_text.started,RSME_text.stopped,RSME_key.started,RSME_key.stopped,RSME_ticks.response,RSME_ticks.rt,RSME_key.keys,training_robot_intro_text.stopped,training_robot_intro_key.stopped,RSME_key.rt,training_robot_key.rt,training_robot_movie.started,experiment_beginning_text.started,experiment_beginning_keys.started,experiment_beginning_key.started,experiment_beginning_key.keys,experiment_beginning_key.rt,block_intro_text.started,block_intro_key.started,block_intro_key.keys,block_intro_key.rt,movie.started,key.started,key.keys,block_intro_text.stopped,block_intro_key.stopped,key.rt,letter.started,letter.stopped,participant,session,date,expName,psychopyVersion,frameRate,
,,,,,,,,,,,,,,,,,,,,,16.406514100000095,16.406514100000095,f,1.643210299999737,,,,,,,,,,,,,,,,,,,,,,,,,,,,,,,,,,,,,,,,,,,,,,,,,,17,001,2024-06-21_11h38.38.962,robot_nback_sign,2022.2.5,59.99613624865255,
,,,,,,,,,,,,,,,,,,,,,,,,,18.11208709999937,18.11208709999937,space,78.00070119999964,,,,,,,,,,,,,,,,,,,,,,,,,,,,,,,,,,,,,,,,,,,,,,17,001,2024-06-21_11h38.38.962,robot_nback_sign,2022.2.5,59.99613624865255,
C,False,1,letter,2,True,False,robot_stimuli\\filler.mp4,17,0,0,0,0,0,0,0,0,,,,,,,,,,,,,96.16034339999987,96.16034339999987,space,23.193262499999946,119.37659189999977,120.72782370000004,120.72782370000004,120.72782370000004,120.72782370000004,120.72782370000004,123.02817899999991,None,123.02817899999991,123.02817899999991,123.02817899999991,123.02817899999991,123.02817899999991,123.02817899999991,123.02817899999991,123.02817899999991,None,None,None,,,,,,,,,,,,,,,,,,,,,,,17,001,2024-06-21_11h38.38.962,robot_nback_sign,2022.2.5,59.99613624865255,
Z,False,1,letter,2,False,False,robot_stimuli\\filler.mp4,17,0,0,0,0,0,1,1,1,,,,,,,,,,,,,123.02817899999991,123.02817899999991,None,,123.02817899999991,,124.10928469999999,124.10928469999999,124.10928469999999,124.10928469999999,126.13974319999943,None,126.13974319999943,126.13974319999943,126.13974319999943,126.13974319999943,126.13974319999943,126.13974319999943,126.13974319999943,126.13974319999943,None,None,None,123.02817899999991,123.02817899999991,,,,,,,,,,,,,,,,,,,,,17,001,2024-06-21_11h38.38.962,robot_nback_sign,2022.2.5,59.99613624865255,
Z,True,1,letter,2,False,False,robot_stimuli\\filler.mp4,17,0,0,0,0,0,2,2,2,,,,,,,,,,,,,126.13974319999943,126.13974319999943,None,,126.13974319999943,127.20572720000018,127.20572720000018,127.20572720000018,127.20572720000018,127.20572720000018,129.2341354,None,129.2341354,129.2341354,129.2341354,129.2341354,129.2341354,129.2341354,129.2341354,129.2341354,None,None,None,126.13974319999943,126.13974319999943,,,,,,,,,,,,,,,,,,,,,17,001,2024-06-21_11h38.38.962,robot_nback_sign,2022.2.5,59.99613624865255,
C,False,1,letter,2,False,False,robot_stimuli\\filler.mp4,17,0,0,0,0,0,3,3,3,,,,,,,,,,,,,129.2341354,129.2341354,None,,129.2341354,130.30807879999975,130.30807879999975,130.30807879999975,130.30807879999975,130.30807879999975,132.3349447999999,None,132.3349447999999,132.3349447999999,132.3349447999999,132.3349447999999,132.3349447999999,132.3349447999999,132.3349447999999,132.3349447999999,None,None,None,129.2341354,129.2341354,,,,,,,,,,,,,,,,,,,,,17,001,2024-06-21_11h38.38.962,robot_nback_sign,2022.2.5,59.99613624865255,
N,False,1,letter,2,False,False,robot_stimuli\\filler.mp4,17,0,0,0,0,0,4,4,4,,,,,,,,,,,,,132.3349447999999,132.3349447999999,None,,132.3349447999999,133.41056489999937,133.41056489999937,133.41056489999937,133.41056489999937,133.41056489999937,135.44069769999987,None,135.44069769999987,135.44069769999987,135.44069769999987,135.44069769999987,135.44069769999987,135.44069769999987,135.44069769999987,135.44069769999987,None,None,None,132.3349447999999,132.3349447999999,,,,,,,,,,,,,,,,,,,,,17,001,2024-06-21_11h38.38.962,robot_nback_sign,2022.2.5,59.99613624865255,
N,True,1,letter,2,False,True,robot_stimuli\\filler.mp4,17,0,0,0,0,0,5,5,5,,,,,,,,,,,,,135.44069769999987,135.44069769999987,None,,135.44069769999987,136.50641989999986,136.50641989999986,136.50641989999986,136.50641989999986,136.50641989999986,138.5989308999997,None,138.5989308999997,198.93611449999935,138.5989308999997,198.93611449999935,138.5989308999997,198.93611449999935,138.5989308999997,198.93611449999935,38.95061728395062,59.028028200000335,space,135.44069769999987,135.44069769999987,60.2739861,,,,,,,,,,,,,,,,,,,,17,001,2024-06-21_11h38.38.962,robot_nback_sign,2022.2.5,59.99613624865255,
N,False,2,letter,2,True,False,robot_stimuli\\filler.mp4,17,0,0,0,0,0,6,6,6,,,,,,,,,,,,,198.93611449999935,198.93611449999935,space,5.761685999999827,204.72661729999982,205.7939752000002,205.7939752000002,205.7939752000002,205.7939752000002,205.7939752000002,207.81912479999937,None,207.81912479999937,207.81912479999937,207.81912479999937,207.81912479999937,207.81912479999937,207.81912479999937,207.81912479999937,207.81912479999937,None,None,None,,,,,,,,,,,,,,,,,,,,,,,17,001,2024-06-21_11h38.38.962,robot_nback_sign,2022.2.5,59.99613624865255,
Z,False,2,letter,2,False,False,robot_stimuli\\filler.mp4,17,0,0,0,0,0,7,7,7,,,,,,,,,,,,,207.81912479999937,207.81912479999937,None,,207.81912479999937,208.89102529999946,208.89102529999946,208.89102529999946,208.89102529999946,208.89102529999946,210.91861019999942,None,210.91861019999942,210.91861019999942,210.91861019999942,210.91861019999942,210.91861019999942,210.91861019999942,210.91861019999942,210.91861019999942,None,None,None,207.81912479999937,207.81912479999937,,,,,,,,,,,,,,,,,,,,,17,001,2024-06-21_11h38.38.962,robot_nback_sign,2022.2.5,59.99613624865255,
B,False,2,letter,2,False,False,robot_stimuli\\filler.mp4,17,0,0,0,0,0,8,8,8,,,,,,,,,,,,,210.91861019999942,210.91861019999942,None,,210.91861019999942,211.99665129999994,211.99665129999994,211.99665129999994,211.99665129999994,211.99665129999994,214.2239316999994,n,214.2239316999994,214.2239316999994,214.2239316999994,214.2239316999994,214.2239316999994,214.2239316999994,214.2239316999994,214.2239316999994,None,None,None,210.91861019999942,210.91861019999942,,0.5571886000006998,,,,,,,,,,,,,,,,,,,17,001,2024-06-21_11h38.38.962,robot_nback_sign,2022.2.5,59.99613624865255,
N,False,2,letter,2,False,False,robot_stimuli\\filler.mp4,17,0,0,0,0,0,9,9,9,,,,,,,,,,,,,214.2239316999994,214.2239316999994,None,,214.2239316999994,215.2958921999998,215.2958921999998,215.2958921999998,215.2958921999998,215.2958921999998,217.5309314999995,None,217.5309314999995,217.5309314999995,217.5309314999995,217.5309314999995,217.5309314999995,217.5309314999995,217.5309314999995,217.5309314999995,None,None,None,214.2239316999994,214.2239316999994,,,,,,,,,,,,,,,,,,,,,17,001,2024-06-21_11h38.38.962,robot_nback_sign,2022.2.5,59.99613624865255,
B,True,2,letter,2,False,False,robot_stimuli\\filler.mp4,17,0,0,0,0,0,10,10,10,,,,,,,,,,,,,217.5309314999995,217.5309314999995,None,,217.5309314999995,218.60694739999963,218.60694739999963,218.60694739999963,218.60694739999963,218.60694739999963,220.63505110000006,None,220.63505110000006,220.63505110000006,220.63505110000006,220.63505110000006,220.63505110000006,220.63505110000006,220.63505110000006,220.63505110000006,None,None,None,217.5309314999995,217.5309314999995,,,,,,,,,,,,,,,,,,,,,17,001,2024-06-21_11h38.38.962,robot_nback_sign,2022.2.5,59.99613624865255,
N,True,2,letter,2,False,True,robot_stimuli\\filler.mp4,17,0,0,0,0,0,11,11,11,,,,,,,,,,,,,220.63505110000006,220.63505110000006,None,,220.63505110000006,221.70758919999935,221.70758919999935,221.70758919999935,221.70758919999935,221.70758919999935,223.76957949999996,c,223.76957949999996,249.1960124999996,223.76957949999996,249.1960124999996,223.76957949999996,249.1960124999996,223.76957949999996,249.1960124999996,49.907407407407405,21.945516799999496,space,220.63505110000006,220.63505110000006,25.37481730000036,0.9258924999994633,,,,,,,,,,,,,,,,,,,17,001,2024-06-21_11h38.38.962,robot_nback_sign,2022.2.5,59.99613624865255,
Q,False,3,letter,2,True,False,robot_stimuli\\filler.mp4,17,0,0,0,0,0,12,12,12,,,,,,,,,,,,,249.1960124999996,249.1960124999996,space,4.973873099999764,254.19332140000006,255.26383540000006,255.26383540000006,255.26383540000006,255.26383540000006,255.26383540000006,257.4947278999998,None,257.4947278999998,257.4947278999998,257.4947278999998,257.4947278999998,257.4947278999998,257.4947278999998,257.4947278999998,257.4947278999998,None,None,None,,,,,,,,,,,,,,,,,,,,,,,17,001,2024-06-21_11h38.38.962,robot_nback_sign,2022.2.5,59.99613624865255,
S,False,3,letter,2,False,False,robot_stimuli\\filler.mp4,17,0,0,0,0,0,13,13,13,,,,,,,,,,,,,257.4947278999998,257.4947278999998,None,,257.4947278999998,,258.5775957999995,258.5775957999995,258.5775957999995,258.5775957999995,260.60718559999987,None,260.60718559999987,260.60718559999987,260.60718559999987,260.60718559999987,260.60718559999987,260.60718559999987,260.60718559999987,260.60718559999987,None,None,None,257.4947278999998,257.4947278999998,,,,,,,,,,,,,,,,,,,,,17,001,2024-06-21_11h38.38.962,robot_nback_sign,2022.2.5,59.99613624865255,
L,False,3,letter,2,False,False,robot_stimuli\\filler.mp4,17,0,0,0,0,0,14,14,14,,,,,,,,,,,,,260.60718559999987,260.60718559999987,None,,260.60718559999987,261.67810389999977,261.67810389999977,261.67810389999977,261.67810389999977,261.67810389999977,263.9119866000001,None,263.9119866000001,263.9119866000001,263.9119866000001,263.9119866000001,263.9119866000001,263.9119866000001,263.9119866000001,263.9119866000001,None,None,None,260.60718559999987,260.60718559999987,,,,,,,,,,,,,,,,,,,,,17,001,2024-06-21_11h38.38.962,robot_nback_sign,2022.2.5,59.99613624865255,
G,False,3,letter,2,False,False,robot_stimuli\\filler.mp4,17,0,0,0,0,0,15,15,15,,,,,,,,,,,,,263.9119866000001,263.9119866000001,None,,263.9119866000001,,264.99368779999986,264.99368779999986,264.99368779999986,264.99368779999986,267.02333389999967,n,267.02333389999967,267.02333389999967,267.02333389999967,267.02333389999967,267.02333389999967,267.02333389999967,267.02333389999967,267.02333389999967,None,None,None,263.9119866000001,263.9119866000001,,0.7751620999997613,,,,,,,,,,,,,,,,,,,17,001,2024-06-21_11h38.38.962,robot_nback_sign,2022.2.5,59.99613624865255,
S,True,3,letter,2,False,False,robot_stimuli\\filler.mp4,17,0,0,0,0,0,16,16,16,,,,,,,,,,,,,267.02333389999967,267.02333389999967,None,,267.02333389999967,268.0908583999999,268.0908583999999,268.0908583999999,268.0908583999999,268.0908583999999,270.11845300000004,c,270.11845300000004,270.11845300000004,270.11845300000004,270.11845300000004,270.11845300000004,270.11845300000004,270.11845300000004,270.11845300000004,None,None,None,267.02333389999967,267.02333389999967,,1.1018507999997382,,,,,,,,,,,,,,,,,,,17,001,2024-06-21_11h38.38.962,robot_nback_sign,2022.2.5,59.99613624865255,
L,True,3,letter,2,False,True,robot_stimuli\\filler.mp4,17,0,0,0,0,0,17,17,17,,,,,,,,,,,,,270.11845300000004,270.11845300000004,None,,270.11845300000004,271.19100549999985,271.19100549999985,271.19100549999985,271.19100549999985,271.19100549999985,273.25135989999944,c,273.25135989999944,310.83536079999976,273.25135989999944,310.83536079999976,273.25135989999944,310.83536079999976,273.25135989999944,310.83536079999976,53.76543209876544,6.372914900000069,space,270.11845300000004,270.11845300000004,37.541408400000364,0.6668301999998221,,,,,,,,,,,,,,,,,,,17,001,2024-06-21_11h38.38.962,robot_nback_sign,2022.2.5,59.99613624865255,
R_Base_X_For,False,1,robot,1,True,False,robot_stimuli\R_Base_X_For.mp4,17,0,0,0,0,0,18,18,18,,,,,,,,,,,,,310.83536079999976,310.83536079999976,space,12.940593199999967,323.79348429999936,324.9111822999994,,324.9111822999994,324.9111822999994,324.9111822999994,,None,328.43584250000004,328.43584250000004,328.43584250000004,328.43584250000004,328.43584250000004,328.43584250000004,328.43584250000004,328.43584250000004,None,None,None,,,,,324.9111822999994,,,,,,,,,,,,,,,,,,17,001,2024-06-21_11h38.38.962,robot_nback_sign,2022.2.5,59.99613624865255,
L_Head_X_Back,False,1,robot,1,False,False,robot_stimuli\L_Head_X_Back.mp4,17,0,0,0,0,0,19,19,19,,,,,,,,,,,,,328.43584250000004,328.43584250000004,None,,328.43584250000004,329.5400733999995,,329.5400733999995,329.5400733999995,329.5400733999995,,n,333.1926165999994,333.1926165999994,333.1926165999994,333.1926165999994,333.1926165999994,333.1926165999994,333.1926165999994,333.1926165999994,None,None,None,328.43584250000004,328.43584250000004,,3.5801565000001574,329.5400733999995,,,,,,,,,,,,,,,,,,17,001,2024-06-21_11h38.38.962,robot_nback_sign,2022.2.5,59.99613624865255,
L_Arm_X_For,False,1,robot,1,False,False,robot_stimuli\L_Arm_X_For.mp4,17,0,0,0,0,0,20,20,20,,,,,,,,,,,,,333.1926165999994,333.1926165999994,None,,333.1926165999994,334.28947009999956,,334.28947009999956,334.28947009999956,334.28947009999956,,None,337.9431737999994,337.9431737999994,337.9431737999994,337.9431737999994,337.9431737999994,337.9431737999994,337.9431737999994,337.9431737999994,None,None,None,333.1926165999994,333.1926165999994,,,334.28947009999956,,,,,,,,,,,,,,,,,,17,001,2024-06-21_11h38.38.962,robot_nback_sign,2022.2.5,59.99613624865255,
L_Arm_X_For,True,1,robot,1,False,False,robot_stimuli\L_Arm_X_For.mp4,17,0,0,0,0,0,21,21,21,,,,,,,,,,,,,337.9431737999994,337.9431737999994,None,,337.9431737999994,339.0365248999997,,339.0365248999997,339.0365248999997,339.0365248999997,,c,342.66883039999993,342.66883039999993,342.66883039999993,342.66883039999993,342.66883039999993,342.66883039999993,342.66883039999993,342.66883039999993,None,None,None,337.9431737999994,337.9431737999994,,3.5329854000001433,339.0365248999997,,,,,,,,,,,,,,,,,,17,001,2024-06-21_11h38.38.962,robot_nback_sign,2022.2.5,59.99613624865255,
R_Arm_Y_For,False,1,robot,1,False,False,robot_stimuli\R_Arm_Y_For.mp4,17,0,0,0,0,0,22,22,22,,,,,,,,,,,,,342.66883039999993,342.66883039999993,None,,342.66883039999993,343.77290449999964,,343.77290449999964,343.77290449999964,343.77290449999964,,n,347.29316430000017,347.29316430000017,347.29316430000017,347.29316430000017,347.29316430000017,347.29316430000017,347.29316430000017,347.29316430000017,None,None,None,342.66883039999993,342.66883039999993,,2.6110186999994767,343.77290449999964,,,,,,,,,,,,,,,,,,17,001,2024-06-21_11h38.38.962,robot_nback_sign,2022.2.5,59.99613624865255,
R_Arm_Y_For,True,1,robot,1,False,True,robot_stimuli\R_Arm_Y_For.mp4,17,0,0,0,0,0,23,23,23,,,,,,,,,,,,,347.29316430000017,347.29316430000017,None,,347.29316430000017,348.38478620000024,,348.38478620000024,348.38478620000024,348.38478620000024,,c,351.92390309999973,357.8080748000002,351.92390309999973,357.8080748000002,351.92390309999973,357.8080748000002,351.92390309999973,357.8080748000002,22.592592592592588,4.251284699999815,space,347.29316430000017,347.29316430000017,5.820004100000006,3.2723499999992782,348.38478620000024,,,,,,,,,,,,,,,,,,17,001,2024-06-21_11h38.38.962,robot_nback_sign,2022.2.5,59.99613624865255,
R_Torso_Z_Back,False,2,robot,1,True,False,robot_stimuli\R_Torso_Z_Back.mp4,17,0,0,0,0,0,24,24,24,,,,,,,,,,,,,357.8080748000002,357.8080748000002,space,2.2331670000003214,360.06014330000016,361.1555705999999,,361.1555705999999,361.1555705999999,361.1555705999999,,None,364.8090517999999,364.8090517999999,364.8090517999999,364.8090517999999,364.8090517999999,364.8090517999999,364.8090517999999,364.8090517999999,None,None,None,,,,,361.1555705999999,,,,,,,,,,,,,,,,,,17,001,2024-06-21_11h38.38.962,robot_nback_sign,2022.2.5,59.99613624865255,
R_Base_Z_For,False,2,robot,1,False,False,robot_stimuli\R_Base_Z_For.mp4,17,0,0,0,0,0,25,25,25,,,,,,,,,,,,,364.8090517999999,364.8090517999999,None,,364.8090517999999,365.90452639999967,,365.90452639999967,365.90452639999967,365.90452639999967,,None,369.54624409999997,369.54624409999997,369.54624409999997,369.54624409999997,369.54624409999997,369.54624409999997,369.54624409999997,369.54624409999997,None,None,None,364.8090517999999,364.8090517999999,,,365.90452639999967,,,,,,,,,,,,,,,,,,17,001,2024-06-21_11h38.38.962,robot_nback_sign,2022.2.5,59.99613624865255,
L_Head_X_Back,False,2,robot,1,False,False,robot_stimuli\L_Head_X_Back.mp4,17,0,0,0,0,0,26,26,26,,,,,,,,,,,,,369.54624409999997,369.54624409999997,None,,369.54624409999997,,,370.65144599999985,370.65144599999985,370.65144599999985,,n,374.2909660999994,374.2909660999994,374.2909660999994,374.2909660999994,374.2909660999994,374.2909660999994,374.2909660999994,374.2909660999994,None,None,None,369.54624409999997,369.54624409999997,,1.548546200000601,370.65144599999985,,,,,,,,,,,,,,,,,,17,001,2024-06-21_11h38.38.962,robot_nback_sign,2022.2.5,59.99613624865255,
L_Arm_Y_Back,False,2,robot,1,False,False,robot_stimuli\L_Arm_Y_Back.mp4,17,0,0,0,0,0,27,27,27,,,,,,,,,,,,,374.2909660999994,374.2909660999994,None,,374.2909660999994,375.37670029999936,,375.37670029999936,375.37670029999936,375.37670029999936,,n,379.0264637999999,379.0264637999999,379.0264637999999,379.0264637999999,379.0264637999999,379.0264637999999,379.0264637999999,379.0264637999999,None,None,None,374.2909660999994,374.2909660999994,,3.5192487000003894,375.37670029999936,,,,,,,,,,,,,,,,,,17,001,2024-06-21_11h38.38.962,robot_nback_sign,2022.2.5,59.99613624865255,
L_Head_X_Back,True,2,robot,1,False,False,robot_stimuli\L_Head_X_Back.mp4,17,0,0,0,0,0,28,28,28,,,,,,,,,,,,,379.0264637999999,379.0264637999999,None,,379.0264637999999,380.1094062000002,,380.1094062000002,380.1094062000002,380.1094062000002,,c,383.7536828000002,383.7536828000002,383.7536828000002,383.7536828000002,383.7536828000002,383.7536828000002,383.7536828000002,383.7536828000002,None,None,None,379.0264637999999,379.0264637999999,,2.4760378999999375,380.1094062000002,,,,,,,,,,,,,,,,,,17,001,2024-06-21_11h38.38.962,robot_nback_sign,2022.2.5,59.99613624865255,
L_Arm_Y_Back,True,2,robot,1,False,True,robot_stimuli\L_Arm_Y_Back.mp4,17,0,0,0,0,0,29,29,29,,,,,,,,,,,,,383.7536828000002,383.7536828000002,None,,383.7536828000002,384.8545147999994,,384.8545147999994,384.8545147999994,384.8545147999994,,c,388.5230434999994,408.40909399999964,388.5230434999994,408.40909399999964,388.5230434999994,408.40909399999964,388.5230434999994,408.40909399999964,32.00617283950617,17.50327759999982,space,383.7536828000002,383.7536828000002,19.836979900000188,2.6349014999996143,384.8545147999994,,,,,,,,,,,,,,,,,,17,001,2024-06-21_11h38.38.962,robot_nback_sign,2022.2.5,59.99613624865255,
R_Torso_Z_Back,False,3,robot,1,True,False,robot_stimuli\R_Torso_Z_Back.mp4,17,0,0,0,0,0,30,30,30,,,,,,,,,,,,,408.40909399999964,408.40909399999964,space,3.216296599999623,411.6434019999997,412.7307869999995,,412.7307869999995,412.7307869999995,412.7307869999995,,None,416.37125449999985,416.37125449999985,416.37125449999985,416.37125449999985,416.37125449999985,416.37125449999985,416.37125449999985,416.37125449999985,None,None,None,,,,,412.7307869999995,,,,,,,,,,,,,,,,,,17,001,2024-06-21_11h38.38.962,robot_nback_sign,2022.2.5,59.99613624865255,
L_Torso_Y_For,False,3,robot,1,False,False,robot_stimuli\L_Torso_Y_For.mp4,17,0,0,0,0,0,31,31,31,,,,,,,,,,,,,416.37125449999985,416.37125449999985,None,,416.37125449999985,417.46898129999954,,417.46898129999954,417.46898129999954,417.46898129999954,,None,421.1110910999996,421.1110910999996,421.1110910999996,421.1110910999996,421.1110910999996,421.1110910999996,421.1110910999996,421.1110910999996,None,None,None,416.37125449999985,416.37125449999985,,,417.46898129999954,,,,,,,,,,,,,,,,,,17,001,2024-06-21_11h38.38.962,robot_nback_sign,2022.2.5,59.99613624865255,
L_Head_Z_Back,False,3,robot,1,False,False,robot_stimuli\L_Head_Z_Back.mp4,17,0,0,0,0,0,32,32,32,,,,,,,,,,,,,421.1110910999996,421.1110910999996,None,,421.1110910999996,,,422.2150105999999,422.2150105999999,422.2150105999999,,None,425.85781020000013,425.85781020000013,425.85781020000013,425.85781020000013,425.85781020000013,425.85781020000013,425.85781020000013,425.85781020000013,None,None,None,421.1110910999996,421.1110910999996,,,422.2150105999999,,,,,,,,,,,,,,,,,,17,001,2024-06-21_11h38.38.962,robot_nback_sign,2022.2.5,59.99613624865255,
R_Torso_Z_Back,True,3,robot,1,False,False,robot_stimuli\R_Torso_Z_Back.mp4,17,0,0,0,0,0,33,33,33,,,,,,,,,,,,,425.85781020000013,425.85781020000013,None,,425.85781020000013,426.93991339999957,,426.93991339999957,426.93991339999957,426.93991339999957,,c,430.58833179999965,430.58833179999965,430.58833179999965,430.58833179999965,430.58833179999965,430.58833179999965,430.58833179999965,430.58833179999965,None,None,None,425.85781020000013,425.85781020000013,,2.8366021999991062,426.93991339999957,,,,,,,,,,,,,,,,,,17,001,2024-06-21_11h38.38.962,robot_nback_sign,2022.2.5,59.99613624865255,
R_Arm_X_For,False,3,robot,1,False,False,robot_stimuli\R_Arm_X_For.mp4,17,0,0,0,0,0,34,34,34,,,,,,,,,,,,,430.58833179999965,430.58833179999965,None,,430.58833179999965,431.6708364999995,,431.6708364999995,431.6708364999995,431.6708364999995,,n,435.3099781000001,435.3099781000001,435.3099781000001,435.3099781000001,435.3099781000001,435.3099781000001,435.3099781000001,435.3099781000001,None,None,None,430.58833179999965,430.58833179999965,,2.80250260000048,431.6708364999995,,,,,,,,,,,,,,,,,,17,001,2024-06-21_11h38.38.962,robot_nback_sign,2022.2.5,59.99613624865255,
L_Head_Z_Back,True,3,robot,1,False,True,robot_stimuli\L_Head_Z_Back.mp4,17,0,0,0,0,0,35,35,35,,,,,,,,,,,,,435.3099781000001,435.3099781000001,None,,435.3099781000001,436.3956527999999,,436.3956527999999,436.3956527999999,436.3956527999999,,c,440.0644917999998,449.90764339999987,440.0644917999998,449.90764339999987,440.0644917999998,449.90764339999987,440.0644917999998,449.90764339999987,37.40740740740741,8.463530600000013,space,435.3099781000001,435.3099781000001,9.784090300000571,2.57390420000047,436.3956527999999,,,,,,,,,,,,,,,,,,17,001,2024-06-21_11h38.38.962,robot_nback_sign,2022.2.5,59.99613624865255,
,,,,,,,,,0,0,0,0,,,,,,,,,,,,,,,,,,,,,,,,,,,,,,,,,,,,,,,,,,,,,449.90764339999987,449.90764339999987,449.90764339999987,c,9.036929199999577,,,,,,,,,,,,,17,001,2024-06-21_11h38.38.962,robot_nback_sign,2022.2.5,59.99613624865255,
L_Head_X_Back,False,2,robot,1,True,False,robot_stimuli\L_Head_X_Back.mp4,17,,,,,,,,,0,0,0,0,,,,,,,,,,,,,467.66010279999955,468.74055150000004,,,,,,,472.3898294999999,472.3898294999999,472.3898294999999,472.3898294999999,472.3898294999999,472.3898294999999,472.3898294999999,472.3898294999999,None,None,None,,,,,,,,,,,459.0154372999996,459.0154372999996,space,8.617187699999704,468.74055150000004,468.74055150000004,None,,,,,,17,001,2024-06-21_11h38.38.962,robot_nback_sign,2022.2.5,59.99613624865255,
R_Head_Y_For,False,2,robot,1,False,False,robot_stimuli\R_Head_Y_For.mp4,17,,,,,,,,,0,1,1,1,,,,,,,,,,,,,472.3898294999999,473.46991660000003,,,,,,,477.10022219999973,477.10022219999973,477.10022219999973,477.10022219999973,477.10022219999973,477.10022219999973,477.10022219999973,477.10022219999973,None,None,None,,,,,,,,,,,472.3898294999999,472.3898294999999,None,,473.46991660000003,473.46991660000003,None,472.3898294999999,472.3898294999999,,,,17,001,2024-06-21_11h38.38.962,robot_nback_sign,2022.2.5,59.99613624865255,
L_Head_X_Back,True,2,robot,1,False,False,robot_stimuli\L_Head_X_Back.mp4,17,,,,,,,,,0,2,2,2,,,,,,,,,,,,,477.10022219999973,478.1890078999995,,,,,,,481.83897220000017,481.83897220000017,481.83897220000017,481.83897220000017,481.83897220000017,481.83897220000017,481.83897220000017,481.83897220000017,None,None,None,,,,,,,,,,,477.10022219999973,477.10022219999973,None,,478.1890078999995,478.1890078999995,c,477.10022219999973,477.10022219999973,1.8683672999995906,,,17,001,2024-06-21_11h38.38.962,robot_nback_sign,2022.2.5,59.99613624865255,
R_Head_Y_Back,False,2,robot,1,False,False,robot_stimuli\R_Head_Y_Back.mp4,17,,,,,,,,,0,3,3,3,,,,,,,,,,,,,481.83897220000017,482.9216054999997,,,,,,,486.5753077999998,486.5753077999998,486.5753077999998,486.5753077999998,486.5753077999998,486.5753077999998,486.5753077999998,486.5753077999998,None,None,None,,,,,,,,,,,481.83897220000017,481.83897220000017,None,,482.9216054999997,482.9216054999997,c,481.83897220000017,481.83897220000017,1.6074147999997876,,,17,001,2024-06-21_11h38.38.962,robot_nback_sign,2022.2.5,59.99613624865255,
R_Arm_Y_For,False,2,robot,1,False,False,robot_stimuli\R_Arm_Y_For.mp4,17,,,,,,,,,0,4,4,4,,,,,,,,,,,,,486.5753077999998,487.6698200999999,,,,,,,491.1758731,491.1758731,491.1758731,491.1758731,491.1758731,491.1758731,491.1758731,491.1758731,None,None,None,,,,,,,,,,,486.5753077999998,486.5753077999998,None,,487.6698200999999,487.6698200999999,n,486.5753077999998,486.5753077999998,2.739633799999865,,,17,001,2024-06-21_11h38.38.962,robot_nback_sign,2022.2.5,59.99613624865255,
L_Base_X_For,False,2,robot,1,False,False,robot_stimuli\L_Base_X_For.mp4,17,,,,,,,,,0,5,5,5,,,,,,,,,,,,,491.1758731,492.25445949999994,,,,,,,495.8391088999997,495.8391088999997,495.8391088999997,495.8391088999997,495.8391088999997,495.8391088999997,495.8391088999997,495.8391088999997,None,None,None,,,,,,,,,,,491.1758731,491.1758731,None,,492.25445949999994,492.25445949999994,n,491.1758731,491.1758731,2.009524300000521,,,17,001,2024-06-21_11h38.38.962,robot_nback_sign,2022.2.5,59.99613624865255,
R_Arm_Y_For,True,2,robot,1,False,False,robot_stimuli\R_Arm_Y_For.mp4,17,,,,,,,,,0,6,6,6,,,,,,,,,,,,,495.8391088999997,496.92103270000007,,,,,,,500.44749539999975,500.44749539999975,500.44749539999975,500.44749539999975,500.44749539999975,500.44749539999975,500.44749539999975,500.44749539999975,None,None,None,,,,,,,,,,,495.8391088999997,495.8391088999997,None,,496.92103270000007,496.92103270000007,c,495.8391088999997,495.8391088999997,1.5604831999999078,,,17,001,2024-06-21_11h38.38.962,robot_nback_sign,2022.2.5,59.99613624865255,
L_Torso_Z_For,False,2,robot,1,False,False,robot_stimuli\L_Torso_Z_For.mp4,17,,,,,,,,,0,7,7,7,,,,,,,,,,,,,500.44749539999975,501.54835039999944,,,,,,,505.1925438999997,505.1925438999997,505.1925438999997,505.1925438999997,505.1925438999997,505.1925438999997,505.1925438999997,505.1925438999997,None,None,None,,,,,,,,,,,500.44749539999975,500.44749539999975,None,,501.54835039999944,501.54835039999944,c,500.44749539999975,500.44749539999975,3.0688380999999936,,,17,001,2024-06-21_11h38.38.962,robot_nback_sign,2022.2.5,59.99613624865255,
L_Arm_X_For,False,2,robot,1,False,False,robot_stimuli\L_Arm_X_For.mp4,17,,,,,,,,,0,8,8,8,,,,,,,,,,,,,505.1925438999997,506.2700887000001,,,,,,,509.89988379999977,509.89988379999977,509.89988379999977,509.89988379999977,509.89988379999977,509.89988379999977,509.89988379999977,509.89988379999977,None,None,None,,,,,,,,,,,505.1925438999997,505.1925438999997,None,,506.2700887000001,506.2700887000001,None,505.1925438999997,505.1925438999997,,,,17,001,2024-06-21_11h38.38.962,robot_nback_sign,2022.2.5,59.99613624865255,
R_Torso_Y_Back,False,2,robot,1,False,False,robot_stimuli\R_Torso_Y_Back.mp4,17,,,,,,,,,0,9,9,9,,,,,,,,,,,,,509.89988379999977,510.98691939999935,,,,,,,514.6258219000001,514.6258219000001,514.6258219000001,514.6258219000001,514.6258219000001,514.6258219000001,514.6258219000001,514.6258219000001,None,None,None,,,,,,,,,,,509.89988379999977,509.89988379999977,None,,510.98691939999935,510.98691939999935,None,509.89988379999977,509.89988379999977,,,,17,001,2024-06-21_11h38.38.962,robot_nback_sign,2022.2.5,59.99613624865255,
R_Head_Z_For,False,2,robot,1,False,False,robot_stimuli\R_Head_Z_For.mp4,17,,,,,,,,,0,10,10,10,,,,,,,,,,,,,514.6258219000001,515.7033304999995,,,,,,,519.3337235999998,519.3337235999998,519.3337235999998,519.3337235999998,519.3337235999998,519.3337235999998,519.3337235999998,519.3337235999998,None,None,None,,,,,,,,,,,514.6258219000001,514.6258219000001,None,,515.7033304999995,515.7033304999995,None,514.6258219000001,514.6258219000001,,,,17,001,2024-06-21_11h38.38.962,robot_nback_sign,2022.2.5,59.99613624865255,
R_Arm_Y_Back,False,2,robot,1,False,False,robot_stimuli\R_Arm_Y_Back.mp4,17,,,,,,,,,0,11,11,11,,,,,,,,,,,,,519.3337235999998,520.4205855,,,,,,,524.0714852000001,524.0714852000001,524.0714852000001,524.0714852000001,524.0714852000001,524.0714852000001,524.0714852000001,524.0714852000001,None,None,None,,,,,,,,,,,519.3337235999998,519.3337235999998,None,,520.4205855,520.4205855,c,519.3337235999998,519.3337235999998,3.093070799999623,,,17,001,2024-06-21_11h38.38.962,robot_nback_sign,2022.2.5,59.99613624865255,
R_Arm_Z_For,False,2,robot,1,False,False,robot_stimuli\R_Arm_Z_For.mp4,17,,,,,,,,,0,12,12,12,,,,,,,,,,,,,524.0714852000001,525.1545778,,,,,,,528.8054162999997,528.8054162999997,528.8054162999997,528.8054162999997,528.8054162999997,528.8054162999997,528.8054162999997,528.8054162999997,None,None,None,,,,,,,,,,,524.0714852000001,524.0714852000001,None,,525.1545778,525.1545778,n,524.0714852000001,524.0714852000001,2.1831045999997514,,,17,001,2024-06-21_11h38.38.962,robot_nback_sign,2022.2.5,59.99613624865255,
R_Arm_X_For,False,2,robot,1,False,False,robot_stimuli\R_Arm_X_For.mp4,17,,,,,,,,,0,13,13,13,,,,,,,,,,,,,528.8054162999997,529.8825574000002,,,,,,,533.5222322999998,533.5222322999998,533.5222322999998,533.5222322999998,533.5222322999998,533.5222322999998,533.5222322999998,533.5222322999998,None,None,None,,,,,,,,,,,528.8054162999997,528.8054162999997,None,,529.8825574000002,529.8825574000002,c,528.8054162999997,528.8054162999997,2.5579597999994803,,,17,001,2024-06-21_11h38.38.962,robot_nback_sign,2022.2.5,59.99613624865255,
L_Torso_Y_For,False,2,robot,1,False,False,robot_stimuli\L_Torso_Y_For.mp4,17,,,,,,,,,0,14,14,14,,,,,,,,,,,,,533.5222322999998,534.6187309999996,,,,,,,538.2599517999997,538.2599517999997,538.2599517999997,538.2599517999997,538.2599517999997,538.2599517999997,538.2599517999997,538.2599517999997,None,None,None,,,,,,,,,,,533.5222322999998,533.5222322999998,None,,534.6187309999996,534.6187309999996,n,533.5222322999998,533.5222322999998,2.950627899999745,,,17,001,2024-06-21_11h38.38.962,robot_nback_sign,2022.2.5,59.99613624865255,
L_Base_Y_Back,False,2,robot,1,False,False,robot_stimuli\L_Base_Y_Back.mp4,17,,,,,,,,,0,15,15,15,,,,,,,,,,,,,538.2599517999997,539.3490458999995,,,,,,,542.9253153999998,542.9253153999998,542.9253153999998,542.9253153999998,542.9253153999998,542.9253153999998,542.9253153999998,542.9253153999998,None,None,None,,,,,,,,,,,538.2599517999997,538.2599517999997,None,,539.3490458999995,539.3490458999995,n,538.2599517999997,538.2599517999997,2.9088049000001774,,,17,001,2024-06-21_11h38.38.962,robot_nback_sign,2022.2.5,59.99613624865255,
L_Head_Z_For,False,2,robot,1,False,False,robot_stimuli\L_Head_Z_For.mp4,17,,,,,,,,,0,16,16,16,,,,,,,,,,,,,542.9253153999998,544.0050784999994,,,,,,,547.6550568000002,547.6550568000002,547.6550568000002,547.6550568000002,547.6550568000002,547.6550568000002,547.6550568000002,547.6550568000002,None,None,None,,,,,,,,,,,542.9253153999998,542.9253153999998,None,,544.0050784999994,544.0050784999994,n,542.9253153999998,542.9253153999998,3.179087499999696,,,17,001,2024-06-21_11h38.38.962,robot_nback_sign,2022.2.5,59.99613624865255,
L_Base_Y_Back,True,2,robot,1,False,False,robot_stimuli\L_Base_Y_Back.mp4,17,,,,,,,,,0,17,17,17,,,,,,,,,,,,,547.6550568000002,548.7361283999999,,,,,,,552.3092218000002,552.3092218000002,552.3092218000002,552.3092218000002,552.3092218000002,552.3092218000002,552.3092218000002,552.3092218000002,None,None,None,,,,,,,,,,,547.6550568000002,547.6550568000002,None,,548.7361283999999,548.7361283999999,c,547.6550568000002,547.6550568000002,3.096275400000195,,,17,001,2024-06-21_11h38.38.962,robot_nback_sign,2022.2.5,59.99613624865255,
L_Base_Y_Back,False,2,robot,1,False,False,robot_stimuli\L_Base_Y_Back.mp4,17,,,,,,,,,0,18,18,18,,,,,,,,,,,,,552.3092218000002,553.3845609,,,,,,,556.9592942999998,556.9592942999998,556.9592942999998,556.9592942999998,556.9592942999998,556.9592942999998,556.9592942999998,556.9592942999998,None,None,None,,,,,,,,,,,552.3092218000002,552.3092218000002,None,,553.3845609,553.3845609,n,552.3092218000002,552.3092218000002,2.768076199999996,,,17,001,2024-06-21_11h38.38.962,robot_nback_sign,2022.2.5,59.99613624865255,
L_Head_Z_For,False,2,robot,1,False,False,robot_stimuli\L_Head_Z_For.mp4,17,,,,,,,,,0,19,19,19,,,,,,,,,,,,,556.9592942999998,558.0374981999994,,,,,,,561.6801330999997,561.6801330999997,561.6801330999997,561.6801330999997,561.6801330999997,561.6801330999997,561.6801330999997,561.6801330999997,None,None,None,,,,,,,,,,,556.9592942999998,556.9592942999998,None,,558.0374981999994,558.0374981999994,n,556.9592942999998,556.9592942999998,3.3388254000001325,,,17,001,2024-06-21_11h38.38.962,robot_nback_sign,2022.2.5,59.99613624865255,
L_Arm_X_Back,False,2,robot,1,False,False,robot_stimuli\L_Arm_X_Back.mp4,17,,,,,,,,,0,20,20,20,,,,,,,,,,,,,561.6801330999997,562.7859899999994,,,,,,,566.4224236,566.4224236,566.4224236,566.4224236,566.4224236,566.4224236,566.4224236,566.4224236,None,None,None,,,,,,,,,,,561.6801330999997,561.6801330999997,None,,562.7859899999994,562.7859899999994,None,561.6801330999997,561.6801330999997,,,,17,001,2024-06-21_11h38.38.962,robot_nback_sign,2022.2.5,59.99613624865255,
R_Torso_X_Back,False,2,robot,1,False,False,robot_stimuli\R_Torso_X_Back.mp4,17,,,,,,,,,0,21,21,21,,,,,,,,,,,,,566.4224236,567.5038966000002,,,,,,,571.1328045999999,571.1328045999999,571.1328045999999,571.1328045999999,571.1328045999999,571.1328045999999,571.1328045999999,571.1328045999999,None,None,None,,,,,,,,,,,566.4224236,566.4224236,None,,567.5038966000002,567.5038966000002,None,566.4224236,566.4224236,,,,17,001,2024-06-21_11h38.38.962,robot_nback_sign,2022.2.5,59.99613624865255,
L_Torso_X_For,False,2,robot,1,False,False,robot_stimuli\L_Torso_X_For.mp4,17,,,,,,,,,0,22,22,22,,,,,,,,,,,,,571.1328045999999,572.2169102999997,,,,,,,575.8596013999995,575.8596013999995,575.8596013999995,575.8596013999995,575.8596013999995,575.8596013999995,575.8596013999995,575.8596013999995,None,None,None,,,,,,,,,,,571.1328045999999,571.1328045999999,None,,572.2169102999997,572.2169102999997,c,571.1328045999999,571.1328045999999,3.5207684999995763,,,17,001,2024-06-21_11h38.38.962,robot_nback_sign,2022.2.5,59.99613624865255,
L_Base_X_For,False,2,robot,1,False,False,robot_stimuli\L_Base_X_For.mp4,17,,,,,,,,,0,23,23,23,,,,,,,,,,,,,575.8596013999995,576.9360011999997,,,,,,,580.5090482999994,580.5090482999994,580.5090482999994,580.5090482999994,580.5090482999994,580.5090482999994,580.5090482999994,580.5090482999994,None,None,None,,,,,,,,,,,575.8596013999995,575.8596013999995,None,,576.9360011999997,576.9360011999997,c,575.8596013999995,575.8596013999995,3.143805699999575,,,17,001,2024-06-21_11h38.38.962,robot_nback_sign,2022.2.5,59.99613624865255,
L_Torso_X_For,True,2,robot,1,False,False,robot_stimuli\L_Torso_X_For.mp4,17,,,,,,,,,0,24,24,24,,,,,,,,,,,,,580.5090482999994,581.5829568999998,,,,,,,585.2258324999993,585.2258324999993,585.2258324999993,585.2258324999993,585.2258324999993,585.2258324999993,585.2258324999993,585.2258324999993,None,None,None,,,,,,,,,,,580.5090482999994,580.5090482999994,None,,581.5829568999998,581.5829568999998,c,580.5090482999994,580.5090482999994,3.3848922000006496,,,17,001,2024-06-21_11h38.38.962,robot_nback_sign,2022.2.5,59.99613624865255,
L_Head_Y_For,False,2,robot,1,False,False,robot_stimuli\L_Head_Y_For.mp4,17,,,,,,,,,0,25,25,25,,,,,,,,,,,,,585.2258324999993,586.2992275999995,,,,,,,589.9422917000002,589.9422917000002,589.9422917000002,589.9422917000002,589.9422917000002,589.9422917000002,589.9422917000002,589.9422917000002,None,None,None,,,,,,,,,,,585.2258324999993,585.2258324999993,None,,586.2992275999995,586.2992275999995,None,585.2258324999993,585.2258324999993,,,,17,001,2024-06-21_11h38.38.962,robot_nback_sign,2022.2.5,59.99613624865255,
L_Torso_X_For,True,2,robot,1,False,False,robot_stimuli\L_Torso_X_For.mp4,17,,,,,,,,,0,26,26,26,,,,,,,,,,,,,589.9422917000002,591.0217863999997,,,,,,,594.6710599999997,594.6710599999997,594.6710599999997,594.6710599999997,594.6710599999997,594.6710599999997,594.6710599999997,594.6710599999997,None,None,None,,,,,,,,,,,589.9422917000002,589.9422917000002,None,,591.0217863999997,591.0217863999997,c,589.9422917000002,589.9422917000002,2.9704775000000154,,,17,001,2024-06-21_11h38.38.962,robot_nback_sign,2022.2.5,59.99613624865255,
L_Base_X_For,False,2,robot,1,False,False,robot_stimuli\L_Base_X_For.mp4,17,,,,,,,,,0,27,27,27,,,,,,,,,,,,,594.6710599999997,595.7541064999996,,,,,,,599.3388856000001,599.3388856000001,599.3388856000001,599.3388856000001,599.3388856000001,599.3388856000001,599.3388856000001,599.3388856000001,None,None,None,,,,,,,,,,,594.6710599999997,594.6710599999997,None,,595.7541064999996,595.7541064999996,n,594.6710599999997,594.6710599999997,1.8777704000003723,,,17,001,2024-06-21_11h38.38.962,robot_nback_sign,2022.2.5,59.99613624865255,
L_Torso_X_For,True,2,robot,1,False,False,robot_stimuli\L_Torso_X_For.mp4,17,,,,,,,,,0,28,28,28,,,,,,,,,,,,,599.3388856000001,600.4219853999994,,,,,,,604.0724534999999,604.0724534999999,604.0724534999999,604.0724534999999,604.0724534999999,604.0724534999999,604.0724534999999,604.0724534999999,None,None,None,,,,,,,,,,,599.3388856000001,599.3388856000001,None,,600.4219853999994,600.4219853999994,c,599.3388856000001,599.3388856000001,3.363785100000314,,,17,001,2024-06-21_11h38.38.962,robot_nback_sign,2022.2.5,59.99613624865255,
L_Base_X_For,True,2,robot,1,False,False,robot_stimuli\L_Base_X_For.mp4,17,,,,,,,,,0,29,29,29,,,,,,,,,,,,,604.0724534999999,605.1532914,,,,,,,608.7171216999996,608.7171216999996,608.7171216999996,608.7171216999996,608.7171216999996,608.7171216999996,608.7171216999996,608.7171216999996,None,None,None,,,,,,,,,,,604.0724534999999,604.0724534999999,None,,605.1532914,605.1532914,c,604.0724534999999,604.0724534999999,2.8866077000002406,,,17,001,2024-06-21_11h38.38.962,robot_nback_sign,2022.2.5,59.99613624865255,
L_Torso_X_For,True,2,robot,1,False,False,robot_stimuli\L_Torso_X_For.mp4,17,,,,,,,,,0,30,30,30,,,,,,,,,,,,,608.7171216999996,609.8014546999993,,,,,,,613.4560829000002,613.4560829000002,613.4560829000002,613.4560829000002,613.4560829000002,613.4560829000002,613.4560829000002,613.4560829000002,None,None,None,,,,,,,,,,,608.7171216999996,608.7171216999996,None,,609.8014546999993,609.8014546999993,c,608.7171216999996,608.7171216999996,3.0716112999998586,,,17,001,2024-06-21_11h38.38.962,robot_nback_sign,2022.2.5,59.99613624865255,
R_Arm_X_For,False,2,robot,1,False,False,robot_stimuli\R_Arm_X_For.mp4,17,,,,,,,,,0,31,31,31,,,,,,,,,,,,,613.4560829000002,614.5369988000002,,,,,,,618.1671083000001,618.1671083000001,618.1671083000001,618.1671083000001,618.1671083000001,618.1671083000001,618.1671083000001,618.1671083000001,None,None,None,,,,,,,,,,,613.4560829000002,613.4560829000002,None,,614.5369988000002,614.5369988000002,n,613.4560829000002,613.4560829000002,2.7113396000004286,,,17,001,2024-06-21_11h38.38.962,robot_nback_sign,2022.2.5,59.99613624865255,
L_Torso_Z_Back,False,2,robot,1,False,False,robot_stimuli\L_Torso_Z_Back.mp4,17,,,,,,,,,0,32,32,32,,,,,,,,,,,,,618.1671083000001,619.2562134999998,,,,,,,622.7726765999996,622.7726765999996,622.7726765999996,622.7726765999996,622.7726765999996,622.7726765999996,622.7726765999996,622.7726765999996,None,None,None,,,,,,,,,,,618.1671083000001,618.1671083000001,None,,619.2562134999998,619.2562134999998,c,618.1671083000001,618.1671083000001,2.91235880000022,,,17,001,2024-06-21_11h38.38.962,robot_nback_sign,2022.2.5,59.99613624865255,
R_Head_Z_For,False,2,robot,1,False,False,robot_stimuli\R_Head_Z_For.mp4,17,,,,,,,,,0,33,33,33,,,,,,,,,,,,,622.7726765999996,623.8519472999997,,,,,,,627.4899872999995,627.4899872999995,627.4899872999995,627.4899872999995,627.4899872999995,627.4899872999995,627.4899872999995,627.4899872999995,None,None,None,,,,,,,,,,,622.7726765999996,622.7726765999996,None,,623.8519472999997,623.8519472999997,n,622.7726765999996,622.7726765999996,1.7497573000000557,,,17,001,2024-06-21_11h38.38.962,robot_nback_sign,2022.2.5,59.99613624865255,
L_Head_X_Back,False,2,robot,1,False,False,robot_stimuli\L_Head_X_Back.mp4,17,,,,,,,,,0,34,34,34,,,,,,,,,,,,,627.4899872999995,628.5715759999994,,,,,,,632.2247317000001,632.2247317000001,632.2247317000001,632.2247317000001,632.2247317000001,632.2247317000001,632.2247317000001,632.2247317000001,None,None,None,,,,,,,,,,,627.4899872999995,627.4899872999995,None,,628.5715759999994,628.5715759999994,None,627.4899872999995,627.4899872999995,,,,17,001,2024-06-21_11h38.38.962,robot_nback_sign,2022.2.5,59.99613624865255,
R_Torso_Z_Back,False,2,robot,1,False,False,robot_stimuli\R_Torso_Z_Back.mp4,17,,,,,,,,,0,35,35,35,,,,,,,,,,,,,632.2247317000001,633.3184405000002,,,,,,,636.9630762999996,636.9630762999996,636.9630762999996,636.9630762999996,636.9630762999996,636.9630762999996,636.9630762999996,636.9630762999996,None,None,None,,,,,,,,,,,632.2247317000001,632.2247317000001,None,,633.3184405000002,633.3184405000002,None,632.2247317000001,632.2247317000001,,,,17,001,2024-06-21_11h38.38.962,robot_nback_sign,2022.2.5,59.99613624865255,
R_Arm_X_For,False,2,robot,1,False,False,robot_stimuli\R_Arm_X_For.mp4,17,,,,,,,,,0,36,36,36,,,,,,,,,,,,,636.9630762999996,,,,,,,,641.7122936999995,641.7122936999995,641.7122936999995,641.7122936999995,641.7122936999995,641.7122936999995,641.7122936999995,641.7122936999995,None,None,None,,,,,,,,,,,636.9630762999996,636.9630762999996,None,,638.0674923999995,638.0674923999995,None,636.9630762999996,636.9630762999996,,,,17,001,2024-06-21_11h38.38.962,robot_nback_sign,2022.2.5,59.99613624865255,
R_Torso_Y_Back,False,2,robot,1,False,False,robot_stimuli\R_Torso_Y_Back.mp4,17,,,,,,,,,0,37,37,37,,,,,,,,,,,,,641.7122936999995,642.8023714999999,,,,,,,646.4422784999997,646.4422784999997,646.4422784999997,646.4422784999997,646.4422784999997,646.4422784999997,646.4422784999997,646.4422784999997,None,None,None,,,,,,,,,,,641.7122936999995,641.7122936999995,None,,642.8023714999999,642.8023714999999,None,641.7122936999995,641.7122936999995,,,,17,001,2024-06-21_11h38.38.962,robot_nback_sign,2022.2.5,59.99613624865255,
R_Torso_X_For,False,2,robot,1,False,False,robot_stimuli\R_Torso_X_For.mp4,17,,,,,,,,,0,38,38,38,,,,,,,,,,,,,646.4422784999997,647.5219620999997,,,,,,,651.1721473999996,651.1721473999996,651.1721473999996,651.1721473999996,651.1721473999996,651.1721473999996,651.1721473999996,651.1721473999996,None,None,None,,,,,,,,,,,646.4422784999997,646.4422784999997,None,,647.5219620999997,647.5219620999997,None,646.4422784999997,646.4422784999997,,,,17,001,2024-06-21_11h38.38.962,robot_nback_sign,2022.2.5,59.99613624865255,
L_Base_Y_Back,False,2,robot,1,False,False,robot_stimuli\L_Base_Y_Back.mp4,17,,,,,,,,,0,39,39,39,,,,,,,,,,,,,651.1721473999996,652.2530606999999,,,,,,,655.8160527,655.8160527,655.8160527,655.8160527,655.8160527,655.8160527,655.8160527,655.8160527,None,None,None,,,,,,,,,,,651.1721473999996,651.1721473999996,None,,652.2530606999999,652.2530606999999,n,651.1721473999996,651.1721473999996,2.523528400000032,,,17,001,2024-06-21_11h38.38.962,robot_nback_sign,2022.2.5,59.99613624865255,
L_Base_X_For,False,2,robot,1,False,False,robot_stimuli\L_Base_X_For.mp4,17,,,,,,,,,0,40,40,40,,,,,,,,,,,,,655.8160527,656.9031565999994,,,,,,,660.4764870999998,660.4764870999998,660.4764870999998,660.4764870999998,660.4764870999998,660.4764870999998,660.4764870999998,660.4764870999998,None,None,None,,,,,,,,,,,655.8160527,655.8160527,None,,656.9031565999994,656.9031565999994,None,655.8160527,655.8160527,,,,17,001,2024-06-21_11h38.38.962,robot_nback_sign,2022.2.5,59.99613624865255,
R_Arm_X_For,False,2,robot,1,False,False,robot_stimuli\R_Arm_X_For.mp4,17,,,,,,,,,0,41,41,41,,,,,,,,,,,,,660.4764870999998,661.5530629999994,,,,,,,665.1921997,665.1921997,665.1921997,665.1921997,665.1921997,665.1921997,665.1921997,665.1921997,None,None,None,,,,,,,,,,,660.4764870999998,660.4764870999998,None,,661.5530629999994,661.5530629999994,c,660.4764870999998,660.4764870999998,3.4323975999996037,,,17,001,2024-06-21_11h38.38.962,robot_nback_sign,2022.2.5,59.99613624865255,
R_Base_X_Back,False,2,robot,1,False,False,robot_stimuli\R_Base_X_Back.mp4,17,,,,,,,,,0,42,42,42,,,,,,,,,,,,,665.1921997,666.2678909999995,,,,,,,669.9212651999997,669.9212651999997,669.9212651999997,669.9212651999997,669.9212651999997,669.9212651999997,669.9212651999997,669.9212651999997,None,None,None,,,,,,,,,,,665.1921997,665.1921997,None,,666.2678909999995,666.2678909999995,None,665.1921997,665.1921997,,,,17,001,2024-06-21_11h38.38.962,robot_nback_sign,2022.2.5,59.99613624865255,
R_Arm_X_For,True,2,robot,1,False,False,robot_stimuli\R_Arm_X_For.mp4,17,,,,,,,,,0,43,43,43,,,,,,,,,,,,,669.9212651999997,671.0037966,,,,,,,674.6426256999994,674.6426256999994,674.6426256999994,674.6426256999994,674.6426256999994,674.6426256999994,674.6426256999994,674.6426256999994,None,None,None,,,,,,,,,,,669.9212651999997,669.9212651999997,None,,671.0037966,671.0037966,None,669.9212651999997,669.9212651999997,,,,17,001,2024-06-21_11h38.38.962,robot_nback_sign,2022.2.5,59.99613624865255,
L_Arm_X_Back,False,2,robot,1,False,False,robot_stimuli\L_Arm_X_Back.mp4,17,,,,,,,,,0,44,44,44,,,,,,,,,,,,,674.6426256999994,675.7202539,,,,,,,679.3597576000002,679.3597576000002,679.3597576000002,679.3597576000002,679.3597576000002,679.3597576000002,679.3597576000002,679.3597576000002,None,None,None,,,,,,,,,,,674.6426256999994,674.6426256999994,None,,675.7202539,675.7202539,n,674.6426256999994,674.6426256999994,2.8009376999998494,,,17,001,2024-06-21_11h38.38.962,robot_nback_sign,2022.2.5,59.99613624865255,
R_Torso_X_For,False,2,robot,1,False,False,robot_stimuli\R_Torso_X_For.mp4,17,,,,,,,,,0,45,45,45,,,,,,,,,,,,,679.3597576000002,680.4331715999997,,,,,,,684.0684753999994,684.0684753999994,684.0684753999994,684.0684753999994,684.0684753999994,684.0684753999994,684.0684753999994,684.0684753999994,None,None,None,,,,,,,,,,,679.3597576000002,679.3597576000002,None,,680.4331715999997,680.4331715999997,c,679.3597576000002,679.3597576000002,2.2961763000002975,,,17,001,2024-06-21_11h38.38.962,robot_nback_sign,2022.2.5,59.99613624865255,
L_Arm_X_For,False,2,robot,1,False,False,robot_stimuli\L_Arm_X_For.mp4,17,,,,,,,,,0,46,46,46,,,,,,,,,,,,,684.0684753999994,685.1478909999996,,,,,,,688.7899378000002,688.7899378000002,688.7899378000002,688.7899378000002,688.7899378000002,688.7899378000002,688.7899378000002,688.7899378000002,None,None,None,,,,,,,,,,,684.0684753999994,684.0684753999994,None,,685.1478909999996,685.1478909999996,c,684.0684753999994,684.0684753999994,3.2372958999994808,,,17,001,2024-06-21_11h38.38.962,robot_nback_sign,2022.2.5,59.99613624865255,
R_Torso_X_For,True,2,robot,1,False,False,robot_stimuli\R_Torso_X_For.mp4,17,,,,,,,,,0,47,47,47,,,,,,,,,,,,,688.7899378000002,689.8715548,,,,,,,693.5220082999995,693.5220082999995,693.5220082999995,693.5220082999995,693.5220082999995,693.5220082999995,693.5220082999995,693.5220082999995,None,None,None,,,,,,,,,,,688.7899378000002,688.7899378000002,None,,689.8715548,689.8715548,c,688.7899378000002,688.7899378000002,3.3534091000001354,,,17,001,2024-06-21_11h38.38.962,robot_nback_sign,2022.2.5,59.99613624865255,
R_Base_Y_Back,False,2,robot,1,False,False,robot_stimuli\R_Base_Y_Back.mp4,17,,,,,,,,,0,48,48,48,,,,,,,,,,,,,693.5220082999995,694.6018511000002,,,,,,,698.2560569999996,698.2560569999996,698.2560569999996,698.2560569999996,698.2560569999996,698.2560569999996,698.2560569999996,698.2560569999996,None,None,None,,,,,,,,,,,693.5220082999995,693.5220082999995,None,,694.6018511000002,694.6018511000002,n,693.5220082999995,693.5220082999995,3.6059923000002527,,,17,001,2024-06-21_11h38.38.962,robot_nback_sign,2022.2.5,59.99613624865255,
R_Torso_Y_Back,False,2,robot,1,False,True,robot_stimuli\R_Torso_Y_Back.mp4,17,,,,,,,,,0,49,49,49,,,,,,,,,,,,,698.2560569999996,699.3363712999999,,,,,,,702.9987623999996,712.0312175999998,702.9987623999996,712.0312175999998,702.9987623999996,712.0312175999998,702.9987623999996,712.0312175999998,59.4753086419753,7.316379099999722,space,,,8.986030299999584,,,,,,,,698.2560569999996,698.2560569999996,None,,699.3363712999999,699.3363712999999,c,698.2560569999996,698.2560569999996,3.039796799999749,,,17,001,2024-06-21_11h38.38.962,robot_nback_sign,2022.2.5,59.99613624865255,
L_Arm_Y_Back,False,1,robot,1,True,False,robot_stimuli\L_Arm_Y_Back.mp4,17,,,,,,,,,0,50,50,50,,,,,,,,,,,,,739.2603441000001,740.3407458000001,,,,,,,743.9887293000002,743.9887293000002,743.9887293000002,743.9887293000002,743.9887293000002,743.9887293000002,743.9887293000002,743.9887293000002,None,None,None,,,,,,,,,,,712.0312175999998,712.0312175999998,space,27.201655100000607,740.3407458000001,740.3407458000001,None,,,,,,17,001,2024-06-21_11h38.38.962,robot_nback_sign,2022.2.5,59.99613624865255,
L_Arm_Y_Back,True,1,robot,1,False,False,robot_stimuli\L_Arm_Y_Back.mp4,17,,,,,,,,,0,51,51,51,,,,,,,,,,,,,743.9887293000002,745.0636610000001,,,,,,,748.7057156000001,748.7057156000001,748.7057156000001,748.7057156000001,748.7057156000001,748.7057156000001,748.7057156000001,748.7057156000001,None,None,None,,,,,,,,,,,743.9887293000002,743.9887293000002,None,,745.0636610000001,745.0636610000001,c,743.9887293000002,743.9887293000002,1.5616166999998313,,,17,001,2024-06-21_11h38.38.962,robot_nback_sign,2022.2.5,59.99613624865255,
R_Torso_Y_For,False,1,robot,1,False,False,robot_stimuli\R_Torso_Y_For.mp4,17,,,,,,,,,0,52,52,52,,,,,,,,,,,,,748.7057156000001,749.7866404999995,,,,,,,753.4260177999995,753.4260177999995,753.4260177999995,753.4260177999995,753.4260177999995,753.4260177999995,753.4260177999995,753.4260177999995,None,None,None,,,,,,,,,,,748.7057156000001,748.7057156000001,None,,749.7866404999995,749.7866404999995,None,748.7057156000001,748.7057156000001,,,,17,001,2024-06-21_11h38.38.962,robot_nback_sign,2022.2.5,59.99613624865255,
R_Arm_Z_Back,False,1,robot,1,False,False,robot_stimuli\R_Arm_Z_Back.mp4,17,,,,,,,,,0,53,53,53,,,,,,,,,,,,,753.4260177999995,754.5041479000001,,,,,,,758.1340920000002,758.1340920000002,758.1340920000002,758.1340920000002,758.1340920000002,758.1340920000002,758.1340920000002,758.1340920000002,None,None,None,,,,,,,,,,,753.4260177999995,753.4260177999995,None,,754.5041479000001,754.5041479000001,n,753.4260177999995,753.4260177999995,1.480911599999672,,,17,001,2024-06-21_11h38.38.962,robot_nback_sign,2022.2.5,59.99613624865255,
R_Arm_Z_Back,True,1,robot,1,False,False,robot_stimuli\R_Arm_Z_Back.mp4,17,,,,,,,,,0,54,54,54,,,,,,,,,,,,,758.1340920000002,759.2169488999998,,,,,,,762.8568014000002,762.8568014000002,762.8568014000002,762.8568014000002,762.8568014000002,762.8568014000002,762.8568014000002,762.8568014000002,None,None,None,,,,,,,,,,,758.1340920000002,758.1340920000002,None,,759.2169488999998,759.2169488999998,c,758.1340920000002,758.1340920000002,1.975680000000466,,,17,001,2024-06-21_11h38.38.962,robot_nback_sign,2022.2.5,59.99613624865255,
L_Base_X_For,False,1,robot,1,False,False,robot_stimuli\L_Base_X_For.mp4,17,,,,,,,,,0,55,55,55,,,,,,,,,,,,,762.8568014000002,763.9347917999994,,,,,,,767.5101715999999,767.5101715999999,767.5101715999999,767.5101715999999,767.5101715999999,767.5101715999999,767.5101715999999,767.5101715999999,None,None,None,,,,,,,,,,,762.8568014000002,762.8568014000002,None,,763.9347917999994,763.9347917999994,None,762.8568014000002,762.8568014000002,,,,17,001,2024-06-21_11h38.38.962,robot_nback_sign,2022.2.5,59.99613624865255,
R_Head_Z_Back,False,1,robot,1,False,False,robot_stimuli\R_Head_Z_Back.mp4,17,,,,,,,,,0,56,56,56,,,,,,,,,,,,,767.5101715999999,768.5879242000001,,,,,,,772.2181775999998,772.2181775999998,772.2181775999998,772.2181775999998,772.2181775999998,772.2181775999998,772.2181775999998,772.2181775999998,None,None,None,,,,,,,,,,,767.5101715999999,767.5101715999999,None,,768.5879242000001,768.5879242000001,n,767.5101715999999,767.5101715999999,2.7256053999999494,,,17,001,2024-06-21_11h38.38.962,robot_nback_sign,2022.2.5,59.99613624865255,
R_Head_Z_Back,True,1,robot,1,False,False,robot_stimuli\R_Head_Z_Back.mp4,17,,,,,,,,,0,57,57,57,,,,,,,,,,,,,772.2181775999998,773.3014515999994,,,,,,,776.9444361999995,776.9444361999995,776.9444361999995,776.9444361999995,776.9444361999995,776.9444361999995,776.9444361999995,776.9444361999995,None,None,None,,,,,,,,,,,772.2181775999998,772.2181775999998,None,,773.3014515999994,773.3014515999994,c,772.2181775999998,772.2181775999998,2.1628333999997267,,,17,001,2024-06-21_11h38.38.962,robot_nback_sign,2022.2.5,59.99613624865255,
L_Arm_X_Back,False,1,robot,1,False,False,robot_stimuli\L_Arm_X_Back.mp4,17,,,,,,,,,0,58,58,58,,,,,,,,,,,,,776.9444361999995,778.0219504999995,,,,,,,781.6713303999995,781.6713303999995,781.6713303999995,781.6713303999995,781.6713303999995,781.6713303999995,781.6713303999995,781.6713303999995,None,None,None,,,,,,,,,,,776.9444361999995,776.9444361999995,None,,778.0219504999995,778.0219504999995,n,776.9444361999995,776.9444361999995,1.6423986999998306,,,17,001,2024-06-21_11h38.38.962,robot_nback_sign,2022.2.5,59.99613624865255,
R_Base_Y_Back,False,1,robot,1,False,False,robot_stimuli\R_Base_Y_Back.mp4,17,,,,,,,,,0,59,59,59,,,,,,,,,,,,,781.6713303999995,782.7542490999995,,,,,,,786.3849822000002,786.3849822000002,786.3849822000002,786.3849822000002,786.3849822000002,786.3849822000002,786.3849822000002,786.3849822000002,None,None,None,,,,,,,,,,,781.6713303999995,781.6713303999995,None,,782.7542490999995,782.7542490999995,n,781.6713303999995,781.6713303999995,3.2456872000002477,,,17,001,2024-06-21_11h38.38.962,robot_nback_sign,2022.2.5,59.99613624865255,
R_Arm_X_Back,False,1,robot,1,False,False,robot_stimuli\R_Arm_X_Back.mp4,17,,,,,,,,,0,60,60,60,,,,,,,,,,,,,786.3849822000002,787.4715307999995,,,,,,,791.1010962999999,791.1010962999999,791.1010962999999,791.1010962999999,791.1010962999999,791.1010962999999,791.1010962999999,791.1010962999999,None,None,None,,,,,,,,,,,786.3849822000002,786.3849822000002,None,,787.4715307999995,787.4715307999995,n,786.3849822000002,786.3849822000002,2.83292849999998,,,17,001,2024-06-21_11h38.38.962,robot_nback_sign,2022.2.5,59.99613624865255,
R_Arm_X_Back,True,1,robot,1,False,False,robot_stimuli\R_Arm_X_Back.mp4,17,,,,,,,,,0,61,61,61,,,,,,,,,,,,,791.1010962999999,792.1832229000001,,,,,,,795.8261430000002,795.8261430000002,795.8261430000002,795.8261430000002,795.8261430000002,795.8261430000002,795.8261430000002,795.8261430000002,None,None,None,,,,,,,,,,,791.1010962999999,791.1010962999999,None,,792.1832229000001,792.1832229000001,c,791.1010962999999,791.1010962999999,1.8005468000001201,,,17,001,2024-06-21_11h38.38.962,robot_nback_sign,2022.2.5,59.99613624865255,
L_Arm_X_Back,False,1,robot,1,False,False,robot_stimuli\L_Arm_X_Back.mp4,17,,,,,,,,,0,62,62,62,,,,,,,,,,,,,795.8261430000002,796.9062298999997,,,,,,,800.5561978999995,800.5561978999995,800.5561978999995,800.5561978999995,800.5561978999995,800.5561978999995,800.5561978999995,800.5561978999995,None,None,None,,,,,,,,,,,795.8261430000002,795.8261430000002,None,,796.9062298999997,796.9062298999997,n,795.8261430000002,795.8261430000002,2.7264645999994173,,,17,001,2024-06-21_11h38.38.962,robot_nback_sign,2022.2.5,59.99613624865255,
L_Head_X_Back,False,1,robot,1,False,False,robot_stimuli\L_Head_X_Back.mp4,17,,,,,,,,,0,63,63,63,,,,,,,,,,,,,800.5561978999995,801.6327246000001,,,,,,,805.2744321,805.2744321,805.2744321,805.2744321,805.2744321,805.2744321,805.2744321,805.2744321,None,None,None,,,,,,,,,,,800.5561978999995,800.5561978999995,None,,801.6327246000001,801.6327246000001,n,800.5561978999995,800.5561978999995,1.8880153000000064,,,17,001,2024-06-21_11h38.38.962,robot_nback_sign,2022.2.5,59.99613624865255,
R_Arm_Y_For,False,1,robot,1,False,False,robot_stimuli\R_Arm_Y_For.mp4,17,,,,,,,,,0,64,64,64,,,,,,,,,,,,,805.2744321,806.3596671999994,,,,,,,809.8755083999995,809.8755083999995,809.8755083999995,809.8755083999995,809.8755083999995,809.8755083999995,809.8755083999995,809.8755083999995,None,None,None,,,,,,,,,,,805.2744321,805.2744321,None,,806.3596671999994,806.3596671999994,n,805.2744321,805.2744321,2.5047193000000334,,,17,001,2024-06-21_11h38.38.962,robot_nback_sign,2022.2.5,59.99613624865255,
R_Base_Z_Back,False,1,robot,1,False,False,robot_stimuli\R_Base_Z_Back.mp4,17,,,,,,,,,0,65,65,65,,,,,,,,,,,,,809.8755083999995,810.9552603000002,,,,,,,814.5063801999995,814.5063801999995,814.5063801999995,814.5063801999995,814.5063801999995,814.5063801999995,814.5063801999995,814.5063801999995,None,None,None,,,,,,,,,,,809.8755083999995,809.8755083999995,None,,810.9552603000002,810.9552603000002,n,809.8755083999995,809.8755083999995,1.7900180999995428,,,17,001,2024-06-21_11h38.38.962,robot_nback_sign,2022.2.5,59.99613624865255,
R_Base_Z_Back,True,1,robot,1,False,False,robot_stimuli\R_Base_Z_Back.mp4,17,,,,,,,,,0,66,66,66,,,,,,,,,,,,,814.5063801999995,815.5852274999997,,,,,,,819.1223818999997,819.1223818999997,819.1223818999997,819.1223818999997,819.1223818999997,819.1223818999997,819.1223818999997,819.1223818999997,None,None,None,,,,,,,,,,,814.5063801999995,814.5063801999995,None,,815.5852274999997,815.5852274999997,c,814.5063801999995,814.5063801999995,1.6951005999999325,,,17,001,2024-06-21_11h38.38.962,robot_nback_sign,2022.2.5,59.99613624865255,
L_Arm_X_For,False,1,robot,1,False,False,robot_stimuli\L_Arm_X_For.mp4,17,,,,,,,,,0,67,67,67,,,,,,,,,,,,,819.1223818999997,820.2035375999994,,,,,,,823.8425803,823.8425803,823.8425803,823.8425803,823.8425803,823.8425803,823.8425803,823.8425803,None,None,None,,,,,,,,,,,819.1223818999997,819.1223818999997,None,,820.2035375999994,820.2035375999994,n,819.1223818999997,819.1223818999997,2.564121100000193,,,17,001,2024-06-21_11h38.38.962,robot_nback_sign,2022.2.5,59.99613624865255,
L_Torso_Y_Back,False,1,robot,1,False,False,robot_stimuli\L_Torso_Y_Back.mp4,17,,,,,,,,,0,68,68,68,,,,,,,,,,,,,823.8425803,824.9199616999995,,,,,,,828.4279316000002,828.4279316000002,828.4279316000002,828.4279316000002,828.4279316000002,828.4279316000002,828.4279316000002,828.4279316000002,None,None,None,,,,,,,,,,,823.8425803,823.8425803,None,,824.9199616999995,824.9199616999995,n,823.8425803,823.8425803,2.0963713000001007,,,17,001,2024-06-21_11h38.38.962,robot_nback_sign,2022.2.5,59.99613624865255,
L_Torso_X_For,False,1,robot,1,False,False,robot_stimuli\L_Torso_X_For.mp4,17,,,,,,,,,0,69,69,69,,,,,,,,,,,,,828.4279316000002,829.5054703999995,,,,,,,833.1551465000002,833.1551465000002,833.1551465000002,833.1551465000002,833.1551465000002,833.1551465000002,833.1551465000002,833.1551465000002,None,None,None,,,,,,,,,,,828.4279316000002,828.4279316000002,None,,829.5054703999995,829.5054703999995,c,828.4279316000002,828.4279316000002,3.3263583999996627,,,17,001,2024-06-21_11h38.38.962,robot_nback_sign,2022.2.5,59.99613624865255,
L_Torso_X_For,True,1,robot,1,False,False,robot_stimuli\L_Torso_X_For.mp4,17,,,,,,,,,0,70,70,70,,,,,,,,,,,,,833.1551465000002,834.2359019999994,,,,,,,837.8751378999996,837.8751378999996,837.8751378999996,837.8751378999996,837.8751378999996,837.8751378999996,837.8751378999996,837.8751378999996,None,None,None,,,,,,,,,,,833.1551465000002,833.1551465000002,None,,834.2359019999994,834.2359019999994,c,833.1551465000002,833.1551465000002,3.420998999999938,,,17,001,2024-06-21_11h38.38.962,robot_nback_sign,2022.2.5,59.99613624865255,
R_Base_Z_Back,False,1,robot,1,False,False,robot_stimuli\R_Base_Z_Back.mp4,17,,,,,,,,,0,71,71,71,,,,,,,,,,,,,837.8751378999996,838.9542876999994,,,,,,,842.5046616999998,842.5046616999998,842.5046616999998,842.5046616999998,842.5046616999998,842.5046616999998,842.5046616999998,842.5046616999998,None,None,None,,,,,,,,,,,837.8751378999996,837.8751378999996,None,,838.9542876999994,838.9542876999994,n,837.8751378999996,837.8751378999996,1.9184640000003128,,,17,001,2024-06-21_11h38.38.962,robot_nback_sign,2022.2.5,59.99613624865255,
R_Torso_Y_For,False,1,robot,1,False,False,robot_stimuli\R_Torso_Y_For.mp4,17,,,,,,,,,0,72,72,72,,,,,,,,,,,,,842.5046616999998,843.5877928999998,,,,,,,847.2177585999998,847.2177585999998,847.2177585999998,847.2177585999998,847.2177585999998,847.2177585999998,847.2177585999998,847.2177585999998,None,None,None,,,,,,,,,,,842.5046616999998,842.5046616999998,None,,843.5877928999998,843.5877928999998,n,842.5046616999998,842.5046616999998,3.181441700000505,,,17,001,2024-06-21_11h38.38.962,robot_nback_sign,2022.2.5,59.99613624865255,
L_Arm_Y_Back,False,1,robot,1,False,False,robot_stimuli\L_Arm_Y_Back.mp4,17,,,,,,,,,0,73,73,73,,,,,,,,,,,,,847.2177585999998,848.3051239999995,,,,,,,851.9328563999998,851.9328563999998,851.9328563999998,851.9328563999998,851.9328563999998,851.9328563999998,851.9328563999998,851.9328563999998,None,None,None,,,,,,,,,,,847.2177585999998,847.2177585999998,None,,848.3051239999995,848.3051239999995,n,847.2177585999998,847.2177585999998,2.1356360999998287,,,17,001,2024-06-21_11h38.38.962,robot_nback_sign,2022.2.5,59.99613624865255,
R_Arm_Z_For,False,1,robot,1,False,False,robot_stimuli\R_Arm_Z_For.mp4,17,,,,,,,,,0,74,74,74,,,,,,,,,,,,,851.9328563999998,853.0192675999997,,,,,,,856.6570943999996,856.6570943999996,856.6570943999996,856.6570943999996,856.6570943999996,856.6570943999996,856.6570943999996,856.6570943999996,None,None,None,,,,,,,,,,,851.9328563999998,851.9328563999998,None,,853.0192675999997,853.0192675999997,None,851.9328563999998,851.9328563999998,,,,17,001,2024-06-21_11h38.38.962,robot_nback_sign,2022.2.5,59.99613624865255,
R_Base_Z_Back,False,1,robot,1,False,False,robot_stimuli\R_Base_Z_Back.mp4,17,,,,,,,,,0,75,75,75,,,,,,,,,,,,,856.6570943999996,857.7334940999999,,,,,,,861.2679601,861.2679601,861.2679601,861.2679601,861.2679601,861.2679601,861.2679601,861.2679601,None,None,None,,,,,,,,,,,856.6570943999996,856.6570943999996,None,,857.7334940999999,857.7334940999999,n,856.6570943999996,856.6570943999996,3.0023140999992393,,,17,001,2024-06-21_11h38.38.962,robot_nback_sign,2022.2.5,59.99613624865255,
L_Torso_Z_Back,False,1,robot,1,False,False,robot_stimuli\L_Torso_Z_Back.mp4,17,,,,,,,,,0,76,76,76,,,,,,,,,,,,,861.2679601,862.3556357999996,,,,,,,865.8715891000002,865.8715891000002,865.8715891000002,865.8715891000002,865.8715891000002,865.8715891000002,865.8715891000002,865.8715891000002,None,None,None,,,,,,,,,,,861.2679601,861.2679601,None,,862.3556357999996,862.3556357999996,n,861.2679601,861.2679601,2.885887100000218,,,17,001,2024-06-21_11h38.38.962,robot_nback_sign,2022.2.5,59.99613624865255,
L_Arm_Z_For,False,1,robot,1,False,False,robot_stimuli\L_Arm_Z_For.mp4,17,,,,,,,,,0,77,77,77,,,,,,,,,,,,,865.8715891000002,866.9547298999996,,,,,,,870.6049722999996,870.6049722999996,870.6049722999996,870.6049722999996,870.6049722999996,870.6049722999996,870.6049722999996,870.6049722999996,None,None,None,,,,,,,,,,,865.8715891000002,865.8715891000002,None,,866.9547298999996,866.9547298999996,n,865.8715891000002,865.8715891000002,2.6384602000007362,,,17,001,2024-06-21_11h38.38.962,robot_nback_sign,2022.2.5,59.99613624865255,
R_Head_X_Back,False,1,robot,1,False,False,robot_stimuli\R_Head_X_Back.mp4,17,,,,,,,,,0,78,78,78,,,,,,,,,,,,,870.6049722999996,871.6844970000002,,,,,,,875.3157778999994,875.3157778999994,875.3157778999994,875.3157778999994,875.3157778999994,875.3157778999994,875.3157778999994,875.3157778999994,None,None,None,,,,,,,,,,,870.6049722999996,870.6049722999996,None,,871.6844970000002,871.6844970000002,n,870.6049722999996,870.6049722999996,3.340136299999358,,,17,001,2024-06-21_11h38.38.962,robot_nback_sign,2022.2.5,59.99613624865255,
L_Head_X_Back,False,1,robot,1,False,False,robot_stimuli\L_Head_X_Back.mp4,17,,,,,,,,,0,79,79,79,,,,,,,,,,,,,875.3157778999994,876.4034231999995,,,,,,,880.0430439000002,880.0430439000002,880.0430439000002,880.0430439000002,880.0430439000002,880.0430439000002,880.0430439000002,880.0430439000002,None,None,None,,,,,,,,,,,875.3157778999994,875.3157778999994,None,,876.4034231999995,876.4034231999995,n,875.3157778999994,875.3157778999994,3.437989000000016,,,17,001,2024-06-21_11h38.38.962,robot_nback_sign,2022.2.5,59.99613624865255,
L_Base_Z_For,False,1,robot,1,False,False,robot_stimuli\L_Base_Z_For.mp4,17,,,,,,,,,0,80,80,80,,,,,,,,,,,,,880.0430439000002,881.1214217999996,,,,,,,884.7505291999996,884.7505291999996,884.7505291999996,884.7505291999996,884.7505291999996,884.7505291999996,884.7505291999996,884.7505291999996,None,None,None,,,,,,,,,,,880.0430439000002,880.0430439000002,None,,881.1214217999996,881.1214217999996,n,880.0430439000002,880.0430439000002,3.558606499999769,,,17,001,2024-06-21_11h38.38.962,robot_nback_sign,2022.2.5,59.99613624865255,
R_Base_Y_For,False,1,robot,1,False,False,robot_stimuli\R_Base_Y_For.mp4,17,,,,,,,,,0,81,81,81,,,,,,,,,,,,,884.7505291999996,885.8339191999994,,,,,,,889.4754377999998,889.4754377999998,889.4754377999998,889.4754377999998,889.4754377999998,889.4754377999998,889.4754377999998,889.4754377999998,None,None,None,,,,,,,,,,,884.7505291999996,884.7505291999996,None,,885.8339191999994,885.8339191999994,n,884.7505291999996,884.7505291999996,2.526002399999925,,,17,001,2024-06-21_11h38.38.962,robot_nback_sign,2022.2.5,59.99613624865255,
R_Base_Y_For,True,1,robot,1,False,False,robot_stimuli\R_Base_Y_For.mp4,17,,,,,,,,,0,82,82,82,,,,,,,,,,,,,889.4754377999998,890.5513606999993,,,,,,,894.1909243999999,894.1909243999999,894.1909243999999,894.1909243999999,894.1909243999999,894.1909243999999,894.1909243999999,894.1909243999999,None,None,None,,,,,,,,,,,889.4754377999998,889.4754377999998,None,,890.5513606999993,890.5513606999993,c,889.4754377999998,889.4754377999998,2.2334452000004603,,,17,001,2024-06-21_11h38.38.962,robot_nback_sign,2022.2.5,59.99613624865255,
L_Arm_X_For,False,1,robot,1,False,False,robot_stimuli\L_Arm_X_For.mp4,17,,,,,,,,,0,83,83,83,,,,,,,,,,,,,894.1909243999999,895.2706491999998,,,,,,,898.9035334999999,898.9035334999999,898.9035334999999,898.9035334999999,898.9035334999999,898.9035334999999,898.9035334999999,898.9035334999999,None,None,None,,,,,,,,,,,894.1909243999999,894.1909243999999,None,,895.2706491999998,895.2706491999998,n,894.1909243999999,894.1909243999999,2.609548800000084,,,17,001,2024-06-21_11h38.38.962,robot_nback_sign,2022.2.5,59.99613624865255,
R_Torso_X_For,False,1,robot,1,False,False,robot_stimuli\R_Torso_X_For.mp4,17,,,,,,,,,0,84,84,84,,,,,,,,,,,,,898.9035334999999,900.0026045999994,,,,,,,903.6413538999996,903.6413538999996,903.6413538999996,903.6413538999996,903.6413538999996,903.6413538999996,903.6413538999996,903.6413538999996,None,None,None,,,,,,,,,,,898.9035334999999,898.9035334999999,None,,900.0026045999994,900.0026045999994,n,898.9035334999999,898.9035334999999,2.5170813999993698,,,17,001,2024-06-21_11h38.38.962,robot_nback_sign,2022.2.5,59.99613624865255,
L_Arm_X_For,False,1,robot,1,False,False,robot_stimuli\L_Arm_X_For.mp4,17,,,,,,,,,0,85,85,85,,,,,,,,,,,,,903.6413538999996,904.7216564,,,,,,,908.3755246000001,908.3755246000001,908.3755246000001,908.3755246000001,908.3755246000001,908.3755246000001,908.3755246000001,908.3755246000001,None,None,None,,,,,,,,,,,903.6413538999996,903.6413538999996,None,,904.7216564,904.7216564,n,903.6413538999996,903.6413538999996,2.175290700000005,,,17,001,2024-06-21_11h38.38.962,robot_nback_sign,2022.2.5,59.99613624865255,
L_Arm_X_For,True,1,robot,1,False,False,robot_stimuli\L_Arm_X_For.mp4,17,,,,,,,,,0,86,86,86,,,,,,,,,,,,,908.3755246000001,909.4669921999994,,,,,,,913.1067340999998,913.1067340999998,913.1067340999998,913.1067340999998,913.1067340999998,913.1067340999998,913.1067340999998,913.1067340999998,None,None,None,,,,,,,,,,,908.3755246000001,908.3755246000001,None,,909.4669921999994,909.4669921999994,c,908.3755246000001,908.3755246000001,2.4778498999994554,,,17,001,2024-06-21_11h38.38.962,robot_nback_sign,2022.2.5,59.99613624865255,
R_Arm_Y_For,False,1,robot,1,False,False,robot_stimuli\R_Arm_Y_For.mp4,17,,,,,,,,,0,87,87,87,,,,,,,,,,,,,913.1067340999998,914.1893267999994,,,,,,,917.7051198999998,917.7051198999998,917.7051198999998,917.7051198999998,917.7051198999998,917.7051198999998,917.7051198999998,917.7051198999998,None,None,None,,,,,,,,,,,913.1067340999998,913.1067340999998,None,,914.1893267999994,914.1893267999994,n,913.1067340999998,913.1067340999998,2.3463621000000785,,,17,001,2024-06-21_11h38.38.962,robot_nback_sign,2022.2.5,59.99613624865255,
R_Arm_X_For,False,1,robot,1,False,False,robot_stimuli\R_Arm_X_For.mp4,17,,,,,,,,,0,88,88,88,,,,,,,,,,,,,917.7051198999998,918.7827749999997,,,,,,,922.4243644999997,922.4243644999997,922.4243644999997,922.4243644999997,922.4243644999997,922.4243644999997,922.4243644999997,922.4243644999997,None,None,None,,,,,,,,,,,917.7051198999998,917.7051198999998,None,,918.7827749999997,918.7827749999997,c,917.7051198999998,917.7051198999998,2.8740546999997605,,,17,001,2024-06-21_11h38.38.962,robot_nback_sign,2022.2.5,59.99613624865255,
R_Arm_X_For,True,1,robot,1,False,False,robot_stimuli\R_Arm_X_For.mp4,17,,,,,,,,,0,89,89,89,,,,,,,,,,,,,922.4243644999997,923.5024905,,,,,,,927.1410539999997,927.1410539999997,927.1410539999997,927.1410539999997,927.1410539999997,927.1410539999997,927.1410539999997,927.1410539999997,None,None,None,,,,,,,,,,,922.4243644999997,922.4243644999997,None,,923.5024905,923.5024905,c,922.4243644999997,922.4243644999997,3.002814500000568,,,17,001,2024-06-21_11h38.38.962,robot_nback_sign,2022.2.5,59.99613624865255,
L_Base_X_For,False,1,robot,1,False,False,robot_stimuli\L_Base_X_For.mp4,17,,,,,,,,,0,90,90,90,,,,,,,,,,,,,927.1410539999997,928.2222231999995,,,,,,,931.8057976,931.8057976,931.8057976,931.8057976,931.8057976,931.8057976,931.8057976,931.8057976,None,None,None,,,,,,,,,,,927.1410539999997,927.1410539999997,None,,928.2222231999995,928.2222231999995,None,927.1410539999997,927.1410539999997,,,,17,001,2024-06-21_11h38.38.962,robot_nback_sign,2022.2.5,59.99613624865255,
L_Torso_Y_Back,False,1,robot,1,False,False,robot_stimuli\L_Torso_Y_Back.mp4,17,,,,,,,,,0,91,91,91,,,,,,,,,,,,,931.8057976,932.8880965999997,,,,,,,936.4071456000001,936.4071456000001,936.4071456000001,936.4071456000001,936.4071456000001,936.4071456000001,936.4071456000001,936.4071456000001,None,None,None,,,,,,,,,,,931.8057976,931.8057976,None,,932.8880965999997,932.8880965999997,None,931.8057976,931.8057976,,,,17,001,2024-06-21_11h38.38.962,robot_nback_sign,2022.2.5,59.99613624865255,
R_Base_Z_Back,False,1,robot,1,False,False,robot_stimuli\R_Base_Z_Back.mp4,17,,,,,,,,,0,92,92,92,,,,,,,,,,,,,936.4071456000001,937.4897698999994,,,,,,,941.0389914999996,941.0389914999996,941.0389914999996,941.0389914999996,941.0389914999996,941.0389914999996,941.0389914999996,941.0389914999996,None,None,None,,,,,,,,,,,936.4071456000001,936.4071456000001,None,,937.4897698999994,937.4897698999994,n,936.4071456000001,936.4071456000001,2.855307100000573,,,17,001,2024-06-21_11h38.38.962,robot_nback_sign,2022.2.5,59.99613624865255,
R_Head_X_For,False,1,robot,1,False,False,robot_stimuli\R_Head_X_For.mp4,17,,,,,,,,,0,93,93,93,,,,,,,,,,,,,941.0389914999996,942.1216066999996,,,,,,,945.7509638000001,945.7509638000001,945.7509638000001,945.7509638000001,945.7509638000001,945.7509638000001,945.7509638000001,945.7509638000001,None,None,None,,,,,,,,,,,941.0389914999996,941.0389914999996,None,,942.1216066999996,942.1216066999996,n,941.0389914999996,941.0389914999996,2.5515682000004745,,,17,001,2024-06-21_11h38.38.962,robot_nback_sign,2022.2.5,59.99613624865255,
R_Head_X_For,True,1,robot,1,False,False,robot_stimuli\R_Head_X_For.mp4,17,,,,,,,,,0,94,94,94,,,,,,,,,,,,,945.7509638000001,946.8353056999995,,,,,,,950.4765904999995,950.4765904999995,950.4765904999995,950.4765904999995,950.4765904999995,950.4765904999995,950.4765904999995,950.4765904999995,None,None,None,,,,,,,,,,,945.7509638000001,945.7509638000001,None,,946.8353056999995,946.8353056999995,c,945.7509638000001,945.7509638000001,1.2287793000004967,,,17,001,2024-06-21_11h38.38.962,robot_nback_sign,2022.2.5,59.99613624865255,
L_Base_X_Back,False,1,robot,1,False,False,robot_stimuli\L_Base_X_Back.mp4,17,,,,,,,,,0,95,95,95,,,,,,,,,,,,,950.4765904999995,951.5555961,,,,,,,955.1704308999997,955.1704308999997,955.1704308999997,955.1704308999997,955.1704308999997,955.1704308999997,955.1704308999997,955.1704308999997,None,None,None,,,,,,,,,,,950.4765904999995,950.4765904999995,None,,951.5555961,951.5555961,None,950.4765904999995,950.4765904999995,,,,17,001,2024-06-21_11h38.38.962,robot_nback_sign,2022.2.5,59.99613624865255,
L_Torso_Y_For,False,1,robot,1,False,False,robot_stimuli\L_Torso_Y_For.mp4,17,,,,,,,,,0,96,96,96,,,,,,,,,,,,,955.1704308999997,956.2502515999995,,,,,,,959.8825417999997,959.8825417999997,959.8825417999997,959.8825417999997,959.8825417999997,959.8825417999997,959.8825417999997,959.8825417999997,None,None,None,,,,,,,,,,,955.1704308999997,955.1704308999997,None,,956.2502515999995,956.2502515999995,n,955.1704308999997,955.1704308999997,2.9664087999999538,,,17,001,2024-06-21_11h38.38.962,robot_nback_sign,2022.2.5,59.99613624865255,
R_Base_X_Back,False,1,robot,1,False,False,robot_stimuli\R_Base_X_Back.mp4,17,,,,,,,,,0,97,97,97,,,,,,,,,,,,,959.8825417999997,960.9713328999997,,,,,,,964.6010937000001,964.6010937000001,964.6010937000001,964.6010937000001,964.6010937000001,964.6010937000001,964.6010937000001,964.6010937000001,None,None,None,,,,,,,,,,,959.8825417999997,959.8825417999997,None,,960.9713328999997,960.9713328999997,n,959.8825417999997,959.8825417999997,1.9256591000003027,,,17,001,2024-06-21_11h38.38.962,robot_nback_sign,2022.2.5,59.99613624865255,
L_Head_Y_Back,False,1,robot,1,False,False,robot_stimuli\L_Head_Y_Back.mp4,17,,,,,,,,,0,98,98,98,,,,,,,,,,,,,964.6010937000001,965.6838638999998,,,,,,,969.3168587999999,969.3168587999999,969.3168587999999,969.3168587999999,969.3168587999999,969.3168587999999,969.3168587999999,969.3168587999999,None,None,None,,,,,,,,,,,964.6010937000001,964.6010937000001,None,,965.6838638999998,965.6838638999998,n,964.6010937000001,964.6010937000001,1.779708600000049,,,17,001,2024-06-21_11h38.38.962,robot_nback_sign,2022.2.5,59.99613624865255,
R_Arm_X_Back,False,1,robot,1,False,True,robot_stimuli\R_Arm_X_Back.mp4,17,,,,,,,,,0,99,99,99,,,,,,,,,,,,,969.3168587999999,970.4044230999998,,,,,,,974.0710451999994,980.2750349999997,974.0710451999994,980.2750349999997,974.0710451999994,980.2750349999997,974.0710451999994,980.2750349999997,23.67283950617283,4.549444100000073,space,,,6.138322099999641,,,,,,,,969.3168587999999,969.3168587999999,None,,970.4044230999998,970.4044230999998,n,969.3168587999999,969.3168587999999,1.9240639999998166,,,17,001,2024-06-21_11h38.38.962,robot_nback_sign,2022.2.5,59.99613624865255,
R_Torso_Z_Back,False,3,robot,1,True,False,robot_stimuli\R_Torso_Z_Back.mp4,17,,,,,,,,,0,100,100,100,,,,,,,,,,,,,1051.4436375999994,1052.5379002999998,,,,,,,1056.1751065999997,1056.1751065999997,1056.1751065999997,1056.1751065999997,1056.1751065999997,1056.1751065999997,1056.1751065999997,1056.1751065999997,None,None,None,,,,,,,,,,,980.2750349999997,980.2750349999997,space,71.14911480000046,1052.5379002999998,1052.5379002999998,None,,,,,,17,001,2024-06-21_11h38.38.962,robot_nback_sign,2022.2.5,59.99613624865255,
L_Head_Y_Back,False,3,robot,1,False,False,robot_stimuli\L_Head_Y_Back.mp4,17,,,,,,,,,0,101,101,101,,,,,,,,,,,,,1056.1751065999997,1057.2545812999997,,,,,,,1060.9052605999996,1060.9052605999996,1060.9052605999996,1060.9052605999996,1060.9052605999996,1060.9052605999996,1060.9052605999996,1060.9052605999996,None,None,None,,,,,,,,,,,1056.1751065999997,1056.1751065999997,None,,1057.2545812999997,1057.2545812999997,None,1056.1751065999997,1056.1751065999997,,,,17,001,2024-06-21_11h38.38.962,robot_nback_sign,2022.2.5,59.99613624865255,
L_Head_X_Back,False,3,robot,1,False,False,robot_stimuli\L_Head_X_Back.mp4,17,,,,,,,,,0,102,102,102,,,,,,,,,,,,,1060.9052605999996,1061.9885182999997,,,,,,,1065.6370385999999,1065.6370385999999,1065.6370385999999,1065.6370385999999,1065.6370385999999,1065.6370385999999,1065.6370385999999,1065.6370385999999,None,None,None,,,,,,,,,,,1060.9052605999996,1060.9052605999996,None,,1061.9885182999997,1061.9885182999997,None,1060.9052605999996,1060.9052605999996,,,,17,001,2024-06-21_11h38.38.962,robot_nback_sign,2022.2.5,59.99613624865255,
L_Arm_X_For,False,3,robot,1,False,False,robot_stimuli\L_Arm_X_For.mp4,17,,,,,,,,,0,103,103,103,,,,,,,,,,,,,1065.6370385999999,1066.7222553000001,,,,,,,1070.3600428999998,1070.3600428999998,1070.3600428999998,1070.3600428999998,1070.3600428999998,1070.3600428999998,1070.3600428999998,1070.3600428999998,None,None,None,,,,,,,,,,,1065.6370385999999,1065.6370385999999,None,,1066.7222553000001,1066.7222553000001,n,1065.6370385999999,1065.6370385999999,2.9028077000002668,,,17,001,2024-06-21_11h38.38.962,robot_nback_sign,2022.2.5,59.99613624865255,
L_Torso_Z_Back,False,3,robot,1,False,False,robot_stimuli\L_Torso_Z_Back.mp4,17,,,,,,,,,0,104,104,104,,,,,,,,,,,,,1070.3600428999998,1071.4304801999997,,,,,,,1074.9414854999995,1074.9414854999995,1074.9414854999995,1074.9414854999995,1074.9414854999995,1074.9414854999995,1074.9414854999995,1074.9414854999995,None,None,None,,,,,,,,,,,1070.3600428999998,1070.3600428999998,None,,1071.4304801999997,1071.4304801999997,None,1070.3600428999998,1070.3600428999998,,,,17,001,2024-06-21_11h38.38.962,robot_nback_sign,2022.2.5,59.99613624865255,
L_Head_X_Back,True,3,robot,1,False,False,robot_stimuli\L_Head_X_Back.mp4,17,,,,,,,,,0,105,105,105,,,,,,,,,,,,,1074.9414854999995,1076.0215706999998,,,,,,,1079.6719796999996,1079.6719796999996,1079.6719796999996,1079.6719796999996,1079.6719796999996,1079.6719796999996,1079.6719796999996,1079.6719796999996,None,None,None,,,,,,,,,,,1074.9414854999995,1074.9414854999995,None,,1076.0215706999998,1076.0215706999998,c,1074.9414854999995,1074.9414854999995,2.625945800000409,,,17,001,2024-06-21_11h38.38.962,robot_nback_sign,2022.2.5,59.99613624865255,
R_Base_X_Back,False,3,robot,1,False,False,robot_stimuli\R_Base_X_Back.mp4,17,,,,,,,,,0,106,106,106,,,,,,,,,,,,,1079.6719796999996,1080.7542475,,,,,,,1084.3828232999995,1084.3828232999995,1084.3828232999995,1084.3828232999995,1084.3828232999995,1084.3828232999995,1084.3828232999995,1084.3828232999995,None,None,None,,,,,,,,,,,1079.6719796999996,1079.6719796999996,None,,1080.7542475,1080.7542475,None,1079.6719796999996,1079.6719796999996,,,,17,001,2024-06-21_11h38.38.962,robot_nback_sign,2022.2.5,59.99613624865255,
L_Torso_Z_Back,True,3,robot,1,False,False,robot_stimuli\L_Torso_Z_Back.mp4,17,,,,,,,,,0,107,107,107,,,,,,,,,,,,,1084.3828232999995,1085.4708443999998,,,,,,,1088.9676848999998,1088.9676848999998,1088.9676848999998,1088.9676848999998,1088.9676848999998,1088.9676848999998,1088.9676848999998,1088.9676848999998,None,None,None,,,,,,,,,,,1084.3828232999995,1084.3828232999995,None,,1085.4708443999998,1085.4708443999998,None,1084.3828232999995,1084.3828232999995,,,,17,001,2024-06-21_11h38.38.962,robot_nback_sign,2022.2.5,59.99613624865255,
L_Torso_Y_Back,False,3,robot,1,False,False,robot_stimuli\L_Torso_Y_Back.mp4,17,,,,,,,,,0,108,108,108,,,,,,,,,,,,,1088.9676848999998,1090.0549412,,,,,,,1093.5597712,1093.5597712,1093.5597712,1093.5597712,1093.5597712,1093.5597712,1093.5597712,1093.5597712,None,None,None,,,,,,,,,,,1088.9676848999998,1088.9676848999998,None,,1090.0549412,1090.0549412,c,1088.9676848999998,1088.9676848999998,2.9146041000003606,,,17,001,2024-06-21_11h38.38.962,robot_nback_sign,2022.2.5,59.99613624865255,
L_Base_Y_Back,False,3,robot,1,False,False,robot_stimuli\L_Base_Y_Back.mp4,17,,,,,,,,,0,109,109,109,,,,,,,,,,,,,1093.5597712,1094.6389763999996,,,,,,,1098.2223333000002,1098.2223333000002,1098.2223333000002,1098.2223333000002,1098.2223333000002,1098.2223333000002,1098.2223333000002,1098.2223333000002,None,None,None,,,,,,,,,,,1093.5597712,1093.5597712,None,,1094.6389763999996,1094.6389763999996,n,1093.5597712,1093.5597712,2.7532751999997345,,,17,001,2024-06-21_11h38.38.962,robot_nback_sign,2022.2.5,59.99613624865255,
R_Head_X_Back,False,3,robot,1,False,False,robot_stimuli\R_Head_X_Back.mp4,17,,,,,,,,,0,110,110,110,,,,,,,,,,,,,1098.2223333000002,1099.3069027000001,,,,,,,1102.955844,1102.955844,1102.955844,1102.955844,1102.955844,1102.955844,1102.955844,1102.955844,None,None,None,,,,,,,,,,,1098.2223333000002,1098.2223333000002,None,,1099.3069027000001,1099.3069027000001,n,1098.2223333000002,1098.2223333000002,1.9091765999992276,,,17,001,2024-06-21_11h38.38.962,robot_nback_sign,2022.2.5,59.99613624865255,
R_Head_X_For,False,3,robot,1,False,False,robot_stimuli\R_Head_X_For.mp4,17,,,,,,,,,0,111,111,111,,,,,,,,,,,,,1102.955844,1104.0359871,,,,,,,1107.6745955999995,1107.6745955999995,1107.6745955999995,1107.6745955999995,1107.6745955999995,1107.6745955999995,1107.6745955999995,1107.6745955999995,None,None,None,,,,,,,,,,,1102.955844,1102.955844,None,,1104.0359871,1104.0359871,n,1102.955844,1102.955844,3.4526641999991625,,,17,001,2024-06-21_11h38.38.962,robot_nback_sign,2022.2.5,59.99613624865255,
R_Arm_X_For,False,3,robot,1,False,False,robot_stimuli\R_Arm_X_For.mp4,17,,,,,,,,,0,112,112,112,,,,,,,,,,,,,1107.6745955999995,1108.7547454999994,,,,,,,1112.3932983999994,1112.3932983999994,1112.3932983999994,1112.3932983999994,1112.3932983999994,1112.3932983999994,1112.3932983999994,1112.3932983999994,None,None,None,,,,,,,,,,,1107.6745955999995,1107.6745955999995,None,,1108.7547454999994,1108.7547454999994,n,1107.6745955999995,1107.6745955999995,2.828827600000295,,,17,001,2024-06-21_11h38.38.962,robot_nback_sign,2022.2.5,59.99613624865255,
R_Arm_Z_Back,False,3,robot,1,False,False,robot_stimuli\R_Arm_Z_Back.mp4,17,,,,,,,,,0,113,113,113,,,,,,,,,,,,,1112.3932983999994,1113.4712742000002,,,,,,,1117.1024668999999,1117.1024668999999,1117.1024668999999,1117.1024668999999,1117.1024668999999,1117.1024668999999,1117.1024668999999,1117.1024668999999,None,None,None,,,,,,,,,,,1112.3932983999994,1112.3932983999994,None,,1113.4712742000002,1113.4712742000002,n,1112.3932983999994,1112.3932983999994,2.7129035000007207,,,17,001,2024-06-21_11h38.38.962,robot_nback_sign,2022.2.5,59.99613624865255,
R_Arm_X_For,False,3,robot,1,False,False,robot_stimuli\R_Arm_X_For.mp4,17,,,,,,,,,0,114,114,114,,,,,,,,,,,,,1117.1024668999999,1118.1881322,,,,,,,1121.8385877,1121.8385877,1121.8385877,1121.8385877,1121.8385877,1121.8385877,1121.8385877,1121.8385877,None,None,None,,,,,,,,,,,1117.1024668999999,1117.1024668999999,None,,1118.1881322,1118.1881322,n,1117.1024668999999,1117.1024668999999,2.38837919999969,,,17,001,2024-06-21_11h38.38.962,robot_nback_sign,2022.2.5,59.99613624865255,
L_Base_X_For,False,3,robot,1,False,False,robot_stimuli\L_Base_X_For.mp4,17,,,,,,,,,0,115,115,115,,,,,,,,,,,,,1121.8385877,1122.9214997999998,,,,,,,1126.4843626000002,1126.4843626000002,1126.4843626000002,1126.4843626000002,1126.4843626000002,1126.4843626000002,1126.4843626000002,1126.4843626000002,None,None,None,,,,,,,,,,,1121.8385877,1121.8385877,None,,1122.9214997999998,1122.9214997999998,None,1121.8385877,1121.8385877,,,,17,001,2024-06-21_11h38.38.962,robot_nback_sign,2022.2.5,59.99613624865255,
R_Arm_X_Back,False,3,robot,1,False,False,robot_stimuli\R_Arm_X_Back.mp4,17,,,,,,,,,0,116,116,116,,,,,,,,,,,,,1126.4843626000002,1127.570748,,,,,,,1131.2006757,1131.2006757,1131.2006757,1131.2006757,1131.2006757,1131.2006757,1131.2006757,1131.2006757,None,None,None,,,,,,,,,,,1126.4843626000002,1126.4843626000002,None,,1127.570748,1127.570748,None,1126.4843626000002,1126.4843626000002,,,,17,001,2024-06-21_11h38.38.962,robot_nback_sign,2022.2.5,59.99613624865255,
R_Torso_Z_Back,False,3,robot,1,False,False,robot_stimuli\R_Torso_Z_Back.mp4,17,,,,,,,,,0,117,117,117,,,,,,,,,,,,,1131.2006757,1132.288614,,,,,,,1135.9365127,1135.9365127,1135.9365127,1135.9365127,1135.9365127,1135.9365127,1135.9365127,1135.9365127,None,None,None,,,,,,,,,,,1131.2006757,1131.2006757,None,,1132.288614,1132.288614,None,1131.2006757,1131.2006757,,,,17,001,2024-06-21_11h38.38.962,robot_nback_sign,2022.2.5,59.99613624865255,
L_Base_X_For,True,3,robot,1,False,False,robot_stimuli\L_Base_X_For.mp4,17,,,,,,,,,0,118,118,118,,,,,,,,,,,,,1135.9365127,1137.0216011000002,,,,,,,1140.6039988000002,1140.6039988000002,1140.6039988000002,1140.6039988000002,1140.6039988000002,1140.6039988000002,1140.6039988000002,1140.6039988000002,None,None,None,,,,,,,,,,,1135.9365127,1135.9365127,None,,1137.0216011000002,1137.0216011000002,n,1135.9365127,1135.9365127,2.5153810000001613,,,17,001,2024-06-21_11h38.38.962,robot_nback_sign,2022.2.5,59.99613624865255,
R_Torso_Z_For,False,3,robot,1,False,False,robot_stimuli\R_Torso_Z_For.mp4,17,,,,,,,,,0,119,119,119,,,,,,,,,,,,,1140.6039988000002,1141.6837238999997,,,,,,,1145.3183058999994,1145.3183058999994,1145.3183058999994,1145.3183058999994,1145.3183058999994,1145.3183058999994,1145.3183058999994,1145.3183058999994,None,None,None,,,,,,,,,,,1140.6039988000002,1140.6039988000002,None,,1141.6837238999997,1141.6837238999997,None,1140.6039988000002,1140.6039988000002,,,,17,001,2024-06-21_11h38.38.962,robot_nback_sign,2022.2.5,59.99613624865255,
L_Head_Z_Back,False,3,robot,1,False,False,robot_stimuli\L_Head_Z_Back.mp4,17,,,,,,,,,0,120,120,120,,,,,,,,,,,,,1145.3183058999994,1146.3996049999996,,,,,,,1150.0416887000001,1150.0416887000001,1150.0416887000001,1150.0416887000001,1150.0416887000001,1150.0416887000001,1150.0416887000001,1150.0416887000001,None,None,None,,,,,,,,,,,1145.3183058999994,1145.3183058999994,None,,1146.3996049999996,1146.3996049999996,n,1145.3183058999994,1145.3183058999994,2.8255318000001353,,,17,001,2024-06-21_11h38.38.962,robot_nback_sign,2022.2.5,59.99613624865255,
L_Head_Z_Back,False,3,robot,1,False,False,robot_stimuli\L_Head_Z_Back.mp4,17,,,,,,,,,0,121,121,121,,,,,,,,,,,,,1150.0416887000001,1151.1202876999996,,,,,,,1154.7595476999995,1154.7595476999995,1154.7595476999995,1154.7595476999995,1154.7595476999995,1154.7595476999995,1154.7595476999995,1154.7595476999995,None,None,None,,,,,,,,,,,1150.0416887000001,1150.0416887000001,None,,1151.1202876999996,1151.1202876999996,n,1150.0416887000001,1150.0416887000001,2.8239481000000524,,,17,001,2024-06-21_11h38.38.962,robot_nback_sign,2022.2.5,59.99613624865255,
R_Base_Y_Back,False,3,robot,1,False,False,robot_stimuli\R_Base_Y_Back.mp4,17,,,,,,,,,0,122,122,122,,,,,,,,,,,,,1154.7595476999995,1155.8397366,,,,,,,1159.488418,1159.488418,1159.488418,1159.488418,1159.488418,1159.488418,1159.488418,1159.488418,None,None,None,,,,,,,,,,,1154.7595476999995,1154.7595476999995,None,,1155.8397366,1155.8397366,c,1154.7595476999995,1154.7595476999995,2.3279615999999805,,,17,001,2024-06-21_11h38.38.962,robot_nback_sign,2022.2.5,59.99613624865255,
L_Head_Z_Back,True,3,robot,1,False,False,robot_stimuli\L_Head_Z_Back.mp4,17,,,,,,,,,0,123,123,123,,,,,,,,,,,,,1159.488418,1160.5734481999998,,,,,,,1164.2239794999996,1164.2239794999996,1164.2239794999996,1164.2239794999996,1164.2239794999996,1164.2239794999996,1164.2239794999996,1164.2239794999996,None,None,None,,,,,,,,,,,1159.488418,1159.488418,None,,1160.5734481999998,1160.5734481999998,c,1159.488418,1159.488418,2.546126600000207,,,17,001,2024-06-21_11h38.38.962,robot_nback_sign,2022.2.5,59.99613624865255,
L_Torso_Y_Back,False,3,robot,1,False,False,robot_stimuli\L_Torso_Y_Back.mp4,17,,,,,,,,,0,124,124,124,,,,,,,,,,,,,1164.2239794999996,1165.3033059,,,,,,,1168.8224888999994,1168.8224888999994,1168.8224888999994,1168.8224888999994,1168.8224888999994,1168.8224888999994,1168.8224888999994,1168.8224888999994,None,None,None,,,,,,,,,,,1164.2239794999996,1164.2239794999996,None,,1165.3033059,1165.3033059,None,1164.2239794999996,1164.2239794999996,,,,17,001,2024-06-21_11h38.38.962,robot_nback_sign,2022.2.5,59.99613624865255,
R_Base_Y_Back,True,3,robot,1,False,False,robot_stimuli\R_Base_Y_Back.mp4,17,,,,,,,,,0,125,125,125,,,,,,,,,,,,,1168.8224888999994,1169.9062118000002,,,,,,,1173.5548069999995,1173.5548069999995,1173.5548069999995,1173.5548069999995,1173.5548069999995,1173.5548069999995,1173.5548069999995,1173.5548069999995,None,None,None,,,,,,,,,,,1168.8224888999994,1168.8224888999994,None,,1169.9062118000002,1169.9062118000002,c,1168.8224888999994,1168.8224888999994,3.3103793999998743,,,17,001,2024-06-21_11h38.38.962,robot_nback_sign,2022.2.5,59.99613624865255,
R_Base_Y_For,False,3,robot,1,False,False,robot_stimuli\R_Base_Y_For.mp4,17,,,,,,,,,0,126,126,126,,,,,,,,,,,,,1173.5548069999995,1174.6331972999997,,,,,,,1178.2747061,1178.2747061,1178.2747061,1178.2747061,1178.2747061,1178.2747061,1178.2747061,1178.2747061,None,None,None,,,,,,,,,,,1173.5548069999995,1173.5548069999995,None,,1174.6331972999997,1174.6331972999997,n,1173.5548069999995,1173.5548069999995,2.423740799999905,,,17,001,2024-06-21_11h38.38.962,robot_nback_sign,2022.2.5,59.99613624865255,
L_Torso_Y_Back,True,3,robot,1,False,False,robot_stimuli\L_Torso_Y_Back.mp4,17,,,,,,,,,0,127,127,127,,,,,,,,,,,,,1178.2747061,1179.3546591999993,,,,,,,1182.8698621000003,1182.8698621000003,1182.8698621000003,1182.8698621000003,1182.8698621000003,1182.8698621000003,1182.8698621000003,1182.8698621000003,None,None,None,,,,,,,,,,,1178.2747061,1178.2747061,None,,1179.3546591999993,1179.3546591999993,None,1178.2747061,1178.2747061,,,,17,001,2024-06-21_11h38.38.962,robot_nback_sign,2022.2.5,59.99613624865255,
L_Arm_X_Back,False,3,robot,1,False,False,robot_stimuli\L_Arm_X_Back.mp4,17,,,,,,,,,0,128,128,128,,,,,,,,,,,,,1182.8698621000003,1183.9546630000004,,,,,,,1187.6068183000007,1187.6068183000007,1187.6068183000007,1187.6068183000007,1187.6068183000007,1187.6068183000007,1187.6068183000007,1187.6068183000007,None,None,None,,,,,,,,,,,1182.8698621000003,1182.8698621000003,None,,1183.9546630000004,1183.9546630000004,None,1182.8698621000003,1182.8698621000003,,,,17,001,2024-06-21_11h38.38.962,robot_nback_sign,2022.2.5,59.99613624865255,
L_Torso_X_For,False,3,robot,1,False,False,robot_stimuli\L_Torso_X_For.mp4,17,,,,,,,,,0,129,129,129,,,,,,,,,,,,,1187.6068183000007,1188.6906502000002,,,,,,,1192.3405786000003,1192.3405786000003,1192.3405786000003,1192.3405786000003,1192.3405786000003,1192.3405786000003,1192.3405786000003,1192.3405786000003,None,None,None,,,,,,,,,,,1187.6068183000007,1187.6068183000007,None,,1188.6906502000002,1188.6906502000002,c,1187.6068183000007,1187.6068183000007,2.261930599999687,,,17,001,2024-06-21_11h38.38.962,robot_nback_sign,2022.2.5,59.99613624865255,
L_Base_Y_For,False,3,robot,1,False,False,robot_stimuli\L_Base_Y_For.mp4,17,,,,,,,,,0,130,130,130,,,,,,,,,,,,,1192.3405786000003,1193.4197397999997,,,,,,,1196.9599710999992,1196.9599710999992,1196.9599710999992,1196.9599710999992,1196.9599710999992,1196.9599710999992,1196.9599710999992,1196.9599710999992,None,None,None,,,,,,,,,,,1192.3405786000003,1192.3405786000003,None,,1193.4197397999997,1193.4197397999997,c,1192.3405786000003,1192.3405786000003,2.084720800001378,,,17,001,2024-06-21_11h38.38.962,robot_nback_sign,2022.2.5,59.99613624865255,
L_Torso_Z_For,False,3,robot,1,False,False,robot_stimuli\L_Torso_Z_For.mp4,17,,,,,,,,,0,131,131,131,,,,,,,,,,,,,1196.9599710999992,1198.0400253999996,,,,,,,1201.6898311000004,1201.6898311000004,1201.6898311000004,1201.6898311000004,1201.6898311000004,1201.6898311000004,1201.6898311000004,1201.6898311000004,None,None,None,,,,,,,,,,,1196.9599710999992,1196.9599710999992,None,,1198.0400253999996,1198.0400253999996,None,1196.9599710999992,1196.9599710999992,,,,17,001,2024-06-21_11h38.38.962,robot_nback_sign,2022.2.5,59.99613624865255,
L_Torso_X_For,True,3,robot,1,False,False,robot_stimuli\L_Torso_X_For.mp4,17,,,,,,,,,0,132,132,132,,,,,,,,,,,,,1201.6898311000004,1202.770818699999,,,,,,,1206.4003997,1206.4003997,1206.4003997,1206.4003997,1206.4003997,1206.4003997,1206.4003997,1206.4003997,None,None,None,,,,,,,,,,,1201.6898311000004,1201.6898311000004,None,,1202.770818699999,1202.770818699999,c,1201.6898311000004,1201.6898311000004,2.285984499998449,,,17,001,2024-06-21_11h38.38.962,robot_nback_sign,2022.2.5,59.99613624865255,
L_Base_Y_For,True,3,robot,1,False,False,robot_stimuli\L_Base_Y_For.mp4,17,,,,,,,,,0,133,133,133,,,,,,,,,,,,,1206.4003997,1207.4925559999992,,,,,,,1211.0412620999996,1211.0412620999996,1211.0412620999996,1211.0412620999996,1211.0412620999996,1211.0412620999996,1211.0412620999996,1211.0412620999996,None,None,None,,,,,,,,,,,1206.4003997,1206.4003997,None,,1207.4925559999992,1207.4925559999992,c,1206.4003997,1206.4003997,2.22037310000087,,,17,001,2024-06-21_11h38.38.962,robot_nback_sign,2022.2.5,59.99613624865255,
L_Arm_X_Back,False,3,robot,1,False,False,robot_stimuli\L_Arm_X_Back.mp4,17,,,,,,,,,0,134,134,134,,,,,,,,,,,,,1211.0412620999996,1212.1182530999995,,,,,,,1215.7705012000006,1215.7705012000006,1215.7705012000006,1215.7705012000006,1215.7705012000006,1215.7705012000006,1215.7705012000006,1215.7705012000006,None,None,None,,,,,,,,,,,1211.0412620999996,1211.0412620999996,None,,1212.1182530999995,1212.1182530999995,n,1211.0412620999996,1211.0412620999996,2.8417779999999766,,,17,001,2024-06-21_11h38.38.962,robot_nback_sign,2022.2.5,59.99613624865255,
L_Torso_X_For,True,3,robot,1,False,False,robot_stimuli\L_Torso_X_For.mp4,17,,,,,,,,,0,135,135,135,,,,,,,,,,,,,1215.7705012000006,1216.853153099999,,,,,,,1220.5023058999996,1220.5023058999996,1220.5023058999996,1220.5023058999996,1220.5023058999996,1220.5023058999996,1220.5023058999996,1220.5023058999996,None,None,None,,,,,,,,,,,1215.7705012000006,1215.7705012000006,None,,1216.853153099999,1216.853153099999,c,1215.7705012000006,1215.7705012000006,1.8916336000002048,,,17,001,2024-06-21_11h38.38.962,robot_nback_sign,2022.2.5,59.99613624865255,
L_Head_Y_For,False,3,robot,1,False,False,robot_stimuli\L_Head_Y_For.mp4,17,,,,,,,,,0,136,136,136,,,,,,,,,,,,,1220.5023058999996,1221.6024484999998,,,,,,,1225.2428703999994,1225.2428703999994,1225.2428703999994,1225.2428703999994,1225.2428703999994,1225.2428703999994,1225.2428703999994,1225.2428703999994,None,None,None,,,,,,,,,,,1220.5023058999996,1220.5023058999996,None,,1221.6024484999998,1221.6024484999998,n,1220.5023058999996,1220.5023058999996,2.309114600000612,,,17,001,2024-06-21_11h38.38.962,robot_nback_sign,2022.2.5,59.99613624865255,
R_Arm_Z_Back,False,3,robot,1,False,False,robot_stimuli\R_Arm_Z_Back.mp4,17,,,,,,,,,0,137,137,137,,,,,,,,,,,,,1225.2428703999994,1226.3226445,,,,,,,1229.972436099999,1229.972436099999,1229.972436099999,1229.972436099999,1229.972436099999,1229.972436099999,1229.972436099999,1229.972436099999,None,None,None,,,,,,,,,,,1225.2428703999994,1225.2428703999994,None,,1226.3226445,1226.3226445,n,1225.2428703999994,1225.2428703999994,2.7809160000015254,,,17,001,2024-06-21_11h38.38.962,robot_nback_sign,2022.2.5,59.99613624865255,
R_Base_X_For,False,3,robot,1,False,False,robot_stimuli\R_Base_X_For.mp4,17,,,,,,,,,0,138,138,138,,,,,,,,,,,,,1229.972436099999,1231.0533997999992,,,,,,,1234.5971028000004,1234.5971028000004,1234.5971028000004,1234.5971028000004,1234.5971028000004,1234.5971028000004,1234.5971028000004,1234.5971028000004,None,None,None,,,,,,,,,,,1229.972436099999,1229.972436099999,None,,1231.0533997999992,1231.0533997999992,n,1229.972436099999,1229.972436099999,3.299129200000607,,,17,001,2024-06-21_11h38.38.962,robot_nback_sign,2022.2.5,59.99613624865255,
R_Torso_Z_Back,False,3,robot,1,False,False,robot_stimuli\R_Torso_Z_Back.mp4,17,,,,,,,,,0,139,139,139,,,,,,,,,,,,,1234.5971028000004,,,,,,,,1239.3442894,1239.3442894,1239.3442894,1239.3442894,1239.3442894,1239.3442894,1239.3442894,1239.3442894,None,None,None,,,,,,,,,,,1234.5971028000004,1234.5971028000004,None,,1235.7022032000004,1235.7022032000004,n,1234.5971028000004,1234.5971028000004,2.377689700000701,,,17,001,2024-06-21_11h38.38.962,robot_nback_sign,2022.2.5,59.99613624865255,
L_Arm_X_Back,False,3,robot,1,False,False,robot_stimuli\L_Arm_X_Back.mp4,17,,,,,,,,,0,140,140,140,,,,,,,,,,,,,1239.3442894,1240.4373314999993,,,,,,,1244.0770904,1244.0770904,1244.0770904,1244.0770904,1244.0770904,1244.0770904,1244.0770904,1244.0770904,None,None,None,,,,,,,,,,,1239.3442894,1239.3442894,None,,1240.4373314999993,1240.4373314999993,n,1239.3442894,1239.3442894,3.250845099999424,,,17,001,2024-06-21_11h38.38.962,robot_nback_sign,2022.2.5,59.99613624865255,
R_Base_X_For,True,3,robot,1,False,False,robot_stimuli\R_Base_X_For.mp4,17,,,,,,,,,0,141,141,141,,,,,,,,,,,,,1244.0770904,1245.1545155999993,,,,,,,1248.6831980000006,1248.6831980000006,1248.6831980000006,1248.6831980000006,1248.6831980000006,1248.6831980000006,1248.6831980000006,1248.6831980000006,None,None,None,,,,,,,,,,,1244.0770904,1244.0770904,None,,1245.1545155999993,1245.1545155999993,c,1244.0770904,1244.0770904,2.246044699999402,,,17,001,2024-06-21_11h38.38.962,robot_nback_sign,2022.2.5,59.99613624865255,
L_Base_X_For,False,3,robot,1,False,False,robot_stimuli\L_Base_X_For.mp4,17,,,,,,,,,0,142,142,142,,,,,,,,,,,,,1248.6831980000006,1249.7727249,,,,,,,1253.3581902999995,1253.3581902999995,1253.3581902999995,1253.3581902999995,1253.3581902999995,1253.3581902999995,1253.3581902999995,1253.3581902999995,None,None,None,,,,,,,,,,,1248.6831980000006,1248.6831980000006,None,,1249.7727249,1249.7727249,c,1248.6831980000006,1248.6831980000006,3.01995689999967,,,17,001,2024-06-21_11h38.38.962,robot_nback_sign,2022.2.5,59.99613624865255,
R_Torso_X_For,False,3,robot,1,False,False,robot_stimuli\R_Torso_X_For.mp4,17,,,,,,,,,0,143,143,143,,,,,,,,,,,,,1253.3581902999995,1254.4419756000007,,,,,,,1258.0909883000004,1258.0909883000004,1258.0909883000004,1258.0909883000004,1258.0909883000004,1258.0909883000004,1258.0909883000004,1258.0909883000004,None,None,None,,,,,,,,,,,1253.3581902999995,1253.3581902999995,None,,1254.4419756000007,1254.4419756000007,n,1253.3581902999995,1253.3581902999995,3.302190200000041,,,17,001,2024-06-21_11h38.38.962,robot_nback_sign,2022.2.5,59.99613624865255,
R_Arm_X_Back,False,3,robot,1,False,False,robot_stimuli\R_Arm_X_Back.mp4,17,,,,,,,,,0,144,144,144,,,,,,,,,,,,,1258.0909883000004,1259.1693526,,,,,,,1262.823409499999,1262.823409499999,1262.823409499999,1262.823409499999,1262.823409499999,1262.823409499999,1262.823409499999,1262.823409499999,None,None,None,,,,,,,,,,,1258.0909883000004,1258.0909883000004,None,,1259.1693526,1259.1693526,None,1258.0909883000004,1258.0909883000004,,,,17,001,2024-06-21_11h38.38.962,robot_nback_sign,2022.2.5,59.99613624865255,
L_Head_Z_Back,False,3,robot,1,False,False,robot_stimuli\L_Head_Z_Back.mp4,17,,,,,,,,,0,145,145,145,,,,,,,,,,,,,1262.823409499999,1263.906770399999,,,,,,,1267.5549995000001,1267.5549995000001,1267.5549995000001,1267.5549995000001,1267.5549995000001,1267.5549995000001,1267.5549995000001,1267.5549995000001,None,None,None,,,,,,,,,,,1262.823409499999,1262.823409499999,None,,1263.906770399999,1263.906770399999,n,1262.823409499999,1262.823409499999,2.469630400000824,,,17,001,2024-06-21_11h38.38.962,robot_nback_sign,2022.2.5,59.99613624865255,
R_Arm_Y_Back,False,3,robot,1,False,False,robot_stimuli\R_Arm_Y_Back.mp4,17,,,,,,,,,0,146,146,146,,,,,,,,,,,,,1267.5549995000001,1268.6374419999993,,,,,,,1272.2666702999995,1272.2666702999995,1272.2666702999995,1272.2666702999995,1272.2666702999995,1272.2666702999995,1272.2666702999995,1272.2666702999995,None,None,None,,,,,,,,,,,1267.5549995000001,1267.5549995000001,None,,1268.6374419999993,1268.6374419999993,None,1267.5549995000001,1267.5549995000001,,,,17,001,2024-06-21_11h38.38.962,robot_nback_sign,2022.2.5,59.99613624865255,
L_Torso_Y_Back,False,3,robot,1,False,False,robot_stimuli\L_Torso_Y_Back.mp4,17,,,,,,,,,0,147,147,147,,,,,,,,,,,,,1272.2666702999995,1273.355071599999,,,,,,,1276.8705283999989,1276.8705283999989,1276.8705283999989,1276.8705283999989,1276.8705283999989,1276.8705283999989,1276.8705283999989,1276.8705283999989,None,None,None,,,,,,,,,,,1272.2666702999995,1272.2666702999995,None,,1273.355071599999,1273.355071599999,n,1272.2666702999995,1272.2666702999995,2.8203725999992457,,,17,001,2024-06-21_11h38.38.962,robot_nback_sign,2022.2.5,59.99613624865255,
