sequence,odd_ones,parameter,choices,target,target_idx,condition,stimuli,block,is_block_beginning,is_block_ending,sequence_fnames,target_fname,subject,retraining.thisRepN,retraining.thisTrialN,retraining.thisN,retraining.thisIndex,training.thisRepN,training.thisTrialN,training.thisN,training.thisIndex,training_sequence_loop.thisRepN,training_sequence_loop.thisTrialN,training_sequence_loop.thisN,training_sequence_loop.thisIndex,trials.thisRepN,trials.thisTrialN,trials.thisN,trials.thisIndex,sequence_loop.thisRepN,sequence_loop.thisTrialN,sequence_loop.thisN,sequence_loop.thisIndex,langage_text.started,langage_key.started,langage_key.keys,langage_key.rt,intro_text.started,intro_key.started,intro_key.keys,intro_key.rt,training_intro_text.started,training_intro_key.started,training_intro_key.keys,training_intro_key.rt,polygon.started,cue_before_text.started,training_presentation_letter.started,training_presentation_letter.stopped,recall_key.started,recall_question.started,recall_answer.started,recall_key.keys,recall_key.rt,RSME_labels.started,RSME_labels.stopped,RSME_ticks.started,RSME_ticks.stopped,RSME_text.started,RSME_text.stopped,RSME_key.started,RSME_key.stopped,RSME_ticks.response,RSME_ticks.rt,RSME_key.keys,training_intro_text.stopped,training_intro_key.stopped,polygon.stopped,cue_before_text.stopped,RSME_key.rt,training_presentation_movie.started,experiment_beginning_text.started,experiment_beginning_keys.started,experiment_beginning_key.started,experiment_beginning_key.keys,experiment_beginning_key.rt,block_intro_text.started,block_intro_key.started,block_intro_key.keys,block_intro_key.rt,presentation_movie.started,block_intro_text.stopped,block_intro_key.stopped,presentation_letter.started,presentation_letter.stopped,participant,session,date,expName,psychopyVersion,frameRate,
,,,,,,,,,,,,,,,,,,,,,,,,,,,,,,,,,,13.847477599978447,13.847477599978447,f,8.259267200250179,,,,,,,,,,,,,,,,,,,,,,,,,,,,,,,,,,,,,,,,,,,,,,,,,13,001,2024-09-06_11h17.10.351,robot_cogshifting_sign,2022.2.5,59.85790936954056,
,,,,,,,,,,,,,,,,,,,,,,,,,,,,,,,,,,,,,,22.162960899993777,22.162960899993777,space,19.11145759979263,,,,,,,,,,,,,,,,,,,,,,,,,,,,,,,,,,,,,,,,,,,,,13,001,2024-09-06_11h17.10.351,robot_cogshifting_sign,2022.2.5,59.85790936954056,
"['blue_bottom_L_45', 'blue_right_C_0', 'red_bottom_H_0', 'blue_bottom_H_0']","{'color': 'red_bottom_H_0', 'position': 'blue_right_C_0', 'orientation': 'blue_bottom_L_45'}",position,['position'],blue_right_C_0,1,1,letter,2,True,False,"['robot_stimuli\\\\filler.mp4', 'robot_stimuli\\\\filler.mp4', 'robot_stimuli\\\\filler.mp4', 'robot_stimuli\\\\filler.mp4']",robot_stimuli\\filler.mp4,13,0,0,0,0,0,0,0,0,,,,,,,,,,,,,,,,,,,,,41.3340476998128,41.3340476998128,space,6.1886849999427795,47.54627060005441,48.54825680004433,59.38633459992707,61.62397469999269,61.62397469999269,61.62397469999269,61.62397469999269,2,62.99466930003837,124.68141590012237,124.68141590012237,124.68141590012237,124.68141590012237,124.68141590012237,124.68141590012237,124.68141590012237,124.68141590012237,None,None,None,,,,,,,,,,,,,,,,,,,,,13,001,2024-09-06_11h17.10.351,robot_cogshifting_sign,2022.2.5,59.85790936954056,
"['red_bottom_F_0', 'red_left_S_45', 'blue_bottom_R_45', 'red_bottom_H_45']","{'color': 'blue_bottom_R_45', 'position': 'red_left_S_45', 'orientation': 'red_bottom_F_0'}",orientation,['orientation'],red_bottom_F_0,0,1,letter,2,False,False,"['robot_stimuli\\\\filler.mp4', 'robot_stimuli\\\\filler.mp4', 'robot_stimuli\\\\filler.mp4', 'robot_stimuli\\\\filler.mp4']",robot_stimuli\\filler.mp4,13,0,0,0,0,0,1,1,1,,,,,,,,,,,,,,,,,,,,,124.68141590012237,124.68141590012237,None,,124.68141590012237,125.68339789984748,134.45072379987687,136.48802849976346,136.48802849976346,136.48802849976346,136.48802849976346,1,7.15476129995659,143.66881520021707,143.66881520021707,143.66881520021707,143.66881520021707,143.66881520021707,143.66881520021707,143.66881520021707,143.66881520021707,None,None,None,124.68141590012237,124.68141590012237,125.68339789984748,127.75420369999483,,,,,,,,,,,,,,,,,13,001,2024-09-06_11h17.10.351,robot_cogshifting_sign,2022.2.5,59.85790936954056,
"['blue_top_M_45', 'blue_left_L_45', 'blue_top_Q_0', 'red_top_F_45']","{'color': 'red_top_F_45', 'position': 'blue_left_L_45', 'orientation': 'blue_top_Q_0'}",color,['color'],red_top_F_45,3,1,letter,2,False,True,"['robot_stimuli\\\\filler.mp4', 'robot_stimuli\\\\filler.mp4', 'robot_stimuli\\\\filler.mp4', 'robot_stimuli\\\\filler.mp4']",robot_stimuli\\filler.mp4,13,0,0,0,0,0,2,2,2,,,,,,,,,,,,,,,,,,,,,143.66881520021707,143.66881520021707,None,,143.66881520021707,144.67078590020537,153.25442809984088,155.29168009990826,155.29168009990826,155.29168009990826,155.29168009990826,4,0.7748752003535628,156.1433459999971,166.09623190015554,156.1433459999971,166.09623190015554,156.1433459999971,166.09623190015554,156.1433459999971,166.09623190015554,12.619047619047615,7.6751405000686646,space,143.66881520021707,143.66881520021707,144.67078590020537,146.74148429976776,9.875585899688303,,,,,,,,,,,,,,,,13,001,2024-09-06_11h17.10.351,robot_cogshifting_sign,2022.2.5,59.85790936954056,
"['blue_top_X_45', 'blue_bottom_R_0', 'red_bottom_X_45', 'blue_bottom_J_45']","{'color': 'red_bottom_X_45', 'position': 'blue_top_X_45', 'orientation': 'blue_bottom_R_0'}",color,"['color', 'position']",red_bottom_X_45,2,2,letter,2,True,False,"['robot_stimuli\\\\filler.mp4', 'robot_stimuli\\\\filler.mp4', 'robot_stimuli\\\\filler.mp4', 'robot_stimuli\\\\filler.mp4']",robot_stimuli\\filler.mp4,13,0,0,0,0,0,3,3,3,,,,,,,,,,,,,,,,,,,,,166.09623190015554,166.09623190015554,space,3.810254500247538,169.93713239999488,170.9391104998067,179.72316509997472,181.74375029979274,181.74375029979274,181.74375029979274,181.74375029979274,3,3.8663965999148786,185.63468569982797,185.63468569982797,185.63468569982797,185.63468569982797,185.63468569982797,185.63468569982797,185.63468569982797,185.63468569982797,None,None,None,,,,,,,,,,,,,,,,,,,,,13,001,2024-09-06_11h17.10.351,robot_cogshifting_sign,2022.2.5,59.85790936954056,
"['blue_top_H_0', 'blue_right_S_0', 'red_top_F_0', 'blue_top_S_45']","{'color': 'red_top_F_0', 'position': 'blue_right_S_0', 'orientation': 'blue_top_S_45'}",orientation,"['orientation', 'position']",blue_top_S_45,3,2,letter,2,False,False,"['robot_stimuli\\\\filler.mp4', 'robot_stimuli\\\\filler.mp4', 'robot_stimuli\\\\filler.mp4', 'robot_stimuli\\\\filler.mp4']",robot_stimuli\\filler.mp4,13,0,0,0,0,0,4,4,4,,,,,,,,,,,,,,,,,,,,,185.63468569982797,185.63468569982797,None,,185.63468569982797,186.63669889979064,195.01992949983105,197.24088159995154,197.24088159995154,197.24088159995154,197.24088159995154,2,7.545969699975103,204.80580009985715,204.80580009985715,204.80580009985715,204.80580009985715,204.80580009985715,204.80580009985715,204.80580009985715,204.80580009985715,None,None,None,185.63468569982797,185.63468569982797,186.63669889979064,188.70742660015821,,,,,,,,,,,,,,,,,13,001,2024-09-06_11h17.10.351,robot_cogshifting_sign,2022.2.5,59.85790936954056,
"['blue_bottom_C_0', 'blue_top_M_0', 'red_bottom_H_0', 'blue_bottom_V_45']","{'color': 'red_bottom_H_0', 'position': 'blue_top_M_0', 'orientation': 'blue_bottom_V_45'}",position,"['orientation', 'position']",blue_top_M_0,1,2,letter,2,False,True,"['robot_stimuli\\\\filler.mp4', 'robot_stimuli\\\\filler.mp4', 'robot_stimuli\\\\filler.mp4', 'robot_stimuli\\\\filler.mp4']",robot_stimuli\\filler.mp4,13,0,0,0,0,0,5,5,5,,,,,,,,,,,,,,,,,,,,,204.80580009985715,204.80580009985715,None,,204.80580009985715,205.80775969987735,214.59185469988734,216.81276499992236,216.81276499992236,216.81276499992236,216.81276499992236,2,2.4379050000570714,219.30099740019068,223.07510269992054,219.30099740019068,223.07510269992054,219.30099740019068,223.07510269992054,219.30099740019068,223.07510269992054,37.22222222222223,2.614746800158173,space,204.80580009985715,204.80580009985715,205.80775969987735,207.8784944000654,3.7176047996617854,,,,,,,,,,,,,,,,13,001,2024-09-06_11h17.10.351,robot_cogshifting_sign,2022.2.5,59.85790936954056,
"['blue_top_S_0', 'red_top_X_0', 'red_top_T_45', 'red_left_M_0']","{'color': 'blue_top_S_0', 'position': 'red_left_M_0', 'orientation': 'red_top_T_45'}",position,"['color', 'orientation', 'position']",red_left_M_0,3,3,letter,2,True,False,"['robot_stimuli\\\\filler.mp4', 'robot_stimuli\\\\filler.mp4', 'robot_stimuli\\\\filler.mp4', 'robot_stimuli\\\\filler.mp4']",robot_stimuli\\filler.mp4,13,0,0,0,0,0,6,6,6,,,,,,,,,,,,,,,,,,,,,223.07510269992054,223.07510269992054,space,12.295477599836886,235.39930950012058,236.401292799972,245.1685859998688,247.18922349996865,247.18922349996865,247.18922349996865,247.18922349996865,4,2.869377000257373,250.07826340012252,250.07826340012252,250.07826340012252,250.07826340012252,250.07826340012252,250.07826340012252,250.07826340012252,250.07826340012252,None,None,None,,,,,,,,,,,,,,,,,,,,,13,001,2024-09-06_11h17.10.351,robot_cogshifting_sign,2022.2.5,59.85790936954056,
"['blue_top_F_45', 'red_top_V_0', 'red_top_L_45', 'red_right_X_45']","{'color': 'blue_top_F_45', 'position': 'red_right_X_45', 'orientation': 'red_top_V_0'}",color,"['color', 'orientation', 'position']",blue_top_F_45,0,3,letter,2,False,False,"['robot_stimuli\\\\filler.mp4', 'robot_stimuli\\\\filler.mp4', 'robot_stimuli\\\\filler.mp4', 'robot_stimuli\\\\filler.mp4']",robot_stimuli\\filler.mp4,13,0,0,0,0,0,7,7,7,,,,,,,,,,,,,,,,,,,,,250.07826340012252,250.07826340012252,None,,250.07826340012252,251.08021380007267,259.4302079998888,261.4506597002037,261.4506597002037,261.4506597002037,261.4506597002037,2,2.0474312999285758,263.52134920004755,263.52134920004755,263.52134920004755,263.52134920004755,263.52134920004755,263.52134920004755,263.52134920004755,263.52134920004755,None,None,None,250.07826340012252,250.07826340012252,251.08021380007267,253.15096919983625,,,,,,,,,,,,,,,,,13,001,2024-09-06_11h17.10.351,robot_cogshifting_sign,2022.2.5,59.85790936954056,
"['blue_bottom_N_0', 'red_bottom_J_45', 'red_bottom_Q_0', 'red_top_H_0']","{'color': 'blue_bottom_N_0', 'position': 'red_top_H_0', 'orientation': 'red_bottom_J_45'}",orientation,"['color', 'orientation', 'position']",red_bottom_J_45,1,3,letter,2,False,True,"['robot_stimuli\\\\filler.mp4', 'robot_stimuli\\\\filler.mp4', 'robot_stimuli\\\\filler.mp4', 'robot_stimuli\\\\filler.mp4']",robot_stimuli\\filler.mp4,13,0,0,0,0,0,8,8,8,,,,,,,,,,,,,,,,,,,,,263.52134920004755,263.52134920004755,None,,263.52134920004755,264.52333910018206,273.5077851000242,275.7287484998815,275.7287484998815,275.7287484998815,275.7287484998815,2,2.554281100165099,278.3338621999137,281.40657659992576,278.3338621999137,281.40657659992576,278.3338621999137,281.40657659992576,278.3338621999137,281.40657659992576,40.87301587301587,2.080620900262147,space,263.52134920004755,263.52134920004755,264.52333910018206,266.61084199976176,2.9960878998972476,,,,,,,,,,,,,,,,13,001,2024-09-06_11h17.10.351,robot_cogshifting_sign,2022.2.5,59.85790936954056,
"['R_Arm_Y_Back', 'R_Arm_X_For', 'L_Arm_X_For', 'R_Head_X_Back']","{'laterality': 'L_Arm_X_For', 'localisation': 'R_Head_X_Back', 'movement': 'R_Arm_Y_Back'}",laterality,['laterality'],L_Arm_X_For,2,1,robot,1,True,False,"['robot_stimuli\\R_Arm_Y_Back.mp4', 'robot_stimuli\\R_Arm_X_For.mp4', 'robot_stimuli\\L_Arm_X_For.mp4', 'robot_stimuli\\R_Head_X_Back.mp4']",robot_stimuli\L_Arm_X_For.mp4,13,0,0,0,0,0,9,9,9,,,,,,,,,,,,,,,,,,,,,281.40657659992576,281.40657659992576,space,4.2995607000775635,285.7317534000613,286.7337255999446,,,303.6846402999945,303.6846402999945,303.6846402999945,3,0.5259323003701866,304.23483290011063,304.23483290011063,304.23483290011063,304.23483290011063,304.23483290011063,304.23483290011063,304.23483290011063,304.23483290011063,None,None,None,,,,,,300.04331790003926,,,,,,,,,,,,,,,13,001,2024-09-06_11h17.10.351,robot_cogshifting_sign,2022.2.5,59.85790936954056,
"['R_Torso_Y_For', 'R_Base_Y_For', 'L_Base_Y_Back', 'R_Base_X_For']","{'laterality': 'L_Base_Y_Back', 'localisation': 'R_Torso_Y_For', 'movement': 'R_Base_X_For'}",movement,['movement'],R_Base_X_For,3,1,robot,1,False,False,"['robot_stimuli\\R_Torso_Y_For.mp4', 'robot_stimuli\\R_Base_Y_For.mp4', 'robot_stimuli\\L_Base_Y_Back.mp4', 'robot_stimuli\\R_Base_X_For.mp4']",robot_stimuli\R_Base_X_For.mp4,13,0,0,0,0,0,10,10,10,,,,,,,,,,,,,,,,,,,,,304.23483290011063,304.23483290011063,None,,304.23483290011063,305.2368557001464,,,322.05326429987326,322.05326429987326,322.05326429987326,4,1.5732940002344549,323.6563984998502,323.6563984998502,323.6563984998502,323.6563984998502,323.6563984998502,323.6563984998502,323.6563984998502,323.6563984998502,None,None,None,304.23483290011063,304.23483290011063,305.2368557001464,307.3910794998519,,318.51303469995037,,,,,,,,,,,,,,,13,001,2024-09-06_11h17.10.351,robot_cogshifting_sign,2022.2.5,59.85790936954056,
"['L_Base_Y_Back', 'R_Base_Y_Back', 'L_Head_Y_Back', 'L_Base_Z_For']","{'laterality': 'R_Base_Y_Back', 'localisation': 'L_Head_Y_Back', 'movement': 'L_Base_Z_For'}",localisation,['localisation'],L_Head_Y_Back,2,1,robot,1,False,True,"['robot_stimuli\\L_Base_Y_Back.mp4', 'robot_stimuli\\R_Base_Y_Back.mp4', 'robot_stimuli\\L_Head_Y_Back.mp4', 'robot_stimuli\\L_Base_Z_For.mp4']",robot_stimuli\L_Head_Y_Back.mp4,13,0,0,0,0,0,11,11,11,,,,,,,,,,,,,,,,,,,,,323.6563984998502,323.6563984998502,None,,323.6563984998502,324.6583861000836,,,341.5249276999384,341.5249276999384,341.5249276999384,3,1.8454399001784623,343.4286642000079,347.53678009985015,343.4286642000079,347.53678009985015,343.4286642000079,347.53678009985015,343.4286642000079,347.53678009985015,20.555555555555554,2.7826943998225033,space,323.6563984998502,323.6563984998502,324.6583861000836,326.745824099984,4.029737600125372,337.8677575001493,,,,,,,,,,,,,,,13,001,2024-09-06_11h17.10.351,robot_cogshifting_sign,2022.2.5,59.85790936954056,
"['R_Head_X_Back', 'R_Head_Z_Back', 'R_Base_X_For', 'L_Head_X_Back']","{'laterality': 'L_Head_X_Back', 'localisation': 'R_Base_X_For', 'movement': 'R_Head_Z_Back'}",localisation,"['localisation', 'movement']",R_Base_X_For,2,2,robot,1,True,False,"['robot_stimuli\\R_Head_X_Back.mp4', 'robot_stimuli\\R_Head_Z_Back.mp4', 'robot_stimuli\\R_Base_X_For.mp4', 'robot_stimuli\\L_Head_X_Back.mp4']",robot_stimuli\R_Base_X_For.mp4,13,0,0,0,0,0,12,12,12,,,,,,,,,,,,,,,,,,,,,347.53678009985015,347.53678009985015,space,1.2181526999920607,348.77257250016555,349.77449270011857,,,366.5574988001026,366.5574988001026,366.5574988001026,3,1.6605225997045636,368.24421059992164,368.24421059992164,368.24421059992164,368.24421059992164,368.24421059992164,368.24421059992164,368.24421059992164,368.24421059992164,None,None,None,,,,,,362.91703590005636,,,,,,,,,,,,,,,13,001,2024-09-06_11h17.10.351,robot_cogshifting_sign,2022.2.5,59.85790936954056,
"['L_Base_Z_Back', 'L_Arm_Z_For', 'L_Arm_X_For', 'R_Arm_Z_Back']","{'laterality': 'R_Arm_Z_Back', 'localisation': 'L_Base_Z_Back', 'movement': 'L_Arm_X_For'}",laterality,"['laterality', 'movement']",R_Arm_Z_Back,3,2,robot,1,False,False,"['robot_stimuli\\L_Base_Z_Back.mp4', 'robot_stimuli\\L_Arm_Z_For.mp4', 'robot_stimuli\\L_Arm_X_For.mp4', 'robot_stimuli\\R_Arm_Z_Back.mp4']",robot_stimuli\R_Arm_Z_Back.mp4,13,0,0,0,0,0,13,13,13,,,,,,,,,,,,,,,,,,,,,368.24421059992164,368.24421059992164,None,,368.24421059992164,369.2461349000223,,,386.1460938001983,386.1460938001983,386.1460938001983,4,1.6482263002544641,387.81604450009763,387.81604450009763,387.81604450009763,387.81604450009763,387.81604450009763,387.81604450009763,387.81604450009763,387.81604450009763,None,None,None,368.24421059992164,368.24421059992164,369.2461349000223,371.3336176001467,,382.50562509987503,,,,,,,,,,,,,,,13,001,2024-09-06_11h17.10.351,robot_cogshifting_sign,2022.2.5,59.85790936954056,
"['L_Arm_X_For', 'R_Arm_X_For', 'L_Base_X_For', 'L_Arm_Y_For']","{'laterality': 'R_Arm_X_For', 'localisation': 'L_Base_X_For', 'movement': 'L_Arm_Y_For'}",movement,"['laterality', 'movement']",L_Arm_Y_For,3,2,robot,1,False,True,"['robot_stimuli\\L_Arm_X_For.mp4', 'robot_stimuli\\R_Arm_X_For.mp4', 'robot_stimuli\\L_Base_X_For.mp4', 'robot_stimuli\\L_Arm_Y_For.mp4']",robot_stimuli\L_Arm_Y_For.mp4,13,0,0,0,0,0,14,14,14,,,,,,,,,,,,,,,,,,,,,387.81604450009763,387.81604450009763,None,,387.81604450009763,388.81802040012553,,,405.65114569989964,405.65114569989964,405.65114569989964,3,6.254837499931455,411.9635990001261,420.14637580001727,411.9635990001261,420.14637580001727,411.9635990001261,420.14637580001727,411.9635990001261,420.14637580001727,46.111111111111114,6.990092399995774,space,387.81604450009763,387.81604450009763,388.81802040012553,390.90547120012343,8.118530199863017,402.01065920013934,,,,,,,,,,,,,,,13,001,2024-09-06_11h17.10.351,robot_cogshifting_sign,2022.2.5,59.85790936954056,
"['R_Head_X_For', 'R_Base_Z_For', 'R_Base_X_Back', 'L_Base_X_For']","{'laterality': 'L_Base_X_For', 'localisation': 'R_Head_X_For', 'movement': 'R_Base_Z_For'}",movement,"['laterality', 'localisation', 'movement']",R_Base_Z_For,1,3,robot,1,True,False,"['robot_stimuli\\R_Head_X_For.mp4', 'robot_stimuli\\R_Base_Z_For.mp4', 'robot_stimuli\\R_Base_X_Back.mp4', 'robot_stimuli\\L_Base_X_For.mp4']",robot_stimuli\R_Base_Z_For.mp4,13,0,0,0,0,0,15,15,15,,,,,,,,,,,,,,,,,,,,,420.14637580001727,420.14637580001727,space,3.6317405002191663,423.8035554997623,424.8055607001297,,,441.6386862997897,441.6386862997897,441.6386862997897,3,8.45194419985637,450.1220897999592,450.1220897999592,450.1220897999592,450.1220897999592,450.1220897999592,450.1220897999592,450.1220897999592,450.1220897999592,None,None,None,,,,,,438.0649764998816,,,,,,,,,,,,,,,13,001,2024-09-06_11h17.10.351,robot_cogshifting_sign,2022.2.5,59.85790936954056,
"['L_Base_X_Back', 'L_Base_Z_For', 'L_Head_Z_For', 'R_Base_Z_Back']","{'laterality': 'R_Base_Z_Back', 'localisation': 'L_Head_Z_For', 'movement': 'L_Base_X_Back'}",localisation,"['laterality', 'localisation', 'movement']",L_Head_Z_For,2,3,robot,1,False,False,"['robot_stimuli\\L_Base_X_Back.mp4', 'robot_stimuli\\L_Base_Z_For.mp4', 'robot_stimuli\\L_Head_Z_For.mp4', 'robot_stimuli\\R_Base_Z_Back.mp4']",robot_stimuli\L_Head_Z_For.mp4,13,0,0,0,0,0,16,16,16,,,,,,,,,,,,,,,,,,,,,450.1220897999592,450.1220897999592,None,,450.1220897999592,451.1240715999156,,,467.9070603,467.9070603,467.9070603,3,3.071008199825883,470.9964879001491,470.9964879001491,470.9964879001491,470.9964879001491,470.9964879001491,470.9964879001491,470.9964879001491,470.9964879001491,None,None,None,450.1220897999592,450.1220897999592,451.1240715999156,453.2282203999348,,464.38347799982876,,,,,,,,,,,,,,,13,001,2024-09-06_11h17.10.351,robot_cogshifting_sign,2022.2.5,59.85790936954056,
"['R_Head_X_Back', 'R_Base_X_Back', 'R_Head_Y_For', 'L_Head_X_For']","{'laterality': 'L_Head_X_For', 'localisation': 'R_Base_X_Back', 'movement': 'R_Head_Y_For'}",laterality,"['laterality', 'localisation', 'movement']",L_Head_X_For,3,3,robot,1,False,True,"['robot_stimuli\\R_Head_X_Back.mp4', 'robot_stimuli\\R_Base_X_Back.mp4', 'robot_stimuli\\R_Head_Y_For.mp4', 'robot_stimuli\\L_Head_X_For.mp4']",robot_stimuli\L_Head_X_For.mp4,13,0,0,0,0,0,17,17,17,,,,,,,,,,,,,,,,,,,,,470.9964879001491,470.9964879001491,None,,470.9964879001491,471.99849160015583,,,488.81490029999986,488.81490029999986,488.81490029999986,4,1.8273175000213087,490.70191679988056,499.68628589995205,490.70191679988056,499.68628589995205,490.70191679988056,499.68628589995205,490.70191679988056,499.68628589995205,57.38095238095238,8.126055200118572,space,470.9964879001491,470.9964879001491,471.99849160015583,474.08595040021464,8.924340699799359,485.2411863999441,,,,,,,,,,,,,,,13,001,2024-09-06_11h17.10.351,robot_cogshifting_sign,2022.2.5,59.85790936954056,
,,,,,,,,,,,,,,0,0,0,0,,,,,,,,,,,,,,,,,,,,,,,,,,,,,,,,,,,,,,,,,,,,,,,,,,,,,,,499.68628589995205,499.68628589995205,499.68628589995205,c,2.235793000087142,,,,,,,,,,13,001,2024-09-06_11h17.10.351,robot_cogshifting_sign,2022.2.5,59.85790936954056,
"['R_Torso_X_Back', 'L_Torso_X_Back', 'L_Arm_X_Back', 'L_Torso_Z_Back']","{'laterality': 'R_Torso_X_Back', 'localisation': 'L_Arm_X_Back', 'movement': 'L_Torso_Z_Back'}",localisation,"['laterality', 'localisation', 'movement']",L_Arm_X_Back,2,3,robot,1,True,False,"['robot_stimuli\\R_Torso_X_Back.mp4', 'robot_stimuli\\L_Torso_X_Back.mp4', 'robot_stimuli\\L_Arm_X_Back.mp4', 'robot_stimuli\\L_Torso_Z_Back.mp4']",robot_stimuli\L_Arm_X_Back.mp4,13,,,,,,,,,,,,,0,0,0,0,,,,,,,,,,,,,,,,,,507.31797950016335,,,524.1010082000867,524.1010082000867,524.1010082000867,2,3.7253958000801504,527.8584441998973,527.8584441998973,527.8584441998973,527.8584441998973,527.8584441998973,527.8584441998973,527.8584441998973,527.8584441998973,None,None,None,,,,,,,,,,,,501.974169800058,501.974169800058,space,5.31761520029977,520.5941416998394,,,,,13,001,2024-09-06_11h17.10.351,robot_cogshifting_sign,2022.2.5,59.85790936954056,
"['R_Head_X_Back', 'L_Torso_X_For', 'L_Head_X_For', 'L_Head_Y_For']","{'laterality': 'R_Head_X_Back', 'localisation': 'L_Torso_X_For', 'movement': 'L_Head_Y_For'}",laterality,"['laterality', 'localisation', 'movement']",R_Head_X_Back,0,3,robot,1,False,False,"['robot_stimuli\\R_Head_X_Back.mp4', 'robot_stimuli\\L_Torso_X_For.mp4', 'robot_stimuli\\L_Head_X_For.mp4', 'robot_stimuli\\L_Head_Y_For.mp4']",robot_stimuli\R_Head_X_Back.mp4,13,,,,,,,,,,,,,0,1,1,1,,,,,,,,,,,,,,,,,,527.8584441998973,,,544.7249747999012,544.7249747999012,544.7249747999012,2,1.6216279999352992,546.3782155001536,546.3782155001536,546.3782155001536,546.3782155001536,546.3782155001536,546.3782155001536,546.3782155001536,546.3782155001536,None,None,None,,,,529.9459211998619,,,,,,,,527.8584441998973,527.8584441998973,None,,541.101185800042,527.8584441998973,527.8584441998973,,,13,001,2024-09-06_11h17.10.351,robot_cogshifting_sign,2022.2.5,59.85790936954056,
"['L_Torso_Z_Back', 'R_Torso_Y_For', 'R_Arm_Z_Back', 'R_Torso_Z_For']","{'laterality': 'L_Torso_Z_Back', 'localisation': 'R_Arm_Z_Back', 'movement': 'R_Torso_Y_For'}",movement,"['laterality', 'localisation', 'movement']",R_Torso_Y_For,1,3,robot,1,False,False,"['robot_stimuli\\L_Torso_Z_Back.mp4', 'robot_stimuli\\R_Torso_Y_For.mp4', 'robot_stimuli\\R_Arm_Z_Back.mp4', 'robot_stimuli\\R_Torso_Z_For.mp4']",robot_stimuli\R_Torso_Y_For.mp4,13,,,,,,,,,,,,,0,2,2,2,,,,,,,,,,,,,,,,,,546.3782155001536,,,563.1446118000895,563.1446118000895,563.1446118000895,3,12.338190000038594,575.5022237999365,575.5022237999365,575.5022237999365,575.5022237999365,575.5022237999365,575.5022237999365,575.5022237999365,575.5022237999365,None,None,None,,,,548.4657060001045,,,,,,,,546.3782155001536,546.3782155001536,None,,559.5040532001294,546.3782155001536,546.3782155001536,,,13,001,2024-09-06_11h17.10.351,robot_cogshifting_sign,2022.2.5,59.85790936954056,
"['L_Torso_Y_Back', 'L_Base_X_Back', 'R_Torso_X_Back', 'L_Torso_X_For']","{'laterality': 'R_Torso_X_Back', 'localisation': 'L_Base_X_Back', 'movement': 'L_Torso_Y_Back'}",laterality,"['laterality', 'localisation', 'movement']",R_Torso_X_Back,2,3,robot,1,False,False,"['robot_stimuli\\L_Torso_Y_Back.mp4', 'robot_stimuli\\L_Base_X_Back.mp4', 'robot_stimuli\\R_Torso_X_Back.mp4', 'robot_stimuli\\L_Torso_X_For.mp4']",robot_stimuli\R_Torso_X_Back.mp4,13,,,,,,,,,,,,,0,3,3,3,,,,,,,,,,,,,,,,,,575.5022237999365,,,592.2351504000835,592.2351504000835,592.2351504000835,3,3.5993307000026107,595.8589436998591,595.8589436998591,595.8589436998591,595.8589436998591,595.8589436998591,595.8589436998591,595.8589436998591,595.8589436998591,None,None,None,,,,577.5896855997853,,,,,,,,575.5022237999365,575.5022237999365,None,,588.5779977999628,575.5022237999365,575.5022237999365,,,13,001,2024-09-06_11h17.10.351,robot_cogshifting_sign,2022.2.5,59.85790936954056,
"['R_Base_X_Back', 'R_Torso_X_Back', 'R_Base_Z_Back', 'L_Base_X_Back']","{'laterality': 'L_Base_X_Back', 'localisation': 'R_Torso_X_Back', 'movement': 'R_Base_Z_Back'}",movement,"['laterality', 'localisation', 'movement']",R_Base_Z_Back,2,3,robot,1,False,False,"['robot_stimuli\\R_Base_X_Back.mp4', 'robot_stimuli\\R_Torso_X_Back.mp4', 'robot_stimuli\\R_Base_Z_Back.mp4', 'robot_stimuli\\L_Base_X_Back.mp4']",robot_stimuli\R_Base_Z_Back.mp4,13,,,,,,,,,,,,,0,4,4,4,,,,,,,,,,,,,,,,,,595.8589436998591,,,612.608592200093,612.608592200093,612.608592200093,2,35.761344300117344,648.3957238001749,648.3957238001749,648.3957238001749,648.3957238001749,648.3957238001749,648.3957238001749,648.3957238001749,648.3957238001749,None,None,None,,,,597.9464779999107,,,,,,,,595.8589436998591,595.8589436998591,None,,609.0015119998716,595.8589436998591,595.8589436998591,,,13,001,2024-09-06_11h17.10.351,robot_cogshifting_sign,2022.2.5,59.85790936954056,
"['R_Arm_X_For', 'R_Arm_Z_Back', 'R_Base_X_Back', 'L_Arm_X_Back']","{'laterality': 'L_Arm_X_Back', 'localisation': 'R_Base_X_Back', 'movement': 'R_Arm_Z_Back'}",movement,"['laterality', 'localisation', 'movement']",R_Arm_Z_Back,1,3,robot,1,False,False,"['robot_stimuli\\R_Arm_X_For.mp4', 'robot_stimuli\\R_Arm_Z_Back.mp4', 'robot_stimuli\\R_Base_X_Back.mp4', 'robot_stimuli\\L_Arm_X_Back.mp4']",robot_stimuli\R_Arm_Z_Back.mp4,13,,,,,,,,,,,,,0,5,5,5,,,,,,,,,,,,,,,,,,648.3957238001749,,,665.295657100156,665.295657100156,665.295657100156,1,4.2350880997255445,669.5540447998792,669.5540447998792,669.5540447998792,669.5540447998792,669.5540447998792,669.5540447998792,669.5540447998792,669.5540447998792,None,None,None,,,,650.4831610000692,,,,,,,,648.3957238001749,648.3957238001749,None,,661.6384665002115,648.3957238001749,648.3957238001749,,,13,001,2024-09-06_11h17.10.351,robot_cogshifting_sign,2022.2.5,59.85790936954056,
"['L_Base_X_For', 'R_Base_X_For', 'R_Head_X_For', 'R_Base_Z_For']","{'laterality': 'L_Base_X_For', 'localisation': 'R_Head_X_For', 'movement': 'R_Base_Z_For'}",localisation,"['laterality', 'localisation', 'movement']",R_Head_X_For,2,3,robot,1,False,False,"['robot_stimuli\\L_Base_X_For.mp4', 'robot_stimuli\\R_Base_X_For.mp4', 'robot_stimuli\\R_Head_X_For.mp4', 'robot_stimuli\\R_Base_Z_For.mp4']",robot_stimuli\R_Head_X_For.mp4,13,,,,,,,,,,,,,0,6,6,6,,,,,,,,,,,,,,,,,,669.5540447998792,,,686.2702759997919,686.2702759997919,686.2702759997919,3,1.8043655003421009,688.1072399998084,688.1072399998084,688.1072399998084,688.1072399998084,688.1072399998084,688.1072399998084,688.1072399998084,688.1072399998084,None,None,None,,,,671.6415129997768,,,,,,,,669.5540447998792,669.5540447998792,None,,682.6297916998155,669.5540447998792,669.5540447998792,,,13,001,2024-09-06_11h17.10.351,robot_cogshifting_sign,2022.2.5,59.85790936954056,
"['R_Base_Z_For', 'R_Head_Y_For', 'R_Base_Y_Back', 'L_Base_Y_For']","{'laterality': 'L_Base_Y_For', 'localisation': 'R_Head_Y_For', 'movement': 'R_Base_Z_For'}",localisation,"['laterality', 'localisation', 'movement']",R_Head_Y_For,1,3,robot,1,False,False,"['robot_stimuli\\R_Base_Z_For.mp4', 'robot_stimuli\\R_Head_Y_For.mp4', 'robot_stimuli\\R_Base_Y_Back.mp4', 'robot_stimuli\\L_Base_Y_For.mp4']",robot_stimuli\R_Head_Y_For.mp4,13,,,,,,,,,,,,,0,7,7,7,,,,,,,,,,,,,,,,,,688.1072399998084,,,704.9069861001335,704.9069861001335,704.9069861001335,2,2.2392754000611603,707.1781219001859,707.1781219001859,707.1781219001859,707.1781219001859,707.1781219001859,707.1781219001859,707.1781219001859,707.1781219001859,None,None,None,,,,690.1947008999996,,,,,,,,688.1072399998084,688.1072399998084,None,,701.3499957001768,688.1072399998084,688.1072399998084,,,13,001,2024-09-06_11h17.10.351,robot_cogshifting_sign,2022.2.5,59.85790936954056,
"['L_Base_X_Back', 'R_Base_X_Back', 'R_Base_Z_For', 'R_Head_X_For']","{'laterality': 'L_Base_X_Back', 'localisation': 'R_Head_X_For', 'movement': 'R_Base_Z_For'}",laterality,"['laterality', 'localisation', 'movement']",L_Base_X_Back,0,3,robot,1,False,True,"['robot_stimuli\\L_Base_X_Back.mp4', 'robot_stimuli\\R_Base_X_Back.mp4', 'robot_stimuli\\R_Base_Z_For.mp4', 'robot_stimuli\\R_Head_X_For.mp4']",robot_stimuli\L_Base_X_Back.mp4,13,,,,,,,,,,,,,0,8,8,8,,,,,,,,,,,,,,,,,,707.1781219001859,,,724.028087799903,724.028087799903,724.028087799903,1,3.9658300997689366,728.0525410999544,733.3128861999139,728.0525410999544,733.3128861999139,728.0525410999544,733.3128861999139,728.0525410999544,733.3128861999139,69.28571428571429,3.73349229991436,space,,,,709.2655814001337,5.1893492001108825,,,,,,,707.1781219001859,707.1781219001859,None,,720.404165700078,707.1781219001859,707.1781219001859,,,13,001,2024-09-06_11h17.10.351,robot_cogshifting_sign,2022.2.5,59.85790936954056,
"['L_Torso_X_Back', 'R_Torso_Y_Back', 'L_Torso_Y_Back', 'L_Head_Y_Back']","{'laterality': 'R_Torso_Y_Back', 'localisation': 'L_Head_Y_Back', 'movement': 'L_Torso_X_Back'}",laterality,['laterality'],R_Torso_Y_Back,1,1,robot,1,True,False,"['robot_stimuli\\L_Torso_X_Back.mp4', 'robot_stimuli\\R_Torso_Y_Back.mp4', 'robot_stimuli\\L_Torso_Y_Back.mp4', 'robot_stimuli\\L_Head_Y_Back.mp4']",robot_stimuli\R_Torso_Y_Back.mp4,13,,,,,,,,,,,,,0,9,9,9,,,,,,,,,,,,,,,,,,737.9386539999396,,,754.7050153999589,754.7050153999589,754.7050153999589,2,2.312578300014138,757.0429555000737,757.0429555000737,757.0429555000737,757.0429555000737,757.0429555000737,757.0429555000737,757.0429555000737,757.0429555000737,None,None,None,,,,,,,,,,,,733.3128861999139,733.3128861999139,space,4.593416700139642,751.0645624999888,,,,,13,001,2024-09-06_11h17.10.351,robot_cogshifting_sign,2022.2.5,59.85790936954056,
"['L_Head_X_Back', 'L_Torso_Y_Back', 'L_Head_Y_For', 'R_Head_Y_For']","{'laterality': 'R_Head_Y_For', 'localisation': 'L_Torso_Y_Back', 'movement': 'L_Head_X_Back'}",movement,['movement'],L_Head_X_Back,0,1,robot,1,False,False,"['robot_stimuli\\L_Head_X_Back.mp4', 'robot_stimuli\\L_Torso_Y_Back.mp4', 'robot_stimuli\\L_Head_Y_For.mp4', 'robot_stimuli\\R_Head_Y_For.mp4']",robot_stimuli\L_Head_X_Back.mp4,13,,,,,,,,,,,,,0,10,10,10,,,,,,,,,,,,,,,,,,757.0429555000737,,,773.825972000137,773.825972000137,773.825972000137,2,1.8721600002609193,775.7297347001731,775.7297347001731,775.7297347001731,775.7297347001731,775.7297347001731,775.7297347001731,775.7297347001731,775.7297347001731,None,None,None,,,,759.147103600204,,,,,,,,757.0429555000737,757.0429555000737,None,,770.1854954999872,757.0429555000737,757.0429555000737,,,13,001,2024-09-06_11h17.10.351,robot_cogshifting_sign,2022.2.5,59.85790936954056,
"['R_Torso_Z_For', 'R_Base_X_For', 'R_Torso_X_For', 'L_Torso_X_Back']","{'laterality': 'L_Torso_X_Back', 'localisation': 'R_Base_X_For', 'movement': 'R_Torso_Z_For'}",localisation,['localisation'],R_Base_X_For,1,1,robot,1,False,False,"['robot_stimuli\\R_Torso_Z_For.mp4', 'robot_stimuli\\R_Base_X_For.mp4', 'robot_stimuli\\R_Torso_X_For.mp4', 'robot_stimuli\\L_Torso_X_Back.mp4']",robot_stimuli\R_Base_X_For.mp4,13,,,,,,,,,,,,,0,11,11,11,,,,,,,,,,,,,,,,,,775.7297347001731,,,792.5461717997678,792.5461717997678,792.5461717997678,2,1.1196822002530098,793.6984605002217,793.6984605002217,793.6984605002217,793.6984605002217,793.6984605002217,793.6984605002217,793.6984605002217,793.6984605002217,None,None,None,,,,777.8171786000021,,,,,,,,775.7297347001731,775.7297347001731,None,,788.9057315997779,775.7297347001731,775.7297347001731,,,13,001,2024-09-06_11h17.10.351,robot_cogshifting_sign,2022.2.5,59.85790936954056,
"['R_Head_Z_For', 'L_Torso_Z_For', 'R_Torso_Z_Back', 'R_Torso_Y_Back']","{'laterality': 'L_Torso_Z_For', 'localisation': 'R_Head_Z_For', 'movement': 'R_Torso_Y_Back'}",movement,['movement'],R_Torso_Y_Back,3,1,robot,1,False,False,"['robot_stimuli\\R_Head_Z_For.mp4', 'robot_stimuli\\L_Torso_Z_For.mp4', 'robot_stimuli\\R_Torso_Z_Back.mp4', 'robot_stimuli\\R_Torso_Y_Back.mp4']",robot_stimuli\R_Torso_Y_Back.mp4,13,,,,,,,,,,,,,0,12,12,12,,,,,,,,,,,,,,,,,,793.6984605002217,,,810.6150671998039,810.6150671998039,810.6150671998039,2,9.123336300253868,819.7664335002191,819.7664335002191,819.7664335002191,819.7664335002191,819.7664335002191,819.7664335002191,819.7664335002191,819.7664335002191,None,None,None,,,,795.8026073002256,,,,,,,,793.6984605002217,793.6984605002217,None,,806.9745752997696,793.6984605002217,793.6984605002217,,,13,001,2024-09-06_11h17.10.351,robot_cogshifting_sign,2022.2.5,59.85790936954056,
"['L_Head_Z_For', 'L_Torso_Z_Back', 'R_Torso_Z_Back', 'L_Torso_Y_Back']","{'laterality': 'R_Torso_Z_Back', 'localisation': 'L_Head_Z_For', 'movement': 'L_Torso_Y_Back'}",localisation,['localisation'],L_Head_Z_For,0,1,robot,1,False,False,"['robot_stimuli\\L_Head_Z_For.mp4', 'robot_stimuli\\L_Torso_Z_Back.mp4', 'robot_stimuli\\R_Torso_Z_Back.mp4', 'robot_stimuli\\L_Torso_Y_Back.mp4']",robot_stimuli\L_Head_Z_For.mp4,13,,,,,,,,,,,,,0,13,13,13,,,,,,,,,,,,,,,,,,819.7664335002191,,,836.3824855000712,836.3824855000712,836.3824855000712,1,1.0758980000391603,837.4846577998251,837.4846577998251,837.4846577998251,837.4846577998251,837.4846577998251,837.4846577998251,837.4846577998251,837.4846577998251,None,None,None,,,,821.8538977000862,,,,,,,,819.7664335002191,819.7664335002191,None,,832.8755696001463,819.7664335002191,819.7664335002191,,,13,001,2024-09-06_11h17.10.351,robot_cogshifting_sign,2022.2.5,59.85790936954056,
"['R_Base_Y_Back', 'L_Base_Y_Back', 'R_Base_X_For', 'R_Head_Y_Back']","{'laterality': 'L_Base_Y_Back', 'localisation': 'R_Head_Y_Back', 'movement': 'R_Base_X_For'}",laterality,['laterality'],L_Base_Y_Back,1,1,robot,1,False,False,"['robot_stimuli\\R_Base_Y_Back.mp4', 'robot_stimuli\\L_Base_Y_Back.mp4', 'robot_stimuli\\R_Base_X_For.mp4', 'robot_stimuli\\R_Head_Y_Back.mp4']",robot_stimuli\L_Base_Y_Back.mp4,13,,,,,,,,,,,,,0,14,14,14,,,,,,,,,,,,,,,,,,837.4846577998251,,,854.2176760002039,854.2176760002039,854.2176760002039,2,0.711864999961108,854.9690490998328,854.9690490998328,854.9690490998328,854.9690490998328,854.9690490998328,854.9690490998328,854.9690490998328,854.9690490998328,None,None,None,,,,839.5720881000161,,,,,,,,837.4846577998251,837.4846577998251,None,,850.5603971001692,837.4846577998251,837.4846577998251,,,13,001,2024-09-06_11h17.10.351,robot_cogshifting_sign,2022.2.5,59.85790936954056,
"['R_Head_Y_For', 'R_Arm_X_For', 'L_Arm_Y_Back', 'R_Arm_Y_Back']","{'laterality': 'L_Arm_Y_Back', 'localisation': 'R_Head_Y_For', 'movement': 'R_Arm_X_For'}",localisation,['localisation'],R_Head_Y_For,0,1,robot,1,False,False,"['robot_stimuli\\R_Head_Y_For.mp4', 'robot_stimuli\\R_Arm_X_For.mp4', 'robot_stimuli\\L_Arm_Y_Back.mp4', 'robot_stimuli\\R_Arm_Y_Back.mp4']",robot_stimuli\R_Head_Y_For.mp4,13,,,,,,,,,,,,,0,15,15,15,,,,,,,,,,,,,,,,,,854.9690490998328,,,871.9191033998504,871.9191033998504,871.9191033998504,2,3.0751951998099685,875.0252274000086,875.0252274000086,875.0252274000086,875.0252274000086,875.0252274000086,875.0252274000086,875.0252274000086,875.0252274000086,None,None,None,,,,,,,,,,,,854.9690490998328,854.9690490998328,None,,868.2953264000826,854.9690490998328,854.9690490998328,,,13,001,2024-09-06_11h17.10.351,robot_cogshifting_sign,2022.2.5,59.85790936954056,
"['L_Arm_Z_For', 'L_Base_Z_For', 'R_Arm_Z_For', 'L_Arm_X_For']","{'laterality': 'R_Arm_Z_For', 'localisation': 'L_Base_Z_For', 'movement': 'L_Arm_X_For'}",movement,['movement'],L_Arm_X_For,3,1,robot,1,False,False,"['robot_stimuli\\L_Arm_Z_For.mp4', 'robot_stimuli\\L_Base_Z_For.mp4', 'robot_stimuli\\R_Arm_Z_For.mp4', 'robot_stimuli\\L_Arm_X_For.mp4']",robot_stimuli\L_Arm_X_For.mp4,13,,,,,,,,,,,,,0,16,16,16,,,,,,,,,,,,,,,,,,875.0252274000086,,,891.9084716001526,891.9084716001526,891.9084716001526,4,3.253140799701214,895.1815797002055,895.1815797002055,895.1815797002055,895.1815797002055,895.1815797002055,895.1815797002055,895.1815797002055,895.1815797002055,None,None,None,,,,877.1126407999545,,,,,,,,875.0252274000086,875.0252274000086,None,,888.2679353998974,875.0252274000086,875.0252274000086,,,13,001,2024-09-06_11h17.10.351,robot_cogshifting_sign,2022.2.5,59.85790936954056,
"['R_Head_Y_Back', 'L_Torso_Y_Back', 'R_Torso_Y_For', 'R_Torso_X_Back']","{'laterality': 'L_Torso_Y_Back', 'localisation': 'R_Head_Y_Back', 'movement': 'R_Torso_X_Back'}",laterality,['laterality'],L_Torso_Y_Back,1,1,robot,1,False,True,"['robot_stimuli\\R_Head_Y_Back.mp4', 'robot_stimuli\\L_Torso_Y_Back.mp4', 'robot_stimuli\\R_Torso_Y_For.mp4', 'robot_stimuli\\R_Torso_X_Back.mp4']",robot_stimuli\L_Torso_Y_Back.mp4,13,,,,,,,,,,,,,0,17,17,17,,,,,,,,,,,,,,,,,,895.1815797002055,,,911.9312289999798,911.9312289999798,911.9312289999798,2,0.9423882998526096,912.9332055998966,918.9115976998582,912.9332055998966,918.9115976998582,912.9332055998966,918.9115976998582,912.9332055998966,918.9115976998582,30.396825396825395,4.351724099833518,space,,,,897.2690133000724,5.924389499705285,,,,,,,895.1815797002055,895.1815797002055,None,,908.2907281997614,895.1815797002055,895.1815797002055,,,13,001,2024-09-06_11h17.10.351,robot_cogshifting_sign,2022.2.5,59.85790936954056,
"['R_Base_X_Back', 'L_Head_X_For', 'R_Head_X_Back', 'R_Head_Y_Back']","{'laterality': 'L_Head_X_For', 'localisation': 'R_Base_X_Back', 'movement': 'R_Head_Y_Back'}",movement,"['localisation', 'movement']",R_Head_Y_Back,3,2,robot,1,True,False,"['robot_stimuli\\R_Base_X_Back.mp4', 'robot_stimuli\\L_Head_X_For.mp4', 'robot_stimuli\\R_Head_X_Back.mp4', 'robot_stimuli\\R_Head_Y_Back.mp4']",robot_stimuli\R_Head_Y_Back.mp4,13,,,,,,,,,,,,,0,18,18,18,,,,,,,,,,,,,,,,,,925.2073266999796,,,942.0238079000264,942.0238079000264,942.0238079000264,1,6.922237200196832,948.9707931000739,948.9707931000739,948.9707931000739,948.9707931000739,948.9707931000739,948.9707931000739,948.9707931000739,948.9707931000739,None,None,None,,,,,,,,,,,,918.9115976998582,918.9115976998582,space,6.274046499747783,938.3832801999524,,,,,13,001,2024-09-06_11h17.10.351,robot_cogshifting_sign,2022.2.5,59.85790936954056,
"['R_Torso_Z_For', 'L_Head_Z_For', 'L_Torso_Z_For', 'L_Torso_X_Back']","{'laterality': 'R_Torso_Z_For', 'localisation': 'L_Head_Z_For', 'movement': 'L_Torso_X_Back'}",movement,"['laterality', 'movement']",L_Torso_X_Back,3,2,robot,1,False,False,"['robot_stimuli\\R_Torso_Z_For.mp4', 'robot_stimuli\\L_Head_Z_For.mp4', 'robot_stimuli\\L_Torso_Z_For.mp4', 'robot_stimuli\\L_Torso_X_Back.mp4']",robot_stimuli\L_Torso_X_Back.mp4,13,,,,,,,,,,,,,0,19,19,19,,,,,,,,,,,,,,,,,,948.9707931000739,,,965.8707481999882,965.8707481999882,965.8707481999882,4,2.0274446001276374,967.9247449999675,967.9247449999675,967.9247449999675,967.9247449999675,967.9247449999675,967.9247449999675,967.9247449999675,967.9247449999675,None,None,None,,,,951.0582290999591,,,,,,,,948.9707931000739,948.9707931000739,None,,962.246941300109,948.9707931000739,948.9707931000739,,,13,001,2024-09-06_11h17.10.351,robot_cogshifting_sign,2022.2.5,59.85790936954056,
"['R_Torso_Z_For', 'R_Torso_Y_For', 'R_Base_Z_For', 'L_Torso_Z_Back']","{'laterality': 'L_Torso_Z_Back', 'localisation': 'R_Base_Z_For', 'movement': 'R_Torso_Y_For'}",localisation,"['laterality', 'localisation']",R_Base_Z_For,2,2,robot,1,False,False,"['robot_stimuli\\R_Torso_Z_For.mp4', 'robot_stimuli\\R_Torso_Y_For.mp4', 'robot_stimuli\\R_Base_Z_For.mp4', 'robot_stimuli\\L_Torso_Z_Back.mp4']",robot_stimuli\R_Base_Z_For.mp4,13,,,,,,,,,,,,,0,20,20,20,,,,,,,,,,,,,,,,,,967.9247449999675,,,984.6743990001269,984.6743990001269,984.6743990001269,3,1.6717225001193583,986.3777779000811,986.3777779000811,986.3777779000811,986.3777779000811,986.3777779000811,986.3777779000811,986.3777779000811,986.3777779000811,None,None,None,,,,970.0122286002152,,,,,,,,967.9247449999675,967.9247449999675,None,,981.1674791001715,967.9247449999675,967.9247449999675,,,13,001,2024-09-06_11h17.10.351,robot_cogshifting_sign,2022.2.5,59.85790936954056,
"['L_Arm_Y_Back', 'R_Arm_Y_For', 'R_Arm_Z_Back', 'R_Base_Y_Back']","{'laterality': 'L_Arm_Y_Back', 'localisation': 'R_Base_Y_Back', 'movement': 'R_Arm_Z_Back'}",laterality,"['laterality', 'localisation']",L_Arm_Y_Back,0,2,robot,1,False,False,"['robot_stimuli\\L_Arm_Y_Back.mp4', 'robot_stimuli\\R_Arm_Y_For.mp4', 'robot_stimuli\\R_Arm_Z_Back.mp4', 'robot_stimuli\\R_Base_Y_Back.mp4']",robot_stimuli\L_Arm_Y_Back.mp4,13,,,,,,,,,,,,,0,21,21,21,,,,,,,,,,,,,,,,,,986.3777779000811,,,1003.1608498999849,1003.1608498999849,1003.1608498999849,1,1.1940448000095785,1004.379889300093,1004.379889300093,1004.379889300093,1004.379889300093,1004.379889300093,1004.379889300093,1004.379889300093,1004.379889300093,None,None,None,,,,988.4651879998855,,,,,,,,986.3777779000811,986.3777779000811,None,,999.5203746999614,986.3777779000811,986.3777779000811,,,13,001,2024-09-06_11h17.10.351,robot_cogshifting_sign,2022.2.5,59.85790936954056,
"['R_Head_Z_For', 'L_Head_Z_For', 'R_Arm_Z_For', 'R_Head_X_Back']","{'laterality': 'L_Head_Z_For', 'localisation': 'R_Arm_Z_For', 'movement': 'R_Head_X_Back'}",laterality,"['laterality', 'movement']",L_Head_Z_For,1,2,robot,1,False,False,"['robot_stimuli\\R_Head_Z_For.mp4', 'robot_stimuli\\L_Head_Z_For.mp4', 'robot_stimuli\\R_Arm_Z_For.mp4', 'robot_stimuli\\R_Head_X_Back.mp4']",robot_stimuli\L_Head_Z_For.mp4,13,,,,,,,,,,,,,0,22,22,22,,,,,,,,,,,,,,,,,,1004.379889300093,,,1021.2798195001669,1021.2798195001669,1021.2798195001669,2,3.985548899974674,1025.2876964998432,1025.2876964998432,1025.2876964998432,1025.2876964998432,1025.2876964998432,1025.2876964998432,1025.2876964998432,1025.2876964998432,None,None,None,,,,1006.4673259002157,,,,,,,,1004.379889300093,1004.379889300093,None,,1017.6393336001784,1004.379889300093,1004.379889300093,,,13,001,2024-09-06_11h17.10.351,robot_cogshifting_sign,2022.2.5,59.85790936954056,
"['L_Head_Z_Back', 'R_Head_X_Back', 'L_Head_X_Back', 'L_Arm_X_For']","{'laterality': 'R_Head_X_Back', 'localisation': 'L_Arm_X_For', 'movement': 'L_Head_Z_Back'}",localisation,"['laterality', 'localisation']",L_Arm_X_For,3,2,robot,1,False,False,"['robot_stimuli\\L_Head_Z_Back.mp4', 'robot_stimuli\\R_Head_X_Back.mp4', 'robot_stimuli\\L_Head_X_Back.mp4', 'robot_stimuli\\L_Arm_X_For.mp4']",robot_stimuli\L_Arm_X_For.mp4,13,,,,,,,,,,,,,0,23,23,23,,,,,,,,,,,,,,,,,,1025.2876964998432,,,1042.170921599958,1042.170921599958,1042.170921599958,4,9.111343000084162,1051.3055671001785,1051.3055671001785,1051.3055671001785,1051.3055671001785,1051.3055671001785,1051.3055671001785,1051.3055671001785,1051.3055671001785,None,None,None,,,,1027.3751619998366,,,,,,,,1025.2876964998432,1025.2876964998432,None,,1038.5471276999451,1025.2876964998432,1025.2876964998432,,,13,001,2024-09-06_11h17.10.351,robot_cogshifting_sign,2022.2.5,59.85790936954056,
"['L_Base_X_Back', 'L_Head_Z_For', 'R_Base_Z_For', 'L_Base_Z_For']","{'laterality': 'R_Base_Z_For', 'localisation': 'L_Head_Z_For', 'movement': 'L_Base_X_Back'}",localisation,"['localisation', 'movement']",L_Head_Z_For,1,2,robot,1,False,False,"['robot_stimuli\\L_Base_X_Back.mp4', 'robot_stimuli\\L_Head_Z_For.mp4', 'robot_stimuli\\R_Base_Z_For.mp4', 'robot_stimuli\\L_Base_Z_For.mp4']",robot_stimuli\L_Head_Z_For.mp4,13,,,,,,,,,,,,,0,24,24,24,,,,,,,,,,,,,,,,,,1051.3055671001785,,,1068.1721732001752,1068.1721732001752,1068.1721732001752,2,4.293387799989432,1072.497301899828,1072.497301899828,1072.497301899828,1072.497301899828,1072.497301899828,1072.497301899828,1072.497301899828,1072.497301899828,None,None,None,,,,1053.393014300149,,,,,,,,1051.3055671001785,1051.3055671001785,None,,1064.5149169000797,1051.3055671001785,1051.3055671001785,,,13,001,2024-09-06_11h17.10.351,robot_cogshifting_sign,2022.2.5,59.85790936954056,
"['L_Torso_Y_Back', 'R_Arm_Y_Back', 'R_Torso_Z_Back', 'R_Torso_Y_For']","{'laterality': 'L_Torso_Y_Back', 'localisation': 'R_Arm_Y_Back', 'movement': 'R_Torso_Z_Back'}",laterality,"['laterality', 'movement']",L_Torso_Y_Back,0,2,robot,1,False,False,"['robot_stimuli\\L_Torso_Y_Back.mp4', 'robot_stimuli\\R_Arm_Y_Back.mp4', 'robot_stimuli\\R_Torso_Z_Back.mp4', 'robot_stimuli\\R_Torso_Y_For.mp4']",robot_stimuli\L_Torso_Y_Back.mp4,13,,,,,,,,,,,,,0,25,25,25,,,,,,,,,,,,,,,,,,1072.497301899828,,,1089.280401899945,1089.280401899945,1089.280401899945,1,2.136926000006497,1091.4345754999667,1091.4345754999667,1091.4345754999667,1091.4345754999667,1091.4345754999667,1091.4345754999667,1091.4345754999667,1091.4345754999667,None,None,None,,,,1074.5847772001289,,,,,,,,1072.497301899828,1072.497301899828,None,,1085.6399122001603,1072.497301899828,1072.497301899828,,,13,001,2024-09-06_11h17.10.351,robot_cogshifting_sign,2022.2.5,59.85790936954056,
"['R_Head_Z_For', 'L_Head_Y_Back', 'L_Head_Z_For', 'L_Arm_Z_Back']","{'laterality': 'R_Head_Z_For', 'localisation': 'L_Arm_Z_Back', 'movement': 'L_Head_Y_Back'}",movement,"['localisation', 'movement']",L_Head_Y_Back,1,2,robot,1,False,True,"['robot_stimuli\\R_Head_Z_For.mp4', 'robot_stimuli\\L_Head_Y_Back.mp4', 'robot_stimuli\\L_Head_Z_For.mp4', 'robot_stimuli\\L_Arm_Z_Back.mp4']",robot_stimuli\L_Head_Y_Back.mp4,13,,,,,,,,,,,,,0,26,26,26,,,,,,,,,,,,,,,,,,1091.4345754999667,,,1108.334509999957,1108.334509999957,1108.334509999957,4,34.85889809997752,1143.2532685999759,1147.6118485000916,1143.2532685999759,1147.6118485000916,1143.2532685999759,1147.6118485000916,1143.2532685999759,1147.6118485000916,57.53968253968254,2.030142300296575,space,,,,1093.522007800173,4.293453299906105,,,,,,,1091.4345754999667,1091.4345754999667,None,,1104.6940444000065,1091.4345754999667,1091.4345754999667,,,13,001,2024-09-06_11h17.10.351,robot_cogshifting_sign,2022.2.5,59.85790936954056,
"['blue_top_X_0', 'red_right_M_0', 'red_top_W_0', 'red_top_X_45']","{'color': 'blue_top_X_0', 'position': 'red_right_M_0', 'orientation': 'red_top_X_45'}",position,"['color', 'orientation', 'position']",red_right_M_0,1,3,letter,2,True,False,"['robot_stimuli\\\\filler.mp4', 'robot_stimuli\\\\filler.mp4', 'robot_stimuli\\\\filler.mp4', 'robot_stimuli\\\\filler.mp4']",robot_stimuli\\filler.mp4,13,,,,,,,,,,,,,0,27,27,27,,,,,,,,,,,,,,,,,,1161.789794600103,,,1172.9450269001536,1172.9450269001536,1172.9450269001536,2,3.017203299794346,1175.984402900096,1175.984402900096,1175.984402900096,1175.984402900096,1175.984402900096,1175.984402900096,1175.984402900096,1175.984402900096,None,None,None,,,,,,,,,,,,1147.6118485000916,1147.6118485000916,space,14.149890800006688,,,,1170.7240224000998,1172.9450269001536,13,001,2024-09-06_11h17.10.351,robot_cogshifting_sign,2022.2.5,59.85790936954056,
"['red_top_C_0', 'blue_top_N_0', 'red_top_D_45', 'red_left_L_0']","{'color': 'blue_top_N_0', 'position': 'red_left_L_0', 'orientation': 'red_top_D_45'}",position,"['color', 'orientation', 'position']",red_left_L_0,3,3,letter,2,False,False,"['robot_stimuli\\\\filler.mp4', 'robot_stimuli\\\\filler.mp4', 'robot_stimuli\\\\filler.mp4', 'robot_stimuli\\\\filler.mp4']",robot_stimuli\\filler.mp4,13,,,,,,,,,,,,,0,28,28,28,,,,,,,,,,,,,,,,,,1175.984402900096,,,1187.1396690998226,1187.1396690998226,1187.1396690998226,4,1.9340329002588987,1189.093493499793,1189.093493499793,1189.093493499793,1189.093493499793,1189.093493499793,1189.093493499793,1189.093493499793,1189.093493499793,None,None,None,,,,1178.0551435002126,,,,,,,,1175.984402900096,1175.984402900096,None,,,1175.984402900096,1175.984402900096,1184.918675799854,1187.1396690998226,13,001,2024-09-06_11h17.10.351,robot_cogshifting_sign,2022.2.5,59.85790936954056,
"['blue_top_D_45', 'blue_right_F_0', 'blue_top_M_0', 'red_top_L_0']","{'color': 'red_top_L_0', 'position': 'blue_right_F_0', 'orientation': 'blue_top_D_45'}",color,"['color', 'orientation', 'position']",red_top_L_0,3,3,letter,2,False,False,"['robot_stimuli\\\\filler.mp4', 'robot_stimuli\\\\filler.mp4', 'robot_stimuli\\\\filler.mp4', 'robot_stimuli\\\\filler.mp4']",robot_stimuli\\filler.mp4,13,,,,,,,,,,,,,0,29,29,29,,,,,,,,,,,,,,,,,,1189.093493499793,,,1199.83129059989,1199.83129059989,1199.83129059989,4,2.235210499726236,1202.0857393997721,1202.0857393997721,1202.0857393997721,1202.0857393997721,1202.0857393997721,1202.0857393997721,1202.0857393997721,1202.0857393997721,None,None,None,,,,1191.164325799793,,,,,,,,1189.093493499793,1189.093493499793,None,,,1189.093493499793,1189.093493499793,1197.6103264000267,1199.83129059989,13,001,2024-09-06_11h17.10.351,robot_cogshifting_sign,2022.2.5,59.85790936954056,
"['blue_left_H_45', 'blue_left_Z_0', 'blue_right_J_45', 'red_left_B_45']","{'color': 'red_left_B_45', 'position': 'blue_right_J_45', 'orientation': 'blue_left_Z_0'}",orientation,"['color', 'orientation', 'position']",blue_left_Z_0,1,3,letter,2,False,False,"['robot_stimuli\\\\filler.mp4', 'robot_stimuli\\\\filler.mp4', 'robot_stimuli\\\\filler.mp4', 'robot_stimuli\\\\filler.mp4']",robot_stimuli\\filler.mp4,13,,,,,,,,,,,,,0,30,30,30,,,,,,,,,,,,,,,,,,1202.0857393997721,,,1213.0239542000927,1213.0239542000927,1213.0239542000927,1,6.985811399761587,1220.0377429001965,1220.0377429001965,1220.0377429001965,1220.0377429001965,1220.0377429001965,1220.0377429001965,1220.0377429001965,1220.0377429001965,None,None,None,,,,1204.1565463999286,,,,,,,,1202.0857393997721,1202.0857393997721,None,,,1202.0857393997721,1202.0857393997721,1210.802980700042,1213.0239542000927,13,001,2024-09-06_11h17.10.351,robot_cogshifting_sign,2022.2.5,59.85790936954056,
"['red_left_G_0', 'red_left_S_45', 'blue_left_V_0', 'red_bottom_C_0']","{'color': 'blue_left_V_0', 'position': 'red_bottom_C_0', 'orientation': 'red_left_S_45'}",orientation,"['color', 'orientation', 'position']",red_left_S_45,1,3,letter,2,False,False,"['robot_stimuli\\\\filler.mp4', 'robot_stimuli\\\\filler.mp4', 'robot_stimuli\\\\filler.mp4', 'robot_stimuli\\\\filler.mp4']",robot_stimuli\\filler.mp4,13,,,,,,,,,,,,,0,31,31,31,,,,,,,,,,,,,,,,,,1220.0377429001965,,,1230.975924400147,1230.975924400147,1230.975924400147,2,2.6816406999714673,1233.681276500225,1233.681276500225,1233.681276500225,1233.681276500225,1233.681276500225,1233.681276500225,1233.681276500225,1233.681276500225,None,None,None,,,,1222.1085683000274,,,,,,,,1220.0377429001965,1220.0377429001965,None,,,1220.0377429001965,1220.0377429001965,1228.9553205999546,1230.975924400147,13,001,2024-09-06_11h17.10.351,robot_cogshifting_sign,2022.2.5,59.85790936954056,
"['red_top_J_45', 'red_bottom_X_0', 'red_top_D_0', 'blue_top_C_0']","{'color': 'blue_top_C_0', 'position': 'red_bottom_X_0', 'orientation': 'red_top_J_45'}",color,"['color', 'orientation', 'position']",blue_top_C_0,3,3,letter,2,False,False,"['robot_stimuli\\\\filler.mp4', 'robot_stimuli\\\\filler.mp4', 'robot_stimuli\\\\filler.mp4', 'robot_stimuli\\\\filler.mp4']",robot_stimuli\\filler.mp4,13,,,,,,,,,,,,,0,32,32,32,,,,,,,,,,,,,,,,,,1233.681276500225,,,1244.2186858998612,1244.2186858998612,1244.2186858998612,4,1.903083700221032,1246.1391414999962,1246.1391414999962,1246.1391414999962,1246.1391414999962,1246.1391414999962,1246.1391414999962,1246.1391414999962,1246.1391414999962,None,None,None,,,,1235.7353810002096,,,,,,,,1233.681276500225,1233.681276500225,None,,,1233.681276500225,1233.681276500225,1242.19810899999,1244.2186858998612,13,001,2024-09-06_11h17.10.351,robot_cogshifting_sign,2022.2.5,59.85790936954056,
"['red_left_S_45', 'red_top_K_45', 'red_left_K_0', 'blue_left_C_45']","{'color': 'blue_left_C_45', 'position': 'red_top_K_45', 'orientation': 'red_left_K_0'}",color,"['color', 'orientation', 'position']",blue_left_C_45,3,3,letter,2,False,False,"['robot_stimuli\\\\filler.mp4', 'robot_stimuli\\\\filler.mp4', 'robot_stimuli\\\\filler.mp4', 'robot_stimuli\\\\filler.mp4']",robot_stimuli\\filler.mp4,13,,,,,,,,,,,,,0,33,33,33,,,,,,,,,,,,,,,,,,1246.1391414999962,,,1257.094019900076,1257.094019900076,1257.094019900076,3,2.2129847002215683,1259.3317709001713,1259.3317709001713,1259.3317709001713,1259.3317709001713,1259.3317709001713,1259.3317709001713,1259.3317709001713,1259.3317709001713,None,None,None,,,,1248.2099413000979,,,,,,,,1246.1391414999962,1246.1391414999962,None,,,1246.1391414999962,1246.1391414999962,1254.8730771001428,1257.094019900076,13,001,2024-09-06_11h17.10.351,robot_cogshifting_sign,2022.2.5,59.85790936954056,
"['blue_left_N_45', 'blue_right_G_45', 'blue_right_V_0', 'red_right_S_45']","{'color': 'red_right_S_45', 'position': 'blue_left_N_45', 'orientation': 'blue_right_V_0'}",position,"['color', 'orientation', 'position']",blue_left_N_45,0,3,letter,2,False,False,"['robot_stimuli\\\\filler.mp4', 'robot_stimuli\\\\filler.mp4', 'robot_stimuli\\\\filler.mp4', 'robot_stimuli\\\\filler.mp4']",robot_stimuli\\filler.mp4,13,,,,,,,,,,,,,0,34,34,34,,,,,,,,,,,,,,,,,,1259.3317709001713,,,1270.069579300005,1270.069579300005,1270.069579300005,3,3.2929883003234863,1273.3927954998799,1273.3927954998799,1273.3927954998799,1273.3927954998799,1273.3927954998799,1273.3927954998799,1273.3927954998799,1273.3927954998799,None,None,None,,,,1261.402573400177,,,,,,,,1259.3317709001713,1259.3317709001713,None,,,1259.3317709001713,1259.3317709001713,1267.8485706998035,1270.069579300005,13,001,2024-09-06_11h17.10.351,robot_cogshifting_sign,2022.2.5,59.85790936954056,
"['blue_left_S_45', 'red_left_Q_45', 'blue_bottom_M_45', 'blue_left_M_0']","{'color': 'red_left_Q_45', 'position': 'blue_bottom_M_45', 'orientation': 'blue_left_M_0'}",orientation,"['color', 'orientation', 'position']",blue_left_M_0,3,3,letter,2,False,True,"['robot_stimuli\\\\filler.mp4', 'robot_stimuli\\\\filler.mp4', 'robot_stimuli\\\\filler.mp4', 'robot_stimuli\\\\filler.mp4']",robot_stimuli\\filler.mp4,13,,,,,,,,,,,,,0,35,35,35,,,,,,,,,,,,,,,,,,1273.3927954998799,,,1283.94694529986,1283.94694529986,1283.94694529986,4,1.6146839000284672,1285.6168637000956,1291.2112071001902,1285.6168637000956,1291.2112071001902,1285.6168637000956,1291.2112071001902,1285.6168637000956,1291.2112071001902,29.444444444444446,2.8320161001756787,space,,,,1275.4636454000138,5.528831599745899,,,,,,,1273.3927954998799,1273.3927954998799,None,,,1273.3927954998799,1273.3927954998799,1281.7258751997724,1283.94694529986,13,001,2024-09-06_11h17.10.351,robot_cogshifting_sign,2022.2.5,59.85790936954056,
"['red_bottom_D_45', 'red_bottom_C_0', 'red_top_D_45', 'blue_bottom_R_45']","{'color': 'blue_bottom_R_45', 'position': 'red_top_D_45', 'orientation': 'red_bottom_C_0'}",color,['color'],blue_bottom_R_45,3,1,letter,2,True,False,"['robot_stimuli\\\\filler.mp4', 'robot_stimuli\\\\filler.mp4', 'robot_stimuli\\\\filler.mp4', 'robot_stimuli\\\\filler.mp4']",robot_stimuli\\filler.mp4,13,,,,,,,,,,,,,0,36,36,36,,,,,,,,,,,,,,,,,,1296.5049546998926,,,1307.042341900058,1307.042341900058,1307.042341900058,4,0.711525899823755,1307.7771434001625,1307.7771434001625,1307.7771434001625,1307.7771434001625,1307.7771434001625,1307.7771434001625,1307.7771434001625,1307.7771434001625,None,None,None,,,,,,,,,,,,1291.2112071001902,1291.2112071001902,space,5.271012099925429,,,,1305.0217547002248,1307.042341900058,13,001,2024-09-06_11h17.10.351,robot_cogshifting_sign,2022.2.5,59.85790936954056,
"['red_right_F_45', 'red_right_N_0', 'blue_right_M_0', 'red_bottom_F_0']","{'color': 'blue_right_M_0', 'position': 'red_bottom_F_0', 'orientation': 'red_right_F_45'}",color,['color'],blue_right_M_0,2,1,letter,2,False,False,"['robot_stimuli\\\\filler.mp4', 'robot_stimuli\\\\filler.mp4', 'robot_stimuli\\\\filler.mp4', 'robot_stimuli\\\\filler.mp4']",robot_stimuli\\filler.mp4,13,,,,,,,,,,,,,0,37,37,37,,,,,,,,,,,,,,,,,,1307.7771434001625,,,1318.5149266999215,1318.5149266999215,1318.5149266999215,3,0.7266347999684513,1319.266435700003,1319.266435700003,1319.266435700003,1319.266435700003,1319.266435700003,1319.266435700003,1319.266435700003,1319.266435700003,None,None,None,,,,1309.8479264001362,,,,,,,,1307.7771434001625,1307.7771434001625,None,,,1307.7771434001625,1307.7771434001625,1316.4944939999841,1318.5149266999215,13,001,2024-09-06_11h17.10.351,robot_cogshifting_sign,2022.2.5,59.85790936954056,
"['blue_left_M_0', 'red_left_W_0', 'blue_left_C_45', 'blue_top_C_0']","{'color': 'red_left_W_0', 'position': 'blue_top_C_0', 'orientation': 'blue_left_C_45'}",orientation,['orientation'],blue_left_C_45,2,1,letter,2,False,False,"['robot_stimuli\\\\filler.mp4', 'robot_stimuli\\\\filler.mp4', 'robot_stimuli\\\\filler.mp4', 'robot_stimuli\\\\filler.mp4']",robot_stimuli\\filler.mp4,13,,,,,,,,,,,,,0,38,38,38,,,,,,,,,,,,,,,,,,1319.266435700003,,,1329.8205487001687,1329.8205487001687,1329.8205487001687,2,0.6542722000740469,1330.5052283001132,1330.5052283001132,1330.5052283001132,1330.5052283001132,1330.5052283001132,1330.5052283001132,1330.5052283001132,1330.5052283001132,None,None,None,,,,1321.3373059998266,,,,,,,,1319.266435700003,1319.266435700003,None,,,1319.266435700003,1319.266435700003,1327.7837573001161,1329.8205487001687,13,001,2024-09-06_11h17.10.351,robot_cogshifting_sign,2022.2.5,59.85790936954056,
"['blue_bottom_R_0', 'blue_left_H_0', 'blue_bottom_P_45', 'red_bottom_P_0']","{'color': 'red_bottom_P_0', 'position': 'blue_left_H_0', 'orientation': 'blue_bottom_P_45'}",orientation,['orientation'],blue_bottom_P_45,2,1,letter,2,False,False,"['robot_stimuli\\\\filler.mp4', 'robot_stimuli\\\\filler.mp4', 'robot_stimuli\\\\filler.mp4', 'robot_stimuli\\\\filler.mp4']",robot_stimuli\\filler.mp4,13,,,,,,,,,,,,,0,39,39,39,,,,,,,,,,,,,,,,,,1330.5052283001132,,,1341.2430026000366,1341.2430026000366,1341.2430026000366,3,0.5827935999259353,1341.8441902999766,1341.8441902999766,1341.8441902999766,1341.8441902999766,1341.8441902999766,1341.8441902999766,1341.8441902999766,1341.8441902999766,None,None,None,,,,1332.5760332997888,,,,,,,,1330.5052283001132,1330.5052283001132,None,,,1330.5052283001132,1330.5052283001132,1339.0220463997684,1341.2430026000366,13,001,2024-09-06_11h17.10.351,robot_cogshifting_sign,2022.2.5,59.85790936954056,
"['blue_left_F_45', 'blue_top_B_45', 'red_left_F_45', 'blue_left_P_0']","{'color': 'red_left_F_45', 'position': 'blue_top_B_45', 'orientation': 'blue_left_P_0'}",position,['position'],blue_top_B_45,1,1,letter,2,False,False,"['robot_stimuli\\\\filler.mp4', 'robot_stimuli\\\\filler.mp4', 'robot_stimuli\\\\filler.mp4', 'robot_stimuli\\\\filler.mp4']",robot_stimuli\\filler.mp4,13,,,,,,,,,,,,,0,40,40,40,,,,,,,,,,,,,,,,,,1341.8441902999766,,,1352.5820236001164,1352.5820236001164,1352.5820236001164,2,0.5637545003555715,1353.166560600046,1353.166560600046,1353.166560600046,1353.166560600046,1353.166560600046,1353.166560600046,1353.166560600046,1353.166560600046,None,None,None,,,,1343.9150470001623,,,,,,,,1341.8441902999766,1341.8441902999766,None,,,1341.8441902999766,1341.8441902999766,1350.3610084000975,1352.5820236001164,13,001,2024-09-06_11h17.10.351,robot_cogshifting_sign,2022.2.5,59.85790936954056,
"['blue_left_Q_0', 'blue_top_J_45', 'red_left_M_45', 'blue_left_C_45']","{'color': 'red_left_M_45', 'position': 'blue_top_J_45', 'orientation': 'blue_left_Q_0'}",position,['position'],blue_top_J_45,1,1,letter,2,False,False,"['robot_stimuli\\\\filler.mp4', 'robot_stimuli\\\\filler.mp4', 'robot_stimuli\\\\filler.mp4', 'robot_stimuli\\\\filler.mp4']",robot_stimuli\\filler.mp4,13,,,,,,,,,,,,,0,41,41,41,,,,,,,,,,,,,,,,,,1353.166560600046,,,1363.7038813000545,1363.7038813000545,1363.7038813000545,2,0.9620173000730574,1364.6891657998785,1364.6891657998785,1364.6891657998785,1364.6891657998785,1364.6891657998785,1364.6891657998785,1364.6891657998785,1364.6891657998785,None,None,None,,,,1355.2372828000225,,,,,,,,1353.166560600046,1353.166560600046,None,,,1353.166560600046,1353.166560600046,1361.6833099001087,1363.7038813000545,13,001,2024-09-06_11h17.10.351,robot_cogshifting_sign,2022.2.5,59.85790936954056,
"['blue_right_Q_45', 'red_top_X_45', 'red_right_D_0', 'red_right_W_45']","{'color': 'blue_right_Q_45', 'position': 'red_top_X_45', 'orientation': 'red_right_D_0'}",orientation,['orientation'],red_right_D_0,2,1,letter,2,False,False,"['robot_stimuli\\\\filler.mp4', 'robot_stimuli\\\\filler.mp4', 'robot_stimuli\\\\filler.mp4', 'robot_stimuli\\\\filler.mp4']",robot_stimuli\\filler.mp4,13,,,,,,,,,,,,,0,42,42,42,,,,,,,,,,,,,,,,,,1364.6891657998785,,,1375.443681600038,1375.443681600038,1375.443681600038,3,0.6543801999650896,1376.1283696000464,1376.1283696000464,1376.1283696000464,1376.1283696000464,1376.1283696000464,1376.1283696000464,1376.1283696000464,1376.1283696000464,None,None,None,,,,1366.743276800029,,,,,,,,1364.6891657998785,1364.6891657998785,None,,,1364.6891657998785,1364.6891657998785,1373.2227424001321,1375.443681600038,13,001,2024-09-06_11h17.10.351,robot_cogshifting_sign,2022.2.5,59.85790936954056,
"['blue_top_Z_45', 'red_top_C_45', 'blue_left_N_45', 'blue_top_L_0']","{'color': 'red_top_C_45', 'position': 'blue_left_N_45', 'orientation': 'blue_top_L_0'}",color,['color'],red_top_C_45,1,1,letter,2,False,False,"['robot_stimuli\\\\filler.mp4', 'robot_stimuli\\\\filler.mp4', 'robot_stimuli\\\\filler.mp4', 'robot_stimuli\\\\filler.mp4']",robot_stimuli\\filler.mp4,13,,,,,,,,,,,,,0,43,43,43,,,,,,,,,,,,,,,,,,1376.1283696000464,,,1387.0665536001325,1387.0665536001325,1387.0665536001325,2,0.8719448000192642,1387.968324800022,1387.968324800022,1387.968324800022,1387.968324800022,1387.968324800022,1387.968324800022,1387.968324800022,1387.968324800022,None,None,None,,,,1378.1991194998845,,,,,,,,1376.1283696000464,1376.1283696000464,None,,,1376.1283696000464,1376.1283696000464,1385.046109400224,1387.0665536001325,13,001,2024-09-06_11h17.10.351,robot_cogshifting_sign,2022.2.5,59.85790936954056,
"['blue_bottom_Z_0', 'red_bottom_J_45', 'red_bottom_C_0', 'red_top_X_0']","{'color': 'blue_bottom_Z_0', 'position': 'red_top_X_0', 'orientation': 'red_bottom_J_45'}",position,['position'],red_top_X_0,3,1,letter,2,False,True,"['robot_stimuli\\\\filler.mp4', 'robot_stimuli\\\\filler.mp4', 'robot_stimuli\\\\filler.mp4', 'robot_stimuli\\\\filler.mp4']",robot_stimuli\\filler.mp4,13,,,,,,,,,,,,,0,44,44,44,,,,,,,,,,,,,,,,,,1387.968324800022,,,1398.4891018997878,1398.4891018997878,1398.4891018997878,4,1.6882871999405324,1400.2425056998618,1403.74940409977,1400.2425056998618,1403.74940409977,1400.2425056998618,1403.74940409977,1400.2425056998618,1403.74940409977,10.555555555555554,2.2477452997118235,space,,,,1390.0225308001973,3.439526899717748,,,,,,,1387.968324800022,1387.968324800022,None,,,1387.968324800022,1387.968324800022,1396.4684860999696,1398.4891018997878,13,001,2024-09-06_11h17.10.351,robot_cogshifting_sign,2022.2.5,59.85790936954056,
"['blue_left_D_0', 'blue_bottom_K_45', 'red_left_K_45', 'blue_left_B_45']","{'color': 'red_left_K_45', 'position': 'blue_bottom_K_45', 'orientation': 'blue_left_D_0'}",position,"['color', 'position']",blue_bottom_K_45,1,2,letter,2,True,False,"['robot_stimuli\\\\filler.mp4', 'robot_stimuli\\\\filler.mp4', 'robot_stimuli\\\\filler.mp4', 'robot_stimuli\\\\filler.mp4']",robot_stimuli\\filler.mp4,13,,,,,,,,,,,,,0,45,45,45,,,,,,,,,,,,,,,,,,1408.1413973998278,,,1418.6620901999995,1418.6620901999995,1418.6620901999995,2,1.1791395000182092,1419.864417700097,1419.864417700097,1419.864417700097,1419.864417700097,1419.864417700097,1419.864417700097,1419.864417700097,1419.864417700097,None,None,None,,,,,,,,,,,,1403.74940409977,1403.74940409977,space,4.3717558002099395,,,,1416.6415099999867,1418.6620901999995,13,001,2024-09-06_11h17.10.351,robot_cogshifting_sign,2022.2.5,59.85790936954056,
"['blue_right_F_45', 'blue_left_H_45', 'red_right_K_45', 'blue_right_H_0']","{'color': 'red_right_K_45', 'position': 'blue_left_H_45', 'orientation': 'blue_right_H_0'}",position,"['color', 'position']",blue_left_H_45,1,2,letter,2,False,False,"['robot_stimuli\\\\filler.mp4', 'robot_stimuli\\\\filler.mp4', 'robot_stimuli\\\\filler.mp4', 'robot_stimuli\\\\filler.mp4']",robot_stimuli\\filler.mp4,13,,,,,,,,,,,,,0,46,46,46,,,,,,,,,,,,,,,,,,1419.864417700097,,,1430.4018803997897,1430.4018803997897,1430.4018803997897,2,1.2001402997411788,1431.620932799764,1431.620932799764,1431.620932799764,1431.620932799764,1431.620932799764,1431.620932799764,1431.620932799764,1431.620932799764,None,None,None,,,,1421.9353431998752,,,,,,,,1419.864417700097,1419.864417700097,None,,,1419.864417700097,1419.864417700097,1428.3812818001024,1430.4018803997897,13,001,2024-09-06_11h17.10.351,robot_cogshifting_sign,2022.2.5,59.85790936954056,
"['blue_left_L_45', 'blue_left_L_0', 'red_left_W_45', 'blue_bottom_M_45']","{'color': 'red_left_W_45', 'position': 'blue_bottom_M_45', 'orientation': 'blue_left_L_0'}",color,"['color', 'position']",red_left_W_45,2,2,letter,2,False,False,"['robot_stimuli\\\\filler.mp4', 'robot_stimuli\\\\filler.mp4', 'robot_stimuli\\\\filler.mp4', 'robot_stimuli\\\\filler.mp4']",robot_stimuli\\filler.mp4,13,,,,,,,,,,,,,0,47,47,47,,,,,,,,,,,,,,,,,,1431.620932799764,,,1442.3754309001379,1442.3754309001379,1442.3754309001379,3,1.3857661997899413,1443.7782052000985,1443.7782052000985,1443.7782052000985,1443.7782052000985,1443.7782052000985,1443.7782052000985,1443.7782052000985,1443.7782052000985,None,None,None,,,,1433.6916888998821,,,,,,,,1431.620932799764,1431.620932799764,None,,,1431.620932799764,1431.620932799764,1440.3548067999072,1442.3754309001379,13,001,2024-09-06_11h17.10.351,robot_cogshifting_sign,2022.2.5,59.85790936954056,
"['red_top_S_45', 'blue_top_X_0', 'red_top_D_0', 'red_left_T_0']","{'color': 'blue_top_X_0', 'position': 'red_left_T_0', 'orientation': 'red_top_S_45'}",orientation,"['orientation', 'position']",red_top_S_45,0,2,letter,2,False,False,"['robot_stimuli\\\\filler.mp4', 'robot_stimuli\\\\filler.mp4', 'robot_stimuli\\\\filler.mp4', 'robot_stimuli\\\\filler.mp4']",robot_stimuli\\filler.mp4,13,,,,,,,,,,,,,0,48,48,48,,,,,,,,,,,,,,,,,,1443.7782052000985,,,1454.5160206998698,1454.5160206998698,1454.5160206998698,1,1.918668800033629,1456.4531331998296,1456.4531331998296,1456.4531331998296,1456.4531331998296,1456.4531331998296,1456.4531331998296,1456.4531331998296,1456.4531331998296,None,None,None,,,,1445.8489824999124,,,,,,,,1443.7782052000985,1443.7782052000985,None,,,1443.7782052000985,1443.7782052000985,1452.4954177998006,1454.5160206998698,13,001,2024-09-06_11h17.10.351,robot_cogshifting_sign,2022.2.5,59.85790936954056,
"['red_left_S_0', 'red_left_X_45', 'blue_left_B_45', 'red_top_X_45']","{'color': 'blue_left_B_45', 'position': 'red_top_X_45', 'orientation': 'red_left_S_0'}",position,"['color', 'position']",red_top_X_45,3,2,letter,2,False,False,"['robot_stimuli\\\\filler.mp4', 'robot_stimuli\\\\filler.mp4', 'robot_stimuli\\\\filler.mp4', 'robot_stimuli\\\\filler.mp4']",robot_stimuli\\filler.mp4,13,,,,,,,,,,,,,0,49,49,49,,,,,,,,,,,,,,,,,,1456.4531331998296,,,1467.3746539000422,1467.3746539000422,1467.3746539000422,4,1.3634505001828074,1468.7607065998018,1468.7607065998018,1468.7607065998018,1468.7607065998018,1468.7607065998018,1468.7607065998018,1468.7607065998018,1468.7607065998018,None,None,None,,,,1458.5239594001323,,,,,,,,1456.4531331998296,1456.4531331998296,None,,,1456.4531331998296,1456.4531331998296,1465.3542792000808,1467.3746539000422,13,001,2024-09-06_11h17.10.351,robot_cogshifting_sign,2022.2.5,59.85790936954056,
"['blue_top_R_45', 'blue_top_Z_0', 'red_top_L_0', 'blue_right_C_0']","{'color': 'red_top_L_0', 'position': 'blue_right_C_0', 'orientation': 'blue_top_R_45'}",orientation,"['orientation', 'position']",blue_top_R_45,0,2,letter,2,False,False,"['robot_stimuli\\\\filler.mp4', 'robot_stimuli\\\\filler.mp4', 'robot_stimuli\\\\filler.mp4', 'robot_stimuli\\\\filler.mp4']",robot_stimuli\\filler.mp4,13,,,,,,,,,,,,,0,50,50,50,,,,,,,,,,,,,,,,,,1468.7607065998018,,,1479.4984997999854,1479.4984997999854,1479.4984997999854,1,0.8873032997362316,1480.4170063999481,1480.4170063999481,1480.4170063999481,1480.4170063999481,1480.4170063999481,1480.4170063999481,1480.4170063999481,1480.4170063999481,None,None,None,,,,1470.8147514997981,,,,,,,,1468.7607065998018,1468.7607065998018,None,,,1468.7607065998018,1468.7607065998018,1477.2775019002147,1479.4984997999854,13,001,2024-09-06_11h17.10.351,robot_cogshifting_sign,2022.2.5,59.85790936954056,
"['red_bottom_D_0', 'blue_left_C_0', 'red_left_G_45', 'red_left_P_0']","{'color': 'blue_left_C_0', 'position': 'red_bottom_D_0', 'orientation': 'red_left_G_45'}",orientation,"['color', 'orientation']",red_left_G_45,2,2,letter,2,False,False,"['robot_stimuli\\\\filler.mp4', 'robot_stimuli\\\\filler.mp4', 'robot_stimuli\\\\filler.mp4', 'robot_stimuli\\\\filler.mp4']",robot_stimuli\\filler.mp4,13,,,,,,,,,,,,,0,51,51,51,,,,,,,,,,,,,,,,,,1480.4170063999481,,,1491.3551977002062,1491.3551977002062,1491.3551977002062,3,5.55849440023303,1496.9328255001456,1496.9328255001456,1496.9328255001456,1496.9328255001456,1496.9328255001456,1496.9328255001456,1496.9328255001456,1496.9328255001456,None,None,None,,,,1482.4879968999885,,,,,,,,1480.4170063999481,1480.4170063999481,None,,,1480.4170063999481,1480.4170063999481,1489.3345896000974,1491.3551977002062,13,001,2024-09-06_11h17.10.351,robot_cogshifting_sign,2022.2.5,59.85790936954056,
"['blue_bottom_T_0', 'blue_bottom_G_45', 'red_bottom_X_0', 'blue_left_F_0']","{'color': 'red_bottom_X_0', 'position': 'blue_left_F_0', 'orientation': 'blue_bottom_G_45'}",color,"['color', 'position']",red_bottom_X_0,2,2,letter,2,False,False,"['robot_stimuli\\\\filler.mp4', 'robot_stimuli\\\\filler.mp4', 'robot_stimuli\\\\filler.mp4', 'robot_stimuli\\\\filler.mp4']",robot_stimuli\\filler.mp4,13,,,,,,,,,,,,,0,52,52,52,,,,,,,,,,,,,,,,,,1496.9328255001456,,,1507.6706225001253,1507.6706225001253,1507.6706225001253,3,1.5709584997966886,1509.2737867999822,1509.2737867999822,1509.2737867999822,1509.2737867999822,1509.2737867999822,1509.2737867999822,1509.2737867999822,1509.2737867999822,None,None,None,,,,1499.003644300159,,,,,,,,1496.9328255001456,1496.9328255001456,None,,,1496.9328255001456,1496.9328255001456,1505.633389200084,1507.6706225001253,13,001,2024-09-06_11h17.10.351,robot_cogshifting_sign,2022.2.5,59.85790936954056,
"['red_left_G_45', 'blue_top_J_45', 'red_top_L_0', 'red_top_W_45']","{'color': 'blue_top_J_45', 'position': 'red_left_G_45', 'orientation': 'red_top_L_0'}",color,"['color', 'position']",blue_top_J_45,1,2,letter,2,False,True,"['robot_stimuli\\\\filler.mp4', 'robot_stimuli\\\\filler.mp4', 'robot_stimuli\\\\filler.mp4', 'robot_stimuli\\\\filler.mp4']",robot_stimuli\\filler.mp4,13,,,,,,,,,,,,,0,53,53,53,,,,,,,,,,,,,,,,,,1509.2737867999822,,,1520.2286979001947,1520.2286979001947,1520.2286979001947,2,1.8526168996468186,1522.1324419002049,1525.55584549997,1522.1324419002049,1525.55584549997,1522.1324419002049,1525.55584549997,1522.1324419002049,1525.55584549997,36.42857142857143,2.0978498002514243,space,,,,1511.3445648998022,3.3577246996574104,,,,,,,1509.2737867999822,1509.2737867999822,None,,,1509.2737867999822,1509.2737867999822,1518.0077367001213,1520.2286979001947,13,001,2024-09-06_11h17.10.351,robot_cogshifting_sign,2022.2.5,59.85790936954056,
"['R_Head_Y_Back', 'L_Torso_Y_Back', 'L_Head_Z_Back', 'L_Head_Y_Back']","{'laterality': 'R_Head_Y_Back', 'localisation': 'L_Torso_Y_Back', 'movement': 'L_Head_Z_Back'}",laterality,['laterality'],R_Head_Y_Back,0,1,robot,3,True,False,"['robot_stimuli\\R_Head_Y_Back.mp4', 'robot_stimuli\\L_Torso_Y_Back.mp4', 'robot_stimuli\\L_Head_Z_Back.mp4', 'robot_stimuli\\L_Head_Y_Back.mp4']",robot_stimuli\R_Head_Y_Back.mp4,13,,,,,,,,,,,,,0,54,54,54,,,,,,,,,,,,,,,,,,1529.513627700042,,,1546.2966828001663,1546.2966828001663,1546.2966828001663,1,0.6246698000468314,1546.9479522998445,1546.9479522998445,1546.9479522998445,1546.9479522998445,1546.9479522998445,1546.9479522998445,1546.9479522998445,1546.9479522998445,None,None,None,,,,,,,,,,,,1525.55584549997,1525.55584549997,space,3.933722499758005,1542.639526200015,,,,,13,001,2024-09-06_11h17.10.351,robot_cogshifting_sign,2022.2.5,59.85790936954056,
"['R_Arm_Y_For', 'R_Head_Y_For', 'L_Arm_Y_For', 'R_Arm_Z_Back']","{'laterality': 'L_Arm_Y_For', 'localisation': 'R_Head_Y_For', 'movement': 'R_Arm_Z_Back'}",movement,['movement'],R_Arm_Z_Back,3,1,robot,3,False,False,"['robot_stimuli\\R_Arm_Y_For.mp4', 'robot_stimuli\\R_Head_Y_For.mp4', 'robot_stimuli\\L_Arm_Y_For.mp4', 'robot_stimuli\\R_Arm_Z_Back.mp4']",robot_stimuli\R_Arm_Z_Back.mp4,13,,,,,,,,,,,,,0,55,55,55,,,,,,,,,,,,,,,,,,1546.9479522998445,,,1563.7143135000952,1563.7143135000952,1563.7143135000952,4,2.4316682000644505,1566.169156299904,1566.169156299904,1566.169156299904,1566.169156299904,1566.169156299904,1566.169156299904,1566.169156299904,1566.169156299904,None,None,None,,,,1549.0354300001636,,,,,,,,1546.9479522998445,1546.9479522998445,None,,1560.0570732001215,1546.9479522998445,1546.9479522998445,,,13,001,2024-09-06_11h17.10.351,robot_cogshifting_sign,2022.2.5,59.85790936954056,
"['R_Head_X_For', 'L_Head_X_Back', 'L_Head_Y_Back', 'L_Torso_X_Back']","{'laterality': 'R_Head_X_For', 'localisation': 'L_Torso_X_Back', 'movement': 'L_Head_Y_Back'}",localisation,['localisation'],L_Torso_X_Back,3,1,robot,3,False,False,"['robot_stimuli\\R_Head_X_For.mp4', 'robot_stimuli\\L_Head_X_Back.mp4', 'robot_stimuli\\L_Head_Y_Back.mp4', 'robot_stimuli\\L_Torso_X_Back.mp4']",robot_stimuli\L_Torso_X_Back.mp4,13,,,,,,,,,,,,,0,56,56,56,,,,,,,,,,,,,,,,,,1566.169156299904,,,1583.0523696998134,1583.0523696998134,1583.0523696998134,4,0.5731013999320567,1583.6535550998524,1583.6535550998524,1583.6535550998524,1583.6535550998524,1583.6535550998524,1583.6535550998524,1583.6535550998524,1583.6535550998524,None,None,None,,,,1568.2566006002016,,,,,,,,1566.169156299904,1566.169156299904,None,,1579.411911000032,1566.169156299904,1566.169156299904,,,13,001,2024-09-06_11h17.10.351,robot_cogshifting_sign,2022.2.5,59.85790936954056,
"['L_Torso_Y_For', 'L_Arm_X_Back', 'R_Torso_X_Back', 'L_Torso_X_Back']","{'laterality': 'R_Torso_X_Back', 'localisation': 'L_Arm_X_Back', 'movement': 'L_Torso_Y_For'}",laterality,['laterality'],R_Torso_X_Back,2,1,robot,3,False,False,"['robot_stimuli\\L_Torso_Y_For.mp4', 'robot_stimuli\\L_Arm_X_Back.mp4', 'robot_stimuli\\R_Torso_X_Back.mp4', 'robot_stimuli\\L_Torso_X_Back.mp4']",robot_stimuli\R_Torso_X_Back.mp4,13,,,,,,,,,,,,,0,57,57,57,,,,,,,,,,,,,,,,,,1583.6535550998524,,,1600.5701660998166,1600.5701660998166,1600.5701660998166,3,0.3433934999629855,1600.9375724000856,1600.9375724000856,1600.9375724000856,1600.9375724000856,1600.9375724000856,1600.9375724000856,1600.9375724000856,1600.9375724000856,None,None,None,,,,1585.7577256998047,,,,,,,,1583.6535550998524,1583.6535550998524,None,,1596.9130126000382,1583.6535550998524,1583.6535550998524,,,13,001,2024-09-06_11h17.10.351,robot_cogshifting_sign,2022.2.5,59.85790936954056,
"['L_Torso_Z_Back', 'L_Torso_X_For', 'L_Arm_Z_Back', 'R_Torso_Z_For']","{'laterality': 'R_Torso_Z_For', 'localisation': 'L_Arm_Z_Back', 'movement': 'L_Torso_X_For'}",movement,['movement'],L_Torso_X_For,1,1,robot,3,False,False,"['robot_stimuli\\L_Torso_Z_Back.mp4', 'robot_stimuli\\L_Torso_X_For.mp4', 'robot_stimuli\\L_Arm_Z_Back.mp4', 'robot_stimuli\\R_Torso_Z_For.mp4']",robot_stimuli\L_Torso_X_For.mp4,13,,,,,,,,,,,,,0,58,58,58,,,,,,,,,,,,,,,,,,1600.9375724000856,,,1617.7039307998493,1617.7039307998493,1617.7039307998493,4,14.36993890022859,1632.0989401000552,1632.0989401000552,1632.0989401000552,1632.0989401000552,1632.0989401000552,1632.0989401000552,1632.0989401000552,1632.0989401000552,None,None,None,,,,1603.0250547998585,,,,,,,,1600.9375724000856,1600.9375724000856,None,,1614.0634169997647,1600.9375724000856,1600.9375724000856,,,13,001,2024-09-06_11h17.10.351,robot_cogshifting_sign,2022.2.5,59.85790936954056,
"['L_Torso_X_Back', 'R_Torso_Z_Back', 'L_Torso_Z_Back', 'L_Base_Z_For']","{'laterality': 'R_Torso_Z_Back', 'localisation': 'L_Base_Z_For', 'movement': 'L_Torso_X_Back'}",localisation,['localisation'],L_Base_Z_For,3,1,robot,3,False,False,"['robot_stimuli\\L_Torso_X_Back.mp4', 'robot_stimuli\\R_Torso_Z_Back.mp4', 'robot_stimuli\\L_Torso_Z_Back.mp4', 'robot_stimuli\\L_Base_Z_For.mp4']",robot_stimuli\L_Base_Z_For.mp4,13,,,,,,,,,,,,,0,59,59,59,,,,,,,,,,,,,,,,,,1632.0989401000552,,,1648.8485590000637,1648.8485590000637,1648.8485590000637,4,2.313834400381893,1651.186495800037,1651.186495800037,1651.186495800037,1651.186495800037,1651.186495800037,1651.186495800037,1651.186495800037,1651.186495800037,None,None,None,,,,1634.186388600152,,,,,,,,1632.0989401000552,1632.0989401000552,None,,1645.2080957000144,1632.0989401000552,1632.0989401000552,,,13,001,2024-09-06_11h17.10.351,robot_cogshifting_sign,2022.2.5,59.85790936954056,
"['L_Torso_Y_For', 'R_Torso_Z_Back', 'R_Torso_Y_Back', 'R_Arm_Y_For']","{'laterality': 'L_Torso_Y_For', 'localisation': 'R_Arm_Y_For', 'movement': 'R_Torso_Z_Back'}",laterality,['laterality'],L_Torso_Y_For,0,1,robot,3,False,False,"['robot_stimuli\\L_Torso_Y_For.mp4', 'robot_stimuli\\R_Torso_Z_Back.mp4', 'robot_stimuli\\R_Torso_Y_Back.mp4', 'robot_stimuli\\R_Arm_Y_For.mp4']",robot_stimuli\L_Torso_Y_For.mp4,13,,,,,,,,,,,,,0,60,60,60,,,,,,,,,,,,,,,,,,1651.186495800037,,,1667.9695059000514,1667.9695059000514,1667.9695059000514,2,0.5515652000904083,1668.5540380999446,1668.5540380999446,1668.5540380999446,1668.5540380999446,1668.5540380999446,1668.5540380999446,1668.5540380999446,1668.5540380999446,None,None,None,,,,1653.2739713001065,,,,,,,,1651.186495800037,1651.186495800037,None,,1664.4459688002244,1651.186495800037,1651.186495800037,,,13,001,2024-09-06_11h17.10.351,robot_cogshifting_sign,2022.2.5,59.85790936954056,
"['L_Head_X_Back', 'R_Base_X_Back', 'R_Head_X_For', 'R_Head_Y_Back']","{'laterality': 'L_Head_X_Back', 'localisation': 'R_Base_X_Back', 'movement': 'R_Head_Y_Back'}",movement,['movement'],R_Head_Y_Back,3,1,robot,3,False,False,"['robot_stimuli\\L_Head_X_Back.mp4', 'robot_stimuli\\R_Base_X_Back.mp4', 'robot_stimuli\\R_Head_X_For.mp4', 'robot_stimuli\\R_Head_Y_Back.mp4']",robot_stimuli\R_Head_Y_Back.mp4,13,,,,,,,,,,,,,0,61,61,61,,,,,,,,,,,,,,,,,,1668.5540380999446,,,1685.487352500204,1685.487352500204,1685.487352500204,4,1.314230800140649,1686.8233261997811,1686.8233261997811,1686.8233261997811,1686.8233261997811,1686.8233261997811,1686.8233261997811,1686.8233261997811,1686.8233261997811,None,None,None,,,,1670.6418550000526,,,,,,,,1668.5540380999446,1668.5540380999446,None,,1681.8301650001667,1668.5540380999446,1668.5540380999446,,,13,001,2024-09-06_11h17.10.351,robot_cogshifting_sign,2022.2.5,59.85790936954056,
"['R_Head_Y_For', 'R_Base_Z_Back', 'R_Head_Z_For', 'L_Head_Z_Back']","{'laterality': 'L_Head_Z_Back', 'localisation': 'R_Base_Z_Back', 'movement': 'R_Head_Y_For'}",localisation,['localisation'],R_Base_Z_Back,1,1,robot,3,False,True,"['robot_stimuli\\R_Head_Y_For.mp4', 'robot_stimuli\\R_Base_Z_Back.mp4', 'robot_stimuli\\R_Head_Z_For.mp4', 'robot_stimuli\\L_Head_Z_Back.mp4']",robot_stimuli\R_Base_Z_Back.mp4,13,,,,,,,,,,,,,0,62,62,62,,,,,,,,,,,,,,,,,,1686.8233261997811,,,1703.6230587000027,1703.6230587000027,1703.6230587000027,1,0.5620196997188032,1704.2410209998488,1719.3039111001417,1704.2410209998488,1719.3039111001417,1704.2410209998488,1719.3039111001417,1704.2410209998488,1719.3039111001417,25.158730158730158,13.002112600021064,space,,,,1688.9107617000118,15.00079319998622,,,,,,,1686.8233261997811,1686.8233261997811,None,,1699.9658133001067,1686.8233261997811,1686.8233261997811,,,13,001,2024-09-06_11h17.10.351,robot_cogshifting_sign,2022.2.5,59.85790936954056,
"['R_Torso_X_For', 'L_Torso_X_Back', 'R_Arm_X_Back', 'R_Torso_Y_Back']","{'laterality': 'L_Torso_X_Back', 'localisation': 'R_Arm_X_Back', 'movement': 'R_Torso_Y_Back'}",localisation,"['localisation', 'movement']",R_Arm_X_Back,2,2,robot,3,True,False,"['robot_stimuli\\R_Torso_X_For.mp4', 'robot_stimuli\\L_Torso_X_Back.mp4', 'robot_stimuli\\R_Arm_X_Back.mp4', 'robot_stimuli\\R_Torso_Y_Back.mp4']",robot_stimuli\R_Arm_X_Back.mp4,13,,,,,,,,,,,,,0,63,63,63,,,,,,,,,,,,,,,,,,1723.6458081998862,,,1740.5457343999296,1740.5457343999296,1740.5457343999296,2,6.62357660010457,1747.1921712001786,1747.1921712001786,1747.1921712001786,1747.1921712001786,1747.1921712001786,1747.1921712001786,1747.1921712001786,1747.1921712001786,None,None,None,,,,,,,,,,,,1719.3039111001417,1719.3039111001417,space,4.321276300121099,1736.88856020011,,,,,13,001,2024-09-06_11h17.10.351,robot_cogshifting_sign,2022.2.5,59.85790936954056,
"['R_Head_X_Back', 'L_Arm_X_Back', 'R_Arm_X_Back', 'R_Arm_Y_Back']","{'laterality': 'L_Arm_X_Back', 'localisation': 'R_Head_X_Back', 'movement': 'R_Arm_Y_Back'}",movement,"['localisation', 'movement']",R_Arm_Y_Back,3,2,robot,3,False,False,"['robot_stimuli\\R_Head_X_Back.mp4', 'robot_stimuli\\L_Arm_X_Back.mp4', 'robot_stimuli\\R_Arm_X_Back.mp4', 'robot_stimuli\\R_Arm_Y_Back.mp4']",robot_stimuli\R_Arm_Y_Back.mp4,13,,,,,,,,,,,,,0,64,64,64,,,,,,,,,,,,,,,,,,1747.1921712001786,,,1764.092103399802,1764.092103399802,1764.092103399802,4,4.228970999829471,1768.3504646001384,1768.3504646001384,1768.3504646001384,1768.3504646001384,1768.3504646001384,1768.3504646001384,1768.3504646001384,1768.3504646001384,None,None,None,,,,1749.2796621001326,,,,,,,,1747.1921712001786,1747.1921712001786,None,,1760.451591100078,1747.1921712001786,1747.1921712001786,,,13,001,2024-09-06_11h17.10.351,robot_cogshifting_sign,2022.2.5,59.85790936954056,
"['R_Torso_Z_For', 'R_Torso_Y_Back', 'L_Torso_Y_For', 'R_Head_Y_Back']","{'laterality': 'L_Torso_Y_For', 'localisation': 'R_Head_Y_Back', 'movement': 'R_Torso_Z_For'}",laterality,"['laterality', 'movement']",L_Torso_Y_For,2,2,robot,3,False,False,"['robot_stimuli\\R_Torso_Z_For.mp4', 'robot_stimuli\\R_Torso_Y_Back.mp4', 'robot_stimuli\\L_Torso_Y_For.mp4', 'robot_stimuli\\R_Head_Y_Back.mp4']",robot_stimuli\L_Torso_Y_For.mp4,13,,,,,,,,,,,,,0,65,65,65,,,,,,,,,,,,,,,,,,1768.3504646001384,,,1785.2170377997681,1785.2170377997681,1785.2170377997681,3,2.7927549998275936,1788.0392264998518,1788.0392264998518,1788.0392264998518,1788.0392264998518,1788.0392264998518,1788.0392264998518,1788.0392264998518,1788.0392264998518,None,None,None,,,,1770.437936599832,,,,,,,,1768.3504646001384,1768.3504646001384,None,,1781.5932208998129,1768.3504646001384,1768.3504646001384,,,13,001,2024-09-06_11h17.10.351,robot_cogshifting_sign,2022.2.5,59.85790936954056,
"['R_Arm_Z_For', 'L_Base_Z_For', 'R_Base_X_For', 'R_Base_Z_Back']","{'laterality': 'L_Base_Z_For', 'localisation': 'R_Arm_Z_For', 'movement': 'R_Base_X_For'}",movement,"['localisation', 'movement']",R_Base_X_For,2,2,robot,3,False,False,"['robot_stimuli\\R_Arm_Z_For.mp4', 'robot_stimuli\\L_Base_Z_For.mp4', 'robot_stimuli\\R_Base_X_For.mp4', 'robot_stimuli\\R_Base_Z_Back.mp4']",robot_stimuli\R_Base_X_For.mp4,13,,,,,,,,,,,,,0,66,66,66,,,,,,,,,,,,,,,,,,1788.0392264998518,,,1804.738781100139,1804.738781100139,1804.738781100139,3,2.8466280000284314,1807.6110903997906,1807.6110903997906,1807.6110903997906,1807.6110903997906,1807.6110903997906,1807.6110903997906,1807.6110903997906,1807.6110903997906,None,None,None,,,,1790.126776599791,,,,,,,,1788.0392264998518,1788.0392264998518,None,,1801.1817935002036,1788.0392264998518,1788.0392264998518,,,13,001,2024-09-06_11h17.10.351,robot_cogshifting_sign,2022.2.5,59.85790936954056,
"['R_Arm_Y_For', 'R_Arm_X_Back', 'R_Torso_Y_For', 'L_Arm_Y_Back']","{'laterality': 'L_Arm_Y_Back', 'localisation': 'R_Torso_Y_For', 'movement': 'R_Arm_X_Back'}",localisation,"['laterality', 'localisation']",R_Torso_Y_For,2,2,robot,3,False,False,"['robot_stimuli\\R_Arm_Y_For.mp4', 'robot_stimuli\\R_Arm_X_Back.mp4', 'robot_stimuli\\R_Torso_Y_For.mp4', 'robot_stimuli\\L_Arm_Y_Back.mp4']",robot_stimuli\R_Torso_Y_For.mp4,13,,,,,,,,,,,,,0,67,67,67,,,,,,,,,,,,,,,,,,1807.6110903997906,,,1824.377429400105,1824.377429400105,1824.377429400105,2,4.456157699692994,1828.8529257001355,1828.8529257001355,1828.8529257001355,1828.8529257001355,1828.8529257001355,1828.8529257001355,1828.8529257001355,1828.8529257001355,None,None,None,,,,1809.6985563999042,,,,,,,,1807.6110903997906,1807.6110903997906,None,,1820.7369570001028,1807.6110903997906,1807.6110903997906,,,13,001,2024-09-06_11h17.10.351,robot_cogshifting_sign,2022.2.5,59.85790936954056,
"['L_Base_Y_Back', 'R_Base_Y_Back', 'L_Base_Z_For', 'L_Torso_Y_For']","{'laterality': 'R_Base_Y_Back', 'localisation': 'L_Torso_Y_For', 'movement': 'L_Base_Z_For'}",laterality,"['laterality', 'localisation']",R_Base_Y_Back,1,2,robot,3,False,False,"['robot_stimuli\\L_Base_Y_Back.mp4', 'robot_stimuli\\R_Base_Y_Back.mp4', 'robot_stimuli\\L_Base_Z_For.mp4', 'robot_stimuli\\L_Torso_Y_For.mp4']",robot_stimuli\R_Base_Y_Back.mp4,13,,,,,,,,,,,,,0,68,68,68,,,,,,,,,,,,,,,,,,1828.8529257001355,,,1845.6693457998335,1845.6693457998335,1845.6693457998335,2,1.8915440998971462,1847.5897888001055,1847.5897888001055,1847.5897888001055,1847.5897888001055,1847.5897888001055,1847.5897888001055,1847.5897888001055,1847.5897888001055,None,None,None,,,,1830.9570825002156,,,,,,,,1828.8529257001355,1828.8529257001355,None,,1842.028897299897,1828.8529257001355,1828.8529257001355,,,13,001,2024-09-06_11h17.10.351,robot_cogshifting_sign,2022.2.5,59.85790936954056,
"['L_Torso_Z_Back', 'R_Torso_X_For', 'L_Torso_X_Back', 'L_Head_X_For']","{'laterality': 'R_Torso_X_For', 'localisation': 'L_Head_X_For', 'movement': 'L_Torso_Z_Back'}",movement,"['laterality', 'movement']",L_Torso_Z_Back,0,2,robot,3,False,False,"['robot_stimuli\\L_Torso_Z_Back.mp4', 'robot_stimuli\\R_Torso_X_For.mp4', 'robot_stimuli\\L_Torso_X_Back.mp4', 'robot_stimuli\\L_Head_X_For.mp4']",robot_stimuli\L_Torso_Z_Back.mp4,13,,,,,,,,,,,,,0,69,69,69,,,,,,,,,,,,,,,,,,1847.5897888001055,,,1864.2726447000168,1864.2726447000168,1864.2726447000168,1,11.4968778998591,1875.795314699877,1875.795314699877,1875.795314699877,1875.795314699877,1875.795314699877,1875.795314699877,1875.795314699877,1875.795314699877,None,None,None,,,,1849.6772559997626,,,,,,,,1847.5897888001055,1847.5897888001055,None,,1860.6990025001578,1847.5897888001055,1847.5897888001055,,,13,001,2024-09-06_11h17.10.351,robot_cogshifting_sign,2022.2.5,59.85790936954056,
"['R_Torso_Z_For', 'R_Base_Y_For', 'L_Base_Z_Back', 'R_Base_Z_For']","{'laterality': 'L_Base_Z_Back', 'localisation': 'R_Torso_Z_For', 'movement': 'R_Base_Y_For'}",laterality,"['laterality', 'movement']",L_Base_Z_Back,2,2,robot,3,False,False,"['robot_stimuli\\R_Torso_Z_For.mp4', 'robot_stimuli\\R_Base_Y_For.mp4', 'robot_stimuli\\L_Base_Z_Back.mp4', 'robot_stimuli\\R_Base_Z_For.mp4']",robot_stimuli\L_Base_Z_Back.mp4,13,,,,,,,,,,,,,0,70,70,70,,,,,,,,,,,,,,,,,,1875.795314699877,,,1892.6785777001642,1892.6785777001642,1892.6785777001642,3,1.2194193000905216,1893.9310476998799,1893.9310476998799,1893.9310476998799,1893.9310476998799,1893.9310476998799,1893.9310476998799,1893.9310476998799,1893.9310476998799,None,None,None,,,,1877.882801800035,,,,,,,,1875.795314699877,1875.795314699877,None,,1889.0547588998452,1875.795314699877,1875.795314699877,,,13,001,2024-09-06_11h17.10.351,robot_cogshifting_sign,2022.2.5,59.85790936954056,
"['R_Arm_Z_Back', 'R_Base_Y_Back', 'L_Arm_Y_Back', 'R_Arm_Y_For']","{'laterality': 'L_Arm_Y_Back', 'localisation': 'R_Base_Y_Back', 'movement': 'R_Arm_Z_Back'}",localisation,"['localisation', 'movement']",R_Base_Y_Back,1,2,robot,3,False,True,"['robot_stimuli\\R_Arm_Z_Back.mp4', 'robot_stimuli\\R_Base_Y_Back.mp4', 'robot_stimuli\\L_Arm_Y_Back.mp4', 'robot_stimuli\\R_Arm_Y_For.mp4']",robot_stimuli\R_Base_Y_Back.mp4,13,,,,,,,,,,,,,0,71,71,71,,,,,,,,,,,,,,,,,,1893.9310476998799,,,1910.6973725999705,1910.6973725999705,1910.6973725999705,2,6.080298900138587,1916.8427809998393,1922.9548530997708,1916.8427809998393,1922.9548530997708,1916.8427809998393,1922.9548530997708,1916.8427809998393,1922.9548530997708,83.0952380952381,3.3501659999601543,space,,,,1896.0185051998124,6.054652899969369,,,,,,,1893.9310476998799,1893.9310476998799,None,,1907.1738201999106,1893.9310476998799,1893.9310476998799,,,13,001,2024-09-06_11h17.10.351,robot_cogshifting_sign,2022.2.5,59.85790936954056,
"['L_Torso_Y_For', 'L_Base_Y_For', 'R_Torso_Y_For', 'L_Torso_Z_For']","{'laterality': 'R_Torso_Y_For', 'localisation': 'L_Base_Y_For', 'movement': 'L_Torso_Z_For'}",laterality,"['laterality', 'localisation', 'movement']",R_Torso_Y_For,2,3,robot,3,True,False,"['robot_stimuli\\L_Torso_Y_For.mp4', 'robot_stimuli\\L_Base_Y_For.mp4', 'robot_stimuli\\R_Torso_Y_For.mp4', 'robot_stimuli\\L_Torso_Z_For.mp4']",robot_stimuli\R_Torso_Y_For.mp4,13,,,,,,,,,,,,,0,72,72,72,,,,,,,,,,,,,,,,,,1925.2760759000666,,,1942.0591155001894,1942.0591155001894,1942.0591155001894,3,4.782222399953753,1946.868574900087,1946.868574900087,1946.868574900087,1946.868574900087,1946.868574900087,1946.868574900087,1946.868574900087,1946.868574900087,None,None,None,,,,,,,,,,,,1922.9548530997708,1922.9548530997708,space,2.303269200026989,1938.418625799939,,,,,13,001,2024-09-06_11h17.10.351,robot_cogshifting_sign,2022.2.5,59.85790936954056,
"['L_Arm_Y_Back', 'L_Arm_X_Back', 'L_Base_X_For', 'R_Arm_X_Back']","{'laterality': 'R_Arm_X_Back', 'localisation': 'L_Base_X_For', 'movement': 'L_Arm_Y_Back'}",laterality,"['laterality', 'localisation', 'movement']",R_Arm_X_Back,3,3,robot,3,False,False,"['robot_stimuli\\L_Arm_Y_Back.mp4', 'robot_stimuli\\L_Arm_X_Back.mp4', 'robot_stimuli\\L_Base_X_For.mp4', 'robot_stimuli\\R_Arm_X_Back.mp4']",robot_stimuli\R_Arm_X_Back.mp4,13,,,,,,,,,,,,,0,73,73,73,,,,,,,,,,,,,,,,,,1946.868574900087,,,1963.7017231998034,1963.7017231998034,1963.7017231998034,4,3.5236043999902904,1967.242024899926,1967.242024899926,1967.242024899926,1967.242024899926,1967.242024899926,1967.242024899926,1967.242024899926,1967.242024899926,None,None,None,,,,1948.9560969001614,,,,,,,,1946.868574900087,1946.868574900087,None,,1960.0444895001128,1946.868574900087,1946.868574900087,,,13,001,2024-09-06_11h17.10.351,robot_cogshifting_sign,2022.2.5,59.85790936954056,
"['R_Base_Y_For', 'R_Head_Y_For', 'L_Base_Y_For', 'R_Base_X_For']","{'laterality': 'L_Base_Y_For', 'localisation': 'R_Head_Y_For', 'movement': 'R_Base_X_For'}",laterality,"['laterality', 'localisation', 'movement']",L_Base_Y_For,2,3,robot,3,False,False,"['robot_stimuli\\R_Base_Y_For.mp4', 'robot_stimuli\\R_Head_Y_For.mp4', 'robot_stimuli\\L_Base_Y_For.mp4', 'robot_stimuli\\R_Base_X_For.mp4']",robot_stimuli\L_Base_Y_For.mp4,13,,,,,,,,,,,,,0,74,74,74,,,,,,,,,,,,,,,,,,1967.242024899926,,,1983.9581996002235,1983.9581996002235,1983.9581996002235,3,3.396442999597639,1987.3816917999648,1987.3816917999648,1987.3816917999648,1987.3816917999648,1987.3816917999648,1987.3816917999648,1987.3816917999648,1987.3816917999648,None,None,None,,,,1969.3294763001613,,,,,,,,1967.242024899926,1967.242024899926,None,,1980.4179704999551,1967.242024899926,1967.242024899926,,,13,001,2024-09-06_11h17.10.351,robot_cogshifting_sign,2022.2.5,59.85790936954056,
"['L_Torso_Y_For', 'L_Arm_Y_For', 'R_Arm_Y_For', 'L_Arm_Z_For']","{'laterality': 'R_Arm_Y_For', 'localisation': 'L_Torso_Y_For', 'movement': 'L_Arm_Z_For'}",localisation,"['laterality', 'localisation', 'movement']",L_Torso_Y_For,0,3,robot,3,False,False,"['robot_stimuli\\L_Torso_Y_For.mp4', 'robot_stimuli\\L_Arm_Y_For.mp4', 'robot_stimuli\\R_Arm_Y_For.mp4', 'robot_stimuli\\L_Arm_Z_For.mp4']",robot_stimuli\L_Torso_Y_For.mp4,13,,,,,,,,,,,,,0,75,75,75,,,,,,,,,,,,,,,,,,1987.3816917999648,,,2004.1479790001176,2004.1479790001176,2004.1479790001176,2,2.3255425998941064,2006.5026087998413,2006.5026087998413,2006.5026087998413,2006.5026087998413,2006.5026087998413,2006.5026087998413,2006.5026087998413,2006.5026087998413,None,None,None,,,,1989.4691360997967,,,,,,,,1987.3816917999648,1987.3816917999648,None,,2000.5075276000425,1987.3816917999648,1987.3816917999648,,,13,001,2024-09-06_11h17.10.351,robot_cogshifting_sign,2022.2.5,59.85790936954056,
"['R_Torso_Z_Back', 'R_Torso_X_For', 'L_Torso_X_Back', 'R_Head_X_Back']","{'laterality': 'L_Torso_X_Back', 'localisation': 'R_Head_X_Back', 'movement': 'R_Torso_Z_Back'}",movement,"['laterality', 'localisation', 'movement']",R_Torso_Z_Back,0,3,robot,3,False,False,"['robot_stimuli\\R_Torso_Z_Back.mp4', 'robot_stimuli\\R_Torso_X_For.mp4', 'robot_stimuli\\L_Torso_X_Back.mp4', 'robot_stimuli\\R_Head_X_Back.mp4']",robot_stimuli\R_Torso_Z_Back.mp4,13,,,,,,,,,,,,,0,76,76,76,,,,,,,,,,,,,,,,,,2006.5026087998413,,,2023.3858512002043,2023.3858512002043,2023.3858512002043,1,4.798785800114274,2028.212063900195,2028.212063900195,2028.212063900195,2028.212063900195,2028.212063900195,2028.212063900195,2028.212063900195,2028.212063900195,None,None,None,,,,2008.590102800168,,,,,,,,2006.5026087998413,2006.5026087998413,None,,2019.745379100088,2006.5026087998413,2006.5026087998413,,,13,001,2024-09-06_11h17.10.351,robot_cogshifting_sign,2022.2.5,59.85790936954056,
"['R_Torso_Y_For', 'L_Torso_Y_For', 'L_Head_Y_Back', 'L_Torso_Z_For']","{'laterality': 'R_Torso_Y_For', 'localisation': 'L_Head_Y_Back', 'movement': 'L_Torso_Z_For'}",localisation,"['laterality', 'localisation', 'movement']",L_Head_Y_Back,2,3,robot,3,False,False,"['robot_stimuli\\R_Torso_Y_For.mp4', 'robot_stimuli\\L_Torso_Y_For.mp4', 'robot_stimuli\\L_Head_Y_Back.mp4', 'robot_stimuli\\L_Torso_Z_For.mp4']",robot_stimuli\L_Head_Y_Back.mp4,13,,,,,,,,,,,,,0,77,77,77,,,,,,,,,,,,,,,,,,2028.212063900195,,,2045.0952582000755,2045.0952582000755,2045.0952582000755,2,4.60252710012719,2049.7210499001667,2049.7210499001667,2049.7210499001667,2049.7210499001667,2049.7210499001667,2049.7210499001667,2049.7210499001667,2049.7210499001667,None,None,None,,,,2030.2995027001016,,,,,,,,2028.212063900195,2028.212063900195,None,,2041.4547787997872,2028.212063900195,2028.212063900195,,,13,001,2024-09-06_11h17.10.351,robot_cogshifting_sign,2022.2.5,59.85790936954056,
"['R_Base_X_For', 'R_Head_Z_Back', 'R_Base_Z_Back', 'L_Base_Z_For']","{'laterality': 'L_Base_Z_For', 'localisation': 'R_Head_Z_Back', 'movement': 'R_Base_X_For'}",movement,"['laterality', 'localisation', 'movement']",R_Base_X_For,0,3,robot,3,False,False,"['robot_stimuli\\R_Base_X_For.mp4', 'robot_stimuli\\R_Head_Z_Back.mp4', 'robot_stimuli\\R_Base_Z_Back.mp4', 'robot_stimuli\\L_Base_Z_For.mp4']",robot_stimuli\R_Base_X_For.mp4,13,,,,,,,,,,,,,0,78,78,78,,,,,,,,,,,,,,,,,,2049.7210499001667,,,2066.420564699918,2066.420564699918,2066.420564699918,3,5.052335099782795,2071.4972635000013,2071.4972635000013,2071.4972635000013,2071.4972635000013,2071.4972635000013,2071.4972635000013,2071.4972635000013,2071.4972635000013,None,None,None,,,,2051.8085241997615,,,,,,,,2049.7210499001667,2049.7210499001667,None,,2062.763391800225,2049.7210499001667,2049.7210499001667,,,13,001,2024-09-06_11h17.10.351,robot_cogshifting_sign,2022.2.5,59.85790936954056,
"['L_Head_X_For', 'R_Head_Z_For', 'L_Head_Z_Back', 'L_Torso_Z_For']","{'laterality': 'R_Head_Z_For', 'localisation': 'L_Torso_Z_For', 'movement': 'L_Head_X_For'}",movement,"['laterality', 'localisation', 'movement']",L_Head_X_For,0,3,robot,3,False,False,"['robot_stimuli\\L_Head_X_For.mp4', 'robot_stimuli\\R_Head_Z_For.mp4', 'robot_stimuli\\L_Head_Z_Back.mp4', 'robot_stimuli\\L_Torso_Z_For.mp4']",robot_stimuli\L_Head_X_For.mp4,13,,,,,,,,,,,,,0,79,79,79,,,,,,,,,,,,,,,,,,2071.4972635000013,,,2088.3136391001754,2088.3136391001754,2088.3136391001754,3,4.76046899985522,2093.1064483998343,2093.1064483998343,2093.1064483998343,2093.1064483998343,2093.1064483998343,2093.1064483998343,2093.1064483998343,2093.1064483998343,None,None,None,,,,2073.5846871999092,,,,,,,,2071.4972635000013,2071.4972635000013,None,,2084.6732009998523,2071.4972635000013,2071.4972635000013,,,13,001,2024-09-06_11h17.10.351,robot_cogshifting_sign,2022.2.5,59.85790936954056,
"['R_Head_Z_Back', 'L_Head_X_For', 'L_Head_Z_For', 'L_Torso_Z_Back']","{'laterality': 'R_Head_Z_Back', 'localisation': 'L_Torso_Z_Back', 'movement': 'L_Head_X_For'}",localisation,"['laterality', 'localisation', 'movement']",L_Torso_Z_Back,3,3,robot,3,False,True,"['robot_stimuli\\R_Head_Z_Back.mp4', 'robot_stimuli\\L_Head_X_For.mp4', 'robot_stimuli\\L_Head_Z_For.mp4', 'robot_stimuli\\L_Torso_Z_Back.mp4']",robot_stimuli\L_Torso_Z_Back.mp4,13,,,,,,,,,,,,,0,80,80,80,,,,,,,,,,,,,,,,,,2093.1064483998343,,,2109.789295000024,2109.789295000024,2109.789295000024,4,1.9558106996119022,2111.809965299908,2115.9347250000574,2111.809965299908,2115.9347250000574,2111.809965299908,2115.9347250000574,2111.809965299908,2115.9347250000574,60.87301587301587,2.6993805998936296,space,,,,2095.19395230012,4.047061299905181,,,,,,,2093.1064483998343,2093.1064483998343,None,,2106.2824380001985,2093.1064483998343,2093.1064483998343,,,13,001,2024-09-06_11h17.10.351,robot_cogshifting_sign,2022.2.5,59.85790936954056,
"['blue_bottom_S_45', 'red_bottom_L_0', 'blue_top_R_0', 'blue_bottom_V_0']","{'color': 'red_bottom_L_0', 'position': 'blue_top_R_0', 'orientation': 'blue_bottom_S_45'}",color,"['color', 'orientation', 'position']",red_bottom_L_0,1,3,letter,4,True,False,"['robot_stimuli\\\\filler.mp4', 'robot_stimuli\\\\filler.mp4', 'robot_stimuli\\\\filler.mp4', 'robot_stimuli\\\\filler.mp4']",robot_stimuli\\filler.mp4,13,,,,,,,,,,,,,0,81,81,81,,,,,,,,,,,,,,,,,,2121.946569299791,,,2132.901457299944,2132.901457299944,2132.901457299944,2,2.5798614001832902,2135.506576600019,2135.506576600019,2135.506576600019,2135.506576600019,2135.506576600019,2135.506576600019,2135.506576600019,2135.506576600019,None,None,None,,,,,,,,,,,,2115.9347250000574,2115.9347250000574,space,5.994094899855554,,,,2130.680420000106,2132.901457299944,13,001,2024-09-06_11h17.10.351,robot_cogshifting_sign,2022.2.5,59.85790936954056,
"['blue_top_S_0', 'red_left_F_0', 'red_top_B_0', 'red_top_Z_45']","{'color': 'blue_top_S_0', 'position': 'red_left_F_0', 'orientation': 'red_top_Z_45'}",orientation,"['color', 'orientation', 'position']",red_top_Z_45,3,3,letter,4,False,False,"['robot_stimuli\\\\filler.mp4', 'robot_stimuli\\\\filler.mp4', 'robot_stimuli\\\\filler.mp4', 'robot_stimuli\\\\filler.mp4']",robot_stimuli\\filler.mp4,13,,,,,,,,,,,,,0,82,82,82,,,,,,,,,,,,,,,,,,2135.506576600019,,,2146.444772799965,2146.444772799965,2146.444772799965,4,1.9003961998969316,2148.36524059996,2148.36524059996,2148.36524059996,2148.36524059996,2148.36524059996,2148.36524059996,2148.36524059996,2148.36524059996,None,None,None,,,,2137.5774451000616,,,,,,,,2135.506576600019,2135.506576600019,None,,,2135.506576600019,2135.506576600019,2144.4241896998137,2146.444772799965,13,001,2024-09-06_11h17.10.351,robot_cogshifting_sign,2022.2.5,59.85790936954056,
"['blue_left_W_45', 'blue_top_D_45', 'blue_top_Z_0', 'red_top_V_45']","{'color': 'red_top_V_45', 'position': 'blue_left_W_45', 'orientation': 'blue_top_Z_0'}",orientation,"['color', 'orientation', 'position']",blue_top_Z_0,2,3,letter,4,False,False,"['robot_stimuli\\\\filler.mp4', 'robot_stimuli\\\\filler.mp4', 'robot_stimuli\\\\filler.mp4', 'robot_stimuli\\\\filler.mp4']",robot_stimuli\\filler.mp4,13,,,,,,,,,,,,,0,83,83,83,,,,,,,,,,,,,,,,,,2148.36524059996,,,2159.3034358001314,2159.3034358001314,2159.3034358001314,3,3.569729400333017,2162.893819599878,2162.893819599878,2162.893819599878,2162.893819599878,2162.893819599878,2162.893819599878,2162.893819599878,2162.893819599878,None,None,None,,,,2150.436053799931,,,,,,,,2148.36524059996,2148.36524059996,None,,,2148.36524059996,2148.36524059996,2157.099120600149,2159.3034358001314,13,001,2024-09-06_11h17.10.351,robot_cogshifting_sign,2022.2.5,59.85790936954056,
"['blue_bottom_B_45', 'red_bottom_Q_45', 'blue_right_R_45', 'blue_bottom_G_0']","{'color': 'red_bottom_Q_45', 'position': 'blue_right_R_45', 'orientation': 'blue_bottom_G_0'}",color,"['color', 'orientation', 'position']",red_bottom_Q_45,1,3,letter,4,False,False,"['robot_stimuli\\\\filler.mp4', 'robot_stimuli\\\\filler.mp4', 'robot_stimuli\\\\filler.mp4', 'robot_stimuli\\\\filler.mp4']",robot_stimuli\\filler.mp4,13,,,,,,,,,,,,,0,84,84,84,,,,,,,,,,,,,,,,,,2162.893819599878,,,2173.41453379998,2173.41453379998,2173.41453379998,2,2.434724999591708,2175.869407400023,2175.869407400023,2175.869407400023,2175.869407400023,2175.869407400023,2175.869407400023,2175.869407400023,2175.869407400023,None,None,None,,,,2164.9480790998787,,,,,,,,2162.893819599878,2162.893819599878,None,,,2162.893819599878,2162.893819599878,2171.3939962000586,2173.41453379998,13,001,2024-09-06_11h17.10.351,robot_cogshifting_sign,2022.2.5,59.85790936954056,
"['blue_right_W_45', 'red_top_Q_45', 'blue_top_N_45', 'blue_top_Q_0']","{'color': 'red_top_Q_45', 'position': 'blue_right_W_45', 'orientation': 'blue_top_Q_0'}",position,"['color', 'orientation', 'position']",blue_right_W_45,0,3,letter,4,False,False,"['robot_stimuli\\\\filler.mp4', 'robot_stimuli\\\\filler.mp4', 'robot_stimuli\\\\filler.mp4', 'robot_stimuli\\\\filler.mp4']",robot_stimuli\\filler.mp4,13,,,,,,,,,,,,,0,85,85,85,,,,,,,,,,,,,,,,,,2175.869407400023,,,2186.6238875999115,2186.6238875999115,2186.6238875999115,1,2.3848056998103857,2189.0286055998877,2189.0286055998877,2189.0286055998877,2189.0286055998877,2189.0286055998877,2189.0286055998877,2189.0286055998877,2189.0286055998877,None,None,None,,,,2177.9402447999455,,,,,,,,2175.869407400023,2175.869407400023,None,,,2175.869407400023,2175.869407400023,2184.402958800085,2186.6238875999115,13,001,2024-09-06_11h17.10.351,robot_cogshifting_sign,2022.2.5,59.85790936954056,
