sequence,odd_ones,parameter,choices,target,target_idx,condition,stimuli,block,is_block_beginning,is_block_ending,sequence_fnames,target_fname,subject,retraining.thisRepN,retraining.thisTrialN,retraining.thisN,retraining.thisIndex,training.thisRepN,training.thisTrialN,training.thisN,training.thisIndex,training_sequence_loop.thisRepN,training_sequence_loop.thisTrialN,training_sequence_loop.thisN,training_sequence_loop.thisIndex,trials.thisRepN,trials.thisTrialN,trials.thisN,trials.thisIndex,sequence_loop.thisRepN,sequence_loop.thisTrialN,sequence_loop.thisN,sequence_loop.thisIndex,langage_text.started,langage_key.started,langage_key.keys,langage_key.rt,intro_text.started,intro_key.started,intro_key.keys,intro_key.rt,training_intro_text.started,training_intro_key.started,training_intro_key.keys,training_intro_key.rt,polygon.started,cue_before_text.started,training_presentation_letter.started,training_presentation_letter.stopped,recall_key.started,recall_question.started,recall_answer.started,recall_key.keys,recall_key.rt,RSME_labels.started,RSME_labels.stopped,RSME_ticks.started,RSME_ticks.stopped,RSME_text.started,RSME_text.stopped,RSME_key.started,RSME_key.stopped,RSME_ticks.response,RSME_ticks.rt,RSME_key.keys,training_intro_text.stopped,training_intro_key.stopped,polygon.stopped,cue_before_text.stopped,RSME_key.rt,training_presentation_movie.started,experiment_beginning_text.started,experiment_beginning_keys.started,experiment_beginning_key.started,experiment_beginning_key.keys,experiment_beginning_key.rt,block_intro_text.started,block_intro_key.started,block_intro_key.keys,block_intro_key.rt,presentation_movie.started,block_intro_text.stopped,block_intro_key.stopped,presentation_letter.started,presentation_letter.stopped,participant,session,date,expName,psychopyVersion,frameRate,
,,,,,,,,,,,,,,,,,,,,,,,,,,,,,,,,,,15.338535800110549,15.338535800110549,f,5.66237540030852,,,,,,,,,,,,,,,,,,,,,,,,,,,,,,,,,,,,,,,,,,,,,,,,,19,001,2024-09-17_14h10.14.048,robot_cogshifting_sign,2022.2.5,59.875363442389805,
,,,,,,,,,,,,,,,,,,,,,,,,,,,,,,,,,,,,,,21.066045199986547,21.066045199986547,space,9.887196899857372,,,,,,,,,,,,,,,,,,,,,,,,,,,,,,,,,,,,,,,,,,,,,19,001,2024-09-17_14h10.14.048,robot_cogshifting_sign,2022.2.5,59.875363442389805,
"['red_right_T_0', 'red_right_Z_45', 'blue_right_P_0', 'red_left_G_0']","{'color': 'blue_right_P_0', 'position': 'red_left_G_0', 'orientation': 'red_right_Z_45'}",position,['position'],red_left_G_0,3,1,letter,2,True,False,"['robot_stimuli\\\\filler.mp4', 'robot_stimuli\\\\filler.mp4', 'robot_stimuli\\\\filler.mp4', 'robot_stimuli\\\\filler.mp4']",robot_stimuli\\filler.mp4,19,0,0,0,0,0,0,0,0,,,,,,,,,,,,,,,,,,,,,31.01899450039491,31.01899450039491,space,4.438334700185806,35.47777460003272,36.47980020008981,47.334461100399494,49.37172140041366,49.37172140041366,49.37172140041366,49.37172140041366,4,0.7891619997099042,50.22341820038855,50.22341820038855,50.22341820038855,50.22341820038855,50.22341820038855,50.22341820038855,50.22341820038855,50.22341820038855,None,None,None,,,,,,,,,,,,,,,,,,,,,19,001,2024-09-17_14h10.14.048,robot_cogshifting_sign,2022.2.5,59.875363442389805,
"['red_bottom_Z_0', 'blue_left_P_0', 'blue_bottom_L_0', 'blue_bottom_D_45']","{'color': 'red_bottom_Z_0', 'position': 'blue_left_P_0', 'orientation': 'blue_bottom_D_45'}",orientation,['orientation'],blue_bottom_D_45,3,1,letter,2,False,False,"['robot_stimuli\\\\filler.mp4', 'robot_stimuli\\\\filler.mp4', 'robot_stimuli\\\\filler.mp4', 'robot_stimuli\\\\filler.mp4']",robot_stimuli\\filler.mp4,19,0,0,0,0,0,1,1,1,,,,,,,,,,,,,,,,,,,,,50.22341820038855,50.22341820038855,None,,50.22341820038855,51.22542560007423,59.80904070008546,62.030015600379556,62.030015600379556,62.030015600379556,62.030015600379556,4,0.482321800198406,62.5309600001201,62.5309600001201,62.5309600001201,62.5309600001201,62.5309600001201,62.5309600001201,62.5309600001201,62.5309600001201,None,None,None,50.22341820038855,50.22341820038855,51.22542560007423,53.29615720035508,,,,,,,,,,,,,,,,,19,001,2024-09-17_14h10.14.048,robot_cogshifting_sign,2022.2.5,59.875363442389805,
"['red_top_G_0', 'blue_top_Q_45', 'red_top_V_45', 'red_left_J_45']","{'color': 'blue_top_Q_45', 'position': 'red_left_J_45', 'orientation': 'red_top_G_0'}",color,['color'],blue_top_Q_45,1,1,letter,2,False,True,"['robot_stimuli\\\\filler.mp4', 'robot_stimuli\\\\filler.mp4', 'robot_stimuli\\\\filler.mp4', 'robot_stimuli\\\\filler.mp4']",robot_stimuli\\filler.mp4,19,0,0,0,0,0,2,2,2,,,,,,,,,,,,,,,,,,,,,62.5309600001201,62.5309600001201,None,,62.5309600001201,63.532958700321615,72.3002269002609,74.33749409997836,74.33749409997836,74.33749409997836,74.33749409997836,2,0.7748479000292718,75.18926260014996,86.27768090041354,75.18926260014996,86.27768090041354,75.18926260014996,86.27768090041354,75.18926260014996,86.27768090041354,24.682539682539684,9.968141800258309,space,62.5309600001201,62.5309600001201,63.532958700321615,65.60373450024053,11.027840299997479,,,,,,,,,,,,,,,,19,001,2024-09-17_14h10.14.048,robot_cogshifting_sign,2022.2.5,59.875363442389805,
"['blue_left_S_0', 'red_left_N_45', 'red_left_G_0', 'red_bottom_T_0']","{'color': 'blue_left_S_0', 'position': 'red_bottom_T_0', 'orientation': 'red_left_N_45'}",orientation,"['orientation', 'position']",red_left_N_45,1,2,letter,2,True,False,"['robot_stimuli\\\\filler.mp4', 'robot_stimuli\\\\filler.mp4', 'robot_stimuli\\\\filler.mp4', 'robot_stimuli\\\\filler.mp4']",robot_stimuli\\filler.mp4,19,0,0,0,0,0,3,3,3,,,,,,,,,,,,,,,,,,,,,86.27768090041354,86.27768090041354,space,4.730577500071377,91.03706480003893,92.03902860032395,100.8063126001507,102.84361070021987,102.84361070021987,102.84361070021987,102.84361070021987,2,2.2932955999858677,105.16485800035298,105.16485800035298,105.16485800035298,105.16485800035298,105.16485800035298,105.16485800035298,105.16485800035298,105.16485800035298,None,None,None,,,,,,,,,,,,,,,,,,,,,19,001,2024-09-17_14h10.14.048,robot_cogshifting_sign,2022.2.5,59.875363442389805,
"['red_bottom_X_45', 'red_top_R_45', 'blue_bottom_V_45', 'red_bottom_D_0']","{'color': 'blue_bottom_V_45', 'position': 'red_top_R_45', 'orientation': 'red_bottom_D_0'}",position,"['color', 'position']",red_top_R_45,1,2,letter,2,False,False,"['robot_stimuli\\\\filler.mp4', 'robot_stimuli\\\\filler.mp4', 'robot_stimuli\\\\filler.mp4', 'robot_stimuli\\\\filler.mp4']",robot_stimuli\\filler.mp4,19,0,0,0,0,0,4,4,4,,,,,,,,,,,,,,,,,,,,,105.16485800035298,105.16485800035298,None,,105.16485800035298,106.16683720005676,114.9508739002049,117.17182540008798,117.17182540008798,117.17182540008798,117.17182540008798,2,8.140590099617839,125.33789820037782,125.33789820037782,125.33789820037782,125.33789820037782,125.33789820037782,125.33789820037782,125.33789820037782,125.33789820037782,None,None,None,105.16485800035298,105.16485800035298,106.16683720005676,108.23755320021883,,,,,,,,,,,,,,,,,19,001,2024-09-17_14h10.14.048,robot_cogshifting_sign,2022.2.5,59.875363442389805,
"['red_left_J_45', 'blue_left_R_0', 'blue_right_N_45', 'blue_left_L_45']","{'color': 'red_left_J_45', 'position': 'blue_right_N_45', 'orientation': 'blue_left_R_0'}",color,"['color', 'position']",red_left_J_45,0,2,letter,2,False,True,"['robot_stimuli\\\\filler.mp4', 'robot_stimuli\\\\filler.mp4', 'robot_stimuli\\\\filler.mp4', 'robot_stimuli\\\\filler.mp4']",robot_stimuli\\filler.mp4,19,0,0,0,0,0,5,5,5,,,,,,,,,,,,,,,,,,,,,125.33789820037782,125.33789820037782,None,,125.33789820037782,126.33980680024251,134.9234921000898,137.14441890036687,137.14441890036687,137.14441890036687,137.14441890036687,1,1.4878091998398304,138.6975196003914,154.5286312000826,138.6975196003914,154.5286312000826,138.6975196003914,154.5286312000826,138.6975196003914,154.5286312000826,59.920634920634924,15.406664500012994,space,125.33789820037782,125.33789820037782,126.33980680024251,128.41060150042176,15.751345899887383,,,,,,,,,,,,,,,,19,001,2024-09-17_14h10.14.048,robot_cogshifting_sign,2022.2.5,59.875363442389805,
"['red_bottom_G_45', 'blue_bottom_N_45', 'blue_bottom_J_0', 'blue_right_P_45']","{'color': 'red_bottom_G_45', 'position': 'blue_right_P_45', 'orientation': 'blue_bottom_J_0'}",position,"['color', 'orientation', 'position']",blue_right_P_45,3,3,letter,2,True,False,"['robot_stimuli\\\\filler.mp4', 'robot_stimuli\\\\filler.mp4', 'robot_stimuli\\\\filler.mp4', 'robot_stimuli\\\\filler.mp4']",robot_stimuli\\filler.mp4,19,0,0,0,0,0,6,6,6,,,,,,,,,,,,,,,,,,,,,154.5286312000826,154.5286312000826,space,3.864770600106567,158.4196024001576,159.42156779998913,168.20558740012348,170.42658560024574,170.42658560024574,170.42658560024574,170.42658560024574,4,1.102396700065583,171.54548230022192,171.54548230022192,171.54548230022192,171.54548230022192,171.54548230022192,171.54548230022192,171.54548230022192,171.54548230022192,None,None,None,,,,,,,,,,,,,,,,,,,,,19,001,2024-09-17_14h10.14.048,robot_cogshifting_sign,2022.2.5,59.875363442389805,
"['blue_top_T_45', 'red_bottom_W_45', 'red_top_W_45', 'red_top_F_0']","{'color': 'blue_top_T_45', 'position': 'red_bottom_W_45', 'orientation': 'red_top_F_0'}",color,"['color', 'orientation', 'position']",blue_top_T_45,0,3,letter,2,False,False,"['robot_stimuli\\\\filler.mp4', 'robot_stimuli\\\\filler.mp4', 'robot_stimuli\\\\filler.mp4', 'robot_stimuli\\\\filler.mp4']",robot_stimuli\\filler.mp4,19,0,0,0,0,0,7,7,7,,,,,,,,,,,,,,,,,,,,,171.54548230022192,171.54548230022192,None,,171.54548230022192,172.54740700032562,181.08102990034968,183.3019182002172,183.3019182002172,183.3019182002172,183.3019182002172,1,2.1557072000578046,185.48955100029707,185.48955100029707,185.48955100029707,185.48955100029707,185.48955100029707,185.48955100029707,185.48955100029707,185.48955100029707,None,None,None,171.54548230022192,171.54548230022192,172.54740700032562,174.61821700027213,,,,,,,,,,,,,,,,,19,001,2024-09-17_14h10.14.048,robot_cogshifting_sign,2022.2.5,59.875363442389805,
"['blue_left_C_45', 'red_left_Z_45', 'blue_left_C_0', 'blue_top_X_45']","{'color': 'red_left_Z_45', 'position': 'blue_top_X_45', 'orientation': 'blue_left_C_0'}",orientation,"['color', 'orientation', 'position']",blue_left_C_0,2,3,letter,2,False,True,"['robot_stimuli\\\\filler.mp4', 'robot_stimuli\\\\filler.mp4', 'robot_stimuli\\\\filler.mp4', 'robot_stimuli\\\\filler.mp4']",robot_stimuli\\filler.mp4,19,0,0,0,0,0,8,8,8,,,,,,,,,,,,,,,,,,,,,185.48955100029707,185.48955100029707,None,,185.48955100029707,186.49157520011067,195.05844769999385,197.0789866000414,197.0789866000414,197.0789866000414,197.0789866000414,3,3.0896463003009558,200.21854630019516,206.38066710019484,200.21854630019516,206.38066710019484,200.21854630019516,206.38066710019484,200.21854630019516,206.38066710019484,89.92063492063492,3.715570899657905,space,185.48955100029707,185.48955100029707,186.49157520011067,188.57902680011466,6.1105400999076664,,,,,,,,,,,,,,,,19,001,2024-09-17_14h10.14.048,robot_cogshifting_sign,2022.2.5,59.875363442389805,
"['L_Torso_X_Back', 'R_Head_X_Back', 'L_Head_Y_Back', 'L_Head_X_Back']","{'laterality': 'R_Head_X_Back', 'localisation': 'L_Torso_X_Back', 'movement': 'L_Head_Y_Back'}",movement,['movement'],L_Head_Y_Back,2,1,robot,1,True,False,"['robot_stimuli\\L_Torso_X_Back.mp4', 'robot_stimuli\\R_Head_X_Back.mp4', 'robot_stimuli\\L_Head_Y_Back.mp4', 'robot_stimuli\\L_Head_X_Back.mp4']",robot_stimuli\L_Head_Y_Back.mp4,19,0,0,0,0,0,9,9,9,,,,,,,,,,,,,,,,,,,,,206.38066710019484,206.38066710019484,space,4.043498899787664,210.45533320028335,211.45731090009212,,,228.35792880039662,228.35792880039662,228.35792880039662,4,0.9229845004156232,229.3091086000204,229.3091086000204,229.3091086000204,229.3091086000204,229.3091086000204,229.3091086000204,229.3091086000204,229.3091086000204,None,None,None,,,,,,224.71675890032202,,,,,,,,,,,,,,,19,001,2024-09-17_14h10.14.048,robot_cogshifting_sign,2022.2.5,59.875363442389805,
"['R_Torso_X_For', 'R_Head_X_Back', 'L_Head_X_Back', 'R_Head_Z_Back']","{'laterality': 'L_Head_X_Back', 'localisation': 'R_Torso_X_For', 'movement': 'R_Head_Z_Back'}",laterality,['laterality'],L_Head_X_Back,2,1,robot,1,False,False,"['robot_stimuli\\R_Torso_X_For.mp4', 'robot_stimuli\\R_Head_X_Back.mp4', 'robot_stimuli\\L_Head_X_Back.mp4', 'robot_stimuli\\R_Head_Z_Back.mp4']",robot_stimuli\L_Head_X_Back.mp4,19,0,0,0,0,0,10,10,10,,,,,,,,,,,,,,,,,,,,,229.3091086000204,229.3091086000204,None,,229.3091086000204,230.31104870000854,,,247.22768900031224,247.22768900031224,247.22768900031224,3,0.6135510001331568,247.86229429999366,247.86229429999366,247.86229429999366,247.86229429999366,247.86229429999366,247.86229429999366,247.86229429999366,247.86229429999366,None,None,None,229.3091086000204,229.3091086000204,230.31104870000854,232.39853140013292,,243.58722650026903,,,,,,,,,,,,,,,19,001,2024-09-17_14h10.14.048,robot_cogshifting_sign,2022.2.5,59.875363442389805,
"['R_Arm_X_Back', 'R_Head_X_For', 'L_Arm_X_Back', 'R_Arm_Z_Back']","{'laterality': 'L_Arm_X_Back', 'localisation': 'R_Head_X_For', 'movement': 'R_Arm_Z_Back'}",localisation,['localisation'],R_Head_X_For,1,1,robot,1,False,True,"['robot_stimuli\\R_Arm_X_Back.mp4', 'robot_stimuli\\R_Head_X_For.mp4', 'robot_stimuli\\L_Arm_X_Back.mp4', 'robot_stimuli\\R_Arm_Z_Back.mp4']",robot_stimuli\R_Head_X_For.mp4,19,0,0,0,0,0,11,11,11,,,,,,,,,,,,,,,,,,,,,247.86229429999366,247.86229429999366,None,,247.86229429999366,248.86425770027563,,,265.7976373001002,265.7976373001002,265.7976373001002,2,0.29861109983175993,266.14828650001436,270.9744603000581,266.14828650001436,270.9744603000581,266.14828650001436,270.9744603000581,266.14828650001436,270.9744603000581,39.76190476190476,4.46827600011602,space,247.86229429999366,247.86229429999366,248.86425770027563,250.9684652001597,4.77205969998613,262.15708220005035,,,,,,,,,,,,,,,19,001,2024-09-17_14h10.14.048,robot_cogshifting_sign,2022.2.5,59.875363442389805,
"['R_Base_Y_For', 'L_Base_Y_Back', 'L_Torso_Y_For', 'L_Base_X_Back']","{'laterality': 'R_Base_Y_For', 'localisation': 'L_Torso_Y_For', 'movement': 'L_Base_X_Back'}",localisation,"['localisation', 'movement']",L_Torso_Y_For,2,2,robot,1,True,False,"['robot_stimuli\\R_Base_Y_For.mp4', 'robot_stimuli\\L_Base_Y_Back.mp4', 'robot_stimuli\\L_Torso_Y_For.mp4', 'robot_stimuli\\L_Base_X_Back.mp4']",robot_stimuli\L_Torso_Y_For.mp4,19,0,0,0,0,0,12,12,12,,,,,,,,,,,,,,,,,,,,,270.9744603000581,270.9744603000581,space,4.793887999840081,275.80062180012465,276.80259670037776,,,293.6023193001747,293.6023193001747,293.6023193001747,3,1.9503875002264977,295.5728430002928,295.5728430002928,295.5728430002928,295.5728430002928,295.5728430002928,295.5728430002928,295.5728430002928,295.5728430002928,None,None,None,,,,,,290.0118715004064,,,,,,,,,,,,,,,19,001,2024-09-17_14h10.14.048,robot_cogshifting_sign,2022.2.5,59.875363442389805,
"['L_Arm_X_For', 'L_Arm_Y_For', 'L_Torso_Y_For', 'R_Arm_Y_Back']","{'laterality': 'R_Arm_Y_Back', 'localisation': 'L_Torso_Y_For', 'movement': 'L_Arm_X_For'}",movement,"['laterality', 'movement']",L_Arm_X_For,0,2,robot,1,False,False,"['robot_stimuli\\L_Arm_X_For.mp4', 'robot_stimuli\\L_Arm_Y_For.mp4', 'robot_stimuli\\L_Torso_Y_For.mp4', 'robot_stimuli\\R_Arm_Y_Back.mp4']",robot_stimuli\L_Arm_X_For.mp4,19,0,0,0,0,0,13,13,13,,,,,,,,,,,,,,,,,,,,,295.5728430002928,295.5728430002928,None,,295.5728430002928,296.57483030017465,,,313.4747518002987,313.4747518002987,313.4747518002987,2,3.6695912000723183,317.1653383001685,317.1653383001685,317.1653383001685,317.1653383001685,317.1653383001685,317.1653383001685,317.1653383001685,317.1653383001685,None,None,None,295.5728430002928,295.5728430002928,296.57483030017465,298.662312600296,,309.8175847004168,,,,,,,,,,,,,,,19,001,2024-09-17_14h10.14.048,robot_cogshifting_sign,2022.2.5,59.875363442389805,
"['L_Head_X_For', 'L_Base_Z_For', 'L_Head_Z_Back', 'R_Head_Z_Back']","{'laterality': 'R_Head_Z_Back', 'localisation': 'L_Base_Z_For', 'movement': 'L_Head_X_For'}",laterality,"['laterality', 'localisation']",R_Head_Z_Back,3,2,robot,1,False,True,"['robot_stimuli\\L_Head_X_For.mp4', 'robot_stimuli\\L_Base_Z_For.mp4', 'robot_stimuli\\L_Head_Z_Back.mp4', 'robot_stimuli\\R_Head_Z_Back.mp4']",robot_stimuli\R_Head_Z_Back.mp4,19,0,0,0,0,0,14,14,14,,,,,,,,,,,,,,,,,,,,,317.1653383001685,317.1653383001685,None,,317.1653383001685,318.16732140025124,,,334.9837890001945,334.9837890001945,334.9837890001945,4,1.8169689001515508,336.8540953001939,344.3522213003598,336.8540953001939,344.3522213003598,336.8540953001939,344.3522213003598,336.8540953001939,344.3522213003598,69.92063492063492,7.340751499868929,space,317.1653383001685,317.1653383001685,318.16732140025124,320.25480450037867,7.4180008000694215,331.3432740001008,,,,,,,,,,,,,,,19,001,2024-09-17_14h10.14.048,robot_cogshifting_sign,2022.2.5,59.875363442389805,
"['L_Torso_X_For', 'L_Torso_Y_Back', 'R_Torso_Y_For', 'L_Arm_Y_For']","{'laterality': 'R_Torso_Y_For', 'localisation': 'L_Arm_Y_For', 'movement': 'L_Torso_X_For'}",localisation,"['laterality', 'localisation', 'movement']",L_Arm_Y_For,3,3,robot,1,True,False,"['robot_stimuli\\L_Torso_X_For.mp4', 'robot_stimuli\\L_Torso_Y_Back.mp4', 'robot_stimuli\\R_Torso_Y_For.mp4', 'robot_stimuli\\L_Arm_Y_For.mp4']",robot_stimuli\L_Arm_Y_For.mp4,19,0,0,0,0,0,15,15,15,,,,,,,,,,,,,,,,,,,,,344.3522213003598,344.3522213003598,space,1.015945800114423,345.38752740016207,346.38952790014446,,,363.18922780035064,363.18922780035064,363.18922780035064,4,2.603313300292939,365.81108550028875,365.81108550028875,365.81108550028875,365.81108550028875,365.81108550028875,365.81108550028875,365.81108550028875,365.81108550028875,None,None,None,,,,,,359.53208350017667,,,,,,,,,,,,,,,19,001,2024-09-17_14h10.14.048,robot_cogshifting_sign,2022.2.5,59.875363442389805,
"['R_Base_Z_For', 'R_Torso_Z_Back', 'L_Torso_Z_For', 'R_Torso_X_Back']","{'laterality': 'L_Torso_Z_For', 'localisation': 'R_Base_Z_For', 'movement': 'R_Torso_X_Back'}",movement,"['laterality', 'localisation', 'movement']",R_Torso_X_Back,3,3,robot,1,False,False,"['robot_stimuli\\R_Base_Z_For.mp4', 'robot_stimuli\\R_Torso_Z_Back.mp4', 'robot_stimuli\\L_Torso_Z_For.mp4', 'robot_stimuli\\R_Torso_X_Back.mp4']",robot_stimuli\R_Torso_X_Back.mp4,19,0,0,0,0,0,16,16,16,,,,,,,,,,,,,,,,,,,,,365.81108550028875,365.81108550028875,None,,365.81108550028875,366.81306370021775,,,383.69626350002363,383.69626350002363,383.69626350002363,1,2.928722800221294,386.65209820028394,386.65209820028394,386.65209820028394,386.65209820028394,386.65209820028394,386.65209820028394,386.65209820028394,386.65209820028394,None,None,None,365.81108550028875,365.81108550028875,366.81306370021775,368.90051890024915,,380.05581620009616,,,,,,,,,,,,,,,19,001,2024-09-17_14h10.14.048,robot_cogshifting_sign,2022.2.5,59.875363442389805,
"['R_Base_Z_For', 'R_Torso_Y_For', 'L_Torso_Z_For', 'R_Torso_Z_Back']","{'laterality': 'L_Torso_Z_For', 'localisation': 'R_Base_Z_For', 'movement': 'R_Torso_Y_For'}",laterality,"['laterality', 'localisation', 'movement']",L_Torso_Z_For,2,3,robot,1,False,True,"['robot_stimuli\\R_Base_Z_For.mp4', 'robot_stimuli\\R_Torso_Y_For.mp4', 'robot_stimuli\\L_Torso_Z_For.mp4', 'robot_stimuli\\R_Torso_Z_Back.mp4']",robot_stimuli\L_Torso_Z_For.mp4,19,0,0,0,0,0,17,17,17,,,,,,,,,,,,,,,,,,,,,386.65209820028394,386.65209820028394,None,,386.65209820028394,387.6540707000531,,,404.53731430042535,404.53731430042535,404.53731430042535,3,3.6950248000212014,408.29467760026455,411.88509050011635,408.29467760026455,411.88509050011635,408.29467760026455,411.88509050011635,408.29467760026455,411.88509050011635,100.07936507936509,3.2657214999198914,space,386.65209820028394,386.65209820028394,387.6540707000531,389.74163070041686,3.514238300267607,400.89676220016554,,,,,,,,,,,,,,,19,001,2024-09-17_14h10.14.048,robot_cogshifting_sign,2022.2.5,59.875363442389805,
,,,,,,,,,,,,,,0,0,0,0,,,,,,,,,,,,,,,,,,,,,,,,,,,,,,,,,,,,,,,,,,,,,,,,,,,,,,,411.88509050011635,411.88509050011635,411.88509050011635,c,11.63529370026663,,,,,,,,,,19,001,2024-09-17_14h10.14.048,robot_cogshifting_sign,2022.2.5,59.875363442389805,
"['L_Arm_Y_Back', 'L_Torso_Z_For', 'L_Torso_Y_Back', 'R_Torso_Y_For']","{'laterality': 'R_Torso_Y_For', 'localisation': 'L_Arm_Y_Back', 'movement': 'L_Torso_Z_For'}",localisation,"['localisation', 'movement']",L_Arm_Y_Back,0,2,robot,1,True,False,"['robot_stimuli\\L_Arm_Y_Back.mp4', 'robot_stimuli\\L_Torso_Z_For.mp4', 'robot_stimuli\\L_Torso_Y_Back.mp4', 'robot_stimuli\\R_Torso_Y_For.mp4']",robot_stimuli\L_Arm_Y_Back.mp4,19,,,,,,,,,,,,,0,0,0,0,,,,,,,,,,,,,,,,,,434.7300603003241,,,451.4796994002536,451.4796994002536,451.4796994002536,1,4.176894899923354,455.68796280026436,455.68796280026436,455.68796280026436,455.68796280026436,455.68796280026436,455.68796280026436,455.68796280026436,455.68796280026436,None,None,None,,,,,,,,,,,,423.5747580002062,423.5747580002062,space,11.12972419988364,447.83918370027095,,,,,19,001,2024-09-17_14h10.14.048,robot_cogshifting_sign,2022.2.5,59.875363442389805,
"['R_Torso_X_For', 'L_Torso_X_For', 'R_Torso_Y_For', 'R_Arm_X_Back']","{'laterality': 'L_Torso_X_For', 'localisation': 'R_Arm_X_Back', 'movement': 'R_Torso_Y_For'}",localisation,"['localisation', 'movement']",R_Arm_X_Back,3,2,robot,1,False,False,"['robot_stimuli\\R_Torso_X_For.mp4', 'robot_stimuli\\L_Torso_X_For.mp4', 'robot_stimuli\\R_Torso_Y_For.mp4', 'robot_stimuli\\R_Arm_X_Back.mp4']",robot_stimuli\R_Arm_X_Back.mp4,19,,,,,,,,,,,,,0,1,1,1,,,,,,,,,,,,,,,,,,455.68796280026436,,,472.587904300075,472.587904300075,472.587904300075,4,2.356468199752271,474.9759321999736,474.9759321999736,474.9759321999736,474.9759321999736,474.9759321999736,474.9759321999736,474.9759321999736,474.9759321999736,None,None,None,,,,457.7754375003278,,,,,,,,455.68796280026436,455.68796280026436,None,,468.9641209002584,455.68796280026436,455.68796280026436,,,19,001,2024-09-17_14h10.14.048,robot_cogshifting_sign,2022.2.5,59.875363442389805,
"['L_Torso_Z_Back', 'L_Torso_X_For', 'R_Torso_X_Back', 'L_Base_X_For']","{'laterality': 'R_Torso_X_Back', 'localisation': 'L_Base_X_For', 'movement': 'L_Torso_Z_Back'}",movement,"['localisation', 'movement']",L_Torso_Z_Back,0,2,robot,1,False,False,"['robot_stimuli\\L_Torso_Z_Back.mp4', 'robot_stimuli\\L_Torso_X_For.mp4', 'robot_stimuli\\R_Torso_X_Back.mp4', 'robot_stimuli\\L_Base_X_For.mp4']",robot_stimuli\L_Torso_Z_Back.mp4,19,,,,,,,,,,,,,0,2,2,2,,,,,,,,,,,,,,,,,,474.9759321999736,,,491.675479600206,491.675479600206,491.675479600206,1,1.6213343003764749,493.32872590003535,493.32872590003535,493.32872590003535,493.32872590003535,493.32872590003535,493.32872590003535,493.32872590003535,493.32872590003535,None,None,None,,,,477.06344110006467,,,,,,,,474.9759321999736,474.9759321999736,None,,488.1018501999788,474.9759321999736,474.9759321999736,,,19,001,2024-09-17_14h10.14.048,robot_cogshifting_sign,2022.2.5,59.875363442389805,
"['R_Arm_X_For', 'L_Arm_Z_For', 'R_Arm_Z_For', 'R_Head_Z_For']","{'laterality': 'L_Arm_Z_For', 'localisation': 'R_Head_Z_For', 'movement': 'R_Arm_X_For'}",laterality,"['laterality', 'localisation']",L_Arm_Z_For,1,2,robot,1,False,False,"['robot_stimuli\\R_Arm_X_For.mp4', 'robot_stimuli\\L_Arm_Z_For.mp4', 'robot_stimuli\\R_Arm_Z_For.mp4', 'robot_stimuli\\R_Head_Z_For.mp4']",robot_stimuli\L_Arm_Z_For.mp4,19,,,,,,,,,,,,,0,3,3,3,,,,,,,,,,,,,,,,,,493.32872590003535,,,510.2286199000664,510.2286199000664,510.2286199000664,2,2.2595819998532534,512.5164899001829,512.5164899001829,512.5164899001829,512.5164899001829,512.5164899001829,512.5164899001829,512.5164899001829,512.5164899001829,None,None,None,,,,495.4161659004167,,,,,,,,493.32872590003535,493.32872590003535,None,,506.57145370030776,493.32872590003535,493.32872590003535,,,19,001,2024-09-17_14h10.14.048,robot_cogshifting_sign,2022.2.5,59.875363442389805,
"['R_Torso_Z_For', 'L_Torso_Y_Back', 'L_Torso_Z_Back', 'L_Base_Z_For']","{'laterality': 'R_Torso_Z_For', 'localisation': 'L_Base_Z_For', 'movement': 'L_Torso_Y_Back'}",laterality,"['laterality', 'movement']",R_Torso_Z_For,0,2,robot,1,False,False,"['robot_stimuli\\R_Torso_Z_For.mp4', 'robot_stimuli\\L_Torso_Y_Back.mp4', 'robot_stimuli\\L_Torso_Z_Back.mp4', 'robot_stimuli\\L_Base_Z_For.mp4']",robot_stimuli\R_Torso_Z_For.mp4,19,,,,,,,,,,,,,0,4,4,4,,,,,,,,,,,,,,,,,,512.5164899001829,,,529.1492091002874,529.1492091002874,529.1492091002874,1,0.954759200103581,530.1345024001785,530.1345024001785,530.1345024001785,530.1345024001785,530.1345024001785,530.1345024001785,530.1345024001785,530.1345024001785,None,None,None,,,,514.6039100000635,,,,,,,,512.5164899001829,512.5164899001829,None,,525.5087375002913,512.5164899001829,512.5164899001829,,,19,001,2024-09-17_14h10.14.048,robot_cogshifting_sign,2022.2.5,59.875363442389805,
"['L_Torso_Y_For', 'L_Head_X_For', 'R_Head_Y_Back', 'L_Head_Y_Back']","{'laterality': 'R_Head_Y_Back', 'localisation': 'L_Torso_Y_For', 'movement': 'L_Head_X_For'}",movement,"['localisation', 'movement']",L_Head_X_For,1,2,robot,1,False,False,"['robot_stimuli\\L_Torso_Y_For.mp4', 'robot_stimuli\\L_Head_X_For.mp4', 'robot_stimuli\\R_Head_Y_Back.mp4', 'robot_stimuli\\L_Head_Y_Back.mp4']",robot_stimuli\L_Head_X_For.mp4,19,,,,,,,,,,,,,0,5,5,5,,,,,,,,,,,,,,,,,,530.1345024001785,,,546.967611500062,546.967611500062,546.967611500062,2,1.3693746998906136,548.3536900002509,548.3536900002509,548.3536900002509,548.3536900002509,548.3536900002509,548.3536900002509,548.3536900002509,548.3536900002509,None,None,None,,,,532.2219175002538,,,,,,,,530.1345024001785,530.1345024001785,None,,543.3271429003216,530.1345024001785,530.1345024001785,,,19,001,2024-09-17_14h10.14.048,robot_cogshifting_sign,2022.2.5,59.875363442389805,
"['R_Torso_Z_Back', 'L_Torso_Z_Back', 'L_Base_Z_Back', 'L_Torso_X_Back']","{'laterality': 'R_Torso_Z_Back', 'localisation': 'L_Base_Z_Back', 'movement': 'L_Torso_X_Back'}",localisation,"['localisation', 'movement']",L_Base_Z_Back,2,2,robot,1,False,False,"['robot_stimuli\\R_Torso_Z_Back.mp4', 'robot_stimuli\\L_Torso_Z_Back.mp4', 'robot_stimuli\\L_Base_Z_Back.mp4', 'robot_stimuli\\L_Torso_X_Back.mp4']",robot_stimuli\L_Base_Z_Back.mp4,19,,,,,,,,,,,,,0,6,6,6,,,,,,,,,,,,,,,,,,548.3536900002509,,,565.1033001001924,565.1033001001924,565.1033001001924,3,0.6096516000106931,565.7379108001478,565.7379108001478,565.7379108001478,565.7379108001478,565.7379108001478,565.7379108001478,565.7379108001478,565.7379108001478,None,None,None,,,,550.4411603002809,,,,,,,,548.3536900002509,548.3536900002509,None,,561.4627899001352,548.3536900002509,548.3536900002509,,,19,001,2024-09-17_14h10.14.048,robot_cogshifting_sign,2022.2.5,59.875363442389805,
"['R_Arm_X_For', 'L_Head_X_For', 'R_Head_Z_For', 'R_Head_X_For']","{'laterality': 'L_Head_X_For', 'localisation': 'R_Arm_X_For', 'movement': 'R_Head_Z_For'}",laterality,"['laterality', 'movement']",L_Head_X_For,1,2,robot,1,False,False,"['robot_stimuli\\R_Arm_X_For.mp4', 'robot_stimuli\\L_Head_X_For.mp4', 'robot_stimuli\\R_Head_Z_For.mp4', 'robot_stimuli\\R_Head_X_For.mp4']",robot_stimuli\L_Head_X_For.mp4,19,,,,,,,,,,,,,0,7,7,7,,,,,,,,,,,,,,,,,,565.7379108001478,,,582.5710097001866,582.5710097001866,582.5710097001866,2,0.6383735998533666,583.2390175000764,583.2390175000764,583.2390175000764,583.2390175000764,583.2390175000764,583.2390175000764,583.2390175000764,583.2390175000764,None,None,None,,,,567.8254315000959,,,,,,,,565.7379108001478,565.7379108001478,None,,578.9305385001935,565.7379108001478,565.7379108001478,,,19,001,2024-09-17_14h10.14.048,robot_cogshifting_sign,2022.2.5,59.875363442389805,
"['L_Head_Z_Back', 'L_Head_X_For', 'L_Base_X_For', 'R_Head_X_Back']","{'laterality': 'R_Head_X_Back', 'localisation': 'L_Base_X_For', 'movement': 'L_Head_Z_Back'}",movement,"['localisation', 'movement']",L_Head_Z_Back,0,2,robot,1,False,True,"['robot_stimuli\\L_Head_Z_Back.mp4', 'robot_stimuli\\L_Head_X_For.mp4', 'robot_stimuli\\L_Base_X_For.mp4', 'robot_stimuli\\R_Head_X_Back.mp4']",robot_stimuli\L_Head_Z_Back.mp4,19,,,,,,,,,,,,,0,8,8,8,,,,,,,,,,,,,,,,,,583.2390175000764,,,600.0053369002417,600.0053369002417,600.0053369002417,1,0.46677649999037385,600.5230690003373,606.1340673002414,600.5230690003373,606.1340673002414,600.5230690003373,606.1340673002414,600.5230690003373,606.1340673002414,112.93650793650795,4.986038500443101,space,,,,585.3264494002797,5.557001400273293,,,,,,,583.2390175000764,583.2390175000764,None,,596.3648426001891,583.2390175000764,583.2390175000764,,,19,001,2024-09-17_14h10.14.048,robot_cogshifting_sign,2022.2.5,59.875363442389805,
"['R_Base_X_For', 'R_Torso_X_For', 'L_Torso_X_Back', 'R_Torso_Z_For']","{'laterality': 'L_Torso_X_Back', 'localisation': 'R_Base_X_For', 'movement': 'R_Torso_Z_For'}",laterality,"['laterality', 'localisation', 'movement']",L_Torso_X_Back,2,3,robot,1,True,False,"['robot_stimuli\\R_Base_X_For.mp4', 'robot_stimuli\\R_Torso_X_For.mp4', 'robot_stimuli\\L_Torso_X_Back.mp4', 'robot_stimuli\\R_Torso_Z_For.mp4']",robot_stimuli\L_Torso_X_Back.mp4,19,,,,,,,,,,,,,0,9,9,9,,,,,,,,,,,,,,,,,,616.137082000263,,,632.9535452001728,632.9535452001728,632.9535452001728,3,1.7026904001832008,634.6735489000566,634.6735489000566,634.6735489000566,634.6735489000566,634.6735489000566,634.6735489000566,634.6735489000566,634.6735489000566,None,None,None,,,,,,,,,,,,606.1340673002414,606.1340673002414,space,9.986210800241679,629.2962991003878,,,,,19,001,2024-09-17_14h10.14.048,robot_cogshifting_sign,2022.2.5,59.875363442389805,
"['L_Torso_X_Back', 'L_Torso_Z_Back', 'R_Torso_X_For', 'L_Base_X_Back']","{'laterality': 'R_Torso_X_For', 'localisation': 'L_Base_X_Back', 'movement': 'L_Torso_Z_Back'}",localisation,"['laterality', 'localisation', 'movement']",L_Base_X_Back,3,3,robot,1,False,False,"['robot_stimuli\\L_Torso_X_Back.mp4', 'robot_stimuli\\L_Torso_Z_Back.mp4', 'robot_stimuli\\R_Torso_X_For.mp4', 'robot_stimuli\\L_Base_X_Back.mp4']",robot_stimuli\L_Base_X_Back.mp4,19,,,,,,,,,,,,,0,10,10,10,,,,,,,,,,,,,,,,,,634.6735489000566,,,651.3898333003744,651.3898333003744,651.3898333003744,4,1.9863022002391517,653.393775800243,653.393775800243,653.393775800243,653.393775800243,653.393775800243,653.393775800243,653.393775800243,653.393775800243,None,None,None,,,,636.761047300417,,,,,,,,634.6735489000566,634.6735489000566,None,,647.782768400386,634.6735489000566,634.6735489000566,,,19,001,2024-09-17_14h10.14.048,robot_cogshifting_sign,2022.2.5,59.875363442389805,
"['R_Arm_X_For', 'R_Arm_Z_Back', 'R_Base_Z_For', 'L_Arm_Z_For']","{'laterality': 'L_Arm_Z_For', 'localisation': 'R_Base_Z_For', 'movement': 'R_Arm_X_For'}",laterality,"['laterality', 'localisation', 'movement']",L_Arm_Z_For,3,3,robot,1,False,False,"['robot_stimuli\\R_Arm_X_For.mp4', 'robot_stimuli\\R_Arm_Z_Back.mp4', 'robot_stimuli\\R_Base_Z_For.mp4', 'robot_stimuli\\L_Arm_Z_For.mp4']",robot_stimuli\L_Arm_Z_For.mp4,19,,,,,,,,,,,,,0,11,11,11,,,,,,,,,,,,,,,,,,653.393775800243,,,670.2936589000747,670.2936589000747,670.2936589000747,4,0.9062292999587953,671.2288489001803,671.2288489001803,671.2288489001803,671.2288489001803,671.2288489001803,671.2288489001803,671.2288489001803,671.2288489001803,None,None,None,,,,655.4812384000979,,,,,,,,653.393775800243,653.393775800243,None,,666.6364949000999,653.393775800243,653.393775800243,,,19,001,2024-09-17_14h10.14.048,robot_cogshifting_sign,2022.2.5,59.875363442389805,
"['L_Head_Z_Back', 'R_Head_Y_For', 'R_Base_Z_Back', 'R_Head_Z_For']","{'laterality': 'L_Head_Z_Back', 'localisation': 'R_Base_Z_Back', 'movement': 'R_Head_Y_For'}",movement,"['laterality', 'localisation', 'movement']",R_Head_Y_For,1,3,robot,1,False,False,"['robot_stimuli\\L_Head_Z_Back.mp4', 'robot_stimuli\\R_Head_Y_For.mp4', 'robot_stimuli\\R_Base_Z_Back.mp4', 'robot_stimuli\\R_Head_Z_For.mp4']",robot_stimuli\R_Head_Y_For.mp4,19,,,,,,,,,,,,,0,12,12,12,,,,,,,,,,,,,,,,,,671.2288489001803,,,688.0285647003911,688.0285647003911,688.0285647003911,2,2.635494400281459,690.6838228004053,690.6838228004053,690.6838228004053,690.6838228004053,690.6838228004053,690.6838228004053,690.6838228004053,690.6838228004053,None,None,None,,,,673.3162921001203,,,,,,,,671.2288489001803,671.2288489001803,None,,684.3713664002717,671.2288489001803,671.2288489001803,,,19,001,2024-09-17_14h10.14.048,robot_cogshifting_sign,2022.2.5,59.875363442389805,
"['R_Torso_Z_For', 'L_Torso_X_Back', 'R_Torso_X_Back', 'R_Arm_X_For']","{'laterality': 'L_Torso_X_Back', 'localisation': 'R_Arm_X_For', 'movement': 'R_Torso_Z_For'}",localisation,"['laterality', 'localisation', 'movement']",R_Arm_X_For,3,3,robot,1,False,False,"['robot_stimuli\\R_Torso_Z_For.mp4', 'robot_stimuli\\L_Torso_X_Back.mp4', 'robot_stimuli\\R_Torso_X_Back.mp4', 'robot_stimuli\\R_Arm_X_For.mp4']",robot_stimuli\R_Arm_X_For.mp4,19,,,,,,,,,,,,,0,13,13,13,,,,,,,,,,,,,,,,,,690.6838228004053,,,707.5837599001825,707.5837599001825,707.5837599001825,4,1.8411508998833597,709.4540864001028,709.4540864001028,709.4540864001028,709.4540864001028,709.4540864001028,709.4540864001028,709.4540864001028,709.4540864001028,None,None,None,,,,692.7712897001766,,,,,,,,690.6838228004053,690.6838228004053,None,,703.9432896003127,690.6838228004053,690.6838228004053,,,19,001,2024-09-17_14h10.14.048,robot_cogshifting_sign,2022.2.5,59.875363442389805,
"['R_Base_Z_For', 'L_Base_Z_Back', 'R_Base_Y_For', 'R_Torso_Z_Back']","{'laterality': 'L_Base_Z_Back', 'localisation': 'R_Torso_Z_Back', 'movement': 'R_Base_Y_For'}",movement,"['laterality', 'localisation', 'movement']",R_Base_Y_For,2,3,robot,1,False,False,"['robot_stimuli\\R_Base_Z_For.mp4', 'robot_stimuli\\L_Base_Z_Back.mp4', 'robot_stimuli\\R_Base_Y_For.mp4', 'robot_stimuli\\R_Torso_Z_Back.mp4']",robot_stimuli\R_Base_Y_For.mp4,19,,,,,,,,,,,,,0,14,14,14,,,,,,,,,,,,,,,,,,709.4540864001028,,,726.3372973003425,726.3372973003425,726.3372973003425,2,5.095961600076407,731.4640614003874,731.4640614003874,731.4640614003874,731.4640614003874,731.4640614003874,731.4640614003874,731.4640614003874,731.4640614003874,None,None,None,,,,711.5415878002532,,,,,,,,709.4540864001028,709.4540864001028,None,,722.6968906000257,709.4540864001028,709.4540864001028,,,19,001,2024-09-17_14h10.14.048,robot_cogshifting_sign,2022.2.5,59.875363442389805,
"['R_Base_Y_For', 'R_Torso_X_For', 'R_Torso_Y_For', 'L_Torso_Y_Back']","{'laterality': 'L_Torso_Y_Back', 'localisation': 'R_Base_Y_For', 'movement': 'R_Torso_X_For'}",laterality,"['laterality', 'localisation', 'movement']",L_Torso_Y_Back,3,3,robot,1,False,False,"['robot_stimuli\\R_Base_Y_For.mp4', 'robot_stimuli\\R_Torso_X_For.mp4', 'robot_stimuli\\R_Torso_Y_For.mp4', 'robot_stimuli\\L_Torso_Y_Back.mp4']",robot_stimuli\L_Torso_Y_Back.mp4,19,,,,,,,,,,,,,0,15,15,15,,,,,,,,,,,,,,,,,,731.4640614003874,,,748.2137003000826,748.2137003000826,748.2137003000826,4,0.49042730033397675,748.7314082002267,748.7314082002267,748.7314082002267,748.7314082002267,748.7314082002267,748.7314082002267,748.7314082002267,748.7314082002267,None,None,None,,,,733.5515225003473,,,,,,,,731.4640614003874,731.4640614003874,None,,744.7068309001625,731.4640614003874,731.4640614003874,,,19,001,2024-09-17_14h10.14.048,robot_cogshifting_sign,2022.2.5,59.875363442389805,
"['R_Base_Y_For', 'R_Arm_X_For', 'L_Arm_Y_Back', 'R_Arm_Y_For']","{'laterality': 'L_Arm_Y_Back', 'localisation': 'R_Base_Y_For', 'movement': 'R_Arm_X_For'}",localisation,"['laterality', 'localisation', 'movement']",R_Base_Y_For,0,3,robot,1,False,False,"['robot_stimuli\\R_Base_Y_For.mp4', 'robot_stimuli\\R_Arm_X_For.mp4', 'robot_stimuli\\L_Arm_Y_Back.mp4', 'robot_stimuli\\R_Arm_Y_For.mp4']",robot_stimuli\R_Base_Y_For.mp4,19,,,,,,,,,,,,,0,16,16,16,,,,,,,,,,,,,,,,,,748.7314082002267,,,765.4810329000466,765.4810329000466,765.4810329000466,3,1.7590433000586927,767.2678616000339,767.2678616000339,767.2678616000339,767.2678616000339,767.2678616000339,767.2678616000339,767.2678616000339,767.2678616000339,None,None,None,,,,750.8188473000191,,,,,,,,748.7314082002267,748.7314082002267,None,,761.9908278002404,748.7314082002267,748.7314082002267,,,19,001,2024-09-17_14h10.14.048,robot_cogshifting_sign,2022.2.5,59.875363442389805,
"['R_Torso_X_Back', 'L_Torso_X_For', 'L_Base_X_For', 'L_Torso_Y_Back']","{'laterality': 'R_Torso_X_Back', 'localisation': 'L_Base_X_For', 'movement': 'L_Torso_Y_Back'}",movement,"['laterality', 'localisation', 'movement']",L_Torso_Y_Back,3,3,robot,1,False,True,"['robot_stimuli\\R_Torso_X_Back.mp4', 'robot_stimuli\\L_Torso_X_For.mp4', 'robot_stimuli\\L_Base_X_For.mp4', 'robot_stimuli\\L_Torso_Y_Back.mp4']",robot_stimuli\L_Torso_Y_Back.mp4,19,,,,,,,,,,,,,0,17,17,17,,,,,,,,,,,,,,,,,,767.2678616000339,,,783.9507182002999,783.9507182002999,783.9507182002999,4,1.0338294999673963,785.0361915002577,789.7955706003122,785.0361915002577,789.7955706003122,785.0361915002577,789.7955706003122,785.0361915002577,789.7955706003122,120.55555555555556,3.8339729998260736,space,,,,769.3553190003149,4.684682399965823,,,,,,,767.2678616000339,767.2678616000339,None,,780.4438207000494,767.2678616000339,767.2678616000339,,,19,001,2024-09-17_14h10.14.048,robot_cogshifting_sign,2022.2.5,59.875363442389805,
"['L_Head_Z_Back', 'L_Arm_Y_Back', 'L_Head_Y_For', 'R_Head_Y_For']","{'laterality': 'R_Head_Y_For', 'localisation': 'L_Arm_Y_Back', 'movement': 'L_Head_Z_Back'}",localisation,['localisation'],L_Arm_Y_Back,1,1,robot,1,True,False,"['robot_stimuli\\L_Head_Z_Back.mp4', 'robot_stimuli\\L_Arm_Y_Back.mp4', 'robot_stimuli\\L_Head_Y_For.mp4', 'robot_stimuli\\R_Head_Y_For.mp4']",robot_stimuli\L_Arm_Y_Back.mp4,19,,,,,,,,,,,,,0,18,18,18,,,,,,,,,,,,,,,,,,791.2484026001766,,,808.1316299000755,808.1316299000755,808.1316299000755,2,0.3087979000993073,808.4656468001194,808.4656468001194,808.4656468001194,808.4656468001194,808.4656468001194,808.4656468001194,808.4656468001194,808.4656468001194,None,None,None,,,,,,,,,,,,789.7955706003122,789.7955706003122,space,1.4213139996863902,804.507876300253,,,,,19,001,2024-09-17_14h10.14.048,robot_cogshifting_sign,2022.2.5,59.875363442389805,
"['R_Base_X_Back', 'L_Base_Z_Back', 'R_Base_Z_For', 'R_Head_Z_For']","{'laterality': 'L_Base_Z_Back', 'localisation': 'R_Head_Z_For', 'movement': 'R_Base_X_Back'}",movement,['movement'],R_Base_X_Back,0,1,robot,1,False,False,"['robot_stimuli\\R_Base_X_Back.mp4', 'robot_stimuli\\L_Base_Z_Back.mp4', 'robot_stimuli\\R_Base_Z_For.mp4', 'robot_stimuli\\R_Head_Z_For.mp4']",robot_stimuli\R_Base_X_Back.mp4,19,,,,,,,,,,,,,0,19,19,19,,,,,,,,,,,,,,,,,,808.4656468001194,,,825.3488390003331,825.3488390003331,825.3488390003331,1,0.2275077998638153,825.5993993002921,825.5993993002921,825.5993993002921,825.5993993002921,825.5993993002921,825.5993993002921,825.5993993002921,825.5993993002921,None,None,None,,,,810.553120800294,,,,,,,,808.4656468001194,808.4656468001194,None,,821.7250842000358,808.4656468001194,808.4656468001194,,,19,001,2024-09-17_14h10.14.048,robot_cogshifting_sign,2022.2.5,59.875363442389805,
"['L_Head_X_For', 'R_Torso_X_Back', 'L_Torso_X_For', 'L_Torso_Y_For']","{'laterality': 'R_Torso_X_Back', 'localisation': 'L_Head_X_For', 'movement': 'L_Torso_Y_For'}",localisation,['localisation'],L_Head_X_For,0,1,robot,1,False,False,"['robot_stimuli\\L_Head_X_For.mp4', 'robot_stimuli\\R_Torso_X_Back.mp4', 'robot_stimuli\\L_Torso_X_For.mp4', 'robot_stimuli\\L_Torso_Y_For.mp4']",robot_stimuli\L_Head_X_For.mp4,19,,,,,,,,,,,,,0,20,20,20,,,,,,,,,,,,,,,,,,825.5993993002921,,,842.4491330003366,842.4491330003366,842.4491330003366,1,0.4233343997038901,842.900095900055,842.900095900055,842.900095900055,842.900095900055,842.900095900055,842.900095900055,842.900095900055,842.900095900055,None,None,None,,,,827.6868442003615,,,,,,,,825.5993993002921,825.5993993002921,None,,838.792008000426,825.5993993002921,825.5993993002921,,,19,001,2024-09-17_14h10.14.048,robot_cogshifting_sign,2022.2.5,59.875363442389805,
"['R_Torso_Y_Back', 'R_Head_Y_For', 'L_Torso_Y_Back', 'R_Torso_Z_For']","{'laterality': 'L_Torso_Y_Back', 'localisation': 'R_Head_Y_For', 'movement': 'R_Torso_Z_For'}",localisation,['localisation'],R_Head_Y_For,1,1,robot,1,False,False,"['robot_stimuli\\R_Torso_Y_Back.mp4', 'robot_stimuli\\R_Head_Y_For.mp4', 'robot_stimuli\\L_Torso_Y_Back.mp4', 'robot_stimuli\\R_Torso_Z_For.mp4']",robot_stimuli\R_Head_Y_For.mp4,19,,,,,,,,,,,,,0,21,21,21,,,,,,,,,,,,,,,,,,842.900095900055,,,859.6664088000543,859.6664088000543,859.6664088000543,2,0.3499440001323819,860.0338182002306,860.0338182002306,860.0338182002306,860.0338182002306,860.0338182002306,860.0338182002306,860.0338182002306,860.0338182002306,None,None,None,,,,844.9875325001776,,,,,,,,842.900095900055,842.900095900055,None,,856.0092290001921,842.900095900055,842.900095900055,,,19,001,2024-09-17_14h10.14.048,robot_cogshifting_sign,2022.2.5,59.875363442389805,
"['R_Torso_X_For', 'R_Torso_Y_Back', 'R_Head_X_For', 'L_Torso_X_Back']","{'laterality': 'L_Torso_X_Back', 'localisation': 'R_Head_X_For', 'movement': 'R_Torso_Y_Back'}",movement,['movement'],R_Torso_Y_Back,1,1,robot,1,False,False,"['robot_stimuli\\R_Torso_X_For.mp4', 'robot_stimuli\\R_Torso_Y_Back.mp4', 'robot_stimuli\\R_Head_X_For.mp4', 'robot_stimuli\\L_Torso_X_Back.mp4']",robot_stimuli\R_Torso_Y_Back.mp4,19,,,,,,,,,,,,,0,22,22,22,,,,,,,,,,,,,,,,,,860.0338182002306,,,876.9336980003864,876.9336980003864,876.9336980003864,2,0.34688920015469193,877.3011209000833,877.3011209000833,877.3011209000833,877.3011209000833,877.3011209000833,877.3011209000833,877.3011209000833,877.3011209000833,None,None,None,,,,862.1212443001568,,,,,,,,860.0338182002306,860.0338182002306,None,,873.2765306001529,860.0338182002306,860.0338182002306,,,19,001,2024-09-17_14h10.14.048,robot_cogshifting_sign,2022.2.5,59.875363442389805,
"['L_Arm_X_For', 'R_Arm_X_Back', 'L_Arm_Y_For', 'L_Base_X_Back']","{'laterality': 'R_Arm_X_Back', 'localisation': 'L_Base_X_Back', 'movement': 'L_Arm_Y_For'}",laterality,['laterality'],R_Arm_X_Back,1,1,robot,1,False,False,"['robot_stimuli\\L_Arm_X_For.mp4', 'robot_stimuli\\R_Arm_X_Back.mp4', 'robot_stimuli\\L_Arm_Y_For.mp4', 'robot_stimuli\\L_Base_X_Back.mp4']",robot_stimuli\R_Arm_X_Back.mp4,19,,,,,,,,,,,,,0,23,23,23,,,,,,,,,,,,,,,,,,877.3011209000833,,,894.150914200116,894.150914200116,894.150914200116,2,0.29775030026212335,894.46820880007,894.46820880007,894.46820880007,894.46820880007,894.46820880007,894.46820880007,894.46820880007,894.46820880007,None,None,None,,,,879.3885464002378,,,,,,,,877.3011209000833,877.3011209000833,None,,890.5438564000651,877.3011209000833,877.3011209000833,,,19,001,2024-09-17_14h10.14.048,robot_cogshifting_sign,2022.2.5,59.875363442389805,
"['R_Head_Y_For', 'L_Arm_Y_Back', 'L_Head_Z_Back', 'L_Head_Y_For']","{'laterality': 'R_Head_Y_For', 'localisation': 'L_Arm_Y_Back', 'movement': 'L_Head_Z_Back'}",laterality,['laterality'],R_Head_Y_For,0,1,robot,1,False,False,"['robot_stimuli\\R_Head_Y_For.mp4', 'robot_stimuli\\L_Arm_Y_Back.mp4', 'robot_stimuli\\L_Head_Z_Back.mp4', 'robot_stimuli\\L_Head_Y_For.mp4']",robot_stimuli\R_Head_Y_For.mp4,19,,,,,,,,,,,,,0,24,24,24,,,,,,,,,,,,,,,,,,894.46820880007,,,911.3514297003858,911.3514297003858,911.3514297003858,1,0.36909190006554127,911.7522654002532,911.7522654002532,911.7522654002532,911.7522654002532,911.7522654002532,911.7522654002532,911.7522654002532,911.7522654002532,None,None,None,,,,896.5556746004149,,,,,,,,894.46820880007,894.46820880007,None,,907.7110176002607,894.46820880007,894.46820880007,,,19,001,2024-09-17_14h10.14.048,robot_cogshifting_sign,2022.2.5,59.875363442389805,
"['L_Head_Y_For', 'R_Torso_Y_For', 'R_Head_Y_For', 'R_Head_X_Back']","{'laterality': 'L_Head_Y_For', 'localisation': 'R_Torso_Y_For', 'movement': 'R_Head_X_Back'}",laterality,['laterality'],L_Head_Y_For,0,1,robot,1,False,False,"['robot_stimuli\\L_Head_Y_For.mp4', 'robot_stimuli\\R_Torso_Y_For.mp4', 'robot_stimuli\\R_Head_Y_For.mp4', 'robot_stimuli\\R_Head_X_Back.mp4']",robot_stimuli\L_Head_Y_For.mp4,19,,,,,,,,,,,,,0,25,25,25,,,,,,,,,,,,,,,,,,911.7522654002532,,,928.6354764001444,928.6354764001444,928.6354764001444,1,0.8695842996239662,929.5372568001039,929.5372568001039,929.5372568001039,929.5372568001039,929.5372568001039,929.5372568001039,929.5372568001039,929.5372568001039,None,None,None,,,,913.8397118002176,,,,,,,,911.7522654002532,911.7522654002532,None,,924.9949763002805,911.7522654002532,911.7522654002532,,,19,001,2024-09-17_14h10.14.048,robot_cogshifting_sign,2022.2.5,59.875363442389805,
"['R_Head_X_For', 'L_Base_X_Back', 'L_Head_Z_Back', 'L_Head_X_For']","{'laterality': 'R_Head_X_For', 'localisation': 'L_Base_X_Back', 'movement': 'L_Head_Z_Back'}",movement,['movement'],L_Head_Z_Back,2,1,robot,1,False,True,"['robot_stimuli\\R_Head_X_For.mp4', 'robot_stimuli\\L_Base_X_Back.mp4', 'robot_stimuli\\L_Head_Z_Back.mp4', 'robot_stimuli\\L_Head_X_For.mp4']",robot_stimuli\L_Head_Z_Back.mp4,19,,,,,,,,,,,,,0,26,26,26,,,,,,,,,,,,,,,,,,929.5372568001039,,,946.336965800263,946.336965800263,946.336965800263,3,0.46443340042605996,946.8546662000008,950.3448739000596,946.8546662000008,950.3448739000596,946.8546662000008,950.3448739000596,946.8546662000008,950.3448739000596,29.761904761904763,3.0323886000551283,space,,,,931.6247262000106,3.4174493001773953,,,,,,,929.5372568001039,929.5372568001039,None,,942.7466318001971,929.5372568001039,929.5372568001039,,,19,001,2024-09-17_14h10.14.048,robot_cogshifting_sign,2022.2.5,59.875363442389805,
"['blue_bottom_M_0', 'blue_left_R_45', 'red_left_L_0', 'blue_left_L_0']","{'color': 'red_left_L_0', 'position': 'blue_bottom_M_0', 'orientation': 'blue_left_R_45'}",color,"['color', 'orientation', 'position']",red_left_L_0,2,3,letter,2,True,False,"['robot_stimuli\\\\filler.mp4', 'robot_stimuli\\\\filler.mp4', 'robot_stimuli\\\\filler.mp4', 'robot_stimuli\\\\filler.mp4']",robot_stimuli\\filler.mp4,19,,,,,,,,,,,,,0,27,27,27,,,,,,,,,,,,,,,,,,958.4776135003194,,,969.4157033003867,969.4157033003867,969.4157033003867,2,4.768505500163883,974.2085015000775,974.2085015000775,974.2085015000775,974.2085015000775,974.2085015000775,974.2085015000775,974.2085015000775,974.2085015000775,None,None,None,,,,,,,,,,,,950.3448739000596,950.3448739000596,space,8.103343599941581,,,,967.1947644003667,969.4157033003867,19,001,2024-09-17_14h10.14.048,robot_cogshifting_sign,2022.2.5,59.875363442389805,
"['red_left_F_0', 'blue_bottom_Q_0', 'red_bottom_Z_0', 'red_bottom_W_45']","{'color': 'blue_bottom_Q_0', 'position': 'red_left_F_0', 'orientation': 'red_bottom_W_45'}",orientation,"['color', 'orientation', 'position']",red_bottom_W_45,3,3,letter,2,False,False,"['robot_stimuli\\\\filler.mp4', 'robot_stimuli\\\\filler.mp4', 'robot_stimuli\\\\filler.mp4', 'robot_stimuli\\\\filler.mp4']",robot_stimuli\\filler.mp4,19,,,,,,,,,,,,,0,28,28,28,,,,,,,,,,,,,,,,,,974.2085015000775,,,985.1467008003965,985.1467008003965,985.1467008003965,2,7.901660600211471,993.0789882000536,993.0789882000536,993.0789882000536,993.0789882000536,993.0789882000536,993.0789882000536,993.0789882000536,993.0789882000536,None,None,None,,,,976.2792617003433,,,,,,,,974.2085015000775,974.2085015000775,None,,,974.2085015000775,974.2085015000775,983.1261101001874,985.1467008003965,19,001,2024-09-17_14h10.14.048,robot_cogshifting_sign,2022.2.5,59.875363442389805,
"['red_top_H_0', 'blue_top_W_0', 'blue_bottom_B_0', 'blue_top_Q_45']","{'color': 'red_top_H_0', 'position': 'blue_bottom_B_0', 'orientation': 'blue_top_Q_45'}",orientation,"['color', 'orientation', 'position']",blue_top_Q_45,3,3,letter,2,False,False,"['robot_stimuli\\\\filler.mp4', 'robot_stimuli\\\\filler.mp4', 'robot_stimuli\\\\filler.mp4', 'robot_stimuli\\\\filler.mp4']",robot_stimuli\\filler.mp4,19,,,,,,,,,,,,,0,29,29,29,,,,,,,,,,,,,,,,,,993.0789882000536,,,1003.61642570002,1003.61642570002,1003.61642570002,3,2.7996731996536255,1006.4386216001585,1006.4386216001585,1006.4386216001585,1006.4386216001585,1006.4386216001585,1006.4386216001585,1006.4386216001585,1006.4386216001585,None,None,None,,,,995.1498394003138,,,,,,,,993.0789882000536,993.0789882000536,None,,,993.0789882000536,993.0789882000536,1001.5959064001217,1003.61642570002,19,001,2024-09-17_14h10.14.048,robot_cogshifting_sign,2022.2.5,59.875363442389805,
"['red_left_F_45', 'blue_left_B_45', 'red_bottom_V_45', 'red_left_Q_0']","{'color': 'blue_left_B_45', 'position': 'red_bottom_V_45', 'orientation': 'red_left_Q_0'}",position,"['color', 'orientation', 'position']",red_bottom_V_45,2,3,letter,2,False,False,"['robot_stimuli\\\\filler.mp4', 'robot_stimuli\\\\filler.mp4', 'robot_stimuli\\\\filler.mp4', 'robot_stimuli\\\\filler.mp4']",robot_stimuli\\filler.mp4,19,,,,,,,,,,,,,0,30,30,30,,,,,,,,,,,,,,,,,,1006.4386216001585,,,1016.9760225000791,1016.9760225000791,1016.9760225000791,3,1.336032200139016,1018.3286771001294,1018.3286771001294,1018.3286771001294,1018.3286771001294,1018.3286771001294,1018.3286771001294,1018.3286771001294,1018.3286771001294,None,None,None,,,,1008.5093716001138,,,,,,,,1006.4386216001585,1006.4386216001585,None,,,1006.4386216001585,1006.4386216001585,1014.9554937002249,1016.9760225000791,19,001,2024-09-17_14h10.14.048,robot_cogshifting_sign,2022.2.5,59.875363442389805,
"['red_right_Q_45', 'red_bottom_J_0', 'blue_right_Q_0', 'red_right_L_0']","{'color': 'blue_right_Q_0', 'position': 'red_bottom_J_0', 'orientation': 'red_right_Q_45'}",position,"['color', 'orientation', 'position']",red_bottom_J_0,1,3,letter,2,False,False,"['robot_stimuli\\\\filler.mp4', 'robot_stimuli\\\\filler.mp4', 'robot_stimuli\\\\filler.mp4', 'robot_stimuli\\\\filler.mp4']",robot_stimuli\\filler.mp4,19,,,,,,,,,,,,,0,31,31,31,,,,,,,,,,,,,,,,,,1018.3286771001294,,,1028.8661354002543,1028.8661354002543,1028.8661354002543,2,1.9416287997737527,1030.8366237999871,1030.8366237999871,1030.8366237999871,1030.8366237999871,1030.8366237999871,1030.8366237999871,1030.8366237999871,1030.8366237999871,None,None,None,,,,1020.3828447000124,,,,,,,,1018.3286771001294,1018.3286771001294,None,,,1018.3286771001294,1018.3286771001294,1026.8469414003193,1028.8661354002543,19,001,2024-09-17_14h10.14.048,robot_cogshifting_sign,2022.2.5,59.875363442389805,
"['blue_top_Q_45', 'blue_top_Q_0', 'blue_right_V_45', 'red_top_V_45']","{'color': 'red_top_V_45', 'position': 'blue_right_V_45', 'orientation': 'blue_top_Q_0'}",position,"['color', 'orientation', 'position']",blue_right_V_45,2,3,letter,2,False,False,"['robot_stimuli\\\\filler.mp4', 'robot_stimuli\\\\filler.mp4', 'robot_stimuli\\\\filler.mp4', 'robot_stimuli\\\\filler.mp4']",robot_stimuli\\filler.mp4,19,,,,,,,,,,,,,0,32,32,32,,,,,,,,,,,,,,,,,,1030.8366237999871,,,1041.3743510004133,1041.3743510004133,1041.3743510004133,3,1.0018418999388814,1042.3927208003588,1042.3927208003588,1042.3927208003588,1042.3927208003588,1042.3927208003588,1042.3927208003588,1042.3927208003588,1042.3927208003588,None,None,None,,,,1032.8923261002637,,,,,,,,1030.8366237999871,1030.8366237999871,None,,,1030.8366237999871,1030.8366237999871,1039.353472399991,1041.3743510004133,19,001,2024-09-17_14h10.14.048,robot_cogshifting_sign,2022.2.5,59.875363442389805,
"['blue_left_R_0', 'blue_left_M_45', 'red_left_J_0', 'blue_top_K_0']","{'color': 'red_left_J_0', 'position': 'blue_top_K_0', 'orientation': 'blue_left_M_45'}",orientation,"['color', 'orientation', 'position']",blue_left_M_45,1,3,letter,2,False,False,"['robot_stimuli\\\\filler.mp4', 'robot_stimuli\\\\filler.mp4', 'robot_stimuli\\\\filler.mp4', 'robot_stimuli\\\\filler.mp4']",robot_stimuli\\filler.mp4,19,,,,,,,,,,,,,0,33,33,33,,,,,,,,,,,,,,,,,,1042.3927208003588,,,1053.3312746002339,1053.3312746002339,1053.3312746002339,2,2.0443643000908196,1055.4016695003957,1055.4016695003957,1055.4016695003957,1055.4016695003957,1055.4016695003957,1055.4016695003957,1055.4016695003957,1055.4016695003957,None,None,None,,,,1044.48021480022,,,,,,,,1042.3927208003588,1042.3927208003588,None,,,1042.3927208003588,1042.3927208003588,1051.1265998003073,1053.3312746002339,19,001,2024-09-17_14h10.14.048,robot_cogshifting_sign,2022.2.5,59.875363442389805,
"['red_right_F_0', 'red_left_D_0', 'blue_left_W_0', 'red_left_L_45']","{'color': 'blue_left_W_0', 'position': 'red_right_F_0', 'orientation': 'red_left_L_45'}",color,"['color', 'orientation', 'position']",blue_left_W_0,2,3,letter,2,False,False,"['robot_stimuli\\\\filler.mp4', 'robot_stimuli\\\\filler.mp4', 'robot_stimuli\\\\filler.mp4', 'robot_stimuli\\\\filler.mp4']",robot_stimuli\\filler.mp4,19,,,,,,,,,,,,,0,34,34,34,,,,,,,,,,,,,,,,,,1055.4016695003957,,,1066.1394134000875,1066.1394134000875,1066.1394134000875,3,2.2852952000685036,1068.4439751002938,1068.4439751002938,1068.4439751002938,1068.4439751002938,1068.4439751002938,1068.4439751002938,1068.4439751002938,1068.4439751002938,None,None,None,,,,1057.472439400386,,,,,,,,1055.4016695003957,1055.4016695003957,None,,,1055.4016695003957,1055.4016695003957,1064.1188602000475,1066.1394134000875,19,001,2024-09-17_14h10.14.048,robot_cogshifting_sign,2022.2.5,59.875363442389805,
"['blue_top_W_45', 'blue_right_X_45', 'red_right_Z_45', 'blue_right_T_0']","{'color': 'red_right_Z_45', 'position': 'blue_top_W_45', 'orientation': 'blue_right_T_0'}",color,"['color', 'orientation', 'position']",red_right_Z_45,2,3,letter,2,False,True,"['robot_stimuli\\\\filler.mp4', 'robot_stimuli\\\\filler.mp4', 'robot_stimuli\\\\filler.mp4', 'robot_stimuli\\\\filler.mp4']",robot_stimuli\\filler.mp4,19,,,,,,,,,,,,,0,35,35,35,,,,,,,,,,,,,,,,,,1068.4439751002938,,,1079.3822087002918,1079.3822087002918,1079.3822087002918,3,1.081480700057,1080.517753600143,1089.9863756000996,1080.517753600143,1089.9863756000996,1080.517753600143,1089.9863756000996,1080.517753600143,1089.9863756000996,89.76190476190476,9.344556599855423,space,,,,1070.514775000047,9.41075270017609,,,,,,,1068.4439751002938,1068.4439751002938,None,,,1068.4439751002938,1068.4439751002938,1077.1779158003628,1079.3822087002918,19,001,2024-09-17_14h10.14.048,robot_cogshifting_sign,2022.2.5,59.875363442389805,
"['red_top_P_0', 'blue_bottom_S_0', 'blue_top_G_45', 'blue_top_S_0']","{'color': 'red_top_P_0', 'position': 'blue_bottom_S_0', 'orientation': 'blue_top_G_45'}",color,"['color', 'position']",red_top_P_0,0,2,letter,2,True,False,"['robot_stimuli\\\\filler.mp4', 'robot_stimuli\\\\filler.mp4', 'robot_stimuli\\\\filler.mp4', 'robot_stimuli\\\\filler.mp4']",robot_stimuli\\filler.mp4,19,,,,,,,,,,,,,0,36,36,36,,,,,,,,,,,,,,,,,,1092.5079984003678,,,1102.8449893002398,1102.8449893002398,1102.8449893002398,1,0.8910399996675551,1103.7635100004263,1103.7635100004263,1103.7635100004263,1103.7635100004263,1103.7635100004263,1103.7635100004263,1103.7635100004263,1103.7635100004263,None,None,None,,,,,,,,,,,,1089.9863756000996,1089.9863756000996,space,2.502079099882394,,,,1100.82451820001,1102.8449893002398,19,001,2024-09-17_14h10.14.048,robot_cogshifting_sign,2022.2.5,59.875363442389805,
"['red_top_S_45', 'red_left_K_0', 'blue_top_Z_0', 'red_top_X_0']","{'color': 'blue_top_Z_0', 'position': 'red_left_K_0', 'orientation': 'red_top_S_45'}",orientation,"['color', 'orientation']",red_top_S_45,0,2,letter,2,False,False,"['robot_stimuli\\\\filler.mp4', 'robot_stimuli\\\\filler.mp4', 'robot_stimuli\\\\filler.mp4', 'robot_stimuli\\\\filler.mp4']",robot_stimuli\\filler.mp4,19,,,,,,,,,,,,,0,37,37,37,,,,,,,,,,,,,,,,,,1103.7635100004263,,,1114.7017273004167,1114.7017273004167,1114.7017273004167,1,0.7389401001855731,1115.4698746004142,1115.4698746004142,1115.4698746004142,1115.4698746004142,1115.4698746004142,1115.4698746004142,1115.4698746004142,1115.4698746004142,None,None,None,,,,1105.8175619002432,,,,,,,,1103.7635100004263,1103.7635100004263,None,,,1103.7635100004263,1103.7635100004263,1112.4973946004175,1114.7017273004167,19,001,2024-09-17_14h10.14.048,robot_cogshifting_sign,2022.2.5,59.875363442389805,
"['red_right_W_0', 'blue_right_D_45', 'red_bottom_W_45', 'red_right_R_45']","{'color': 'blue_right_D_45', 'position': 'red_bottom_W_45', 'orientation': 'red_right_W_0'}",position,"['color', 'position']",red_bottom_W_45,2,2,letter,2,False,False,"['robot_stimuli\\\\filler.mp4', 'robot_stimuli\\\\filler.mp4', 'robot_stimuli\\\\filler.mp4', 'robot_stimuli\\\\filler.mp4']",robot_stimuli\\filler.mp4,19,,,,,,,,,,,,,0,38,38,38,,,,,,,,,,,,,,,,,,1115.4698746004142,,,1126.1909583001398,1126.1909583001398,1126.1909583001398,3,0.81727259978652,1127.0259254002012,1127.0259254002012,1127.0259254002012,1127.0259254002012,1127.0259254002012,1127.0259254002012,1127.0259254002012,1127.0259254002012,None,None,None,,,,1117.5406504999846,,,,,,,,1115.4698746004142,1115.4698746004142,None,,,1115.4698746004142,1115.4698746004142,1123.986657100264,1126.1909583001398,19,001,2024-09-17_14h10.14.048,robot_cogshifting_sign,2022.2.5,59.875363442389805,
"['blue_left_T_0', 'blue_right_R_0', 'red_left_L_0', 'blue_left_V_45']","{'color': 'red_left_L_0', 'position': 'blue_right_R_0', 'orientation': 'blue_left_V_45'}",orientation,"['color', 'orientation']",blue_left_V_45,3,2,letter,2,False,False,"['robot_stimuli\\\\filler.mp4', 'robot_stimuli\\\\filler.mp4', 'robot_stimuli\\\\filler.mp4', 'robot_stimuli\\\\filler.mp4']",robot_stimuli\\filler.mp4,19,,,,,,,,,,,,,0,39,39,39,,,,,,,,,,,,,,,,,,1127.0259254002012,,,1137.563346200157,1137.563346200157,1137.563346200157,4,0.6925110998563468,1138.2814362002537,1138.2814362002537,1138.2814362002537,1138.2814362002537,1138.2814362002537,1138.2814362002537,1138.2814362002537,1138.2814362002537,None,None,None,,,,1129.080021600239,,,,,,,,1127.0259254002012,1127.0259254002012,None,,,1127.0259254002012,1127.0259254002012,1135.3423880003393,1137.563346200157,19,001,2024-09-17_14h10.14.048,robot_cogshifting_sign,2022.2.5,59.875363442389805,
"['blue_right_F_0', 'red_top_W_0', 'red_right_Z_0', 'red_right_C_45']","{'color': 'blue_right_F_0', 'position': 'red_top_W_0', 'orientation': 'red_right_C_45'}",color,"['color', 'position']",blue_right_F_0,0,2,letter,2,False,False,"['robot_stimuli\\\\filler.mp4', 'robot_stimuli\\\\filler.mp4', 'robot_stimuli\\\\filler.mp4', 'robot_stimuli\\\\filler.mp4']",robot_stimuli\\filler.mp4,19,,,,,,,,,,,,,0,40,40,40,,,,,,,,,,,,,,,,,,1138.2814362002537,,,1149.2196027999744,1149.2196027999744,1149.2196027999744,1,0.5321903000585735,1149.770722000394,1149.770722000394,1149.770722000394,1149.770722000394,1149.770722000394,1149.770722000394,1149.770722000394,1149.770722000394,None,None,None,,,,1140.352175200358,,,,,,,,1138.2814362002537,1138.2814362002537,None,,,1138.2814362002537,1138.2814362002537,1146.9986241003498,1149.2196027999744,19,001,2024-09-17_14h10.14.048,robot_cogshifting_sign,2022.2.5,59.875363442389805,
"['red_left_Z_45', 'blue_left_N_45', 'red_left_H_0', 'red_right_L_45']","{'color': 'blue_left_N_45', 'position': 'red_right_L_45', 'orientation': 'red_left_H_0'}",position,"['color', 'position']",red_right_L_45,3,2,letter,2,False,False,"['robot_stimuli\\\\filler.mp4', 'robot_stimuli\\\\filler.mp4', 'robot_stimuli\\\\filler.mp4', 'robot_stimuli\\\\filler.mp4']",robot_stimuli\\filler.mp4,19,,,,,,,,,,,,,0,41,41,41,,,,,,,,,,,,,,,,,,1149.770722000394,,,1160.3080831002444,1160.3080831002444,1160.3080831002444,4,1.4765317998826504,1161.811078700237,1161.811078700237,1161.811078700237,1161.811078700237,1161.811078700237,1161.811078700237,1161.811078700237,1161.811078700237,None,None,None,,,,1151.8414557003416,,,,,,,,1149.770722000394,1149.770722000394,None,,,1149.770722000394,1149.770722000394,1158.2875797003508,1160.3080831002444,19,001,2024-09-17_14h10.14.048,robot_cogshifting_sign,2022.2.5,59.875363442389805,
"['red_left_X_45', 'blue_bottom_V_45', 'blue_left_F_45', 'blue_left_Q_0']","{'color': 'red_left_X_45', 'position': 'blue_bottom_V_45', 'orientation': 'blue_left_Q_0'}",orientation,"['orientation', 'position']",blue_left_Q_0,3,2,letter,2,False,False,"['robot_stimuli\\\\filler.mp4', 'robot_stimuli\\\\filler.mp4', 'robot_stimuli\\\\filler.mp4', 'robot_stimuli\\\\filler.mp4']",robot_stimuli\\filler.mp4,19,,,,,,,,,,,,,0,42,42,42,,,,,,,,,,,,,,,,,,1161.811078700237,,,1172.548890199978,1172.548890199978,1172.548890199978,2,4.082779699936509,1176.6569590000436,1176.6569590000436,1176.6569590000436,1176.6569590000436,1176.6569590000436,1176.6569590000436,1176.6569590000436,1176.6569590000436,None,None,None,,,,1163.8818636001088,,,,,,,,1161.811078700237,1161.811078700237,None,,,1161.811078700237,1161.811078700237,1170.5283029000275,1172.548890199978,19,001,2024-09-17_14h10.14.048,robot_cogshifting_sign,2022.2.5,59.875363442389805,
"['blue_right_J_45', 'red_right_V_45', 'blue_right_G_0', 'blue_bottom_G_45']","{'color': 'red_right_V_45', 'position': 'blue_bottom_G_45', 'orientation': 'blue_right_G_0'}",color,"['color', 'orientation']",red_right_V_45,1,2,letter,2,False,False,"['robot_stimuli\\\\filler.mp4', 'robot_stimuli\\\\filler.mp4', 'robot_stimuli\\\\filler.mp4', 'robot_stimuli\\\\filler.mp4']",robot_stimuli\\filler.mp4,19,,,,,,,,,,,,,0,43,43,43,,,,,,,,,,,,,,,,,,1176.6569590000436,,,1187.5951521000825,1187.5951521000825,1187.5951521000825,2,0.8610470001585782,1188.4801928000525,1188.4801928000525,1188.4801928000525,1188.4801928000525,1188.4801928000525,1188.4801928000525,1188.4801928000525,1188.4801928000525,None,None,None,,,,1178.7277522999793,,,,,,,,1176.6569590000436,1176.6569590000436,None,,,1176.6569590000436,1176.6569590000436,1185.5746134002693,1187.5951521000825,19,001,2024-09-17_14h10.14.048,robot_cogshifting_sign,2022.2.5,59.875363442389805,
"['red_left_S_45', 'blue_left_W_0', 'red_right_N_0', 'red_left_D_0']","{'color': 'blue_left_W_0', 'position': 'red_right_N_0', 'orientation': 'red_left_S_45'}",position,"['orientation', 'position']",red_right_N_0,2,2,letter,2,False,True,"['robot_stimuli\\\\filler.mp4', 'robot_stimuli\\\\filler.mp4', 'robot_stimuli\\\\filler.mp4', 'robot_stimuli\\\\filler.mp4']",robot_stimuli\\filler.mp4,19,,,,,,,,,,,,,0,44,44,44,,,,,,,,,,,,,,,,,,1188.4801928000525,,,1199.4183863000944,1199.4183863000944,1199.4183863000944,3,0.8693357999436557,1200.3536000000313,1203.8938829000108,1200.3536000000313,1203.8938829000108,1200.3536000000313,1203.8938829000108,1200.3536000000313,1203.8938829000108,69.92063492063492,3.315948400180787,space,,,,1190.550989200361,3.4618124002590775,,,,,,,1188.4801928000525,1188.4801928000525,None,,,1188.4801928000525,1188.4801928000525,1197.2140856999904,1199.4183863000944,19,001,2024-09-17_14h10.14.048,robot_cogshifting_sign,2022.2.5,59.875363442389805,
"['blue_right_G_45', 'red_bottom_N_45', 'red_right_W_45', 'red_right_C_0']","{'color': 'blue_right_G_45', 'position': 'red_bottom_N_45', 'orientation': 'red_right_C_0'}",position,['position'],red_bottom_N_45,1,1,letter,2,True,False,"['robot_stimuli\\\\filler.mp4', 'robot_stimuli\\\\filler.mp4', 'robot_stimuli\\\\filler.mp4', 'robot_stimuli\\\\filler.mp4']",robot_stimuli\\filler.mp4,19,,,,,,,,,,,,,0,45,45,45,,,,,,,,,,,,,,,,,,1205.613887900021,,,1216.3517086002976,1216.3517086002976,1216.3517086002976,2,0.2480501001700759,1216.618919200264,1216.618919200264,1216.618919200264,1216.618919200264,1216.618919200264,1216.618919200264,1216.618919200264,1216.618919200264,None,None,None,,,,,,,,,,,,1203.8938829000108,1203.8938829000108,space,1.6907809004187584,,,,1214.331274300348,1216.3517086002976,19,001,2024-09-17_14h10.14.048,robot_cogshifting_sign,2022.2.5,59.875363442389805,
"['blue_right_K_45', 'red_bottom_S_45', 'red_right_J_45', 'red_right_G_0']","{'color': 'blue_right_K_45', 'position': 'red_bottom_S_45', 'orientation': 'red_right_G_0'}",position,['position'],red_bottom_S_45,1,1,letter,2,False,False,"['robot_stimuli\\\\filler.mp4', 'robot_stimuli\\\\filler.mp4', 'robot_stimuli\\\\filler.mp4', 'robot_stimuli\\\\filler.mp4']",robot_stimuli\\filler.mp4,19,,,,,,,,,,,,,0,46,46,46,,,,,,,,,,,,,,,,,,1216.618919200264,,,1227.5404485003091,1227.5404485003091,1227.5404485003091,2,0.25922799995169044,1227.8243077001534,1227.8243077001534,1227.8243077001534,1227.8243077001534,1227.8243077001534,1227.8243077001534,1227.8243077001534,1227.8243077001534,None,None,None,,,,1218.6897674002685,,,,,,,,1216.618919200264,1216.618919200264,None,,,1216.618919200264,1216.618919200264,1225.3361171004362,1227.5404485003091,19,001,2024-09-17_14h10.14.048,robot_cogshifting_sign,2022.2.5,59.875363442389805,
"['red_left_F_45', 'blue_left_H_45', 'red_top_M_45', 'red_left_F_0']","{'color': 'blue_left_H_45', 'position': 'red_top_M_45', 'orientation': 'red_left_F_0'}",color,['color'],blue_left_H_45,1,1,letter,2,False,False,"['robot_stimuli\\\\filler.mp4', 'robot_stimuli\\\\filler.mp4', 'robot_stimuli\\\\filler.mp4', 'robot_stimuli\\\\filler.mp4']",robot_stimuli\\filler.mp4,19,,,,,,,,,,,,,0,47,47,47,,,,,,,,,,,,,,,,,,1227.8243077001534,,,1238.7624921002425,1238.7624921002425,1238.7624921002425,2,0.43747439980506897,1239.2301129000261,1239.2301129000261,1239.2301129000261,1239.2301129000261,1239.2301129000261,1239.2301129000261,1239.2301129000261,1239.2301129000261,None,None,None,,,,1229.8951199003495,,,,,,,,1227.8243077001534,1227.8243077001534,None,,,1227.8243077001534,1227.8243077001534,1236.5414774999954,1238.7624921002425,19,001,2024-09-17_14h10.14.048,robot_cogshifting_sign,2022.2.5,59.875363442389805,
"['red_left_J_45', 'red_left_V_0', 'red_right_R_0', 'blue_left_M_0']","{'color': 'blue_left_M_0', 'position': 'red_right_R_0', 'orientation': 'red_left_J_45'}",orientation,['orientation'],red_left_J_45,0,1,letter,2,False,False,"['robot_stimuli\\\\filler.mp4', 'robot_stimuli\\\\filler.mp4', 'robot_stimuli\\\\filler.mp4', 'robot_stimuli\\\\filler.mp4']",robot_stimuli\\filler.mp4,19,,,,,,,,,,,,,0,48,48,48,,,,,,,,,,,,,,,,,,1239.2301129000261,,,1249.7674869000912,1249.7674869000912,1249.7674869000912,1,0.4564570998772979,1250.2517975000665,1250.2517975000665,1250.2517975000665,1250.2517975000665,1250.2517975000665,1250.2517975000665,1250.2517975000665,1250.2517975000665,None,None,None,,,,1241.3008899004199,,,,,,,,1239.2301129000261,1239.2301129000261,None,,,1239.2301129000261,1239.2301129000261,1247.7473437003791,1249.7674869000912,19,001,2024-09-17_14h10.14.048,robot_cogshifting_sign,2022.2.5,59.875363442389805,
"['red_top_H_0', 'red_right_R_0', 'red_right_D_45', 'blue_right_Z_0']","{'color': 'blue_right_Z_0', 'position': 'red_top_H_0', 'orientation': 'red_right_D_45'}",orientation,['orientation'],red_right_D_45,2,1,letter,2,False,False,"['robot_stimuli\\\\filler.mp4', 'robot_stimuli\\\\filler.mp4', 'robot_stimuli\\\\filler.mp4', 'robot_stimuli\\\\filler.mp4']",robot_stimuli\\filler.mp4,19,,,,,,,,,,,,,0,49,49,49,,,,,,,,,,,,,,,,,,1250.2517975000665,,,1260.80586339999,1260.80586339999,1260.80586339999,3,0.5624827998690307,1261.3904133001342,1261.3904133001342,1261.3904133001342,1261.3904133001342,1261.3904133001342,1261.3904133001342,1261.3904133001342,1261.3904133001342,None,None,None,,,,1252.305805100128,,,,,,,,1250.2517975000665,1250.2517975000665,None,,,1250.2517975000665,1250.2517975000665,1258.7853137003258,1260.80586339999,19,001,2024-09-17_14h10.14.048,robot_cogshifting_sign,2022.2.5,59.875363442389805,
"['blue_right_V_45', 'blue_bottom_V_0', 'blue_right_W_0', 'red_right_B_0']","{'color': 'red_right_B_0', 'position': 'blue_bottom_V_0', 'orientation': 'blue_right_V_45'}",color,['color'],red_right_B_0,3,1,letter,2,False,False,"['robot_stimuli\\\\filler.mp4', 'robot_stimuli\\\\filler.mp4', 'robot_stimuli\\\\filler.mp4', 'robot_stimuli\\\\filler.mp4']",robot_stimuli\\filler.mp4,19,,,,,,,,,,,,,0,50,50,50,,,,,,,,,,,,,,,,,,1261.3904133001342,,,1272.3287735003978,1272.3287735003978,1272.3287735003978,4,0.6713632000610232,1273.0299496999942,1273.0299496999942,1273.0299496999942,1273.0299496999942,1273.0299496999942,1273.0299496999942,1273.0299496999942,1273.0299496999942,None,None,None,,,,1263.4611204001121,,,,,,,,1261.3904133001342,1261.3904133001342,None,,,1261.3904133001342,1261.3904133001342,1270.1242396002635,1272.3287735003978,19,001,2024-09-17_14h10.14.048,robot_cogshifting_sign,2022.2.5,59.875363442389805,
"['blue_top_T_45', 'blue_left_M_0', 'blue_top_M_0', 'red_top_T_0']","{'color': 'red_top_T_0', 'position': 'blue_left_M_0', 'orientation': 'blue_top_T_45'}",position,['position'],blue_left_M_0,1,1,letter,2,False,False,"['robot_stimuli\\\\filler.mp4', 'robot_stimuli\\\\filler.mp4', 'robot_stimuli\\\\filler.mp4', 'robot_stimuli\\\\filler.mp4']",robot_stimuli\\filler.mp4,19,,,,,,,,,,,,,0,51,51,51,,,,,,,,,,,,,,,,,,1273.0299496999942,,,1283.5673491000198,1283.5673491000198,1283.5673491000198,2,0.28852880001068115,1283.8846413004212,1283.8846413004212,1283.8846413004212,1283.8846413004212,1283.8846413004212,1283.8846413004212,1283.8846413004212,1283.8846413004212,None,None,None,,,,1275.1007768004201,,,,,,,,1273.0299496999942,1273.0299496999942,None,,,1273.0299496999942,1273.0299496999942,1281.5300273001194,1283.5673491000198,19,001,2024-09-17_14h10.14.048,robot_cogshifting_sign,2022.2.5,59.875363442389805,
"['blue_bottom_C_45', 'blue_top_L_0', 'blue_bottom_H_0', 'red_bottom_L_0']","{'color': 'red_bottom_L_0', 'position': 'blue_top_L_0', 'orientation': 'blue_bottom_C_45'}",color,['color'],red_bottom_L_0,3,1,letter,2,False,False,"['robot_stimuli\\\\filler.mp4', 'robot_stimuli\\\\filler.mp4', 'robot_stimuli\\\\filler.mp4', 'robot_stimuli\\\\filler.mp4']",robot_stimuli\\filler.mp4,19,,,,,,,,,,,,,0,52,52,52,,,,,,,,,,,,,,,,,,1283.8846413004212,,,1295.0399241000414,1295.0399241000414,1295.0399241000414,4,0.3514030002988875,1295.424060600344,1295.424060600344,1295.424060600344,1295.424060600344,1295.424060600344,1295.424060600344,1295.424060600344,1295.424060600344,None,None,None,,,,1285.9554191003554,,,,,,,,1283.8846413004212,1283.8846413004212,None,,,1283.8846413004212,1283.8846413004212,1292.8188804001547,1295.0399241000414,19,001,2024-09-17_14h10.14.048,robot_cogshifting_sign,2022.2.5,59.875363442389805,
"['red_right_G_0', 'red_bottom_X_0', 'red_right_D_45', 'blue_right_D_0']","{'color': 'blue_right_D_0', 'position': 'red_bottom_X_0', 'orientation': 'red_right_D_45'}",orientation,['orientation'],red_right_D_45,2,1,letter,2,False,True,"['robot_stimuli\\\\filler.mp4', 'robot_stimuli\\\\filler.mp4', 'robot_stimuli\\\\filler.mp4', 'robot_stimuli\\\\filler.mp4']",robot_stimuli\\filler.mp4,19,,,,,,,,,,,,,0,53,53,53,,,,,,,,,,,,,,,,,,1295.424060600344,,,1306.3788787000813,1306.3788787000813,1306.3788787000813,3,0.4289191998541355,1306.8632067004219,1313.3760838001035,1306.8632067004219,1313.3760838001035,1306.8632067004219,1313.3760838001035,1306.8632067004219,1313.3760838001035,16.428571428571427,6.455431799869984,space,,,,1297.4949468001723,6.456213199999183,,,,,,,1295.424060600344,1295.424060600344,None,,,1295.424060600344,1295.424060600344,1304.3586448002607,1306.3788787000813,19,001,2024-09-17_14h10.14.048,robot_cogshifting_sign,2022.2.5,59.875363442389805,
"['R_Base_Z_For', 'R_Base_X_Back', 'R_Arm_Z_Back', 'L_Base_Z_For']","{'laterality': 'L_Base_Z_For', 'localisation': 'R_Arm_Z_Back', 'movement': 'R_Base_X_Back'}",laterality,"['laterality', 'movement']",L_Base_Z_For,3,2,robot,3,True,False,"['robot_stimuli\\R_Base_Z_For.mp4', 'robot_stimuli\\R_Base_X_Back.mp4', 'robot_stimuli\\R_Arm_Z_Back.mp4', 'robot_stimuli\\L_Base_Z_For.mp4']",robot_stimuli\L_Base_Z_For.mp4,19,,,,,,,,,,,,,0,54,54,54,,,,,,,,,,,,,,,,,,1316.5322416001,,,1333.432133000344,1333.432133000344,1333.432133000344,4,0.8560964995995164,1334.317234000191,1334.317234000191,1334.317234000191,1334.317234000191,1334.317234000191,1334.317234000191,1334.317234000191,1334.317234000191,None,None,None,,,,,,,,,,,,1313.3760838001035,1313.3760838001035,space,3.1358090001158416,1329.7916701002978,,,,,19,001,2024-09-17_14h10.14.048,robot_cogshifting_sign,2022.2.5,59.875363442389805,
"['R_Torso_Z_For', 'R_Arm_Z_Back', 'L_Torso_Z_For', 'R_Torso_Y_For']","{'laterality': 'L_Torso_Z_For', 'localisation': 'R_Arm_Z_Back', 'movement': 'R_Torso_Y_For'}",laterality,"['laterality', 'localisation']",L_Torso_Z_For,2,2,robot,3,False,False,"['robot_stimuli\\R_Torso_Z_For.mp4', 'robot_stimuli\\R_Arm_Z_Back.mp4', 'robot_stimuli\\L_Torso_Z_For.mp4', 'robot_stimuli\\R_Torso_Y_For.mp4']",robot_stimuli\L_Torso_Z_For.mp4,19,,,,,,,,,,,,,0,55,55,55,,,,,,,,,,,,,,,,,,1334.317234000191,,,1351.217195500154,1351.217195500154,1351.217195500154,3,0.7348611000925303,1351.9686538004316,1351.9686538004316,1351.9686538004316,1351.9686538004316,1351.9686538004316,1351.9686538004316,1351.9686538004316,1351.9686538004316,None,None,None,,,,1336.404668400064,,,,,,,,1334.317234000191,1334.317234000191,None,,1347.5599702000618,1334.317234000191,1334.317234000191,,,19,001,2024-09-17_14h10.14.048,robot_cogshifting_sign,2022.2.5,59.875363442389805,
"['R_Head_Y_For', 'L_Torso_Y_Back', 'L_Head_Z_For', 'L_Head_Y_For']","{'laterality': 'R_Head_Y_For', 'localisation': 'L_Torso_Y_Back', 'movement': 'L_Head_Z_For'}",localisation,"['laterality', 'localisation']",L_Torso_Y_Back,1,2,robot,3,False,False,"['robot_stimuli\\R_Head_Y_For.mp4', 'robot_stimuli\\L_Torso_Y_Back.mp4', 'robot_stimuli\\L_Head_Z_For.mp4', 'robot_stimuli\\L_Head_Y_For.mp4']",robot_stimuli\L_Torso_Y_Back.mp4,19,,,,,,,,,,,,,0,56,56,56,,,,,,,,,,,,,,,,,,1351.9686538004316,,,1368.7349229003303,1368.7349229003303,1368.7349229003303,2,1.2403877000324428,1370.004114200361,1370.004114200361,1370.004114200361,1370.004114200361,1370.004114200361,1370.004114200361,1370.004114200361,1370.004114200361,None,None,None,,,,1354.0727731999941,,,,,,,,1351.9686538004316,1351.9686538004316,None,,1365.0944088003598,1351.9686538004316,1351.9686538004316,,,19,001,2024-09-17_14h10.14.048,robot_cogshifting_sign,2022.2.5,59.875363442389805,
"['R_Torso_X_Back', 'R_Torso_Y_For', 'R_Arm_Y_For', 'L_Torso_Y_For']","{'laterality': 'L_Torso_Y_For', 'localisation': 'R_Arm_Y_For', 'movement': 'R_Torso_X_Back'}",movement,"['localisation', 'movement']",R_Torso_X_Back,0,2,robot,3,False,False,"['robot_stimuli\\R_Torso_X_Back.mp4', 'robot_stimuli\\R_Torso_Y_For.mp4', 'robot_stimuli\\R_Arm_Y_For.mp4', 'robot_stimuli\\L_Torso_Y_For.mp4']",robot_stimuli\R_Torso_X_Back.mp4,19,,,,,,,,,,,,,0,57,57,57,,,,,,,,,,,,,,,,,,1370.004114200361,,,1386.8038347000256,1386.8038347000256,1386.8038347000256,1,0.49143780022859573,1387.3215426001698,1387.3215426001698,1387.3215426001698,1387.3215426001698,1387.3215426001698,1387.3215426001698,1387.3215426001698,1387.3215426001698,None,None,None,,,,1372.0915701002814,,,,,,,,1370.004114200361,1370.004114200361,None,,1383.1466118004173,1370.004114200361,1370.004114200361,,,19,001,2024-09-17_14h10.14.048,robot_cogshifting_sign,2022.2.5,59.875363442389805,
"['L_Base_X_Back', 'L_Arm_Y_Back', 'R_Base_Y_For', 'L_Base_Y_Back']","{'laterality': 'R_Base_Y_For', 'localisation': 'L_Arm_Y_Back', 'movement': 'L_Base_X_Back'}",localisation,"['localisation', 'movement']",L_Arm_Y_Back,1,2,robot,3,False,False,"['robot_stimuli\\L_Base_X_Back.mp4', 'robot_stimuli\\L_Arm_Y_Back.mp4', 'robot_stimuli\\R_Base_Y_For.mp4', 'robot_stimuli\\L_Base_Y_Back.mp4']",robot_stimuli\L_Arm_Y_Back.mp4,19,,,,,,,,,,,,,0,58,58,58,,,,,,,,,,,,,,,,,,1387.3215426001698,,,1404.12123300042,1404.12123300042,1404.12123300042,2,1.1660339999943972,1405.306973000057,1405.306973000057,1405.306973000057,1405.306973000057,1405.306973000057,1405.306973000057,1405.306973000057,1405.306973000057,None,None,None,,,,1389.4089548001066,,,,,,,,1387.3215426001698,1387.3215426001698,None,,1400.547583500389,1387.3215426001698,1387.3215426001698,,,19,001,2024-09-17_14h10.14.048,robot_cogshifting_sign,2022.2.5,59.875363442389805,
"['R_Base_Y_For', 'L_Base_X_Back', 'L_Base_Y_For', 'L_Arm_Y_Back']","{'laterality': 'R_Base_Y_For', 'localisation': 'L_Arm_Y_Back', 'movement': 'L_Base_X_Back'}",laterality,"['laterality', 'movement']",R_Base_Y_For,0,2,robot,3,False,False,"['robot_stimuli\\R_Base_Y_For.mp4', 'robot_stimuli\\L_Base_X_Back.mp4', 'robot_stimuli\\L_Base_Y_For.mp4', 'robot_stimuli\\L_Arm_Y_Back.mp4']",robot_stimuli\R_Base_Y_For.mp4,19,,,,,,,,,,,,,0,59,59,59,,,,,,,,,,,,,,,,,,1405.306973000057,,,1422.0899971001782,1422.0899971001782,1422.0899971001782,1,0.5739016002044082,1422.6911373003386,1422.6911373003386,1422.6911373003386,1422.6911373003386,1422.6911373003386,1422.6911373003386,1422.6911373003386,1422.6911373003386,None,None,None,,,,1407.3944126004353,,,,,,,,1405.306973000057,1405.306973000057,None,,1418.4494338002987,1405.306973000057,1405.306973000057,,,19,001,2024-09-17_14h10.14.048,robot_cogshifting_sign,2022.2.5,59.875363442389805,
"['L_Base_X_Back', 'R_Base_Y_Back', 'L_Torso_Y_Back', 'L_Base_Y_For']","{'laterality': 'R_Base_Y_Back', 'localisation': 'L_Torso_Y_Back', 'movement': 'L_Base_X_Back'}",movement,"['laterality', 'movement']",L_Base_X_Back,0,2,robot,3,False,False,"['robot_stimuli\\L_Base_X_Back.mp4', 'robot_stimuli\\R_Base_Y_Back.mp4', 'robot_stimuli\\L_Torso_Y_Back.mp4', 'robot_stimuli\\L_Base_Y_For.mp4']",robot_stimuli\L_Base_X_Back.mp4,19,,,,,,,,,,,,,0,60,60,60,,,,,,,,,,,,,,,,,,1422.6911373003386,,,1439.3405346004292,1439.3405346004292,1439.3405346004292,2,0.787196600344032,1440.15889229998,1440.15889229998,1440.15889229998,1440.15889229998,1440.15889229998,1440.15889229998,1440.15889229998,1440.15889229998,None,None,None,,,,1424.778582900297,,,,,,,,1422.6911373003386,1422.6911373003386,None,,1435.783679699991,1422.6911373003386,1422.6911373003386,,,19,001,2024-09-17_14h10.14.048,robot_cogshifting_sign,2022.2.5,59.875363442389805,
"['R_Torso_Y_For', 'L_Torso_Y_For', 'L_Torso_Z_For', 'L_Base_Y_Back']","{'laterality': 'R_Torso_Y_For', 'localisation': 'L_Base_Y_Back', 'movement': 'L_Torso_Z_For'}",localisation,"['laterality', 'localisation']",L_Base_Y_Back,3,2,robot,3,False,False,"['robot_stimuli\\R_Torso_Y_For.mp4', 'robot_stimuli\\L_Torso_Y_For.mp4', 'robot_stimuli\\L_Torso_Z_For.mp4', 'robot_stimuli\\L_Base_Y_Back.mp4']",robot_stimuli\L_Base_Y_Back.mp4,19,,,,,,,,,,,,,0,61,61,61,,,,,,,,,,,,,,,,,,1440.15889229998,,,1456.992004300002,1456.992004300002,1456.992004300002,4,0.888428000267595,1457.9104625000618,1457.9104625000618,1457.9104625000618,1457.9104625000618,1457.9104625000618,1457.9104625000618,1457.9104625000618,1457.9104625000618,None,None,None,,,,1442.2463419004343,,,,,,,,1440.15889229998,1440.15889229998,None,,1453.4015693999827,1440.15889229998,1440.15889229998,,,19,001,2024-09-17_14h10.14.048,robot_cogshifting_sign,2022.2.5,59.875363442389805,
"['R_Torso_Z_For', 'L_Torso_Z_Back', 'L_Torso_Y_Back', 'L_Arm_Z_For']","{'laterality': 'R_Torso_Z_For', 'localisation': 'L_Arm_Z_For', 'movement': 'L_Torso_Y_Back'}",movement,"['laterality', 'movement']",L_Torso_Y_Back,2,2,robot,3,False,True,"['robot_stimuli\\R_Torso_Z_For.mp4', 'robot_stimuli\\L_Torso_Z_Back.mp4', 'robot_stimuli\\L_Torso_Y_Back.mp4', 'robot_stimuli\\L_Arm_Z_For.mp4']",robot_stimuli\L_Torso_Y_Back.mp4,19,,,,,,,,,,,,,0,62,62,62,,,,,,,,,,,,,,,,,,1457.9104625000618,,,1474.5265205004252,1474.5265205004252,1474.5265205004252,3,0.8012041002511978,1475.3781722001731,1482.2082597999834,1475.3781722001731,1482.2082597999834,1475.3781722001731,1482.2082597999834,1475.3781722001731,1482.2082597999834,65.63492063492063,6.705925500020385,space,,,,1459.9978864002042,6.773698499891907,,,,,,,1457.9104625000618,1457.9104625000618,None,,1470.8860691003501,1457.9104625000618,1457.9104625000618,,,19,001,2024-09-17_14h10.14.048,robot_cogshifting_sign,2022.2.5,59.875363442389805,
"['L_Arm_Y_For', 'L_Torso_Y_For', 'R_Arm_Y_For', 'L_Arm_X_For']","{'laterality': 'R_Arm_Y_For', 'localisation': 'L_Torso_Y_For', 'movement': 'L_Arm_X_For'}",movement,"['laterality', 'localisation', 'movement']",L_Arm_X_For,3,3,robot,3,True,False,"['robot_stimuli\\L_Arm_Y_For.mp4', 'robot_stimuli\\L_Torso_Y_For.mp4', 'robot_stimuli\\R_Arm_Y_For.mp4', 'robot_stimuli\\L_Arm_X_For.mp4']",robot_stimuli\L_Arm_X_For.mp4,19,,,,,,,,,,,,,0,63,63,63,,,,,,,,,,,,,,,,,,1483.5609636004083,,,1500.3272447003983,1500.3272447003983,1500.3272447003983,4,2.489239299669862,1502.8489276003093,1502.8489276003093,1502.8489276003093,1502.8489276003093,1502.8489276003093,1502.8489276003093,1502.8489276003093,1502.8489276003093,None,None,None,,,,,,,,,,,,1482.2082597999834,1482.2082597999834,space,1.335965400096029,1496.670099900104,,,,,19,001,2024-09-17_14h10.14.048,robot_cogshifting_sign,2022.2.5,59.875363442389805,
"['L_Torso_Y_Back', 'L_Head_X_Back', 'L_Head_Y_Back', 'R_Head_Y_Back']","{'laterality': 'R_Head_Y_Back', 'localisation': 'L_Torso_Y_Back', 'movement': 'L_Head_X_Back'}",localisation,"['laterality', 'localisation', 'movement']",L_Torso_Y_Back,0,3,robot,3,False,False,"['robot_stimuli\\L_Torso_Y_Back.mp4', 'robot_stimuli\\L_Head_X_Back.mp4', 'robot_stimuli\\L_Head_Y_Back.mp4', 'robot_stimuli\\R_Head_Y_Back.mp4']",robot_stimuli\L_Torso_Y_Back.mp4,19,,,,,,,,,,,,,0,64,64,64,,,,,,,,,,,,,,,,,,1502.8489276003093,,,1519.6152256000787,1519.6152256000787,1519.6152256000787,1,0.8729252996854484,1520.5170394000597,1520.5170394000597,1520.5170394000597,1520.5170394000597,1520.5170394000597,1520.5170394000597,1520.5170394000597,1520.5170394000597,None,None,None,,,,1504.9363961000927,,,,,,,,1502.8489276003093,1502.8489276003093,None,,1515.9747604001313,1502.8489276003093,1502.8489276003093,,,19,001,2024-09-17_14h10.14.048,robot_cogshifting_sign,2022.2.5,59.875363442389805,
"['L_Torso_X_Back', 'L_Torso_Z_For', 'L_Head_Z_Back', 'R_Torso_Z_Back']","{'laterality': 'R_Torso_Z_Back', 'localisation': 'L_Head_Z_Back', 'movement': 'L_Torso_X_Back'}",movement,"['laterality', 'localisation', 'movement']",L_Torso_X_Back,0,3,robot,3,False,False,"['robot_stimuli\\L_Torso_X_Back.mp4', 'robot_stimuli\\L_Torso_Z_For.mp4', 'robot_stimuli\\L_Head_Z_Back.mp4', 'robot_stimuli\\R_Torso_Z_Back.mp4']",robot_stimuli\L_Torso_X_Back.mp4,19,,,,,,,,,,,,,0,65,65,65,,,,,,,,,,,,,,,,,,1520.5170394000597,,,1537.4169573001564,1537.4169573001564,1537.4169573001564,4,4.383205899968743,1541.8256083000451,1541.8256083000451,1541.8256083000451,1541.8256083000451,1541.8256083000451,1541.8256083000451,1541.8256083000451,1541.8256083000451,None,None,None,,,,1522.6044654003344,,,,,,,,1520.5170394000597,1520.5170394000597,None,,1533.7597625004128,1520.5170394000597,1520.5170394000597,,,19,001,2024-09-17_14h10.14.048,robot_cogshifting_sign,2022.2.5,59.875363442389805,
"['R_Torso_Y_Back', 'L_Head_Y_For', 'R_Head_Y_For', 'R_Head_Z_Back']","{'laterality': 'L_Head_Y_For', 'localisation': 'R_Torso_Y_Back', 'movement': 'R_Head_Z_Back'}",laterality,"['laterality', 'localisation', 'movement']",L_Head_Y_For,1,3,robot,3,False,False,"['robot_stimuli\\R_Torso_Y_Back.mp4', 'robot_stimuli\\L_Head_Y_For.mp4', 'robot_stimuli\\R_Head_Y_For.mp4', 'robot_stimuli\\R_Head_Z_Back.mp4']",robot_stimuli\L_Head_Y_For.mp4,19,,,,,,,,,,,,,0,66,66,66,,,,,,,,,,,,,,,,,,1541.8256083000451,,,1558.7255476000719,1558.7255476000719,1558.7255476000719,2,1.8902532001957297,1560.6460022004321,1560.6460022004321,1560.6460022004321,1560.6460022004321,1560.6460022004321,1560.6460022004321,1560.6460022004321,1560.6460022004321,None,None,None,,,,1543.913114900235,,,,,,,,1541.8256083000451,1541.8256083000451,None,,1555.0850653001107,1541.8256083000451,1541.8256083000451,,,19,001,2024-09-17_14h10.14.048,robot_cogshifting_sign,2022.2.5,59.875363442389805,
"['R_Arm_X_For', 'R_Base_Y_For', 'L_Arm_Y_For', 'R_Arm_Y_For']","{'laterality': 'L_Arm_Y_For', 'localisation': 'R_Base_Y_For', 'movement': 'R_Arm_X_For'}",laterality,"['laterality', 'localisation', 'movement']",L_Arm_Y_For,2,3,robot,3,False,False,"['robot_stimuli\\R_Arm_X_For.mp4', 'robot_stimuli\\R_Base_Y_For.mp4', 'robot_stimuli\\L_Arm_Y_For.mp4', 'robot_stimuli\\R_Arm_Y_For.mp4']",robot_stimuli\L_Arm_Y_For.mp4,19,,,,,,,,,,,,,0,67,67,67,,,,,,,,,,,,,,,,,,1560.6460022004321,,,1577.4122977000661,1577.4122977000661,1577.4122977000661,3,2.4998039002530277,1579.933974200394,1579.933974200394,1579.933974200394,1579.933974200394,1579.933974200394,1579.933974200394,1579.933974200394,1579.933974200394,None,None,None,,,,1562.7334966002963,,,,,,,,1560.6460022004321,1560.6460022004321,None,,1573.905410700012,1560.6460022004321,1560.6460022004321,,,19,001,2024-09-17_14h10.14.048,robot_cogshifting_sign,2022.2.5,59.875363442389805,
"['R_Head_Y_For', 'R_Base_Z_For', 'L_Head_Z_For', 'R_Head_Z_For']","{'laterality': 'L_Head_Z_For', 'localisation': 'R_Base_Z_For', 'movement': 'R_Head_Y_For'}",localisation,"['laterality', 'localisation', 'movement']",R_Base_Z_For,1,3,robot,3,False,False,"['robot_stimuli\\R_Head_Y_For.mp4', 'robot_stimuli\\R_Base_Z_For.mp4', 'robot_stimuli\\L_Head_Z_For.mp4', 'robot_stimuli\\R_Head_Z_For.mp4']",robot_stimuli\R_Base_Z_For.mp4,19,,,,,,,,,,,,,0,68,68,68,,,,,,,,,,,,,,,,,,1579.933974200394,,,1596.8171806000173,1596.8171806000173,1596.8171806000173,3,4.366364799905568,1601.2091642003506,1601.2091642003506,1601.2091642003506,1601.2091642003506,1601.2091642003506,1601.2091642003506,1601.2091642003506,1601.2091642003506,None,None,None,,,,1582.021398300305,,,,,,,,1579.933974200394,1579.933974200394,None,,1593.1766576003283,1579.933974200394,1579.933974200394,,,19,001,2024-09-17_14h10.14.048,robot_cogshifting_sign,2022.2.5,59.875363442389805,
"['L_Torso_Y_Back', 'L_Torso_X_For', 'L_Arm_X_For', 'R_Torso_X_Back']","{'laterality': 'R_Torso_X_Back', 'localisation': 'L_Arm_X_For', 'movement': 'L_Torso_Y_Back'}",localisation,"['laterality', 'localisation', 'movement']",L_Arm_X_For,2,3,robot,3,False,False,"['robot_stimuli\\L_Torso_Y_Back.mp4', 'robot_stimuli\\L_Torso_X_For.mp4', 'robot_stimuli\\L_Arm_X_For.mp4', 'robot_stimuli\\R_Torso_X_Back.mp4']",robot_stimuli\L_Arm_X_For.mp4,19,,,,,,,,,,,,,0,69,69,69,,,,,,,,,,,,,,,,,,1601.2091642003506,,,1617.9755132002756,1617.9755132002756,1617.9755132002756,2,4.031732999719679,1622.033467500005,1622.033467500005,1622.033467500005,1622.033467500005,1622.033467500005,1622.033467500005,1622.033467500005,1622.033467500005,None,None,None,,,,1603.2966012000106,,,,,,,,1601.2091642003506,1601.2091642003506,None,,1614.3350321003236,1601.2091642003506,1601.2091642003506,,,19,001,2024-09-17_14h10.14.048,robot_cogshifting_sign,2022.2.5,59.875363442389805,
"['L_Base_Y_Back', 'L_Arm_Z_For', 'R_Base_Z_Back', 'L_Base_Z_For']","{'laterality': 'R_Base_Z_Back', 'localisation': 'L_Arm_Z_For', 'movement': 'L_Base_Y_Back'}",movement,"['laterality', 'localisation', 'movement']",L_Base_Y_Back,0,3,robot,3,False,False,"['robot_stimuli\\L_Base_Y_Back.mp4', 'robot_stimuli\\L_Arm_Z_For.mp4', 'robot_stimuli\\R_Base_Z_Back.mp4', 'robot_stimuli\\L_Base_Z_For.mp4']",robot_stimuli\L_Base_Y_Back.mp4,19,,,,,,,,,,,,,0,70,70,70,,,,,,,,,,,,,,,,,,1622.033467500005,,,1638.7664107000455,1638.7664107000455,1638.7664107000455,1,2.5693942001089454,1641.354846500326,1641.354846500326,1641.354846500326,1641.354846500326,1641.354846500326,1641.354846500326,1641.354846500326,1641.354846500326,None,None,None,,,,1624.1209456999786,,,,,,,,1622.033467500005,1622.033467500005,None,,1635.125904200133,1622.033467500005,1622.033467500005,,,19,001,2024-09-17_14h10.14.048,robot_cogshifting_sign,2022.2.5,59.875363442389805,
"['R_Head_Z_Back', 'L_Head_Y_For', 'R_Torso_Y_Back', 'R_Head_Y_Back']","{'laterality': 'L_Head_Y_For', 'localisation': 'R_Torso_Y_Back', 'movement': 'R_Head_Z_Back'}",laterality,"['laterality', 'localisation', 'movement']",L_Head_Y_For,1,3,robot,3,False,True,"['robot_stimuli\\R_Head_Z_Back.mp4', 'robot_stimuli\\L_Head_Y_For.mp4', 'robot_stimuli\\R_Torso_Y_Back.mp4', 'robot_stimuli\\R_Head_Y_Back.mp4']",robot_stimuli\L_Head_Y_For.mp4,19,,,,,,,,,,,,,0,71,71,71,,,,,,,,,,,,,,,,,,1641.354846500326,,,1658.2881462001242,1658.2881462001242,1658.2881462001242,2,2.464481099974364,1660.809788600076,1664.6006084000692,1660.809788600076,1664.6006084000692,1660.809788600076,1664.6006084000692,1660.809788600076,1664.6006084000692,111.98412698412697,3.533534999936819,space,,,,1643.442355400417,3.7337639001198113,,,,,,,1641.354846500326,1641.354846500326,None,,1654.6309784003533,1641.354846500326,1641.354846500326,,,19,001,2024-09-17_14h10.14.048,robot_cogshifting_sign,2022.2.5,59.875363442389805,
"['R_Base_Y_For', 'R_Torso_Y_For', 'L_Base_Y_For', 'R_Base_Z_Back']","{'laterality': 'L_Base_Y_For', 'localisation': 'R_Torso_Y_For', 'movement': 'R_Base_Z_Back'}",localisation,['localisation'],R_Torso_Y_For,1,1,robot,3,True,False,"['robot_stimuli\\R_Base_Y_For.mp4', 'robot_stimuli\\R_Torso_Y_For.mp4', 'robot_stimuli\\L_Base_Y_For.mp4', 'robot_stimuli\\R_Base_Z_Back.mp4']",robot_stimuli\R_Torso_Y_For.mp4,19,,,,,,,,,,,,,0,72,72,72,,,,,,,,,,,,,,,,,,1665.7361543001607,,,1682.4189840001054,1682.4189840001054,1682.4189840001054,2,0.26979060005396605,1682.7195737003349,1682.7195737003349,1682.7195737003349,1682.7195737003349,1682.7195737003349,1682.7195737003349,1682.7195737003349,1682.7195737003349,None,None,None,,,,,,,,,,,,1664.6006084000692,1664.6006084000692,space,1.118896100204438,1678.8786601000465,,,,,19,001,2024-09-17_14h10.14.048,robot_cogshifting_sign,2022.2.5,59.875363442389805,
"['R_Base_Y_Back', 'R_Head_Y_Back', 'R_Head_Z_For', 'L_Head_Y_Back']","{'laterality': 'L_Head_Y_Back', 'localisation': 'R_Base_Y_Back', 'movement': 'R_Head_Z_For'}",movement,['movement'],R_Head_Z_For,2,1,robot,3,False,False,"['robot_stimuli\\R_Base_Y_Back.mp4', 'robot_stimuli\\R_Head_Y_Back.mp4', 'robot_stimuli\\R_Head_Z_For.mp4', 'robot_stimuli\\L_Head_Y_Back.mp4']",robot_stimuli\R_Head_Z_For.mp4,19,,,,,,,,,,,,,0,73,73,73,,,,,,,,,,,,,,,,,,1682.7195737003349,,,1699.6028285003267,1699.6028285003267,1699.6028285003267,3,0.5331629998981953,1700.15391610004,1700.15391610004,1700.15391610004,1700.15391610004,1700.15391610004,1700.15391610004,1700.15391610004,1700.15391610004,None,None,None,,,,1684.8070065001957,,,,,,,,1682.7195737003349,1682.7195737003349,None,,1695.9790116003715,1682.7195737003349,1682.7195737003349,,,19,001,2024-09-17_14h10.14.048,robot_cogshifting_sign,2022.2.5,59.875363442389805,
"['R_Head_Y_Back', 'R_Head_X_For', 'R_Base_X_Back', 'L_Head_X_For']","{'laterality': 'L_Head_X_For', 'localisation': 'R_Base_X_Back', 'movement': 'R_Head_Y_Back'}",movement,['movement'],R_Head_Y_Back,0,1,robot,3,False,False,"['robot_stimuli\\R_Head_Y_Back.mp4', 'robot_stimuli\\R_Head_X_For.mp4', 'robot_stimuli\\R_Base_X_Back.mp4', 'robot_stimuli\\L_Head_X_For.mp4']",robot_stimuli\R_Head_Y_Back.mp4,19,,,,,,,,,,,,,0,74,74,74,,,,,,,,,,,,,,,,,,1700.15391610004,,,1716.987014000304,1716.987014000304,1716.987014000304,1,0.3321737996302545,1717.3377243001014,1717.3377243001014,1717.3377243001014,1717.3377243001014,1717.3377243001014,1717.3377243001014,1717.3377243001014,1717.3377243001014,None,None,None,,,,1702.2413431000896,,,,,,,,1700.15391610004,1700.15391610004,None,,1713.4133023000322,1700.15391610004,1700.15391610004,,,19,001,2024-09-17_14h10.14.048,robot_cogshifting_sign,2022.2.5,59.875363442389805,
"['L_Head_Z_For', 'R_Arm_Z_Back', 'L_Arm_Y_Back', 'L_Arm_Z_Back']","{'laterality': 'R_Arm_Z_Back', 'localisation': 'L_Head_Z_For', 'movement': 'L_Arm_Y_Back'}",localisation,['localisation'],L_Head_Z_For,0,1,robot,3,False,False,"['robot_stimuli\\L_Head_Z_For.mp4', 'robot_stimuli\\R_Arm_Z_Back.mp4', 'robot_stimuli\\L_Arm_Y_Back.mp4', 'robot_stimuli\\L_Arm_Z_Back.mp4']",robot_stimuli\L_Head_Z_For.mp4,19,,,,,,,,,,,,,0,75,75,75,,,,,,,,,,,,,,,,,,1717.3377243001014,,,1734.2376168002374,1734.2376168002374,1734.2376168002374,1,0.29736350011080503,1734.554966500029,1734.554966500029,1734.554966500029,1734.554966500029,1734.554966500029,1734.554966500029,1734.554966500029,1734.554966500029,None,None,None,,,,1719.425159000326,,,,,,,,1717.3377243001014,1717.3377243001014,None,,1730.5804308000952,1717.3377243001014,1717.3377243001014,,,19,001,2024-09-17_14h10.14.048,robot_cogshifting_sign,2022.2.5,59.875363442389805,
"['L_Torso_Z_Back', 'L_Head_Y_For', 'R_Head_Z_Back', 'L_Head_Z_For']","{'laterality': 'R_Head_Z_Back', 'localisation': 'L_Torso_Z_Back', 'movement': 'L_Head_Y_For'}",localisation,['localisation'],L_Torso_Z_Back,0,1,robot,3,False,False,"['robot_stimuli\\L_Torso_Z_Back.mp4', 'robot_stimuli\\L_Head_Y_For.mp4', 'robot_stimuli\\R_Head_Z_Back.mp4', 'robot_stimuli\\L_Head_Z_For.mp4']",robot_stimuli\L_Torso_Z_Back.mp4,19,,,,,,,,,,,,,0,76,76,76,,,,,,,,,,,,,,,,,,1734.554966500029,,,1751.3045157003216,1751.3045157003216,1751.3045157003216,1,0.639204400125891,1751.9725438002497,1751.9725438002497,1751.9725438002497,1751.9725438002497,1751.9725438002497,1751.9725438002497,1751.9725438002497,1751.9725438002497,None,None,None,,,,1736.6424347003922,,,,,,,,1734.554966500029,1734.554966500029,None,,1747.6640872000717,1734.554966500029,1734.554966500029,,,19,001,2024-09-17_14h10.14.048,robot_cogshifting_sign,2022.2.5,59.875363442389805,
"['R_Torso_Z_Back', 'R_Arm_Y_For', 'L_Arm_Z_For', 'R_Arm_Z_For']","{'laterality': 'L_Arm_Z_For', 'localisation': 'R_Torso_Z_Back', 'movement': 'R_Arm_Y_For'}",movement,['movement'],R_Arm_Y_For,1,1,robot,3,False,False,"['robot_stimuli\\R_Torso_Z_Back.mp4', 'robot_stimuli\\R_Arm_Y_For.mp4', 'robot_stimuli\\L_Arm_Z_For.mp4', 'robot_stimuli\\R_Arm_Z_For.mp4']",robot_stimuli\R_Arm_Y_For.mp4,19,,,,,,,,,,,,,0,77,77,77,,,,,,,,,,,,,,,,,,1751.9725438002497,,,1768.7388616004027,1768.7388616004027,1768.7388616004027,2,0.2362230997532606,1769.006120200269,1769.006120200269,1769.006120200269,1769.006120200269,1769.006120200269,1769.006120200269,1769.006120200269,1769.006120200269,None,None,None,,,,1754.0599927003495,,,,,,,,1751.9725438002497,1751.9725438002497,None,,1765.0817137002014,1751.9725438002497,1751.9725438002497,,,19,001,2024-09-17_14h10.14.048,robot_cogshifting_sign,2022.2.5,59.875363442389805,
"['R_Arm_X_Back', 'R_Head_X_For', 'R_Arm_Y_Back', 'L_Arm_X_For']","{'laterality': 'L_Arm_X_For', 'localisation': 'R_Head_X_For', 'movement': 'R_Arm_Y_Back'}",laterality,['laterality'],L_Arm_X_For,3,1,robot,3,False,False,"['robot_stimuli\\R_Arm_X_Back.mp4', 'robot_stimuli\\R_Head_X_For.mp4', 'robot_stimuli\\R_Arm_Y_Back.mp4', 'robot_stimuli\\L_Arm_X_For.mp4']",robot_stimuli\L_Arm_X_For.mp4,19,,,,,,,,,,,,,0,78,78,78,,,,,,,,,,,,,,,,,,1769.006120200269,,,1785.8892777999863,1785.8892777999863,1785.8892777999863,4,0.4541252995841205,1786.373558500316,1786.373558500316,1786.373558500316,1786.373558500316,1786.373558500316,1786.373558500316,1786.373558500316,1786.373558500316,None,None,None,,,,1771.0935174999759,,,,,,,,1769.006120200269,1769.006120200269,None,,1782.2488410002552,1769.006120200269,1769.006120200269,,,19,001,2024-09-17_14h10.14.048,robot_cogshifting_sign,2022.2.5,59.875363442389805,
"['L_Head_X_For', 'R_Head_X_For', 'L_Head_Y_For', 'L_Arm_X_For']","{'laterality': 'R_Head_X_For', 'localisation': 'L_Arm_X_For', 'movement': 'L_Head_Y_For'}",laterality,['laterality'],R_Head_X_For,1,1,robot,3,False,False,"['robot_stimuli\\L_Head_X_For.mp4', 'robot_stimuli\\R_Head_X_For.mp4', 'robot_stimuli\\L_Head_Y_For.mp4', 'robot_stimuli\\L_Arm_X_For.mp4']",robot_stimuli\R_Head_X_For.mp4,19,,,,,,,,,,,,,0,79,79,79,,,,,,,,,,,,,,,,,,1786.373558500316,,,1803.2067003003322,1803.2067003003322,1803.2067003003322,2,0.4324988997541368,1803.6576270000078,1803.6576270000078,1803.6576270000078,1803.6576270000078,1803.6576270000078,1803.6576270000078,1803.6576270000078,1803.6576270000078,None,None,None,,,,1788.4610617002472,,,,,,,,1786.373558500316,1786.373558500316,None,,1799.549525700044,1786.373558500316,1786.373558500316,,,19,001,2024-09-17_14h10.14.048,robot_cogshifting_sign,2022.2.5,59.875363442389805,
"['L_Base_Z_For', 'L_Base_Y_Back', 'L_Head_Y_Back', 'R_Base_Y_Back']","{'laterality': 'R_Base_Y_Back', 'localisation': 'L_Head_Y_Back', 'movement': 'L_Base_Z_For'}",laterality,['laterality'],R_Base_Y_Back,3,1,robot,3,False,True,"['robot_stimuli\\L_Base_Z_For.mp4', 'robot_stimuli\\L_Base_Y_Back.mp4', 'robot_stimuli\\L_Head_Y_Back.mp4', 'robot_stimuli\\R_Base_Y_Back.mp4']",robot_stimuli\R_Base_Y_Back.mp4,19,,,,,,,,,,,,,0,80,80,80,,,,,,,,,,,,,,,,,,1803.6576270000078,,,1820.490750500001,1820.490750500001,1820.490750500001,4,0.5733990999870002,1821.1253504999913,1824.298206300009,1821.1253504999913,1824.298206300009,1821.1253504999913,1824.298206300009,1821.1253504999913,1824.298206300009,21.031746031746035,2.9154505003243685,space,,,,1805.7450584000908,3.0985332997515798,,,,,,,1803.6576270000078,1803.6576270000078,None,,1816.8502719001845,1803.6576270000078,1803.6576270000078,,,19,001,2024-09-17_14h10.14.048,robot_cogshifting_sign,2022.2.5,59.875363442389805,
"['blue_left_L_45', 'blue_right_X_0', 'blue_left_Q_0', 'red_left_R_0']","{'color': 'red_left_R_0', 'position': 'blue_right_X_0', 'orientation': 'blue_left_L_45'}",color,"['color', 'orientation', 'position']",red_left_R_0,3,3,letter,4,True,False,"['robot_stimuli\\\\filler.mp4', 'robot_stimuli\\\\filler.mp4', 'robot_stimuli\\\\filler.mp4', 'robot_stimuli\\\\filler.mp4']",robot_stimuli\\filler.mp4,19,,,,,,,,,,,,,0,81,81,81,,,,,,,,,,,,,,,,,,1827.1037567001767,,,1838.0252249003388,1838.0252249003388,1838.0252249003388,4,1.1342168003320694,1839.1775155002251,1839.1775155002251,1839.1775155002251,1839.1775155002251,1839.1775155002251,1839.1775155002251,1839.1775155002251,1839.1775155002251,None,None,None,,,,,,,,,,,,1824.298206300009,1824.298206300009,space,2.780878799967468,,,,1836.004763000179,1838.0252249003388,19,001,2024-09-17_14h10.14.048,robot_cogshifting_sign,2022.2.5,59.875363442389805,
"['blue_top_G_0', 'blue_right_C_0', 'blue_top_G_45', 'red_top_R_0']","{'color': 'red_top_R_0', 'position': 'blue_right_C_0', 'orientation': 'blue_top_G_45'}",position,"['color', 'orientation', 'position']",blue_right_C_0,1,3,letter,4,False,False,"['robot_stimuli\\\\filler.mp4', 'robot_stimuli\\\\filler.mp4', 'robot_stimuli\\\\filler.mp4', 'robot_stimuli\\\\filler.mp4']",robot_stimuli\\filler.mp4,19,,,,,,,,,,,,,0,82,82,82,,,,,,,,,,,,,,,,,,1839.1775155002251,,,1849.8985939002596,1849.8985939002596,1849.8985939002596,2,1.0453910999931395,1850.9673994001932,1850.9673994001932,1850.9673994001932,1850.9673994001932,1850.9673994001932,1850.9673994001932,1850.9673994001932,1850.9673994001932,None,None,None,,,,1841.2315313001163,,,,,,,,1839.1775155002251,1839.1775155002251,None,,,1839.1775155002251,1839.1775155002251,1847.6943605002016,1849.8985939002596,19,001,2024-09-17_14h10.14.048,robot_cogshifting_sign,2022.2.5,59.875363442389805,
"['red_top_J_45', 'red_top_D_0', 'red_left_F_45', 'blue_top_H_45']","{'color': 'blue_top_H_45', 'position': 'red_left_F_45', 'orientation': 'red_top_D_0'}",orientation,"['color', 'orientation', 'position']",red_top_D_0,1,3,letter,4,False,False,"['robot_stimuli\\\\filler.mp4', 'robot_stimuli\\\\filler.mp4', 'robot_stimuli\\\\filler.mp4', 'robot_stimuli\\\\filler.mp4']",robot_stimuli\\filler.mp4,19,,,,,,,,,,,,,0,83,83,83,,,,,,,,,,,,,,,,,,1850.9673994001932,,,1861.5050715003163,1861.5050715003163,1861.5050715003163,3,2.933867299929261,1864.46061690012,1864.46061690012,1864.46061690012,1864.46061690012,1864.46061690012,1864.46061690012,1864.46061690012,1864.46061690012,None,None,None,,,,1853.038164800033,,,,,,,,1850.9673994001932,1850.9673994001932,None,,,1850.9673994001932,1850.9673994001932,1859.484195300378,1861.5050715003163,19,001,2024-09-17_14h10.14.048,robot_cogshifting_sign,2022.2.5,59.875363442389805,
"['blue_left_N_0', 'red_top_B_0', 'red_left_M_45', 'red_left_F_0']","{'color': 'blue_left_N_0', 'position': 'red_top_B_0', 'orientation': 'red_left_M_45'}",color,"['color', 'orientation', 'position']",blue_left_N_0,0,3,letter,4,False,False,"['robot_stimuli\\\\filler.mp4', 'robot_stimuli\\\\filler.mp4', 'robot_stimuli\\\\filler.mp4', 'robot_stimuli\\\\filler.mp4']",robot_stimuli\\filler.mp4,19,,,,,,,,,,,,,0,84,84,84,,,,,,,,,,,,,,,,,,1864.46061690012,,,1874.9980469001457,1874.9980469001457,1874.9980469001457,2,1.7134682997129858,1876.7347918003798,1876.7347918003798,1876.7347918003798,1876.7347918003798,1876.7347918003798,1876.7347918003798,1876.7347918003798,1876.7347918003798,None,None,None,,,,1866.5314345001243,,,,,,,,1864.46061690012,1864.46061690012,None,,,1864.46061690012,1864.46061690012,1872.9782032002695,1874.9980469001457,19,001,2024-09-17_14h10.14.048,robot_cogshifting_sign,2022.2.5,59.875363442389805,
"['red_top_T_45', 'red_right_L_0', 'red_top_G_0', 'blue_top_Z_0']","{'color': 'blue_top_Z_0', 'position': 'red_right_L_0', 'orientation': 'red_top_T_45'}",orientation,"['color', 'orientation', 'position']",red_top_T_45,0,3,letter,4,False,False,"['robot_stimuli\\\\filler.mp4', 'robot_stimuli\\\\filler.mp4', 'robot_stimuli\\\\filler.mp4', 'robot_stimuli\\\\filler.mp4']",robot_stimuli\\filler.mp4,19,,,,,,,,,,,,,0,85,85,85,,,,,,,,,,,,,,,,,,1876.7347918003798,,,1887.6729627000168,1887.6729627000168,1887.6729627000168,1,1.1820036000572145,1888.8753328002058,1888.8753328002058,1888.8753328002058,1888.8753328002058,1888.8753328002058,1888.8753328002058,1888.8753328002058,1888.8753328002058,None,None,None,,,,1878.8055258002132,,,,,,,,1876.7347918003798,1876.7347918003798,None,,,1876.7347918003798,1876.7347918003798,1885.4686687001958,1887.6729627000168,19,001,2024-09-17_14h10.14.048,robot_cogshifting_sign,2022.2.5,59.875363442389805,
