sequence,odd_ones,parameter,choices,target,target_idx,condition,stimuli,block,is_block_beginning,is_block_ending,sequence_fnames,target_fname,subject,retraining.thisRepN,retraining.thisTrialN,retraining.thisN,retraining.thisIndex,training.thisRepN,training.thisTrialN,training.thisN,training.thisIndex,training_sequence_loop.thisRepN,training_sequence_loop.thisTrialN,training_sequence_loop.thisN,training_sequence_loop.thisIndex,trials.thisRepN,trials.thisTrialN,trials.thisN,trials.thisIndex,sequence_loop.thisRepN,sequence_loop.thisTrialN,sequence_loop.thisN,sequence_loop.thisIndex,langage_text.started,langage_key.started,langage_key.keys,langage_key.rt,intro_text.started,intro_key.started,intro_key.keys,intro_key.rt,training_intro_text.started,training_intro_key.started,training_intro_key.keys,training_intro_key.rt,polygon.started,cue_before_text.started,training_presentation_letter.started,training_presentation_letter.stopped,recall_key.started,recall_question.started,recall_answer.started,recall_key.keys,recall_key.rt,RSME_labels.started,RSME_labels.stopped,RSME_ticks.started,RSME_ticks.stopped,RSME_text.started,RSME_text.stopped,RSME_key.started,RSME_key.stopped,RSME_ticks.response,RSME_ticks.rt,RSME_key.keys,training_intro_text.stopped,training_intro_key.stopped,polygon.stopped,cue_before_text.stopped,RSME_key.rt,training_presentation_movie.started,experiment_beginning_text.started,experiment_beginning_keys.started,experiment_beginning_key.started,experiment_beginning_key.keys,experiment_beginning_key.rt,block_intro_text.started,block_intro_key.started,block_intro_key.keys,block_intro_key.rt,presentation_movie.started,block_intro_text.stopped,block_intro_key.stopped,presentation_letter.started,presentation_letter.stopped,participant,session,date,expName,psychopyVersion,frameRate,
,,,,,,,,,,,,,,,,,,,,,,,,,,,,,,,,,,15.490429099649191,15.490429099649191,f,5.392860200256109,,,,,,,,,,,,,,,,,,,,,,,,,,,,,,,,,,,,,,,,,,,,,,,,,17,001,2024-09-10_13h07.16.541,robot_cogshifting_sign,2022.2.5,59.90186875058361,
,,,,,,,,,,,,,,,,,,,,,,,,,,,,,,,,,,,,,,20.933564799837768,20.933564799837768,space,25.56504980009049,,,,,,,,,,,,,,,,,,,,,,,,,,,,,,,,,,,,,,,,,,,,,17,001,2024-09-10_13h07.16.541,robot_cogshifting_sign,2022.2.5,59.90186875058361,
"['blue_top_K_45', 'red_left_L_45', 'blue_left_B_0', 'blue_left_T_45']","{'color': 'red_left_L_45', 'position': 'blue_top_K_45', 'orientation': 'blue_left_B_0'}",position,['position'],blue_top_K_45,0,1,letter,2,True,False,"['robot_stimuli\\\\filler.mp4', 'robot_stimuli\\\\filler.mp4', 'robot_stimuli\\\\filler.mp4', 'robot_stimuli\\\\filler.mp4']",robot_stimuli\\filler.mp4,17,0,0,0,0,0,0,0,0,,,,,,,,,,,,,,,,,,,,,46.55065559968352,46.55065559968352,space,3.972400900442153,50.54184109997004,51.543791299685836,60.77873259969056,63.01640939991921,63.01640939991921,63.01640939991921,63.01640939991921,1,32.24204570008442,95.31329629989341,95.31329629989341,95.31329629989341,95.31329629989341,95.31329629989341,95.31329629989341,95.31329629989341,95.31329629989341,None,None,None,,,,,,,,,,,,,,,,,,,,,17,001,2024-09-10_13h07.16.541,robot_cogshifting_sign,2022.2.5,59.90186875058361,
"['blue_left_F_45', 'blue_left_B_0', 'red_left_K_45', 'blue_bottom_L_45']","{'color': 'red_left_K_45', 'position': 'blue_bottom_L_45', 'orientation': 'blue_left_B_0'}",orientation,['orientation'],blue_left_B_0,1,1,letter,2,False,False,"['robot_stimuli\\\\filler.mp4', 'robot_stimuli\\\\filler.mp4', 'robot_stimuli\\\\filler.mp4', 'robot_stimuli\\\\filler.mp4']",robot_stimuli\\filler.mp4,17,0,0,0,0,0,1,1,1,,,,,,,,,,,,,,,,,,,,,95.31329629989341,95.31329629989341,None,,95.31329629989341,96.3152544000186,104.69851019978523,106.9194082999602,106.9194082999602,106.9194082999602,106.9194082999602,2,0.7169676003977656,107.65420679980889,107.65420679980889,107.65420679980889,107.65420679980889,107.65420679980889,107.65420679980889,107.65420679980889,107.65420679980889,None,None,None,95.31329629989341,95.31329629989341,96.3152544000186,98.38596279965714,,,,,,,,,,,,,,,,,17,001,2024-09-10_13h07.16.541,robot_cogshifting_sign,2022.2.5,59.90186875058361,
"['red_left_R_45', 'red_right_B_0', 'blue_right_R_45', 'red_right_W_45']","{'color': 'blue_right_R_45', 'position': 'red_left_R_45', 'orientation': 'red_right_B_0'}",color,['color'],blue_right_R_45,2,1,letter,2,False,True,"['robot_stimuli\\\\filler.mp4', 'robot_stimuli\\\\filler.mp4', 'robot_stimuli\\\\filler.mp4', 'robot_stimuli\\\\filler.mp4']",robot_stimuli\\filler.mp4,17,0,0,0,0,0,2,2,2,,,,,,,,,,,,,,,,,,,,,107.65420679980889,107.65420679980889,None,,107.65420679980889,108.65622909972444,117.03945440007374,119.2604239997454,119.2604239997454,119.2604239997454,119.2604239997454,3,0.5819840002804995,119.9116833996959,130.93331289989874,119.9116833996959,130.93331289989874,119.9116833996959,130.93331289989874,119.9116833996959,130.93331289989874,9.920634920634924,9.945929000154138,space,107.65420679980889,107.65420679980889,108.65622909972444,110.72694760002196,10.947288700379431,,,,,,,,,,,,,,,,17,001,2024-09-10_13h07.16.541,robot_cogshifting_sign,2022.2.5,59.90186875058361,
"['blue_right_Z_0', 'red_top_P_0', 'blue_top_C_45', 'blue_top_V_0']","{'color': 'red_top_P_0', 'position': 'blue_right_Z_0', 'orientation': 'blue_top_C_45'}",position,"['orientation', 'position']",blue_right_Z_0,0,2,letter,2,True,False,"['robot_stimuli\\\\filler.mp4', 'robot_stimuli\\\\filler.mp4', 'robot_stimuli\\\\filler.mp4', 'robot_stimuli\\\\filler.mp4']",robot_stimuli\\filler.mp4,17,0,0,0,0,0,3,3,3,,,,,,,,,,,,,,,,,,,,,130.93331289989874,130.93331289989874,space,2.9416213002987206,133.9058838998899,134.90786179993302,143.4914675001055,145.72916739992797,145.72916739992797,145.72916739992797,145.72916739992797,3,0.4496955000795424,146.1967628998682,146.1967628998682,146.1967628998682,146.1967628998682,146.1967628998682,146.1967628998682,146.1967628998682,146.1967628998682,None,None,None,,,,,,,,,,,,,,,,,,,,,17,001,2024-09-10_13h07.16.541,robot_cogshifting_sign,2022.2.5,59.90186875058361,
"['red_bottom_W_0', 'red_bottom_B_45', 'blue_bottom_D_45', 'red_top_V_45']","{'color': 'blue_bottom_D_45', 'position': 'red_top_V_45', 'orientation': 'red_bottom_W_0'}",color,"['color', 'position']",blue_bottom_D_45,2,2,letter,2,False,False,"['robot_stimuli\\\\filler.mp4', 'robot_stimuli\\\\filler.mp4', 'robot_stimuli\\\\filler.mp4', 'robot_stimuli\\\\filler.mp4']",robot_stimuli\\filler.mp4,17,0,0,0,0,0,4,4,4,,,,,,,,,,,,,,,,,,,,,146.1967628998682,146.1967628998682,None,,146.1967628998682,147.1987461000681,155.76556559978053,157.80292609985918,157.80292609985918,157.80292609985918,157.80292609985918,3,3.6557872002013028,161.47680959990248,161.47680959990248,161.47680959990248,161.47680959990248,161.47680959990248,161.47680959990248,161.47680959990248,161.47680959990248,None,None,None,146.1967628998682,146.1967628998682,147.1987461000681,149.26947959978133,,,,,,,,,,,,,,,,,17,001,2024-09-10_13h07.16.541,robot_cogshifting_sign,2022.2.5,59.90186875058361,
"['blue_top_J_0', 'blue_top_Z_45', 'blue_left_W_45', 'red_top_Z_45']","{'color': 'red_top_Z_45', 'position': 'blue_left_W_45', 'orientation': 'blue_top_J_0'}",orientation,"['orientation', 'position']",blue_top_J_0,0,2,letter,2,False,True,"['robot_stimuli\\\\filler.mp4', 'robot_stimuli\\\\filler.mp4', 'robot_stimuli\\\\filler.mp4', 'robot_stimuli\\\\filler.mp4']",robot_stimuli\\filler.mp4,17,0,0,0,0,0,5,5,5,,,,,,,,,,,,,,,,,,,,,161.47680959990248,161.47680959990248,None,,161.47680959990248,162.4787987996824,170.8621161999181,172.88258459977806,172.88258459977806,172.88258459977806,172.88258459977806,1,0.45576609997078776,173.40024789981544,177.19110149983317,173.40024789981544,177.19110149983317,173.40024789981544,177.19110149983317,173.40024789981544,177.19110149983317,21.031746031746035,2.8324599000625312,space,161.47680959990248,161.47680959990248,162.4787987996824,164.54960649972782,3.739870300516486,,,,,,,,,,,,,,,,17,001,2024-09-10_13h07.16.541,robot_cogshifting_sign,2022.2.5,59.90186875058361,
"['blue_bottom_G_45', 'blue_right_M_0', 'blue_right_T_45', 'red_right_Q_45']","{'color': 'red_right_Q_45', 'position': 'blue_bottom_G_45', 'orientation': 'blue_right_M_0'}",color,"['color', 'orientation', 'position']",red_right_Q_45,3,3,letter,2,True,False,"['robot_stimuli\\\\filler.mp4', 'robot_stimuli\\\\filler.mp4', 'robot_stimuli\\\\filler.mp4', 'robot_stimuli\\\\filler.mp4']",robot_stimuli\\filler.mp4,17,0,0,0,0,0,6,6,6,,,,,,,,,,,,,,,,,,,,,177.19110149983317,177.19110149983317,space,1.5956327002495527,178.8109408998862,179.81289190007374,188.21282209968194,190.4337713997811,190.4337713997811,190.4337713997811,190.4337713997811,1,0.5858397004194558,191.05165700009093,191.05165700009093,191.05165700009093,191.05165700009093,191.05165700009093,191.05165700009093,191.05165700009093,191.05165700009093,None,None,None,,,,,,,,,,,,,,,,,,,,,17,001,2024-09-10_13h07.16.541,robot_cogshifting_sign,2022.2.5,59.90186875058361,
"['blue_left_R_45', 'blue_bottom_V_0', 'blue_left_R_0', 'red_left_S_0']","{'color': 'red_left_S_0', 'position': 'blue_bottom_V_0', 'orientation': 'blue_left_R_45'}",orientation,"['color', 'orientation', 'position']",blue_left_R_45,0,3,letter,2,False,False,"['robot_stimuli\\\\filler.mp4', 'robot_stimuli\\\\filler.mp4', 'robot_stimuli\\\\filler.mp4', 'robot_stimuli\\\\filler.mp4']",robot_stimuli\\filler.mp4,17,0,0,0,0,0,7,7,7,,,,,,,,,,,,,,,,,,,,,191.05165700009093,191.05165700009093,None,,191.05165700009093,192.05364669999108,200.62080639973283,202.6578322998248,202.6578322998248,202.6578322998248,202.6578322998248,4,0.6485126004554331,203.32583149988204,203.32583149988204,203.32583149988204,203.32583149988204,203.32583149988204,203.32583149988204,203.32583149988204,203.32583149988204,None,None,None,191.05165700009093,191.05165700009093,192.05364669999108,194.12446209974587,,,,,,,,,,,,,,,,,17,001,2024-09-10_13h07.16.541,robot_cogshifting_sign,2022.2.5,59.90186875058361,
"['blue_top_B_45', 'red_right_Q_45', 'red_top_P_45', 'red_top_M_0']","{'color': 'blue_top_B_45', 'position': 'red_right_Q_45', 'orientation': 'red_top_M_0'}",position,"['color', 'orientation', 'position']",red_right_Q_45,1,3,letter,2,False,True,"['robot_stimuli\\\\filler.mp4', 'robot_stimuli\\\\filler.mp4', 'robot_stimuli\\\\filler.mp4', 'robot_stimuli\\\\filler.mp4']",robot_stimuli\\filler.mp4,17,0,0,0,0,0,8,8,8,,,,,,,,,,,,,,,,,,,,,203.32583149988204,203.32583149988204,None,,203.32583149988204,204.32781949965283,212.660959799774,214.68152379989624,214.68152379989624,214.68152379989624,214.68152379989624,4,0.41018740041181445,215.14917630003765,220.87705860007554,215.14917630003765,220.87705860007554,215.14917630003765,220.87705860007554,215.14917630003765,220.87705860007554,24.84126984126984,4.535216699820012,space,203.32583149988204,203.32583149988204,204.32781949965283,206.39853509981185,5.6539489002898335,,,,,,,,,,,,,,,,17,001,2024-09-10_13h07.16.541,robot_cogshifting_sign,2022.2.5,59.90186875058361,
"['R_Head_Y_For', 'L_Base_Y_Back', 'L_Head_X_For', 'L_Head_Y_For']","{'laterality': 'R_Head_Y_For', 'localisation': 'L_Base_Y_Back', 'movement': 'L_Head_X_For'}",laterality,['laterality'],R_Head_Y_For,0,1,robot,1,True,False,"['robot_stimuli\\R_Head_Y_For.mp4', 'robot_stimuli\\L_Base_Y_Back.mp4', 'robot_stimuli\\L_Head_X_For.mp4', 'robot_stimuli\\L_Head_Y_For.mp4']",robot_stimuli\R_Head_Y_For.mp4,17,0,0,0,0,0,9,9,9,,,,,,,,,,,,,,,,,,,,,220.87705860007554,220.87705860007554,space,4.533491900190711,225.43601810000837,226.43799280002713,,,243.20513379992917,243.20513379992917,243.20513379992917,2,3.5015168003737926,246.7279318999499,246.7279318999499,246.7279318999499,246.7279318999499,246.7279318999499,246.7279318999499,246.7279318999499,246.7279318999499,None,None,None,,,,,,239.54725810000673,,,,,,,,,,,,,,,17,001,2024-09-10_13h07.16.541,robot_cogshifting_sign,2022.2.5,59.90186875058361,
"['L_Head_Y_For', 'L_Base_Y_For', 'L_Head_Z_For', 'R_Head_Y_Back']","{'laterality': 'R_Head_Y_Back', 'localisation': 'L_Base_Y_For', 'movement': 'L_Head_Z_For'}",movement,['movement'],L_Head_Z_For,2,1,robot,1,False,False,"['robot_stimuli\\L_Head_Y_For.mp4', 'robot_stimuli\\L_Base_Y_For.mp4', 'robot_stimuli\\L_Head_Z_For.mp4', 'robot_stimuli\\R_Head_Y_Back.mp4']",robot_stimuli\L_Head_Z_For.mp4,17,0,0,0,0,0,10,10,10,,,,,,,,,,,,,,,,,,,,,246.7279318999499,246.7279318999499,None,,246.7279318999499,247.72991069965065,,,264.56303049996495,264.56303049996495,264.56303049996495,2,0.5119446003809571,265.0974268000573,265.0974268000573,265.0974268000573,265.0974268000573,265.0974268000573,265.0974268000573,265.0974268000573,265.0974268000573,None,None,None,246.7279318999499,246.7279318999499,247.72991069965065,249.83401170000434,,260.9225149000995,,,,,,,,,,,,,,,17,001,2024-09-10_13h07.16.541,robot_cogshifting_sign,2022.2.5,59.90186875058361,
"['L_Head_Y_For', 'L_Arm_Z_For', 'L_Arm_Y_For', 'R_Arm_Y_Back']","{'laterality': 'R_Arm_Y_Back', 'localisation': 'L_Head_Y_For', 'movement': 'L_Arm_Z_For'}",localisation,['localisation'],L_Head_Y_For,0,1,robot,1,False,True,"['robot_stimuli\\L_Head_Y_For.mp4', 'robot_stimuli\\L_Arm_Z_For.mp4', 'robot_stimuli\\L_Arm_Y_For.mp4', 'robot_stimuli\\R_Arm_Y_Back.mp4']",robot_stimuli\L_Head_Y_For.mp4,17,0,0,0,0,0,11,11,11,,,,,,,,,,,,,,,,,,,,,265.0974268000573,265.0974268000573,None,,265.0974268000573,266.09938160004094,,,282.99932299973443,282.99932299973443,282.99932299973443,1,0.49942060001194477,283.5503968996927,286.38933230005205,283.5503968996927,286.38933230005205,283.5503968996927,286.38933230005205,283.5503968996927,286.38933230005205,9.920634920634924,2.314840199891478,space,265.0974268000573,265.0974268000573,266.09938160004094,268.1868682000786,2.7646490004844964,279.35883049992844,,,,,,,,,,,,,,,17,001,2024-09-10_13h07.16.541,robot_cogshifting_sign,2022.2.5,59.90186875058361,
"['L_Arm_Y_For', 'L_Arm_Z_For', 'R_Arm_Z_For', 'L_Torso_Z_Back']","{'laterality': 'R_Arm_Z_For', 'localisation': 'L_Torso_Z_Back', 'movement': 'L_Arm_Y_For'}",localisation,"['laterality', 'localisation']",L_Torso_Z_Back,3,2,robot,1,True,False,"['robot_stimuli\\L_Arm_Y_For.mp4', 'robot_stimuli\\L_Arm_Z_For.mp4', 'robot_stimuli\\R_Arm_Z_For.mp4', 'robot_stimuli\\L_Torso_Z_Back.mp4']",robot_stimuli\L_Torso_Z_Back.mp4,17,0,0,0,0,0,12,12,12,,,,,,,,,,,,,,,,,,,,,286.38933230005205,286.38933230005205,space,1.9572815001010895,288.37656409991905,289.37854130007327,,,306.1448963996954,306.1448963996954,306.1448963996954,1,0.3693534005433321,306.5456210998818,306.5456210998818,306.5456210998818,306.5456210998818,306.5456210998818,306.5456210998818,306.5456210998818,306.5456210998818,None,None,None,,,,,,302.63795859972015,,,,,,,,,,,,,,,17,001,2024-09-10_13h07.16.541,robot_cogshifting_sign,2022.2.5,59.90186875058361,
"['R_Arm_Y_Back', 'L_Arm_X_For', 'L_Arm_Y_Back', 'L_Base_Y_For']","{'laterality': 'R_Arm_Y_Back', 'localisation': 'L_Base_Y_For', 'movement': 'L_Arm_X_For'}",movement,"['laterality', 'movement']",L_Arm_X_For,1,2,robot,1,False,False,"['robot_stimuli\\R_Arm_Y_Back.mp4', 'robot_stimuli\\L_Arm_X_For.mp4', 'robot_stimuli\\L_Arm_Y_Back.mp4', 'robot_stimuli\\L_Base_Y_For.mp4']",robot_stimuli\L_Arm_X_For.mp4,17,0,0,0,0,0,13,13,13,,,,,,,,,,,,,,,,,,,,,306.5456210998818,306.5456210998818,None,,306.5456210998818,307.54765099985525,,,324.3473720001057,324.3473720001057,324.3473720001057,3,3.6478512003086507,328.021329799667,328.021329799667,328.021329799667,328.021329799667,328.021329799667,328.021329799667,328.021329799667,328.021329799667,None,None,None,306.5456210998818,306.5456210998818,307.54765099985525,309.63510400010273,,320.8070616000332,,,,,,,,,,,,,,,17,001,2024-09-10_13h07.16.541,robot_cogshifting_sign,2022.2.5,59.90186875058361,
"['R_Head_Z_For', 'L_Torso_Z_Back', 'L_Head_Z_Back', 'L_Head_X_Back']","{'laterality': 'R_Head_Z_For', 'localisation': 'L_Torso_Z_Back', 'movement': 'L_Head_X_Back'}",laterality,"['laterality', 'localisation']",R_Head_Z_For,0,2,robot,1,False,True,"['robot_stimuli\\R_Head_Z_For.mp4', 'robot_stimuli\\L_Torso_Z_Back.mp4', 'robot_stimuli\\L_Head_Z_Back.mp4', 'robot_stimuli\\L_Head_X_Back.mp4']",robot_stimuli\R_Head_Z_For.mp4,17,0,0,0,0,0,14,14,14,,,,,,,,,,,,,,,,,,,,,328.021329799667,328.021329799667,None,,328.021329799667,329.02322719991207,,,345.78959609987214,345.78959609987214,345.78959609987214,4,2.4374558003619313,348.27782649965957,352.3859227998182,348.27782649965957,352.3859227998182,348.27782649965957,352.3859227998182,348.27782649965957,352.3859227998182,38.01587301587302,3.115965799894184,space,328.021329799667,328.021329799667,329.02322719991207,331.1106523000635,4.0372409000992775,342.14907489996403,,,,,,,,,,,,,,,17,001,2024-09-10_13h07.16.541,robot_cogshifting_sign,2022.2.5,59.90186875058361,
"['L_Head_X_For', 'R_Head_X_For', 'R_Head_Z_For', 'R_Torso_X_Back']","{'laterality': 'L_Head_X_For', 'localisation': 'R_Torso_X_Back', 'movement': 'R_Head_Z_For'}",localisation,"['laterality', 'localisation', 'movement']",R_Torso_X_Back,3,3,robot,1,True,False,"['robot_stimuli\\L_Head_X_For.mp4', 'robot_stimuli\\R_Head_X_For.mp4', 'robot_stimuli\\R_Head_Z_For.mp4', 'robot_stimuli\\R_Torso_X_Back.mp4']",robot_stimuli\R_Torso_X_Back.mp4,17,0,0,0,0,0,15,15,15,,,,,,,,,,,,,,,,,,,,,352.3859227998182,352.3859227998182,space,1.1847885004244745,353.5882383999415,354.5902704996988,,,371.42336709983647,371.42336709983647,371.42336709983647,4,1.3392701004631817,372.79269739985466,372.79269739985466,372.79269739985466,372.79269739985466,372.79269739985466,372.79269739985466,372.79269739985466,372.79269739985466,None,None,None,,,,,,367.76619049999863,,,,,,,,,,,,,,,17,001,2024-09-10_13h07.16.541,robot_cogshifting_sign,2022.2.5,59.90186875058361,
"['L_Head_X_Back', 'L_Base_Z_Back', 'R_Base_X_For', 'L_Base_X_For']","{'laterality': 'R_Base_X_For', 'localisation': 'L_Head_X_Back', 'movement': 'L_Base_Z_Back'}",movement,"['laterality', 'localisation', 'movement']",L_Base_Z_Back,1,3,robot,1,False,False,"['robot_stimuli\\L_Head_X_Back.mp4', 'robot_stimuli\\L_Base_Z_Back.mp4', 'robot_stimuli\\R_Base_X_For.mp4', 'robot_stimuli\\L_Base_X_For.mp4']",robot_stimuli\L_Base_Z_Back.mp4,17,0,0,0,0,0,16,16,16,,,,,,,,,,,,,,,,,,,,,372.79269739985466,372.79269739985466,None,,372.79269739985466,373.7947277999483,,,390.51096080010757,390.51096080010757,390.51096080010757,1,0.6362416003830731,391.17891969997436,391.17891969997436,391.17891969997436,391.17891969997436,391.17891969997436,391.17891969997436,391.17891969997436,391.17891969997436,None,None,None,372.79269739985466,372.79269739985466,373.7947277999483,375.88213159982115,,386.95396240008995,,,,,,,,,,,,,,,17,001,2024-09-10_13h07.16.541,robot_cogshifting_sign,2022.2.5,59.90186875058361,
"['R_Arm_Z_For', 'L_Arm_Z_Back', 'R_Head_Z_Back', 'R_Arm_X_For']","{'laterality': 'L_Arm_Z_Back', 'localisation': 'R_Head_Z_Back', 'movement': 'R_Arm_X_For'}",laterality,"['laterality', 'localisation', 'movement']",L_Arm_Z_Back,1,3,robot,1,False,True,"['robot_stimuli\\R_Arm_Z_For.mp4', 'robot_stimuli\\L_Arm_Z_Back.mp4', 'robot_stimuli\\R_Head_Z_Back.mp4', 'robot_stimuli\\R_Arm_X_For.mp4']",robot_stimuli\L_Arm_Z_Back.mp4,17,0,0,0,0,0,17,17,17,,,,,,,,,,,,,,,,,,,,,391.17891969997436,391.17891969997436,None,,391.17891969997436,392.1808933997527,,,409.0641016997397,409.0641016997397,409.0641016997397,3,1.386886200401932,410.5169883999042,413.5729987998493,410.5169883999042,413.5729987998493,410.5169883999042,413.5729987998493,410.5169883999042,413.5729987998493,24.20634920634921,2.666559999808669,space,391.17891969997436,391.17891969997436,392.1808933997527,394.26831740001217,2.97386800032109,405.4403531998396,,,,,,,,,,,,,,,17,001,2024-09-10_13h07.16.541,robot_cogshifting_sign,2022.2.5,59.90186875058361,
,,,,,,,,,,,,,,0,0,0,0,,,,,,,,,,,,,,,,,,,,,,,,,,,,,,,,,,,,,,,,,,,,,,,,,,,,,,,413.5729987998493,413.5729987998493,413.5729987998493,c,23.693435200024396,,,,,,,,,,17,001,2024-09-10_13h07.16.541,robot_cogshifting_sign,2022.2.5,59.90186875058361,
"['L_Arm_Z_For', 'R_Arm_Z_Back', 'R_Head_Z_Back', 'R_Arm_Y_For']","{'laterality': 'L_Arm_Z_For', 'localisation': 'R_Head_Z_Back', 'movement': 'R_Arm_Y_For'}",laterality,"['laterality', 'movement']",L_Arm_Z_For,0,2,robot,1,True,False,"['robot_stimuli\\L_Arm_Z_For.mp4', 'robot_stimuli\\R_Arm_Z_Back.mp4', 'robot_stimuli\\R_Head_Z_Back.mp4', 'robot_stimuli\\R_Arm_Y_For.mp4']",robot_stimuli\L_Arm_Z_For.mp4,17,,,,,,,,,,,,,0,0,0,0,,,,,,,,,,,,,,,,,,439.5074085998349,,,456.2737393998541,456.2737393998541,456.2737393998541,4,4.106346200685948,460.39849799964577,460.39849799964577,460.39849799964577,460.39849799964577,460.39849799964577,460.39849799964577,460.39849799964577,460.39849799964577,None,None,None,,,,,,,,,,,,437.3197623998858,437.3197623998858,space,2.155711800325662,452.7501008999534,,,,,17,001,2024-09-10_13h07.16.541,robot_cogshifting_sign,2022.2.5,59.90186875058361,
"['L_Base_Z_For', 'R_Torso_Z_Back', 'L_Torso_Y_For', 'L_Torso_Z_Back']","{'laterality': 'R_Torso_Z_Back', 'localisation': 'L_Base_Z_For', 'movement': 'L_Torso_Y_For'}",movement,"['laterality', 'movement']",L_Torso_Y_For,2,2,robot,1,False,False,"['robot_stimuli\\L_Base_Z_For.mp4', 'robot_stimuli\\R_Torso_Z_Back.mp4', 'robot_stimuli\\L_Torso_Y_For.mp4', 'robot_stimuli\\L_Torso_Z_Back.mp4']",robot_stimuli\L_Torso_Y_For.mp4,17,,,,,,,,,,,,,0,1,1,1,,,,,,,,,,,,,,,,,,460.39849799964577,,,477.1648634998128,477.1648634998128,477.1648634998128,3,0.8857145002111793,478.08335090009496,478.08335090009496,478.08335090009496,478.08335090009496,478.08335090009496,478.08335090009496,478.08335090009496,478.08335090009496,None,None,None,,,,462.4859786001034,,,,,,,,460.39849799964577,460.39849799964577,None,,473.65794699965045,460.39849799964577,460.39849799964577,,,17,001,2024-09-10_13h07.16.541,robot_cogshifting_sign,2022.2.5,59.90186875058361,
"['L_Arm_Y_Back', 'L_Base_X_Back', 'L_Base_Y_Back', 'R_Base_Y_For']","{'laterality': 'R_Base_Y_For', 'localisation': 'L_Arm_Y_Back', 'movement': 'L_Base_X_Back'}",laterality,"['laterality', 'localisation']",R_Base_Y_For,3,2,robot,1,False,False,"['robot_stimuli\\L_Arm_Y_Back.mp4', 'robot_stimuli\\L_Base_X_Back.mp4', 'robot_stimuli\\L_Base_Y_Back.mp4', 'robot_stimuli\\R_Base_Y_For.mp4']",robot_stimuli\R_Base_Y_For.mp4,17,,,,,,,,,,,,,0,2,2,2,,,,,,,,,,,,,,,,,,478.08335090009496,,,494.8665550998412,494.8665550998412,494.8665550998412,2,0.4083261005580425,495.30056109977886,495.30056109977886,495.30056109977886,495.30056109977886,495.30056109977886,495.30056109977886,495.30056109977886,495.30056109977886,None,None,None,,,,480.17075969977304,,,,,,,,478.08335090009496,478.08335090009496,None,,491.22641559969634,478.08335090009496,478.08335090009496,,,17,001,2024-09-10_13h07.16.541,robot_cogshifting_sign,2022.2.5,59.90186875058361,
"['R_Base_X_For', 'L_Head_X_Back', 'R_Head_Z_Back', 'R_Head_X_Back']","{'laterality': 'L_Head_X_Back', 'localisation': 'R_Base_X_For', 'movement': 'R_Head_Z_Back'}",laterality,"['laterality', 'movement']",L_Head_X_Back,1,2,robot,1,False,False,"['robot_stimuli\\R_Base_X_For.mp4', 'robot_stimuli\\L_Head_X_Back.mp4', 'robot_stimuli\\R_Head_Z_Back.mp4', 'robot_stimuli\\R_Head_X_Back.mp4']",robot_stimuli\L_Head_X_Back.mp4,17,,,,,,,,,,,,,0,3,3,3,,,,,,,,,,,,,,,,,,495.30056109977886,,,512.0836232998408,512.0836232998408,512.0836232998408,3,0.9185839002020657,513.0187777997926,513.0187777997926,513.0187777997926,513.0187777997926,513.0187777997926,513.0187777997926,513.0187777997926,513.0187777997926,None,None,None,,,,497.3880091998726,,,,,,,,495.30056109977886,495.30056109977886,None,,508.44307509995997,495.30056109977886,495.30056109977886,,,17,001,2024-09-10_13h07.16.541,robot_cogshifting_sign,2022.2.5,59.90186875058361,
"['R_Head_Z_For', 'L_Head_Z_Back', 'L_Torso_Z_Back', 'L_Head_Y_Back']","{'laterality': 'R_Head_Z_For', 'localisation': 'L_Torso_Z_Back', 'movement': 'L_Head_Y_Back'}",localisation,"['localisation', 'movement']",L_Torso_Z_Back,2,2,robot,1,False,False,"['robot_stimuli\\R_Head_Z_For.mp4', 'robot_stimuli\\L_Head_Z_Back.mp4', 'robot_stimuli\\L_Torso_Z_Back.mp4', 'robot_stimuli\\L_Head_Y_Back.mp4']",robot_stimuli\L_Torso_Z_Back.mp4,17,,,,,,,,,,,,,0,4,4,4,,,,,,,,,,,,,,,,,,513.0187777997926,,,529.7683830996975,529.7683830996975,529.7683830996975,3,1.4988456005230546,531.2880409997888,531.2880409997888,531.2880409997888,531.2880409997888,531.2880409997888,531.2880409997888,531.2880409997888,531.2880409997888,None,None,None,,,,515.106202099938,,,,,,,,513.0187777997926,513.0187777997926,None,,526.1279257000424,513.0187777997926,513.0187777997926,,,17,001,2024-09-10_13h07.16.541,robot_cogshifting_sign,2022.2.5,59.90186875058361,
"['L_Arm_Y_For', 'L_Arm_Z_For', 'L_Torso_Y_Back', 'R_Arm_Y_Back']","{'laterality': 'R_Arm_Y_Back', 'localisation': 'L_Torso_Y_Back', 'movement': 'L_Arm_Z_For'}",localisation,"['localisation', 'movement']",L_Torso_Y_Back,2,2,robot,1,False,False,"['robot_stimuli\\L_Arm_Y_For.mp4', 'robot_stimuli\\L_Arm_Z_For.mp4', 'robot_stimuli\\L_Torso_Y_Back.mp4', 'robot_stimuli\\R_Arm_Y_Back.mp4']",robot_stimuli\L_Torso_Y_Back.mp4,17,,,,,,,,,,,,,0,5,5,5,,,,,,,,,,,,,,,,,,531.2880409997888,,,548.0543589997105,548.0543589997105,548.0543589997105,3,1.2363698002882302,549.3235778999515,549.3235778999515,549.3235778999515,549.3235778999515,549.3235778999515,549.3235778999515,549.3235778999515,549.3235778999515,None,None,None,,,,533.3754762997851,,,,,,,,531.2880409997888,531.2880409997888,None,,544.3971786000766,531.2880409997888,531.2880409997888,,,17,001,2024-09-10_13h07.16.541,robot_cogshifting_sign,2022.2.5,59.90186875058361,
"['L_Head_Y_For', 'R_Head_Y_For', 'R_Head_Z_Back', 'R_Arm_Y_Back']","{'laterality': 'L_Head_Y_For', 'localisation': 'R_Arm_Y_Back', 'movement': 'R_Head_Z_Back'}",movement,"['laterality', 'movement']",R_Head_Z_Back,2,2,robot,1,False,False,"['robot_stimuli\\L_Head_Y_For.mp4', 'robot_stimuli\\R_Head_Y_For.mp4', 'robot_stimuli\\R_Head_Z_Back.mp4', 'robot_stimuli\\R_Arm_Y_Back.mp4']",robot_stimuli\R_Head_Z_Back.mp4,17,,,,,,,,,,,,,0,6,6,6,,,,,,,,,,,,,,,,,,549.3235778999515,,,566.2401902996935,566.2401902996935,566.2401902996935,3,2.682472700253129,568.9455082998611,568.9455082998611,568.9455082998611,568.9455082998611,568.9455082998611,568.9455082998611,568.9455082998611,568.9455082998611,None,None,None,,,,551.4110359000042,,,,,,,,549.3235778999515,549.3235778999515,None,,562.5996698997915,549.3235778999515,549.3235778999515,,,17,001,2024-09-10_13h07.16.541,robot_cogshifting_sign,2022.2.5,59.90186875058361,
"['L_Torso_X_Back', 'R_Torso_X_For', 'R_Torso_Z_For', 'R_Head_X_Back']","{'laterality': 'L_Torso_X_Back', 'localisation': 'R_Head_X_Back', 'movement': 'R_Torso_Z_For'}",movement,"['laterality', 'movement']",R_Torso_Z_For,2,2,robot,1,False,False,"['robot_stimuli\\L_Torso_X_Back.mp4', 'robot_stimuli\\R_Torso_X_For.mp4', 'robot_stimuli\\R_Torso_Z_For.mp4', 'robot_stimuli\\R_Head_X_Back.mp4']",robot_stimuli\R_Torso_Z_For.mp4,17,,,,,,,,,,,,,0,7,7,7,,,,,,,,,,,,,,,,,,568.9455082998611,,,585.8454247997142,585.8454247997142,585.8454247997142,3,1.6534598004072905,587.5153958997689,587.5153958997689,587.5153958997689,587.5153958997689,587.5153958997689,587.5153958997689,587.5153958997689,587.5153958997689,None,None,None,,,,571.0329828998074,,,,,,,,568.9455082998611,568.9455082998611,None,,582.2050135000609,568.9455082998611,568.9455082998611,,,17,001,2024-09-10_13h07.16.541,robot_cogshifting_sign,2022.2.5,59.90186875058361,
"['L_Base_Z_For', 'L_Head_Z_Back', 'L_Base_Y_Back', 'R_Base_Z_Back']","{'laterality': 'R_Base_Z_Back', 'localisation': 'L_Head_Z_Back', 'movement': 'L_Base_Y_Back'}",localisation,"['laterality', 'localisation']",L_Head_Z_Back,1,2,robot,1,False,True,"['robot_stimuli\\L_Base_Z_For.mp4', 'robot_stimuli\\L_Head_Z_Back.mp4', 'robot_stimuli\\L_Base_Y_Back.mp4', 'robot_stimuli\\R_Base_Z_Back.mp4']",robot_stimuli\L_Head_Z_Back.mp4,17,,,,,,,,,,,,,0,8,8,8,,,,,,,,,,,,,,,,,,587.5153958997689,,,604.2316505000927,604.2316505000927,604.2316505000927,2,1.0428650001995265,605.3338254000992,608.3063162998296,605.3338254000992,608.3063162998296,605.3338254000992,608.3063162998296,605.3338254000992,608.3063162998296,25.000000000000004,2.5149713000282645,space,,,,589.6028575999662,2.9163996004499495,,,,,,,587.5153958997689,587.5153958997689,None,,600.691340399906,587.5153958997689,587.5153958997689,,,17,001,2024-09-10_13h07.16.541,robot_cogshifting_sign,2022.2.5,59.90186875058361,
"['R_Base_X_For', 'R_Base_Z_For', 'R_Arm_X_Back', 'L_Base_X_Back']","{'laterality': 'L_Base_X_Back', 'localisation': 'R_Arm_X_Back', 'movement': 'R_Base_Z_For'}",localisation,"['laterality', 'localisation', 'movement']",R_Arm_X_Back,2,3,robot,1,True,False,"['robot_stimuli\\R_Base_X_For.mp4', 'robot_stimuli\\R_Base_Z_For.mp4', 'robot_stimuli\\R_Arm_X_Back.mp4', 'robot_stimuli\\L_Base_X_Back.mp4']",robot_stimuli\R_Arm_X_Back.mp4,17,,,,,,,,,,,,,0,9,9,9,,,,,,,,,,,,,,,,,,608.9242106997408,,,625.690518300049,625.690518300049,625.690518300049,3,3.9366922001354396,629.6483203000389,629.6483203000389,629.6483203000389,629.6483203000389,629.6483203000389,629.6483203000389,629.6483203000389,629.6483203000389,None,None,None,,,,,,,,,,,,608.3063162998296,608.3063162998296,space,0.6000654003582895,622.0835241000168,,,,,17,001,2024-09-10_13h07.16.541,robot_cogshifting_sign,2022.2.5,59.90186875058361,
"['L_Arm_Z_Back', 'L_Arm_Y_Back', 'R_Arm_Z_Back', 'L_Torso_Z_For']","{'laterality': 'R_Arm_Z_Back', 'localisation': 'L_Torso_Z_For', 'movement': 'L_Arm_Y_Back'}",localisation,"['laterality', 'localisation', 'movement']",L_Torso_Z_For,3,3,robot,1,False,False,"['robot_stimuli\\L_Arm_Z_Back.mp4', 'robot_stimuli\\L_Arm_Y_Back.mp4', 'robot_stimuli\\R_Arm_Z_Back.mp4', 'robot_stimuli\\L_Torso_Z_For.mp4']",robot_stimuli\L_Torso_Z_For.mp4,17,,,,,,,,,,,,,0,10,10,10,,,,,,,,,,,,,,,,,,629.6483203000389,,,646.5316180000082,646.5316180000082,646.5316180000082,3,5.559011000208557,652.1092316997238,652.1092316997238,652.1092316997238,652.1092316997238,652.1092316997238,652.1092316997238,652.1092316997238,652.1092316997238,None,None,None,,,,631.7358602997847,,,,,,,,629.6483203000389,629.6483203000389,None,,642.8911119997501,629.6483203000389,629.6483203000389,,,17,001,2024-09-10_13h07.16.541,robot_cogshifting_sign,2022.2.5,59.90186875058361,
"['L_Head_X_For', 'R_Head_X_Back', 'R_Head_Y_Back', 'R_Base_X_Back']","{'laterality': 'L_Head_X_For', 'localisation': 'R_Base_X_Back', 'movement': 'R_Head_Y_Back'}",localisation,"['laterality', 'localisation', 'movement']",R_Base_X_Back,3,3,robot,1,False,False,"['robot_stimuli\\L_Head_X_For.mp4', 'robot_stimuli\\R_Head_X_Back.mp4', 'robot_stimuli\\R_Head_Y_Back.mp4', 'robot_stimuli\\R_Base_X_Back.mp4']",robot_stimuli\R_Base_X_Back.mp4,17,,,,,,,,,,,,,0,11,11,11,,,,,,,,,,,,,,,,,,652.1092316997238,,,668.9256484000944,668.9256484000944,668.9256484000944,4,1.7810717006213963,670.7292114999145,670.7292114999145,670.7292114999145,670.7292114999145,670.7292114999145,670.7292114999145,670.7292114999145,670.7292114999145,None,None,None,,,,654.19670329988,,,,,,,,652.1092316997238,652.1092316997238,None,,665.2851531999186,652.1092316997238,652.1092316997238,,,17,001,2024-09-10_13h07.16.541,robot_cogshifting_sign,2022.2.5,59.90186875058361,
"['L_Arm_Y_Back', 'L_Torso_Y_Back', 'L_Torso_X_For', 'R_Torso_Y_Back']","{'laterality': 'R_Torso_Y_Back', 'localisation': 'L_Arm_Y_Back', 'movement': 'L_Torso_X_For'}",laterality,"['laterality', 'localisation', 'movement']",R_Torso_Y_Back,3,3,robot,1,False,False,"['robot_stimuli\\L_Arm_Y_Back.mp4', 'robot_stimuli\\L_Torso_Y_Back.mp4', 'robot_stimuli\\L_Torso_X_For.mp4', 'robot_stimuli\\R_Torso_Y_Back.mp4']",robot_stimuli\R_Torso_Y_Back.mp4,17,,,,,,,,,,,,,0,12,12,12,,,,,,,,,,,,,,,,,,670.7292114999145,,,687.4792160997167,687.4792160997167,687.4792160997167,3,1.098945100326091,688.59771370003,688.59771370003,688.59771370003,688.59771370003,688.59771370003,688.59771370003,688.59771370003,688.59771370003,None,None,None,,,,672.816667499952,,,,,,,,670.7292114999145,670.7292114999145,None,,683.8383692000061,670.7292114999145,670.7292114999145,,,17,001,2024-09-10_13h07.16.541,robot_cogshifting_sign,2022.2.5,59.90186875058361,
"['R_Base_Z_For', 'R_Base_Y_Back', 'R_Torso_Y_Back', 'L_Base_Y_Back']","{'laterality': 'L_Base_Y_Back', 'localisation': 'R_Torso_Y_Back', 'movement': 'R_Base_Z_For'}",laterality,"['laterality', 'localisation', 'movement']",L_Base_Y_Back,3,3,robot,1,False,False,"['robot_stimuli\\R_Base_Z_For.mp4', 'robot_stimuli\\R_Base_Y_Back.mp4', 'robot_stimuli\\R_Torso_Y_Back.mp4', 'robot_stimuli\\L_Base_Y_Back.mp4']",robot_stimuli\L_Base_Y_Back.mp4,17,,,,,,,,,,,,,0,13,13,13,,,,,,,,,,,,,,,,,,688.59771370003,,,705.3974577998742,705.3974577998742,705.3974577998742,1,1.6929836003109813,707.1175319999456,707.1175319999456,707.1175319999456,707.1175319999456,707.1175319999456,707.1175319999456,707.1175319999456,707.1175319999456,None,None,None,,,,690.6851602997631,,,,,,,,688.59771370003,688.59771370003,None,,701.840494199656,688.59771370003,688.59771370003,,,17,001,2024-09-10_13h07.16.541,robot_cogshifting_sign,2022.2.5,59.90186875058361,
"['R_Head_Y_For', 'L_Torso_Y_Back', 'R_Torso_Y_Back', 'R_Torso_Z_For']","{'laterality': 'L_Torso_Y_Back', 'localisation': 'R_Head_Y_For', 'movement': 'R_Torso_Z_For'}",movement,"['laterality', 'localisation', 'movement']",R_Torso_Z_For,3,3,robot,1,False,False,"['robot_stimuli\\R_Head_Y_For.mp4', 'robot_stimuli\\L_Torso_Y_Back.mp4', 'robot_stimuli\\R_Torso_Y_Back.mp4', 'robot_stimuli\\R_Torso_Z_For.mp4']",robot_stimuli\R_Torso_Z_For.mp4,17,,,,,,,,,,,,,0,14,14,14,,,,,,,,,,,,,,,,,,707.1175319999456,,,723.8838504999876,723.8838504999876,723.8838504999876,4,2.9586664005182683,726.8730729999952,726.8730729999952,726.8730729999952,726.8730729999952,726.8730729999952,726.8730729999952,726.8730729999952,726.8730729999952,None,None,None,,,,709.2049602996558,,,,,,,,707.1175319999456,707.1175319999456,None,,720.2267542998306,707.1175319999456,707.1175319999456,,,17,001,2024-09-10_13h07.16.541,robot_cogshifting_sign,2022.2.5,59.90186875058361,
"['L_Arm_Y_Back', 'R_Arm_Z_Back', 'R_Head_Y_Back', 'R_Arm_Y_Back']","{'laterality': 'L_Arm_Y_Back', 'localisation': 'R_Head_Y_Back', 'movement': 'R_Arm_Z_Back'}",movement,"['laterality', 'localisation', 'movement']",R_Arm_Z_Back,1,3,robot,1,False,False,"['robot_stimuli\\L_Arm_Y_Back.mp4', 'robot_stimuli\\R_Arm_Z_Back.mp4', 'robot_stimuli\\R_Head_Y_Back.mp4', 'robot_stimuli\\R_Arm_Y_Back.mp4']",robot_stimuli\R_Arm_Z_Back.mp4,17,,,,,,,,,,,,,0,15,15,15,,,,,,,,,,,,,,,,,,726.8730729999952,,,743.7562667997554,743.7562667997554,743.7562667997554,2,2.5497222002595663,746.3280352000147,746.3280352000147,746.3280352000147,746.3280352000147,746.3280352000147,746.3280352000147,746.3280352000147,746.3280352000147,None,None,None,,,,728.9604854998179,,,,,,,,726.8730729999952,726.8730729999952,None,,740.1157728997059,726.8730729999952,726.8730729999952,,,17,001,2024-09-10_13h07.16.541,robot_cogshifting_sign,2022.2.5,59.90186875058361,
"['R_Torso_Y_Back', 'R_Arm_X_For', 'R_Arm_Y_For', 'L_Arm_Y_For']","{'laterality': 'L_Arm_Y_For', 'localisation': 'R_Torso_Y_Back', 'movement': 'R_Arm_X_For'}",laterality,"['laterality', 'localisation', 'movement']",L_Arm_Y_For,3,3,robot,1,False,False,"['robot_stimuli\\R_Torso_Y_Back.mp4', 'robot_stimuli\\R_Arm_X_For.mp4', 'robot_stimuli\\R_Arm_Y_For.mp4', 'robot_stimuli\\L_Arm_Y_For.mp4']",robot_stimuli\L_Arm_Y_For.mp4,17,,,,,,,,,,,,,0,16,16,16,,,,,,,,,,,,,,,,,,746.3280352000147,,,763.0943398997188,763.0943398997188,763.0943398997188,1,0.9960743002593517,764.1130372998305,764.1130372998305,764.1130372998305,764.1130372998305,764.1130372998305,764.1130372998305,764.1130372998305,764.1130372998305,None,None,None,,,,748.415493299719,,,,,,,,746.3280352000147,746.3280352000147,None,,759.4371906998567,746.3280352000147,746.3280352000147,,,17,001,2024-09-10_13h07.16.541,robot_cogshifting_sign,2022.2.5,59.90186875058361,
"['R_Head_Z_For', 'R_Arm_Z_For', 'R_Arm_X_For', 'L_Arm_Z_For']","{'laterality': 'L_Arm_Z_For', 'localisation': 'R_Head_Z_For', 'movement': 'R_Arm_X_For'}",movement,"['laterality', 'localisation', 'movement']",R_Arm_X_For,2,3,robot,1,False,True,"['robot_stimuli\\R_Head_Z_For.mp4', 'robot_stimuli\\R_Arm_Z_For.mp4', 'robot_stimuli\\R_Arm_X_For.mp4', 'robot_stimuli\\L_Arm_Z_For.mp4']",robot_stimuli\R_Arm_X_For.mp4,17,,,,,,,,,,,,,0,17,17,17,,,,,,,,,,,,,,,,,,764.1130372998305,,,780.9962740996853,780.9962740996853,780.9962740996853,3,0.7659500003792346,781.81453470001,785.7055369000882,781.81453470001,785.7055369000882,781.81453470001,785.7055369000882,781.81453470001,785.7055369000882,40.238095238095234,3.3998035001568496,space,,,,766.2005121000111,3.828242900315672,,,,,,,764.1130372998305,764.1130372998305,None,,777.3557905000634,764.1130372998305,764.1130372998305,,,17,001,2024-09-10_13h07.16.541,robot_cogshifting_sign,2022.2.5,59.90186875058361,
"['L_Base_Z_For', 'L_Arm_Z_For', 'R_Base_Z_For', 'L_Base_Y_For']","{'laterality': 'R_Base_Z_For', 'localisation': 'L_Arm_Z_For', 'movement': 'L_Base_Y_For'}",localisation,['localisation'],L_Arm_Z_For,1,1,robot,1,True,False,"['robot_stimuli\\L_Base_Z_For.mp4', 'robot_stimuli\\L_Arm_Z_For.mp4', 'robot_stimuli\\R_Base_Z_For.mp4', 'robot_stimuli\\L_Base_Y_For.mp4']",robot_stimuli\L_Arm_Z_For.mp4,17,,,,,,,,,,,,,0,18,18,18,,,,,,,,,,,,,,,,,,786.740927899722,,,803.540628799703,803.540628799703,803.540628799703,2,0.40557700069621205,803.9748073997907,803.9748073997907,803.9748073997907,803.9748073997907,803.9748073997907,803.9748073997907,803.9748073997907,803.9748073997907,None,None,None,,,,,,,,,,,,785.7055369000882,785.7055369000882,space,1.0164441005326807,799.9836283000186,,,,,17,001,2024-09-10_13h07.16.541,robot_cogshifting_sign,2022.2.5,59.90186875058361,
"['R_Arm_Y_Back', 'R_Head_Z_Back', 'L_Head_Y_Back', 'R_Head_Y_For']","{'laterality': 'L_Head_Y_Back', 'localisation': 'R_Arm_Y_Back', 'movement': 'R_Head_Z_Back'}",localisation,['localisation'],R_Arm_Y_Back,0,1,robot,1,False,False,"['robot_stimuli\\R_Arm_Y_Back.mp4', 'robot_stimuli\\R_Head_Z_Back.mp4', 'robot_stimuli\\L_Head_Y_Back.mp4', 'robot_stimuli\\R_Head_Y_For.mp4']",robot_stimuli\R_Arm_Y_Back.mp4,17,,,,,,,,,,,,,0,19,19,19,,,,,,,,,,,,,,,,,,803.9748073997907,,,820.9081672998145,820.9081672998145,820.9081672998145,1,0.4137361003085971,821.3423267998733,821.3423267998733,821.3423267998733,821.3423267998733,821.3423267998733,821.3423267998733,821.3423267998733,821.3423267998733,None,None,None,,,,806.0623268000782,,,,,,,,803.9748073997907,803.9748073997907,None,,817.2844047998078,803.9748073997907,803.9748073997907,,,17,001,2024-09-10_13h07.16.541,robot_cogshifting_sign,2022.2.5,59.90186875058361,
"['L_Arm_Y_For', 'R_Arm_Z_For', 'L_Arm_Z_Back', 'L_Head_Z_For']","{'laterality': 'R_Arm_Z_For', 'localisation': 'L_Head_Z_For', 'movement': 'L_Arm_Y_For'}",laterality,['laterality'],R_Arm_Z_For,1,1,robot,1,False,False,"['robot_stimuli\\L_Arm_Y_For.mp4', 'robot_stimuli\\R_Arm_Z_For.mp4', 'robot_stimuli\\L_Arm_Z_Back.mp4', 'robot_stimuli\\L_Head_Z_For.mp4']",robot_stimuli\R_Arm_Z_For.mp4,17,,,,,,,,,,,,,0,20,20,20,,,,,,,,,,,,,,,,,,821.3423267998733,,,838.242334399838,838.242334399838,838.242334399838,1,0.6242043003439903,838.8935839999467,838.8935839999467,838.8935839999467,838.8935839999467,838.8935839999467,838.8935839999467,838.8935839999467,838.8935839999467,None,None,None,,,,823.4297998999245,,,,,,,,821.3423267998733,821.3423267998733,None,,834.5850525996648,821.3423267998733,821.3423267998733,,,17,001,2024-09-10_13h07.16.541,robot_cogshifting_sign,2022.2.5,59.90186875058361,
"['L_Base_X_Back', 'R_Base_Y_Back', 'L_Base_Y_For', 'L_Torso_Y_For']","{'laterality': 'R_Base_Y_Back', 'localisation': 'L_Torso_Y_For', 'movement': 'L_Base_X_Back'}",localisation,['localisation'],L_Torso_Y_For,3,1,robot,1,False,False,"['robot_stimuli\\L_Base_X_Back.mp4', 'robot_stimuli\\R_Base_Y_Back.mp4', 'robot_stimuli\\L_Base_Y_For.mp4', 'robot_stimuli\\L_Torso_Y_For.mp4']",robot_stimuli\L_Torso_Y_For.mp4,17,,,,,,,,,,,,,0,21,21,21,,,,,,,,,,,,,,,,,,838.8935839999467,,,855.6432227999903,855.6432227999903,855.6432227999903,4,0.33534840028733015,856.0105318999849,856.0105318999849,856.0105318999849,856.0105318999849,856.0105318999849,856.0105318999849,856.0105318999849,856.0105318999849,None,None,None,,,,840.9810373000801,,,,,,,,838.8935839999467,838.8935839999467,None,,852.0027045998722,838.8935839999467,838.8935839999467,,,17,001,2024-09-10_13h07.16.541,robot_cogshifting_sign,2022.2.5,59.90186875058361,
"['L_Arm_Z_Back', 'R_Arm_Z_Back', 'R_Arm_X_Back', 'R_Head_Z_For']","{'laterality': 'L_Arm_Z_Back', 'localisation': 'R_Head_Z_For', 'movement': 'R_Arm_X_Back'}",laterality,['laterality'],L_Arm_Z_Back,0,1,robot,1,False,False,"['robot_stimuli\\L_Arm_Z_Back.mp4', 'robot_stimuli\\R_Arm_Z_Back.mp4', 'robot_stimuli\\R_Arm_X_Back.mp4', 'robot_stimuli\\R_Head_Z_For.mp4']",robot_stimuli\L_Arm_Z_Back.mp4,17,,,,,,,,,,,,,0,22,22,22,,,,,,,,,,,,,,,,,,856.0105318999849,,,872.9105567000806,872.9105567000806,872.9105567000806,3,0.3473276002332568,873.2778948000632,873.2778948000632,873.2778948000632,873.2778948000632,873.2778948000632,873.2778948000632,873.2778948000632,873.2778948000632,None,None,None,,,,858.0980795999058,,,,,,,,856.0105318999849,856.0105318999849,None,,869.2533847996965,856.0105318999849,856.0105318999849,,,17,001,2024-09-10_13h07.16.541,robot_cogshifting_sign,2022.2.5,59.90186875058361,
"['L_Torso_Z_Back', 'R_Head_Z_For', 'R_Torso_X_For', 'R_Torso_Z_Back']","{'laterality': 'L_Torso_Z_Back', 'localisation': 'R_Head_Z_For', 'movement': 'R_Torso_X_For'}",movement,['movement'],R_Torso_X_For,2,1,robot,1,False,False,"['robot_stimuli\\L_Torso_Z_Back.mp4', 'robot_stimuli\\R_Head_Z_For.mp4', 'robot_stimuli\\R_Torso_X_For.mp4', 'robot_stimuli\\R_Torso_Z_Back.mp4']",robot_stimuli\R_Torso_X_For.mp4,17,,,,,,,,,,,,,0,23,23,23,,,,,,,,,,,,,,,,,,873.2778948000632,,,890.044236799702,890.044236799702,890.044236799702,4,2.6620061001740396,892.7328948997892,892.7328948997892,892.7328948997892,892.7328948997892,892.7328948997892,892.7328948997892,892.7328948997892,892.7328948997892,None,None,None,,,,875.3653531000018,,,,,,,,873.2778948000632,873.2778948000632,None,,886.4037589998916,873.2778948000632,873.2778948000632,,,17,001,2024-09-10_13h07.16.541,robot_cogshifting_sign,2022.2.5,59.90186875058361,
"['R_Head_Y_Back', 'R_Head_X_Back', 'L_Head_X_Back', 'R_Base_X_For']","{'laterality': 'L_Head_X_Back', 'localisation': 'R_Base_X_For', 'movement': 'R_Head_Y_Back'}",movement,['movement'],R_Head_Y_Back,0,1,robot,1,False,False,"['robot_stimuli\\R_Head_Y_Back.mp4', 'robot_stimuli\\R_Head_X_Back.mp4', 'robot_stimuli\\L_Head_X_Back.mp4', 'robot_stimuli\\R_Base_X_For.mp4']",robot_stimuli\R_Head_Y_Back.mp4,17,,,,,,,,,,,,,0,24,24,24,,,,,,,,,,,,,,,,,,892.7328948997892,,,909.5326200998388,909.5326200998388,909.5326200998388,3,3.2693804004229605,912.8224080996588,912.8224080996588,912.8224080996588,912.8224080996588,912.8224080996588,912.8224080996588,912.8224080996588,912.8224080996588,None,None,None,,,,894.8202966996469,,,,,,,,892.7328948997892,892.7328948997892,None,,905.9756285999902,892.7328948997892,892.7328948997892,,,17,001,2024-09-10_13h07.16.541,robot_cogshifting_sign,2022.2.5,59.90186875058361,
"['R_Base_Y_For', 'R_Head_X_For', 'L_Head_Y_For', 'R_Head_Y_For']","{'laterality': 'L_Head_Y_For', 'localisation': 'R_Base_Y_For', 'movement': 'R_Head_X_For'}",movement,['movement'],R_Head_X_For,1,1,robot,1,False,False,"['robot_stimuli\\R_Base_Y_For.mp4', 'robot_stimuli\\R_Head_X_For.mp4', 'robot_stimuli\\L_Head_Y_For.mp4', 'robot_stimuli\\R_Head_Y_For.mp4']",robot_stimuli\R_Head_X_For.mp4,17,,,,,,,,,,,,,0,25,25,25,,,,,,,,,,,,,,,,,,912.8224080996588,,,929.7223434997723,929.7223434997723,929.7223434997723,1,1.3442768002860248,931.0917229996994,931.0917229996994,931.0917229996994,931.0917229996994,931.0917229996994,931.0917229996994,931.0917229996994,931.0917229996994,None,None,None,,,,914.9099046997726,,,,,,,,912.8224080996588,912.8224080996588,None,,926.0651928996667,912.8224080996588,912.8224080996588,,,17,001,2024-09-10_13h07.16.541,robot_cogshifting_sign,2022.2.5,59.90186875058361,
"['R_Head_Y_For', 'L_Head_Z_For', 'L_Head_Y_For', 'L_Base_Y_For']","{'laterality': 'R_Head_Y_For', 'localisation': 'L_Base_Y_For', 'movement': 'L_Head_Z_For'}",laterality,['laterality'],R_Head_Y_For,0,1,robot,1,False,True,"['robot_stimuli\\R_Head_Y_For.mp4', 'robot_stimuli\\L_Head_Z_For.mp4', 'robot_stimuli\\L_Head_Y_For.mp4', 'robot_stimuli\\L_Base_Y_For.mp4']",robot_stimuli\R_Head_Y_For.mp4,17,,,,,,,,,,,,,0,26,26,26,,,,,,,,,,,,,,,,,,931.0917229996994,,,947.8914362997748,947.8914362997748,947.8914362997748,1,0.4948655003681779,948.4425359996967,951.2146870000288,948.4425359996967,951.2146870000288,948.4425359996967,951.2146870000288,948.4425359996967,951.2146870000288,38.8095238095238,2.4147588997147977,space,,,,933.1792079000734,2.719374800566584,,,,,,,931.0917229996994,931.0917229996994,None,,944.3345038997941,931.0917229996994,931.0917229996994,,,17,001,2024-09-10_13h07.16.541,robot_cogshifting_sign,2022.2.5,59.90186875058361,
"['red_bottom_J_45', 'blue_bottom_W_45', 'blue_right_J_45', 'blue_bottom_Z_0']","{'color': 'red_bottom_J_45', 'position': 'blue_right_J_45', 'orientation': 'blue_bottom_Z_0'}",color,"['color', 'orientation']",red_bottom_J_45,0,2,letter,2,True,False,"['robot_stimuli\\\\filler.mp4', 'robot_stimuli\\\\filler.mp4', 'robot_stimuli\\\\filler.mp4', 'robot_stimuli\\\\filler.mp4']",robot_stimuli\\filler.mp4,17,,,,,,,,,,,,,0,27,27,27,,,,,,,,,,,,,,,,,,952.5005576997064,,,963.2383296000771,963.2383296000771,963.2383296000771,1,2.1079886006191373,965.3758904999122,965.3758904999122,965.3758904999122,965.3758904999122,965.3758904999122,965.3758904999122,965.3758904999122,965.3758904999122,None,None,None,,,,,,,,,,,,951.2146870000288,951.2146870000288,space,1.2597119002602994,,,,961.2178794997744,963.2383296000771,17,001,2024-09-10_13h07.16.541,robot_cogshifting_sign,2022.2.5,59.90186875058361,
"['blue_bottom_L_45', 'red_bottom_Q_45', 'red_bottom_G_0', 'red_top_R_45']","{'color': 'blue_bottom_L_45', 'position': 'red_top_R_45', 'orientation': 'red_bottom_G_0'}",position,"['color', 'position']",red_top_R_45,3,2,letter,2,False,False,"['robot_stimuli\\\\filler.mp4', 'robot_stimuli\\\\filler.mp4', 'robot_stimuli\\\\filler.mp4', 'robot_stimuli\\\\filler.mp4']",robot_stimuli\\filler.mp4,17,,,,,,,,,,,,,0,28,28,28,,,,,,,,,,,,,,,,,,965.3758904999122,,,976.3140432997607,976.3140432997607,976.3140432997607,4,1.1205024002119899,977.4663448999636,977.4663448999636,977.4663448999636,977.4663448999636,977.4663448999636,977.4663448999636,977.4663448999636,977.4663448999636,None,None,None,,,,967.4466756996699,,,,,,,,965.3758904999122,965.3758904999122,None,,,965.3758904999122,965.3758904999122,974.293539899867,976.3140432997607,17,001,2024-09-10_13h07.16.541,robot_cogshifting_sign,2022.2.5,59.90186875058361,
"['blue_left_Z_0', 'red_left_P_45', 'red_bottom_T_0', 'red_left_B_0']","{'color': 'blue_left_Z_0', 'position': 'red_bottom_T_0', 'orientation': 'red_left_P_45'}",color,"['color', 'position']",blue_left_Z_0,0,2,letter,2,False,False,"['robot_stimuli\\\\filler.mp4', 'robot_stimuli\\\\filler.mp4', 'robot_stimuli\\\\filler.mp4', 'robot_stimuli\\\\filler.mp4']",robot_stimuli\\filler.mp4,17,,,,,,,,,,,,,0,29,29,29,,,,,,,,,,,,,,,,,,977.4663448999636,,,988.2041651997715,988.2041651997715,988.2041651997715,1,0.9816928002983332,989.2061445000581,989.2061445000581,989.2061445000581,989.2061445000581,989.2061445000581,989.2061445000581,989.2061445000581,989.2061445000581,None,None,None,,,,979.5371341998689,,,,,,,,977.4663448999636,977.4663448999636,None,,,977.4663448999636,977.4663448999636,985.9830982000567,988.2041651997715,17,001,2024-09-10_13h07.16.541,robot_cogshifting_sign,2022.2.5,59.90186875058361,
"['red_top_Q_45', 'blue_bottom_M_45', 'red_bottom_Z_45', 'red_bottom_N_0']","{'color': 'blue_bottom_M_45', 'position': 'red_top_Q_45', 'orientation': 'red_bottom_N_0'}",position,"['orientation', 'position']",red_top_Q_45,0,2,letter,2,False,False,"['robot_stimuli\\\\filler.mp4', 'robot_stimuli\\\\filler.mp4', 'robot_stimuli\\\\filler.mp4', 'robot_stimuli\\\\filler.mp4']",robot_stimuli\\filler.mp4,17,,,,,,,,,,,,,0,30,30,30,,,,,,,,,,,,,,,,,,989.2061445000581,,,1000.144386800006,1000.144386800006,1000.144386800006,1,1.2497372007928789,1001.4134804997593,1001.4134804997593,1001.4134804997593,1001.4134804997593,1001.4134804997593,1001.4134804997593,1001.4134804997593,1001.4134804997593,None,None,None,,,,991.2769257999025,,,,,,,,989.2061445000581,989.2061445000581,None,,,989.2061445000581,989.2061445000581,997.9233590997756,1000.144386800006,17,001,2024-09-10_13h07.16.541,robot_cogshifting_sign,2022.2.5,59.90186875058361,
"['blue_right_S_0', 'blue_left_F_0', 'blue_left_R_45', 'red_left_S_0']","{'color': 'red_left_S_0', 'position': 'blue_right_S_0', 'orientation': 'blue_left_R_45'}",orientation,"['color', 'orientation']",blue_left_R_45,2,2,letter,2,False,False,"['robot_stimuli\\\\filler.mp4', 'robot_stimuli\\\\filler.mp4', 'robot_stimuli\\\\filler.mp4', 'robot_stimuli\\\\filler.mp4']",robot_stimuli\\filler.mp4,17,,,,,,,,,,,,,0,31,31,31,,,,,,,,,,,,,,,,,,1001.4134804997593,,,1012.368396199774,1012.368396199774,1012.368396199774,3,0.6820531999692321,1013.0697511998005,1013.0697511998005,1013.0697511998005,1013.0697511998005,1013.0697511998005,1013.0697511998005,1013.0697511998005,1013.0697511998005,None,None,None,,,,1003.4843011996709,,,,,,,,1001.4134804997593,1001.4134804997593,None,,,1001.4134804997593,1001.4134804997593,1010.1474150996655,1012.368396199774,17,001,2024-09-10_13h07.16.541,robot_cogshifting_sign,2022.2.5,59.90186875058361,
"['red_bottom_B_0', 'red_bottom_W_45', 'red_left_S_45', 'blue_bottom_L_45']","{'color': 'blue_bottom_L_45', 'position': 'red_left_S_45', 'orientation': 'red_bottom_B_0'}",position,"['color', 'position']",red_left_S_45,2,2,letter,2,False,False,"['robot_stimuli\\\\filler.mp4', 'robot_stimuli\\\\filler.mp4', 'robot_stimuli\\\\filler.mp4', 'robot_stimuli\\\\filler.mp4']",robot_stimuli\\filler.mp4,17,,,,,,,,,,,,,0,32,32,32,,,,,,,,,,,,,,,,,,1013.0697511998005,,,1023.8409881000407,1023.8409881000407,1023.8409881000407,3,2.6728048003278673,1026.5462835999206,1026.5462835999206,1026.5462835999206,1026.5462835999206,1026.5462835999206,1026.5462835999206,1026.5462835999206,1026.5462835999206,None,None,None,,,,1015.1405511996709,,,,,,,,1013.0697511998005,1013.0697511998005,None,,,1013.0697511998005,1013.0697511998005,1021.619993600063,1023.8409881000407,17,001,2024-09-10_13h07.16.541,robot_cogshifting_sign,2022.2.5,59.90186875058361,
"['red_top_Q_0', 'blue_bottom_P_0', 'red_bottom_G_0', 'red_bottom_Q_45']","{'color': 'blue_bottom_P_0', 'position': 'red_top_Q_0', 'orientation': 'red_bottom_Q_45'}",color,"['color', 'orientation']",blue_bottom_P_0,1,2,letter,2,False,False,"['robot_stimuli\\\\filler.mp4', 'robot_stimuli\\\\filler.mp4', 'robot_stimuli\\\\filler.mp4', 'robot_stimuli\\\\filler.mp4']",robot_stimuli\\filler.mp4,17,,,,,,,,,,,,,0,33,33,33,,,,,,,,,,,,,,,,,,1026.5462835999206,,,1037.4844621000811,1037.4844621000811,1037.4844621000811,2,0.7991617005318403,1038.302780599799,1038.302780599799,1038.302780599799,1038.302780599799,1038.302780599799,1038.302780599799,1038.302780599799,1038.302780599799,None,None,None,,,,1028.6170580000617,,,,,,,,1026.5462835999206,1026.5462835999206,None,,,1026.5462835999206,1026.5462835999206,1035.4638756997883,1037.4844621000811,17,001,2024-09-10_13h07.16.541,robot_cogshifting_sign,2022.2.5,59.90186875058361,
"['red_right_W_45', 'blue_right_D_45', 'red_right_J_0', 'red_bottom_B_45']","{'color': 'blue_right_D_45', 'position': 'red_bottom_B_45', 'orientation': 'red_right_J_0'}",orientation,"['orientation', 'position']",red_right_J_0,2,2,letter,2,False,False,"['robot_stimuli\\\\filler.mp4', 'robot_stimuli\\\\filler.mp4', 'robot_stimuli\\\\filler.mp4', 'robot_stimuli\\\\filler.mp4']",robot_stimuli\\filler.mp4,17,,,,,,,,,,,,,0,34,34,34,,,,,,,,,,,,,,,,,,1038.302780599799,,,1048.8401615996845,1048.8401615996845,1048.8401615996845,3,0.7142354003153741,1049.5749291996472,1049.5749291996472,1049.5749291996472,1049.5749291996472,1049.5749291996472,1049.5749291996472,1049.5749291996472,1049.5749291996472,None,None,None,,,,1040.3568643000908,,,,,,,,1038.302780599799,1038.302780599799,None,,,1038.302780599799,1038.302780599799,1046.819620799739,1048.8401615996845,17,001,2024-09-10_13h07.16.541,robot_cogshifting_sign,2022.2.5,59.90186875058361,
"['red_left_P_45', 'blue_right_G_45', 'blue_left_V_45', 'blue_left_R_0']","{'color': 'red_left_P_45', 'position': 'blue_right_G_45', 'orientation': 'blue_left_R_0'}",orientation,"['orientation', 'position']",blue_left_R_0,3,2,letter,2,False,True,"['robot_stimuli\\\\filler.mp4', 'robot_stimuli\\\\filler.mp4', 'robot_stimuli\\\\filler.mp4', 'robot_stimuli\\\\filler.mp4']",robot_stimuli\\filler.mp4,17,,,,,,,,,,,,,0,35,35,35,,,,,,,,,,,,,,,,,,1049.5749291996472,,,1060.0956248999573,1060.0956248999573,1060.0956248999573,4,2.986292900517583,1063.1349378996529,1066.2077036998235,1063.1349378996529,1066.2077036998235,1063.1349378996529,1066.2077036998235,1063.1349378996529,1066.2077036998235,29.444444444444446,2.4800664000213146,space,,,,1051.6457650996745,2.994798100553453,,,,,,,1049.5749291996472,1049.5749291996472,None,,,1049.5749291996472,1049.5749291996472,1058.0751339998096,1060.0956248999573,17,001,2024-09-10_13h07.16.541,robot_cogshifting_sign,2022.2.5,59.90186875058361,
"['red_left_M_0', 'blue_left_C_45', 'blue_top_N_0', 'blue_left_S_0']","{'color': 'red_left_M_0', 'position': 'blue_top_N_0', 'orientation': 'blue_left_C_45'}",position,"['color', 'orientation', 'position']",blue_top_N_0,2,3,letter,2,True,False,"['robot_stimuli\\\\filler.mp4', 'robot_stimuli\\\\filler.mp4', 'robot_stimuli\\\\filler.mp4', 'robot_stimuli\\\\filler.mp4']",robot_stimuli\\filler.mp4,17,,,,,,,,,,,,,0,36,36,36,,,,,,,,,,,,,,,,,,1067.3599788998254,,,1078.2981735998765,1078.2981735998765,1078.2981735998765,3,3.2717484002932906,1081.5880025997758,1081.5880025997758,1081.5880025997758,1081.5880025997758,1081.5880025997758,1081.5880025997758,1081.5880025997758,1081.5880025997758,None,None,None,,,,,,,,,,,,1066.2077036998235,1066.2077036998235,space,1.1299033001996577,,,,1076.077213099692,1078.2981735998765,17,001,2024-09-10_13h07.16.541,robot_cogshifting_sign,2022.2.5,59.90186875058361,
"['blue_right_N_0', 'blue_top_L_45', 'red_top_R_0', 'blue_top_R_0']","{'color': 'red_top_R_0', 'position': 'blue_right_N_0', 'orientation': 'blue_top_L_45'}",orientation,"['color', 'orientation', 'position']",blue_top_L_45,1,3,letter,2,False,False,"['robot_stimuli\\\\filler.mp4', 'robot_stimuli\\\\filler.mp4', 'robot_stimuli\\\\filler.mp4', 'robot_stimuli\\\\filler.mp4']",robot_stimuli\\filler.mp4,17,,,,,,,,,,,,,0,37,37,37,,,,,,,,,,,,,,,,,,1081.5880025997758,,,1092.5261145997792,1092.5261145997792,1092.5261145997792,2,4.500908600632101,1097.051748199854,1097.051748199854,1097.051748199854,1097.051748199854,1097.051748199854,1097.051748199854,1097.051748199854,1097.051748199854,None,None,None,,,,1083.6587443999015,,,,,,,,1081.5880025997758,1081.5880025997758,None,,,1081.5880025997758,1081.5880025997758,1090.5056241001002,1092.5261145997792,17,001,2024-09-10_13h07.16.541,robot_cogshifting_sign,2022.2.5,59.90186875058361,
"['red_right_D_45', 'blue_top_Q_45', 'red_top_P_0', 'red_top_Q_45']","{'color': 'blue_top_Q_45', 'position': 'red_right_D_45', 'orientation': 'red_top_P_0'}",position,"['color', 'orientation', 'position']",red_right_D_45,0,3,letter,2,False,False,"['robot_stimuli\\\\filler.mp4', 'robot_stimuli\\\\filler.mp4', 'robot_stimuli\\\\filler.mp4', 'robot_stimuli\\\\filler.mp4']",robot_stimuli\\filler.mp4,17,,,,,,,,,,,,,0,38,38,38,,,,,,,,,,,,,,,,,,1097.051748199854,,,1107.7895410000347,1107.7895410000347,1107.7895410000347,1,2.1648843004368246,1109.9771765996702,1109.9771765996702,1109.9771765996702,1109.9771765996702,1109.9771765996702,1109.9771765996702,1109.9771765996702,1109.9771765996702,None,None,None,,,,1099.10575899994,,,,,,,,1097.051748199854,1097.051748199854,None,,,1097.051748199854,1097.051748199854,1105.7689562998712,1107.7895410000347,17,001,2024-09-10_13h07.16.541,robot_cogshifting_sign,2022.2.5,59.90186875058361,
"['blue_left_J_45', 'blue_bottom_N_45', 'red_left_K_45', 'blue_left_G_0']","{'color': 'red_left_K_45', 'position': 'blue_bottom_N_45', 'orientation': 'blue_left_G_0'}",orientation,"['color', 'orientation', 'position']",blue_left_G_0,3,3,letter,2,False,False,"['robot_stimuli\\\\filler.mp4', 'robot_stimuli\\\\filler.mp4', 'robot_stimuli\\\\filler.mp4', 'robot_stimuli\\\\filler.mp4']",robot_stimuli\\filler.mp4,17,,,,,,,,,,,,,0,39,39,39,,,,,,,,,,,,,,,,,,1109.9771765996702,,,1120.7316997996531,1120.7316997996531,1120.7316997996531,4,2.2060306002385914,1122.9694014000706,1122.9694014000706,1122.9694014000706,1122.9694014000706,1122.9694014000706,1122.9694014000706,1122.9694014000706,1122.9694014000706,None,None,None,,,,1112.0480156000704,,,,,,,,1109.9771765996702,1109.9771765996702,None,,,1109.9771765996702,1109.9771765996702,1118.711642399896,1120.7316997996531,17,001,2024-09-10_13h07.16.541,robot_cogshifting_sign,2022.2.5,59.90186875058361,
"['blue_top_V_0', 'blue_top_R_45', 'blue_bottom_L_0', 'red_top_J_0']","{'color': 'red_top_J_0', 'position': 'blue_bottom_L_0', 'orientation': 'blue_top_R_45'}",color,"['color', 'orientation', 'position']",red_top_J_0,3,3,letter,2,False,False,"['robot_stimuli\\\\filler.mp4', 'robot_stimuli\\\\filler.mp4', 'robot_stimuli\\\\filler.mp4', 'robot_stimuli\\\\filler.mp4']",robot_stimuli\\filler.mp4,17,,,,,,,,,,,,,0,40,40,40,,,,,,,,,,,,,,,,,,1122.9694014000706,,,1133.7072338997386,1133.7072338997386,1133.7072338997386,4,0.6070566005073488,1134.3417997998185,1134.3417997998185,1134.3417997998185,1134.3417997998185,1134.3417997998185,1134.3417997998185,1134.3417997998185,1134.3417997998185,None,None,None,,,,1125.0234550000168,,,,,,,,1122.9694014000706,1122.9694014000706,None,,,1122.9694014000706,1122.9694014000706,1131.486220699735,1133.7072338997386,17,001,2024-09-10_13h07.16.541,robot_cogshifting_sign,2022.2.5,59.90186875058361,
"['red_top_S_0', 'blue_right_C_0', 'blue_top_R_45', 'blue_top_F_0']","{'color': 'red_top_S_0', 'position': 'blue_right_C_0', 'orientation': 'blue_top_R_45'}",color,"['color', 'orientation', 'position']",red_top_S_0,0,3,letter,2,False,False,"['robot_stimuli\\\\filler.mp4', 'robot_stimuli\\\\filler.mp4', 'robot_stimuli\\\\filler.mp4', 'robot_stimuli\\\\filler.mp4']",robot_stimuli\\filler.mp4,17,,,,,,,,,,,,,0,41,41,41,,,,,,,,,,,,,,,,,,1134.3417997998185,,,1145.0628943997435,1145.0628943997435,1145.0628943997435,2,2.2833068002946675,1147.3674530000426,1147.3674530000426,1147.3674530000426,1147.3674530000426,1147.3674530000426,1147.3674530000426,1147.3674530000426,1147.3674530000426,None,None,None,,,,1136.3958896999247,,,,,,,,1134.3417997998185,1134.3417997998185,None,,,1134.3417997998185,1134.3417997998185,1142.8586681000888,1145.0628943997435,17,001,2024-09-10_13h07.16.541,robot_cogshifting_sign,2022.2.5,59.90186875058361,
"['blue_bottom_N_0', 'red_bottom_T_45', 'red_bottom_K_0', 'red_left_J_0']","{'color': 'blue_bottom_N_0', 'position': 'red_left_J_0', 'orientation': 'red_bottom_T_45'}",position,"['color', 'orientation', 'position']",red_left_J_0,3,3,letter,2,False,False,"['robot_stimuli\\\\filler.mp4', 'robot_stimuli\\\\filler.mp4', 'robot_stimuli\\\\filler.mp4', 'robot_stimuli\\\\filler.mp4']",robot_stimuli\\filler.mp4,17,,,,,,,,,,,,,0,42,42,42,,,,,,,,,,,,,,,,,,1147.3674530000426,,,1158.1219444000162,1158.1219444000162,1158.1219444000162,4,1.4965462004765868,1159.641627700068,1159.641627700068,1159.641627700068,1159.641627700068,1159.641627700068,1159.641627700068,1159.641627700068,1159.641627700068,None,None,None,,,,1149.4215663000941,,,,,,,,1147.3674530000426,1147.3674530000426,None,,,1147.3674530000426,1147.3674530000426,1155.9009917997755,1158.1219444000162,17,001,2024-09-10_13h07.16.541,robot_cogshifting_sign,2022.2.5,59.90186875058361,
"['red_bottom_X_0', 'blue_bottom_S_0', 'blue_top_R_0', 'blue_bottom_S_45']","{'color': 'red_bottom_X_0', 'position': 'blue_top_R_0', 'orientation': 'blue_bottom_S_45'}",orientation,"['color', 'orientation', 'position']",blue_bottom_S_45,3,3,letter,2,False,False,"['robot_stimuli\\\\filler.mp4', 'robot_stimuli\\\\filler.mp4', 'robot_stimuli\\\\filler.mp4', 'robot_stimuli\\\\filler.mp4']",robot_stimuli\\filler.mp4,17,,,,,,,,,,,,,0,43,43,43,,,,,,,,,,,,,,,,,,1159.641627700068,,,1170.396145499777,1170.396145499777,1170.396145499777,4,1.0535233006812632,1171.4816144998185,1171.4816144998185,1171.4816144998185,1171.4816144998185,1171.4816144998185,1171.4816144998185,1171.4816144998185,1171.4816144998185,None,None,None,,,,1161.7123771999031,,,,,,,,1159.641627700068,1159.641627700068,None,,,1159.641627700068,1159.641627700068,1168.3756089000963,1170.396145499777,17,001,2024-09-10_13h07.16.541,robot_cogshifting_sign,2022.2.5,59.90186875058361,
"['red_right_Q_0', 'red_left_T_45', 'red_right_X_45', 'blue_right_G_45']","{'color': 'blue_right_G_45', 'position': 'red_left_T_45', 'orientation': 'red_right_Q_0'}",color,"['color', 'orientation', 'position']",blue_right_G_45,3,3,letter,2,False,True,"['robot_stimuli\\\\filler.mp4', 'robot_stimuli\\\\filler.mp4', 'robot_stimuli\\\\filler.mp4', 'robot_stimuli\\\\filler.mp4']",robot_stimuli\\filler.mp4,17,,,,,,,,,,,,,0,44,44,44,,,,,,,,,,,,,,,,,,1171.4816144998185,,,1182.2360895997845,1182.2360895997845,1182.2360895997845,4,0.8464465006254613,1183.1378762996756,1186.1438205996528,1183.1378762996756,1186.1438205996528,1183.1378762996756,1186.1438205996528,1183.1378762996756,1186.1438205996528,36.904761904761905,2.4479680000804365,space,,,,1173.5356254996732,2.929637100547552,,,,,,,1171.4816144998185,1171.4816144998185,None,,,1171.4816144998185,1171.4816144998185,1180.0151506997645,1182.2360895997845,17,001,2024-09-10_13h07.16.541,robot_cogshifting_sign,2022.2.5,59.90186875058361,
"['blue_bottom_K_45', 'red_bottom_K_0', 'red_right_N_45', 'red_bottom_K_45']","{'color': 'blue_bottom_K_45', 'position': 'red_right_N_45', 'orientation': 'red_bottom_K_0'}",position,['position'],red_right_N_45,2,1,letter,2,True,False,"['robot_stimuli\\\\filler.mp4', 'robot_stimuli\\\\filler.mp4', 'robot_stimuli\\\\filler.mp4', 'robot_stimuli\\\\filler.mp4']",robot_stimuli\\filler.mp4,17,,,,,,,,,,,,,0,45,45,45,,,,,,,,,,,,,,,,,,1187.179176100064,,,1197.9169260999188,1197.9169260999188,1197.9169260999188,3,0.3184636002406478,1198.2676536999643,1198.2676536999643,1198.2676536999643,1198.2676536999643,1198.2676536999643,1198.2676536999643,1198.2676536999643,1198.2676536999643,None,None,None,,,,,,,,,,,,1186.1438205996528,1186.1438205996528,space,1.0028232005424798,,,,1195.896508200094,1197.9169260999188,17,001,2024-09-10_13h07.16.541,robot_cogshifting_sign,2022.2.5,59.90186875058361,
"['red_bottom_D_45', 'blue_top_K_45', 'blue_bottom_Q_0', 'blue_bottom_T_45']","{'color': 'red_bottom_D_45', 'position': 'blue_top_K_45', 'orientation': 'blue_bottom_Q_0'}",orientation,['orientation'],blue_bottom_Q_0,2,1,letter,2,False,False,"['robot_stimuli\\\\filler.mp4', 'robot_stimuli\\\\filler.mp4', 'robot_stimuli\\\\filler.mp4', 'robot_stimuli\\\\filler.mp4']",robot_stimuli\\filler.mp4,17,,,,,,,,,,,,,0,46,46,46,,,,,,,,,,,,,,,,,,1198.2676536999643,,,1209.422927599866,1209.422927599866,1209.422927599866,3,0.3310826001688838,1209.7736241999082,1209.7736241999082,1209.7736241999082,1209.7736241999082,1209.7736241999082,1209.7736241999082,1209.7736241999082,1209.7736241999082,None,None,None,,,,1200.338426799979,,,,,,,,1198.2676536999643,1198.2676536999643,None,,,1198.2676536999643,1198.2676536999643,1207.2019830998033,1209.422927599866,17,001,2024-09-10_13h07.16.541,robot_cogshifting_sign,2022.2.5,59.90186875058361,
"['red_right_H_0', 'red_left_K_45', 'blue_left_N_0', 'red_left_V_0']","{'color': 'blue_left_N_0', 'position': 'red_right_H_0', 'orientation': 'red_left_K_45'}",color,['color'],blue_left_N_0,2,1,letter,2,False,False,"['robot_stimuli\\\\filler.mp4', 'robot_stimuli\\\\filler.mp4', 'robot_stimuli\\\\filler.mp4', 'robot_stimuli\\\\filler.mp4']",robot_stimuli\\filler.mp4,17,,,,,,,,,,,,,0,47,47,47,,,,,,,,,,,,,,,,,,1209.7736241999082,,,1220.711816899944,1220.711816899944,1220.711816899944,3,0.2817749003879726,1221.012393400073,1221.012393400073,1221.012393400073,1221.012393400073,1221.012393400073,1221.012393400073,1221.012393400073,1221.012393400073,None,None,None,,,,1211.8443470997736,,,,,,,,1209.7736241999082,1209.7736241999082,None,,,1209.7736241999082,1209.7736241999082,1218.4908696999773,1220.711816899944,17,001,2024-09-10_13h07.16.541,robot_cogshifting_sign,2022.2.5,59.90186875058361,
"['blue_top_V_45', 'blue_right_F_45', 'red_right_F_45', 'blue_right_S_0']","{'color': 'red_right_F_45', 'position': 'blue_top_V_45', 'orientation': 'blue_right_S_0'}",orientation,['orientation'],blue_right_S_0,3,1,letter,2,False,False,"['robot_stimuli\\\\filler.mp4', 'robot_stimuli\\\\filler.mp4', 'robot_stimuli\\\\filler.mp4', 'robot_stimuli\\\\filler.mp4']",robot_stimuli\\filler.mp4,17,,,,,,,,,,,,,0,48,48,48,,,,,,,,,,,,,,,,,,1221.012393400073,,,1231.7502256999724,1231.7502256999724,1231.7502256999724,4,0.291707300581038,1232.0675025996752,1232.0675025996752,1232.0675025996752,1232.0675025996752,1232.0675025996752,1232.0675025996752,1232.0675025996752,1232.0675025996752,None,None,None,,,,1223.0831606998108,,,,,,,,1221.012393400073,1221.012393400073,None,,,1221.012393400073,1221.012393400073,1229.7298280000687,1231.7502256999724,17,001,2024-09-10_13h07.16.541,robot_cogshifting_sign,2022.2.5,59.90186875058361,
"['blue_left_G_0', 'red_left_T_45', 'red_left_W_0', 'red_bottom_X_0']","{'color': 'blue_left_G_0', 'position': 'red_bottom_X_0', 'orientation': 'red_left_T_45'}",color,['color'],blue_left_G_0,0,1,letter,2,False,False,"['robot_stimuli\\\\filler.mp4', 'robot_stimuli\\\\filler.mp4', 'robot_stimuli\\\\filler.mp4', 'robot_stimuli\\\\filler.mp4']",robot_stimuli\\filler.mp4,17,,,,,,,,,,,,,0,49,49,49,,,,,,,,,,,,,,,,,,1232.0675025996752,,,1242.822008999996,1242.822008999996,1242.822008999996,1,0.7321488000452518,1243.5734748998657,1243.5734748998657,1243.5734748998657,1243.5734748998657,1243.5734748998657,1243.5734748998657,1243.5734748998657,1243.5734748998657,None,None,None,,,,1234.121532399673,,,,,,,,1232.0675025996752,1232.0675025996752,None,,,1232.0675025996752,1232.0675025996752,1240.6010288000107,1242.822008999996,17,001,2024-09-10_13h07.16.541,robot_cogshifting_sign,2022.2.5,59.90186875058361,
"['red_right_V_45', 'blue_top_Z_45', 'red_top_W_0', 'red_top_V_45']","{'color': 'blue_top_Z_45', 'position': 'red_right_V_45', 'orientation': 'red_top_W_0'}",orientation,['orientation'],red_top_W_0,2,1,letter,2,False,False,"['robot_stimuli\\\\filler.mp4', 'robot_stimuli\\\\filler.mp4', 'robot_stimuli\\\\filler.mp4', 'robot_stimuli\\\\filler.mp4']",robot_stimuli\\filler.mp4,17,,,,,,,,,,,,,0,50,50,50,,,,,,,,,,,,,,,,,,1243.5734748998657,,,1254.3112371000461,1254.3112371000461,1254.3112371000461,3,0.538724800106138,1254.8790734000504,1254.8790734000504,1254.8790734000504,1254.8790734000504,1254.8790734000504,1254.8790734000504,1254.8790734000504,1254.8790734000504,None,None,None,,,,1245.6442716000602,,,,,,,,1243.5734748998657,1243.5734748998657,None,,,1243.5734748998657,1243.5734748998657,1252.1069696997292,1254.3112371000461,17,001,2024-09-10_13h07.16.541,robot_cogshifting_sign,2022.2.5,59.90186875058361,
"['blue_right_V_0', 'red_right_J_0', 'red_right_G_45', 'red_top_W_0']","{'color': 'blue_right_V_0', 'position': 'red_top_W_0', 'orientation': 'red_right_G_45'}",position,['position'],red_top_W_0,3,1,letter,2,False,False,"['robot_stimuli\\\\filler.mp4', 'robot_stimuli\\\\filler.mp4', 'robot_stimuli\\\\filler.mp4', 'robot_stimuli\\\\filler.mp4']",robot_stimuli\\filler.mp4,17,,,,,,,,,,,,,0,51,51,51,,,,,,,,,,,,,,,,,,1254.8790734000504,,,1265.8339566998184,1265.8339566998184,1265.8339566998184,4,0.3358697001822293,1266.2013522996567,1266.2013522996567,1266.2013522996567,1266.2013522996567,1266.2013522996567,1266.2013522996567,1266.2013522996567,1266.2013522996567,None,None,None,,,,1256.949836799875,,,,,,,,1254.8790734000504,1254.8790734000504,None,,,1254.8790734000504,1254.8790734000504,1263.7966350996867,1265.8339566998184,17,001,2024-09-10_13h07.16.541,robot_cogshifting_sign,2022.2.5,59.90186875058361,
"['red_bottom_Z_45', 'blue_right_L_45', 'blue_bottom_L_0', 'blue_bottom_R_45']","{'color': 'red_bottom_Z_45', 'position': 'blue_right_L_45', 'orientation': 'blue_bottom_L_0'}",color,['color'],red_bottom_Z_45,0,1,letter,2,False,False,"['robot_stimuli\\\\filler.mp4', 'robot_stimuli\\\\filler.mp4', 'robot_stimuli\\\\filler.mp4', 'robot_stimuli\\\\filler.mp4']",robot_stimuli\\filler.mp4,17,,,,,,,,,,,,,0,52,52,52,,,,,,,,,,,,,,,,,,1266.2013522996567,,,1276.9224514998496,1276.9224514998496,1276.9224514998496,1,0.8150398000143468,1277.7574557997286,1277.7574557997286,1277.7574557997286,1277.7574557997286,1277.7574557997286,1277.7574557997286,1277.7574557997286,1277.7574557997286,None,None,None,,,,1268.27216459997,,,,,,,,1266.2013522996567,1266.2013522996567,None,,,1266.2013522996567,1266.2013522996567,1274.901891199872,1276.9224514998496,17,001,2024-09-10_13h07.16.541,robot_cogshifting_sign,2022.2.5,59.90186875058361,
"['blue_left_H_0', 'red_left_C_45', 'blue_top_H_45', 'blue_left_P_45']","{'color': 'red_left_C_45', 'position': 'blue_top_H_45', 'orientation': 'blue_left_H_0'}",position,['position'],blue_top_H_45,2,1,letter,2,False,True,"['robot_stimuli\\\\filler.mp4', 'robot_stimuli\\\\filler.mp4', 'robot_stimuli\\\\filler.mp4', 'robot_stimuli\\\\filler.mp4']",robot_stimuli\\filler.mp4,17,,,,,,,,,,,,,0,53,53,53,,,,,,,,,,,,,,,,,,1277.7574557997286,,,1288.9127229996957,1288.9127229996957,1288.9127229996957,3,0.4491039006970823,1289.4137099999934,1293.087683300022,1289.4137099999934,1293.087683300022,1289.4137099999934,1293.087683300022,1289.4137099999934,1293.087683300022,19.12698412698413,3.3164132996462286,space,,,,1279.828225699719,3.6123028001748025,,,,,,,1277.7574557997286,1277.7574557997286,None,,,1277.7574557997286,1277.7574557997286,1286.6917538996786,1288.9127229996957,17,001,2024-09-10_13h07.16.541,robot_cogshifting_sign,2022.2.5,59.90186875058361,
"['R_Torso_Y_For', 'R_Arm_Y_For', 'L_Arm_Y_Back', 'R_Arm_X_Back']","{'laterality': 'L_Arm_Y_Back', 'localisation': 'R_Torso_Y_For', 'movement': 'R_Arm_X_Back'}",localisation,['localisation'],R_Torso_Y_For,0,1,robot,3,True,False,"['robot_stimuli\\R_Torso_Y_For.mp4', 'robot_stimuli\\R_Arm_Y_For.mp4', 'robot_stimuli\\L_Arm_Y_Back.mp4', 'robot_stimuli\\R_Arm_X_Back.mp4']",robot_stimuli\R_Torso_Y_For.mp4,17,,,,,,,,,,,,,0,54,54,54,,,,,,,,,,,,,,,,,,1294.5071143000387,,,1311.2901065996848,1311.2901065996848,1311.2901065996848,1,0.32771840039640665,1311.6407925998792,1311.6407925998792,1311.6407925998792,1311.6407925998792,1311.6407925998792,1311.6407925998792,1311.6407925998792,1311.6407925998792,None,None,None,,,,,,,,,,,,1293.087683300022,1293.087683300022,space,1.3944237004034221,1307.6495837997645,,,,,17,001,2024-09-10_13h07.16.541,robot_cogshifting_sign,2022.2.5,59.90186875058361,
"['L_Arm_X_For', 'L_Base_Y_For', 'L_Arm_Y_For', 'R_Arm_Y_For']","{'laterality': 'R_Arm_Y_For', 'localisation': 'L_Base_Y_For', 'movement': 'L_Arm_X_For'}",laterality,['laterality'],R_Arm_Y_For,3,1,robot,3,False,False,"['robot_stimuli\\L_Arm_X_For.mp4', 'robot_stimuli\\L_Base_Y_For.mp4', 'robot_stimuli\\L_Arm_Y_For.mp4', 'robot_stimuli\\R_Arm_Y_For.mp4']",robot_stimuli\R_Arm_Y_For.mp4,17,,,,,,,,,,,,,0,55,55,55,,,,,,,,,,,,,,,,,,1311.6407925998792,,,1328.3069174997509,1328.3069174997509,1328.3069174997509,4,0.4073785003274679,1328.7411170997657,1328.7411170997657,1328.7411170997657,1328.7411170997657,1328.7411170997657,1328.7411170997657,1328.7411170997657,1328.7411170997657,None,None,None,,,,1313.7282281997614,,,,,,,,1311.6407925998792,1311.6407925998792,None,,1324.7999959997833,1311.6407925998792,1311.6407925998792,,,17,001,2024-09-10_13h07.16.541,robot_cogshifting_sign,2022.2.5,59.90186875058361,
"['L_Head_Z_For', 'L_Head_X_For', 'L_Base_X_For', 'R_Head_X_Back']","{'laterality': 'R_Head_X_Back', 'localisation': 'L_Base_X_For', 'movement': 'L_Head_Z_For'}",localisation,['localisation'],L_Base_X_For,2,1,robot,3,False,False,"['robot_stimuli\\L_Head_Z_For.mp4', 'robot_stimuli\\L_Head_X_For.mp4', 'robot_stimuli\\L_Base_X_For.mp4', 'robot_stimuli\\R_Head_X_Back.mp4']",robot_stimuli\L_Base_X_For.mp4,17,,,,,,,,,,,,,0,56,56,56,,,,,,,,,,,,,,,,,,1328.7411170997657,,,1345.5074899001047,1345.5074899001047,1345.5074899001047,3,0.31804840033873916,1345.858131799847,1345.858131799847,1345.858131799847,1345.858131799847,1345.858131799847,1345.858131799847,1345.858131799847,1345.858131799847,None,None,None,,,,1330.8285587998107,,,,,,,,1328.7411170997657,1328.7411170997657,None,,1341.8669635998085,1328.7411170997657,1328.7411170997657,,,17,001,2024-09-10_13h07.16.541,robot_cogshifting_sign,2022.2.5,59.90186875058361,
"['R_Base_Y_Back', 'R_Base_Z_For', 'L_Base_Y_For', 'R_Arm_Y_Back']","{'laterality': 'L_Base_Y_For', 'localisation': 'R_Arm_Y_Back', 'movement': 'R_Base_Z_For'}",movement,['movement'],R_Base_Z_For,1,1,robot,3,False,False,"['robot_stimuli\\R_Base_Y_Back.mp4', 'robot_stimuli\\R_Base_Z_For.mp4', 'robot_stimuli\\L_Base_Y_For.mp4', 'robot_stimuli\\R_Arm_Y_Back.mp4']",robot_stimuli\R_Base_Z_For.mp4,17,,,,,,,,,,,,,0,57,57,57,,,,,,,,,,,,,,,,,,1345.858131799847,,,1362.6414163000882,1362.6414163000882,1362.6414163000882,2,0.5521616004407406,1363.2256825999357,1363.2256825999357,1363.2256825999357,1363.2256825999357,1363.2256825999357,1363.2256825999357,1363.2256825999357,1363.2256825999357,None,None,None,,,,1347.9456183998846,,,,,,,,1345.858131799847,1345.858131799847,None,,1359.0006482996978,1345.858131799847,1345.858131799847,,,17,001,2024-09-10_13h07.16.541,robot_cogshifting_sign,2022.2.5,59.90186875058361,
"['L_Head_Z_Back', 'L_Head_Y_Back', 'L_Base_Z_For', 'R_Head_Z_Back']","{'laterality': 'R_Head_Z_Back', 'localisation': 'L_Base_Z_For', 'movement': 'L_Head_Y_Back'}",laterality,['laterality'],R_Head_Z_Back,3,1,robot,3,False,False,"['robot_stimuli\\L_Head_Z_Back.mp4', 'robot_stimuli\\L_Head_Y_Back.mp4', 'robot_stimuli\\L_Base_Z_For.mp4', 'robot_stimuli\\R_Head_Z_Back.mp4']",robot_stimuli\R_Head_Z_Back.mp4,17,,,,,,,,,,,,,0,58,58,58,,,,,,,,,,,,,,,,,,1363.2256825999357,,,1380.1088644000702,1380.1088644000702,1380.1088644000702,4,0.3652784004807472,1380.4929987997748,1380.4929987997748,1380.4929987997748,1380.4929987997748,1380.4929987997748,1380.4929987997748,1380.4929987997748,1380.4929987997748,None,None,None,,,,1365.3131574997678,,,,,,,,1363.2256825999357,1363.2256825999357,None,,1376.4684250000864,1363.2256825999357,1363.2256825999357,,,17,001,2024-09-10_13h07.16.541,robot_cogshifting_sign,2022.2.5,59.90186875058361,
"['L_Arm_Z_For', 'R_Arm_Z_Back', 'R_Head_Z_Back', 'R_Arm_X_For']","{'laterality': 'L_Arm_Z_For', 'localisation': 'R_Head_Z_Back', 'movement': 'R_Arm_X_For'}",movement,['movement'],R_Arm_X_For,3,1,robot,3,False,False,"['robot_stimuli\\L_Arm_Z_For.mp4', 'robot_stimuli\\R_Arm_Z_Back.mp4', 'robot_stimuli\\R_Head_Z_Back.mp4', 'robot_stimuli\\R_Arm_X_For.mp4']",robot_stimuli\R_Arm_X_For.mp4,17,,,,,,,,,,,,,0,59,59,59,,,,,,,,,,,,,,,,,,1380.4929987997748,,,1397.3762091998942,1397.3762091998942,1397.3762091998942,4,0.45775460032746196,1397.860526499804,1397.860526499804,1397.860526499804,1397.860526499804,1397.860526499804,1397.860526499804,1397.860526499804,1397.860526499804,None,None,None,,,,1382.580507100094,,,,,,,,1380.4929987997748,1380.4929987997748,None,,1393.7357537997887,1380.4929987997748,1380.4929987997748,,,17,001,2024-09-10_13h07.16.541,robot_cogshifting_sign,2022.2.5,59.90186875058361,
"['L_Base_Z_For', 'R_Base_Z_Back', 'R_Base_X_Back', 'R_Head_Z_For']","{'laterality': 'L_Base_Z_For', 'localisation': 'R_Head_Z_For', 'movement': 'R_Base_X_Back'}",movement,['movement'],R_Base_X_Back,2,1,robot,3,False,False,"['robot_stimuli\\L_Base_Z_For.mp4', 'robot_stimuli\\R_Base_Z_Back.mp4', 'robot_stimuli\\R_Base_X_Back.mp4', 'robot_stimuli\\R_Head_Z_For.mp4']",robot_stimuli\R_Base_X_Back.mp4,17,,,,,,,,,,,,,0,60,60,60,,,,,,,,,,,,,,,,,,1397.860526499804,,,1414.6435066000558,1414.6435066000558,1414.6435066000558,3,0.34232790023088455,1415.0108870998956,1415.0108870998956,1415.0108870998956,1415.0108870998956,1415.0108870998956,1415.0108870998956,1415.0108870998956,1415.0108870998956,None,None,None,,,,1399.9480550000444,,,,,,,,1397.860526499804,1397.860526499804,None,,1411.0033255997114,1397.860526499804,1397.860526499804,,,17,001,2024-09-10_13h07.16.541,robot_cogshifting_sign,2022.2.5,59.90186875058361,
"['L_Base_X_Back', 'R_Arm_X_For', 'R_Base_X_For', 'R_Base_Y_Back']","{'laterality': 'L_Base_X_Back', 'localisation': 'R_Arm_X_For', 'movement': 'R_Base_Y_Back'}",localisation,['localisation'],R_Arm_X_For,1,1,robot,3,False,False,"['robot_stimuli\\L_Base_X_Back.mp4', 'robot_stimuli\\R_Arm_X_For.mp4', 'robot_stimuli\\R_Base_X_For.mp4', 'robot_stimuli\\R_Base_Y_Back.mp4']",robot_stimuli\R_Arm_X_For.mp4,17,,,,,,,,,,,,,0,61,61,61,,,,,,,,,,,,,,,,,,1415.0108870998956,,,1431.7772423997521,1431.7772423997521,1431.7772423997521,2,0.624525900464505,1432.428558100015,1432.428558100015,1432.428558100015,1432.428558100015,1432.428558100015,1432.428558100015,1432.428558100015,1432.428558100015,None,None,None,,,,1417.098363999743,,,,,,,,1415.0108870998956,1415.0108870998956,None,,1428.1200572000816,1415.0108870998956,1415.0108870998956,,,17,001,2024-09-10_13h07.16.541,robot_cogshifting_sign,2022.2.5,59.90186875058361,
"['L_Torso_Y_Back', 'R_Torso_X_Back', 'L_Torso_X_Back', 'L_Base_X_For']","{'laterality': 'R_Torso_X_Back', 'localisation': 'L_Base_X_For', 'movement': 'L_Torso_Y_Back'}",laterality,['laterality'],R_Torso_X_Back,1,1,robot,3,False,True,"['robot_stimuli\\L_Torso_Y_Back.mp4', 'robot_stimuli\\R_Torso_X_Back.mp4', 'robot_stimuli\\L_Torso_X_Back.mp4', 'robot_stimuli\\L_Base_X_For.mp4']",robot_stimuli\R_Torso_X_Back.mp4,17,,,,,,,,,,,,,0,62,62,62,,,,,,,,,,,,,,,,,,1432.428558100015,,,1449.1280820998363,1449.1280820998363,1449.1280820998363,2,0.4976089005358517,1449.6791886999272,1452.3510879999958,1449.6791886999272,1452.3510879999958,1449.6791886999272,1452.3510879999958,1449.6791886999272,1452.3510879999958,19.76190476190476,2.080405700020492,space,,,,1434.5326791997068,2.60230280039832,,,,,,,1432.428558100015,1432.428558100015,None,,1445.554380599875,1432.428558100015,1432.428558100015,,,17,001,2024-09-10_13h07.16.541,robot_cogshifting_sign,2022.2.5,59.90186875058361,
"['R_Arm_Y_Back', 'L_Arm_X_Back', 'L_Head_Y_Back', 'L_Arm_Y_For']","{'laterality': 'R_Arm_Y_Back', 'localisation': 'L_Head_Y_Back', 'movement': 'L_Arm_X_Back'}",localisation,"['laterality', 'localisation', 'movement']",L_Head_Y_Back,2,3,robot,3,True,False,"['robot_stimuli\\R_Arm_Y_Back.mp4', 'robot_stimuli\\L_Arm_X_Back.mp4', 'robot_stimuli\\L_Head_Y_Back.mp4', 'robot_stimuli\\L_Arm_Y_For.mp4']",robot_stimuli\L_Head_Y_Back.mp4,17,,,,,,,,,,,,,0,63,63,63,,,,,,,,,,,,,,,,,,1454.1880600997247,,,1471.071270399727,1471.071270399727,1471.071270399727,3,2.2347348001785576,1473.3257355000824,1473.3257355000824,1473.3257355000824,1473.3257355000824,1473.3257355000824,1473.3257355000824,1473.3257355000824,1473.3257355000824,None,None,None,,,,,,,,,,,,1452.3510879999958,1452.3510879999958,space,1.8114459002390504,1467.4307631999254,,,,,17,001,2024-09-10_13h07.16.541,robot_cogshifting_sign,2022.2.5,59.90186875058361,
"['R_Head_Z_Back', 'L_Head_Z_For', 'R_Torso_Z_For', 'R_Head_X_For']","{'laterality': 'L_Head_Z_For', 'localisation': 'R_Torso_Z_For', 'movement': 'R_Head_X_For'}",laterality,"['laterality', 'localisation', 'movement']",L_Head_Z_For,1,3,robot,3,False,False,"['robot_stimuli\\R_Head_Z_Back.mp4', 'robot_stimuli\\L_Head_Z_For.mp4', 'robot_stimuli\\R_Torso_Z_For.mp4', 'robot_stimuli\\R_Head_X_For.mp4']",robot_stimuli\L_Head_Z_For.mp4,17,,,,,,,,,,,,,0,64,64,64,,,,,,,,,,,,,,,,,,1473.3257355000824,,,1490.2256335997954,1490.2256335997954,1490.2256335997954,2,0.7048169001936913,1490.9604647997767,1490.9604647997767,1490.9604647997767,1490.9604647997767,1490.9604647997767,1490.9604647997767,1490.9604647997767,1490.9604647997767,None,None,None,,,,1475.4131312998943,,,,,,,,1473.3257355000824,1473.3257355000824,None,,1486.5852028997615,1473.3257355000824,1473.3257355000824,,,17,001,2024-09-10_13h07.16.541,robot_cogshifting_sign,2022.2.5,59.90186875058361,
"['L_Torso_X_For', 'L_Head_Z_Back', 'R_Torso_Z_Back', 'L_Torso_Z_Back']","{'laterality': 'R_Torso_Z_Back', 'localisation': 'L_Head_Z_Back', 'movement': 'L_Torso_X_For'}",laterality,"['laterality', 'localisation', 'movement']",R_Torso_Z_Back,2,3,robot,3,False,False,"['robot_stimuli\\L_Torso_X_For.mp4', 'robot_stimuli\\L_Head_Z_Back.mp4', 'robot_stimuli\\R_Torso_Z_Back.mp4', 'robot_stimuli\\L_Torso_Z_Back.mp4']",robot_stimuli\R_Torso_Z_Back.mp4,17,,,,,,,,,,,,,0,65,65,65,,,,,,,,,,,,,,,,,,1490.9604647997767,,,1507.7100839000195,1507.7100839000195,1507.7100839000195,3,2.4521520999260247,1510.1816008999012,1510.1816008999012,1510.1816008999012,1510.1816008999012,1510.1816008999012,1510.1816008999012,1510.1816008999012,1510.1816008999012,None,None,None,,,,1493.047928699758,,,,,,,,1490.9604647997767,1490.9604647997767,None,,1504.2032324997708,1490.9604647997767,1490.9604647997767,,,17,001,2024-09-10_13h07.16.541,robot_cogshifting_sign,2022.2.5,59.90186875058361,
"['R_Torso_Y_Back', 'R_Torso_Z_For', 'R_Head_Z_Back', 'L_Torso_Z_For']","{'laterality': 'L_Torso_Z_For', 'localisation': 'R_Head_Z_Back', 'movement': 'R_Torso_Y_Back'}",movement,"['laterality', 'localisation', 'movement']",R_Torso_Y_Back,0,3,robot,3,False,False,"['robot_stimuli\\R_Torso_Y_Back.mp4', 'robot_stimuli\\R_Torso_Z_For.mp4', 'robot_stimuli\\R_Head_Z_Back.mp4', 'robot_stimuli\\L_Torso_Z_For.mp4']",robot_stimuli\R_Torso_Y_Back.mp4,17,,,,,,,,,,,,,0,66,66,66,,,,,,,,,,,,,,,,,,1510.1816008999012,,,1527.0318148997612,1527.0318148997612,1527.0318148997612,1,3.729911000467837,1530.7888034000061,1530.7888034000061,1530.7888034000061,1530.7888034000061,1530.7888034000061,1530.7888034000061,1530.7888034000061,1530.7888034000061,None,None,None,,,,1512.2690628999844,,,,,,,,1510.1816008999012,1510.1816008999012,None,,1523.4076279997826,1510.1816008999012,1510.1816008999012,,,17,001,2024-09-10_13h07.16.541,robot_cogshifting_sign,2022.2.5,59.90186875058361,
"['L_Torso_X_Back', 'L_Arm_Z_For', 'R_Arm_X_For', 'L_Arm_X_Back']","{'laterality': 'R_Arm_X_For', 'localisation': 'L_Torso_X_Back', 'movement': 'L_Arm_Z_For'}",localisation,"['laterality', 'localisation', 'movement']",L_Torso_X_Back,0,3,robot,3,False,False,"['robot_stimuli\\L_Torso_X_Back.mp4', 'robot_stimuli\\L_Arm_Z_For.mp4', 'robot_stimuli\\R_Arm_X_For.mp4', 'robot_stimuli\\L_Arm_X_Back.mp4']",robot_stimuli\L_Torso_X_Back.mp4,17,,,,,,,,,,,,,0,67,67,67,,,,,,,,,,,,,,,,,,1530.7888034000061,,,1547.688762200065,1547.688762200065,1547.688762200065,1,2.2965526999905705,1550.0099839996547,1550.0099839996547,1550.0099839996547,1550.0099839996547,1550.0099839996547,1550.0099839996547,1550.0099839996547,1550.0099839996547,None,None,None,,,,1532.8762491997331,,,,,,,,1530.7888034000061,1530.7888034000061,None,,1544.0316611998715,1530.7888034000061,1530.7888034000061,,,17,001,2024-09-10_13h07.16.541,robot_cogshifting_sign,2022.2.5,59.90186875058361,
"['L_Torso_X_For', 'L_Torso_Y_For', 'L_Head_X_For', 'R_Torso_X_Back']","{'laterality': 'R_Torso_X_Back', 'localisation': 'L_Head_X_For', 'movement': 'L_Torso_Y_For'}",localisation,"['laterality', 'localisation', 'movement']",L_Head_X_For,2,3,robot,3,False,False,"['robot_stimuli\\L_Torso_X_For.mp4', 'robot_stimuli\\L_Torso_Y_For.mp4', 'robot_stimuli\\L_Head_X_For.mp4', 'robot_stimuli\\R_Torso_X_Back.mp4']",robot_stimuli\L_Head_X_For.mp4,17,,,,,,,,,,,,,0,68,68,68,,,,,,,,,,,,,,,,,,1550.0099839996547,,,1566.8265082999133,1566.8265082999133,1566.8265082999133,3,2.1351422001607716,1568.98069559969,1568.98069559969,1568.98069559969,1568.98069559969,1568.98069559969,1568.98069559969,1568.98069559969,1568.98069559969,None,None,None,,,,1552.097415199969,,,,,,,,1550.0099839996547,1550.0099839996547,None,,1563.1859673000872,1550.0099839996547,1550.0099839996547,,,17,001,2024-09-10_13h07.16.541,robot_cogshifting_sign,2022.2.5,59.90186875058361,
"['R_Base_Z_Back', 'R_Head_Z_Back', 'R_Head_X_Back', 'L_Head_Z_For']","{'laterality': 'L_Head_Z_For', 'localisation': 'R_Base_Z_Back', 'movement': 'R_Head_X_Back'}",movement,"['laterality', 'localisation', 'movement']",R_Head_X_Back,2,3,robot,3,False,False,"['robot_stimuli\\R_Base_Z_Back.mp4', 'robot_stimuli\\R_Head_Z_Back.mp4', 'robot_stimuli\\R_Head_X_Back.mp4', 'robot_stimuli\\L_Head_Z_For.mp4']",robot_stimuli\R_Head_X_Back.mp4,17,,,,,,,,,,,,,0,69,69,69,,,,,,,,,,,,,,,,,,1568.98069559969,,,1585.797088699881,1585.797088699881,1585.797088699881,3,2.644470500294119,1588.4690475999378,1588.4690475999378,1588.4690475999378,1588.4690475999378,1588.4690475999378,1588.4690475999378,1588.4690475999378,1588.4690475999378,None,None,None,,,,1571.0681058000773,,,,,,,,1568.98069559969,1568.98069559969,None,,1582.156624400057,1568.98069559969,1568.98069559969,,,17,001,2024-09-10_13h07.16.541,robot_cogshifting_sign,2022.2.5,59.90186875058361,
"['L_Torso_X_Back', 'R_Head_X_Back', 'R_Torso_Z_For', 'R_Torso_X_Back']","{'laterality': 'L_Torso_X_Back', 'localisation': 'R_Head_X_Back', 'movement': 'R_Torso_Z_For'}",laterality,"['laterality', 'localisation', 'movement']",L_Torso_X_Back,0,3,robot,3,False,False,"['robot_stimuli\\L_Torso_X_Back.mp4', 'robot_stimuli\\R_Head_X_Back.mp4', 'robot_stimuli\\R_Torso_Z_For.mp4', 'robot_stimuli\\R_Torso_X_Back.mp4']",robot_stimuli\L_Torso_X_Back.mp4,17,,,,,,,,,,,,,0,70,70,70,,,,,,,,,,,,,,,,,,1588.4690475999378,,,1605.3856826997362,1605.3856826997362,1605.3856826997362,2,1.808037300594151,1607.2226041997783,1607.2226041997783,1607.2226041997783,1607.2226041997783,1607.2226041997783,1607.2226041997783,1607.2226041997783,1607.2226041997783,None,None,None,,,,1590.5731735997833,,,,,,,,1588.4690475999378,1588.4690475999378,None,,1601.7284858999774,1588.4690475999378,1588.4690475999378,,,17,001,2024-09-10_13h07.16.541,robot_cogshifting_sign,2022.2.5,59.90186875058361,
"['R_Arm_X_Back', 'R_Torso_Y_Back', 'R_Torso_X_For', 'L_Torso_X_Back']","{'laterality': 'L_Torso_X_Back', 'localisation': 'R_Arm_X_Back', 'movement': 'R_Torso_Y_Back'}",movement,"['laterality', 'localisation', 'movement']",R_Torso_Y_Back,1,3,robot,3,False,True,"['robot_stimuli\\R_Arm_X_Back.mp4', 'robot_stimuli\\R_Torso_Y_Back.mp4', 'robot_stimuli\\R_Torso_X_For.mp4', 'robot_stimuli\\L_Torso_X_Back.mp4']",robot_stimuli\R_Torso_Y_Back.mp4,17,,,,,,,,,,,,,0,71,71,71,,,,,,,,,,,,,,,,,,1607.2226041997783,,,1624.122584699653,1624.122584699653,1624.122584699653,2,2.8401738004758954,1627.0282616997138,1631.6707556997426,1627.0282616997138,1631.6707556997426,1627.0282616997138,1631.6707556997426,1627.0282616997138,1631.6707556997426,37.6984126984127,4.385771399829537,space,,,,1609.3100858000107,4.582176200579852,,,,,,,1607.2226041997783,1607.2226041997783,None,,1620.4820938999765,1607.2226041997783,1607.2226041997783,,,17,001,2024-09-10_13h07.16.541,robot_cogshifting_sign,2022.2.5,59.90186875058361,
"['L_Head_Y_For', 'L_Arm_Z_For', 'R_Arm_Y_For', 'L_Arm_Y_For']","{'laterality': 'R_Arm_Y_For', 'localisation': 'L_Head_Y_For', 'movement': 'L_Arm_Z_For'}",movement,"['laterality', 'movement']",L_Arm_Z_For,1,2,robot,3,True,False,"['robot_stimuli\\L_Head_Y_For.mp4', 'robot_stimuli\\L_Arm_Z_For.mp4', 'robot_stimuli\\R_Arm_Y_For.mp4', 'robot_stimuli\\L_Arm_Y_For.mp4']",robot_stimuli\L_Arm_Z_For.mp4,17,,,,,,,,,,,,,0,72,72,72,,,,,,,,,,,,,,,,,,1632.7394652999938,,,1649.5058510997333,1649.5058510997333,1649.5058510997333,1,0.42443260038271546,1649.956742899958,1649.956742899958,1649.956742899958,1649.956742899958,1649.956742899958,1649.956742899958,1649.956742899958,1649.956742899958,None,None,None,,,,,,,,,,,,1631.6707556997426,1631.6707556997426,space,1.0436368002556264,1645.8653365997598,,,,,17,001,2024-09-10_13h07.16.541,robot_cogshifting_sign,2022.2.5,59.90186875058361,
"['L_Arm_Z_For', 'R_Arm_Y_Back', 'L_Base_Y_For', 'L_Arm_Y_For']","{'laterality': 'R_Arm_Y_Back', 'localisation': 'L_Base_Y_For', 'movement': 'L_Arm_Z_For'}",laterality,"['laterality', 'localisation']",R_Arm_Y_Back,1,2,robot,3,False,False,"['robot_stimuli\\L_Arm_Z_For.mp4', 'robot_stimuli\\R_Arm_Y_Back.mp4', 'robot_stimuli\\L_Base_Y_For.mp4', 'robot_stimuli\\L_Arm_Y_For.mp4']",robot_stimuli\R_Arm_Y_Back.mp4,17,,,,,,,,,,,,,0,73,73,73,,,,,,,,,,,,,,,,,,1649.956742899958,,,1666.7732555000111,1666.7732555000111,1666.7732555000111,2,1.2216103002429008,1668.0256195999682,1668.0256195999682,1668.0256195999682,1668.0256195999682,1668.0256195999682,1668.0256195999682,1668.0256195999682,1668.0256195999682,None,None,None,,,,1652.0441536996514,,,,,,,,1649.956742899958,1649.956742899958,None,,1663.1159767000936,1649.956742899958,1649.956742899958,,,17,001,2024-09-10_13h07.16.541,robot_cogshifting_sign,2022.2.5,59.90186875058361,
"['R_Arm_Z_Back', 'L_Arm_Z_Back', 'R_Arm_Y_Back', 'R_Base_Z_For']","{'laterality': 'L_Arm_Z_Back', 'localisation': 'R_Base_Z_For', 'movement': 'R_Arm_Y_Back'}",laterality,"['laterality', 'movement']",L_Arm_Z_Back,1,2,robot,3,False,False,"['robot_stimuli\\R_Arm_Z_Back.mp4', 'robot_stimuli\\L_Arm_Z_Back.mp4', 'robot_stimuli\\R_Arm_Y_Back.mp4', 'robot_stimuli\\R_Base_Z_For.mp4']",robot_stimuli\L_Arm_Z_Back.mp4,17,,,,,,,,,,,,,0,74,74,74,,,,,,,,,,,,,,,,,,1668.0256195999682,,,1684.9255939996801,1684.9255939996801,1684.9255939996801,2,1.6764522003941238,1686.628900599666,1686.628900599666,1686.628900599666,1686.628900599666,1686.628900599666,1686.628900599666,1686.628900599666,1686.628900599666,None,None,None,,,,1670.1131094996817,,,,,,,,1668.0256195999682,1668.0256195999682,None,,1681.2850583996624,1668.0256195999682,1668.0256195999682,,,17,001,2024-09-10_13h07.16.541,robot_cogshifting_sign,2022.2.5,59.90186875058361,
"['R_Arm_X_Back', 'L_Arm_X_Back', 'L_Torso_X_Back', 'L_Arm_Z_Back']","{'laterality': 'R_Arm_X_Back', 'localisation': 'L_Torso_X_Back', 'movement': 'L_Arm_Z_Back'}",movement,"['localisation', 'movement']",L_Arm_Z_Back,3,2,robot,3,False,False,"['robot_stimuli\\R_Arm_X_Back.mp4', 'robot_stimuli\\L_Arm_X_Back.mp4', 'robot_stimuli\\L_Torso_X_Back.mp4', 'robot_stimuli\\L_Arm_Z_Back.mp4']",robot_stimuli\L_Arm_Z_Back.mp4,17,,,,,,,,,,,,,0,75,75,75,,,,,,,,,,,,,,,,,,1686.628900599666,,,1703.5288513000123,1703.5288513000123,1703.5288513000123,4,0.9136409005150199,1704.4640561998822,1704.4640561998822,1704.4640561998822,1704.4640561998822,1704.4640561998822,1704.4640561998822,1704.4640561998822,1704.4640561998822,None,None,None,,,,1688.7163467998616,,,,,,,,1686.628900599666,1686.628900599666,None,,1699.8883760999888,1686.628900599666,1686.628900599666,,,17,001,2024-09-10_13h07.16.541,robot_cogshifting_sign,2022.2.5,59.90186875058361,
"['L_Base_Z_Back', 'R_Head_Z_Back', 'R_Base_Z_Back', 'R_Base_Y_Back']","{'laterality': 'L_Base_Z_Back', 'localisation': 'R_Head_Z_Back', 'movement': 'R_Base_Y_Back'}",laterality,"['laterality', 'localisation']",L_Base_Z_Back,0,2,robot,3,False,False,"['robot_stimuli\\L_Base_Z_Back.mp4', 'robot_stimuli\\R_Head_Z_Back.mp4', 'robot_stimuli\\R_Base_Z_Back.mp4', 'robot_stimuli\\R_Base_Y_Back.mp4']",robot_stimuli\L_Base_Z_Back.mp4,17,,,,,,,,,,,,,0,76,76,76,,,,,,,,,,,,,,,,,,1704.4640561998822,,,1721.24707939988,1721.24707939988,1721.24707939988,2,0.3701985003426671,1721.6478452999145,1721.6478452999145,1721.6478452999145,1721.6478452999145,1721.6478452999145,1721.6478452999145,1721.6478452999145,1721.6478452999145,None,None,None,,,,1706.551547399722,,,,,,,,1704.4640561998822,1704.4640561998822,None,,1717.606596000027,1704.4640561998822,1704.4640561998822,,,17,001,2024-09-10_13h07.16.541,robot_cogshifting_sign,2022.2.5,59.90186875058361,
"['L_Base_Y_Back', 'L_Base_X_Back', 'L_Head_X_For', 'R_Base_X_For']","{'laterality': 'R_Base_X_For', 'localisation': 'L_Head_X_For', 'movement': 'L_Base_Y_Back'}",movement,"['laterality', 'movement']",L_Base_Y_Back,0,2,robot,3,False,False,"['robot_stimuli\\L_Base_Y_Back.mp4', 'robot_stimuli\\L_Base_X_Back.mp4', 'robot_stimuli\\L_Head_X_For.mp4', 'robot_stimuli\\R_Base_X_For.mp4']",robot_stimuli\L_Base_Y_Back.mp4,17,,,,,,,,,,,,,0,77,77,77,,,,,,,,,,,,,,,,,,1721.6478452999145,,,1738.264248299878,1738.264248299878,1738.264248299878,1,2.953770000487566,1741.2364213997498,1741.2364213997498,1741.2364213997498,1741.2364213997498,1741.2364213997498,1741.2364213997498,1741.2364213997498,1741.2364213997498,None,None,None,,,,1723.7353407996707,,,,,,,,1721.6478452999145,1721.6478452999145,None,,1734.7236138996668,1721.6478452999145,1721.6478452999145,,,17,001,2024-09-10_13h07.16.541,robot_cogshifting_sign,2022.2.5,59.90186875058361,
"['R_Head_Y_Back', 'R_Head_Z_Back', 'R_Torso_Z_Back', 'L_Head_Z_For']","{'laterality': 'L_Head_Z_For', 'localisation': 'R_Torso_Z_Back', 'movement': 'R_Head_Y_Back'}",localisation,"['localisation', 'movement']",R_Torso_Z_Back,2,2,robot,3,False,False,"['robot_stimuli\\R_Head_Y_Back.mp4', 'robot_stimuli\\R_Head_Z_Back.mp4', 'robot_stimuli\\R_Torso_Z_Back.mp4', 'robot_stimuli\\L_Head_Z_For.mp4']",robot_stimuli\R_Torso_Z_Back.mp4,17,,,,,,,,,,,,,0,78,78,78,,,,,,,,,,,,,,,,,,1741.2364213997498,,,1758.1363556999713,1758.1363556999713,1758.1363556999713,3,0.7136489003896713,1758.871143099852,1758.871143099852,1758.871143099852,1758.871143099852,1758.871143099852,1758.871143099852,1758.871143099852,1758.871143099852,None,None,None,,,,1743.323864699807,,,,,,,,1741.2364213997498,1741.2364213997498,None,,1754.4791672998108,1741.2364213997498,1741.2364213997498,,,17,001,2024-09-10_13h07.16.541,robot_cogshifting_sign,2022.2.5,59.90186875058361,
"['L_Arm_Y_For', 'R_Arm_Y_For', 'L_Torso_Y_Back', 'L_Arm_Z_For']","{'laterality': 'R_Arm_Y_For', 'localisation': 'L_Torso_Y_Back', 'movement': 'L_Arm_Z_For'}",localisation,"['laterality', 'localisation']",L_Torso_Y_Back,2,2,robot,3,False,False,"['robot_stimuli\\L_Arm_Y_For.mp4', 'robot_stimuli\\R_Arm_Y_For.mp4', 'robot_stimuli\\L_Torso_Y_Back.mp4', 'robot_stimuli\\L_Arm_Z_For.mp4']",robot_stimuli\L_Torso_Y_Back.mp4,17,,,,,,,,,,,,,0,79,79,79,,,,,,,,,,,,,,,,,,1758.871143099852,,,1775.470470499713,1775.470470499713,1775.470470499713,4,3.099022100213915,1778.5932852998376,1778.5932852998376,1778.5932852998376,1778.5932852998376,1778.5932852998376,1778.5932852998376,1778.5932852998376,1778.5932852998376,None,None,None,,,,1760.9421564000659,,,,,,,,1758.871143099852,1758.871143099852,None,,1771.846684699878,1758.871143099852,1758.871143099852,,,17,001,2024-09-10_13h07.16.541,robot_cogshifting_sign,2022.2.5,59.90186875058361,
"['L_Base_Y_For', 'R_Torso_Y_Back', 'L_Torso_Z_Back', 'L_Torso_Y_For']","{'laterality': 'R_Torso_Y_Back', 'localisation': 'L_Base_Y_For', 'movement': 'L_Torso_Z_Back'}",localisation,"['localisation', 'movement']",L_Base_Y_For,0,2,robot,3,False,True,"['robot_stimuli\\L_Base_Y_For.mp4', 'robot_stimuli\\R_Torso_Y_Back.mp4', 'robot_stimuli\\L_Torso_Z_Back.mp4', 'robot_stimuli\\L_Torso_Y_For.mp4']",robot_stimuli\L_Base_Y_For.mp4,17,,,,,,,,,,,,,0,80,80,80,,,,,,,,,,,,,,,,,,1778.5932852998376,,,1795.2427052999847,1795.2427052999847,1795.2427052999847,1,1.8150025005452335,1797.1130857998505,1800.6533927000128,1797.1130857998505,1800.6533927000128,1797.1130857998505,1800.6533927000128,1797.1130857998505,1800.6533927000128,35.95238095238095,2.648447100073099,space,,,,1780.6807444998994,3.472232900559902,,,,,,,1778.5932852998376,1778.5932852998376,None,,1791.6189147997648,1778.5932852998376,1778.5932852998376,,,17,001,2024-09-10_13h07.16.541,robot_cogshifting_sign,2022.2.5,59.90186875058361,
"['red_right_T_45', 'blue_right_Z_0', 'blue_bottom_D_45', 'blue_right_X_45']","{'color': 'red_right_T_45', 'position': 'blue_bottom_D_45', 'orientation': 'blue_right_Z_0'}",position,['position'],blue_bottom_D_45,2,1,letter,4,True,False,"['robot_stimuli\\\\filler.mp4', 'robot_stimuli\\\\filler.mp4', 'robot_stimuli\\\\filler.mp4', 'robot_stimuli\\\\filler.mp4']",robot_stimuli\\filler.mp4,17,,,,,,,,,,,,,0,81,81,81,,,,,,,,,,,,,,,,,,1801.3380748000927,,,1812.0591311999597,1812.0591311999597,1812.0591311999597,3,0.3186344006098807,1812.4098736997694,1812.4098736997694,1812.4098736997694,1812.4098736997694,1812.4098736997694,1812.4098736997694,1812.4098736997694,1812.4098736997694,None,None,None,,,,,,,,,,,,1800.6533927000128,1800.6533927000128,space,0.6609593005850911,,,,1810.039161699824,1812.0591311999597,17,001,2024-09-10_13h07.16.541,robot_cogshifting_sign,2022.2.5,59.90186875058361,
"['blue_left_R_45', 'blue_top_L_0', 'blue_left_S_0', 'red_left_Q_0']","{'color': 'red_left_Q_0', 'position': 'blue_top_L_0', 'orientation': 'blue_left_R_45'}",orientation,['orientation'],blue_left_R_45,0,1,letter,4,False,False,"['robot_stimuli\\\\filler.mp4', 'robot_stimuli\\\\filler.mp4', 'robot_stimuli\\\\filler.mp4', 'robot_stimuli\\\\filler.mp4']",robot_stimuli\\filler.mp4,17,,,,,,,,,,,,,0,82,82,82,,,,,,,,,,,,,,,,,,1812.4098736997694,,,1823.3480611997657,1823.3480611997657,1823.3480611997657,1,0.7332004006020725,1824.099529599771,1824.099529599771,1824.099529599771,1824.099529599771,1824.099529599771,1824.099529599771,1824.099529599771,1824.099529599771,None,None,None,,,,1814.480675299652,,,,,,,,1812.4098736997694,1812.4098736997694,None,,,1812.4098736997694,1812.4098736997694,1821.1270845998079,1823.3480611997657,17,001,2024-09-10_13h07.16.541,robot_cogshifting_sign,2022.2.5,59.90186875058361,
"['red_bottom_K_45', 'red_bottom_D_0', 'blue_bottom_X_45', 'red_right_T_45']","{'color': 'blue_bottom_X_45', 'position': 'red_right_T_45', 'orientation': 'red_bottom_D_0'}",position,['position'],red_right_T_45,3,1,letter,4,False,False,"['robot_stimuli\\\\filler.mp4', 'robot_stimuli\\\\filler.mp4', 'robot_stimuli\\\\filler.mp4', 'robot_stimuli\\\\filler.mp4']",robot_stimuli\\filler.mp4,17,,,,,,,,,,,,,0,83,83,83,,,,,,,,,,,,,,,,,,1824.099529599771,,,1834.8540544998832,1834.8540544998832,1834.8540544998832,4,0.3714411002583802,1835.2548465998843,1835.2548465998843,1835.2548465998843,1835.2548465998843,1835.2548465998843,1835.2548465998843,1835.2548465998843,1835.2548465998843,None,None,None,,,,1826.1703967996873,,,,,,,,1824.099529599771,1824.099529599771,None,,,1824.099529599771,1824.099529599771,1832.8334554000758,1834.8540544998832,17,001,2024-09-10_13h07.16.541,robot_cogshifting_sign,2022.2.5,59.90186875058361,
"['red_top_N_45', 'blue_top_W_45', 'red_right_L_45', 'red_top_L_0']","{'color': 'blue_top_W_45', 'position': 'red_right_L_45', 'orientation': 'red_top_L_0'}",position,['position'],red_right_L_45,2,1,letter,4,False,False,"['robot_stimuli\\\\filler.mp4', 'robot_stimuli\\\\filler.mp4', 'robot_stimuli\\\\filler.mp4', 'robot_stimuli\\\\filler.mp4']",robot_stimuli\\filler.mp4,17,,,,,,,,,,,,,0,84,84,84,,,,,,,,,,,,,,,,,,1835.2548465998843,,,1845.9926037997939,1845.9926037997939,1845.9926037997939,3,0.3144046007655561,1846.326603599824,1846.326603599824,1846.326603599824,1846.326603599824,1846.326603599824,1846.326603599824,1846.326603599824,1846.326603599824,None,None,None,,,,1837.3256143997423,,,,,,,,1835.2548465998843,1835.2548465998843,None,,,1835.2548465998843,1835.2548465998843,1843.7716022999957,1845.9926037997939,17,001,2024-09-10_13h07.16.541,robot_cogshifting_sign,2022.2.5,59.90186875058361,
"['blue_left_X_0', 'blue_left_C_45', 'blue_right_G_45', 'red_left_J_45']","{'color': 'red_left_J_45', 'position': 'blue_right_G_45', 'orientation': 'blue_left_X_0'}",orientation,['orientation'],blue_left_X_0,0,1,letter,4,False,False,"['robot_stimuli\\\\filler.mp4', 'robot_stimuli\\\\filler.mp4', 'robot_stimuli\\\\filler.mp4', 'robot_stimuli\\\\filler.mp4']",robot_stimuli\\filler.mp4,17,,,,,,,,,,,,,0,85,85,85,,,,,,,,,,,,,,,,,,1846.326603599824,,,1857.2648152997717,1857.2648152997717,1857.2648152997717,1,0.609056000597775,1857.899403499905,1857.899403499905,1857.899403499905,1857.899403499905,1857.899403499905,1857.899403499905,1857.899403499905,1857.899403499905,None,None,None,,,,1848.3973538996652,,,,,,,,1846.326603599824,1846.326603599824,None,,,1846.326603599824,1846.326603599824,1855.0437793000601,1857.2648152997717,17,001,2024-09-10_13h07.16.541,robot_cogshifting_sign,2022.2.5,59.90186875058361,
