sequence,odd_ones,parameter,choices,target,target_idx,condition,stimuli,block,is_block_beginning,is_block_ending,sequence_fnames,target_fname,subject,retraining.thisRepN,retraining.thisTrialN,retraining.thisN,retraining.thisIndex,training.thisRepN,training.thisTrialN,training.thisN,training.thisIndex,training_sequence_loop.thisRepN,training_sequence_loop.thisTrialN,training_sequence_loop.thisN,training_sequence_loop.thisIndex,trials.thisRepN,trials.thisTrialN,trials.thisN,trials.thisIndex,sequence_loop.thisRepN,sequence_loop.thisTrialN,sequence_loop.thisN,sequence_loop.thisIndex,langage_text.started,langage_key.started,langage_key.keys,langage_key.rt,intro_text.started,intro_key.started,intro_key.keys,intro_key.rt,training_intro_text.started,training_intro_key.started,training_intro_key.keys,training_intro_key.rt,polygon.started,polygon.stopped,cue_before_text.started,cue_before_text.stopped,training_presentation_letter.started,training_presentation_letter.stopped,recall_key.started,recall_question.started,recall_answer.started,recall_key.keys,recall_key.rt,RSME_labels.started,RSME_labels.stopped,RSME_ticks.started,RSME_ticks.stopped,RSME_text.started,RSME_text.stopped,RSME_key.started,RSME_key.stopped,RSME_ticks.response,RSME_ticks.rt,RSME_key.keys,training_intro_text.stopped,training_intro_key.stopped,RSME_key.rt,training_presentation_movie.started,experiment_beginning_text.started,experiment_beginning_keys.started,experiment_beginning_key.started,experiment_beginning_key.keys,experiment_beginning_key.rt,block_intro_text.started,block_intro_key.started,block_intro_key.keys,block_intro_key.rt,presentation_letter.started,presentation_letter.stopped,block_intro_text.stopped,block_intro_key.stopped,presentation_movie.started,participant,session,date,expName,psychopyVersion,frameRate,
,,,,,,,,,,,,,,,,,,,,,,,,,,,,,,,,,,15.49202799999999,15.49202799999999,f,79.3801372,,,,,,,,,,,,,,,,,,,,,,,,,,,,,,,,,,,,,,,,,,,,,,,,,4,001,2024-07-15_14h06.29.468,robot_cogshifting_sign,2022.2.5,59.7266312089576,
,,,,,,,,,,,,,,,,,,,,,,,,,,,,,,,,,,,,,,94.92917920000001,94.92917920000001,space,155.27081850000002,,,,,,,,,,,,,,,,,,,,,,,,,,,,,,,,,,,,,,,,,,,,,4,001,2024-07-15_14h06.29.468,robot_cogshifting_sign,2022.2.5,59.7266312089576,
"['blue_right_R_0', 'red_top_W_0', 'blue_top_L_0', 'blue_top_Q_45']","{'color': 'red_top_W_0', 'position': 'blue_right_R_0', 'orientation': 'blue_top_Q_45'}",position,['position'],blue_right_R_0,0,1,letter,1,True,False,"['robot_stimuli\\\\filler.mp4', 'robot_stimuli\\\\filler.mp4', 'robot_stimuli\\\\filler.mp4', 'robot_stimuli\\\\filler.mp4']",robot_stimuli\\filler.mp4,4,0,0,0,0,0,0,0,0,,,,,,,,,,,,,,,,,,,,,250.2427242,250.2427242,space,2.91719209999998,253.191554,254.19155029999996,254.19155029999996,256.6765544,263.5882703,265.62192239999996,265.62192239999996,265.62192239999996,265.62192239999996,1,36.95293979999995,302.71186589999996,302.71186589999996,302.71186589999996,302.71186589999996,302.71186589999996,302.71186589999996,302.71186589999996,302.71186589999996,None,None,None,,,,,,,,,,,,,,,,,,,4,001,2024-07-15_14h06.29.468,robot_cogshifting_sign,2022.2.5,59.7266312089576,
"['blue_right_D_0', 'red_right_X_45', 'blue_right_K_45', 'blue_top_L_45']","{'color': 'red_right_X_45', 'position': 'blue_top_L_45', 'orientation': 'blue_right_D_0'}",color,['color'],red_right_X_45,1,1,letter,1,False,False,"['robot_stimuli\\\\filler.mp4', 'robot_stimuli\\\\filler.mp4', 'robot_stimuli\\\\filler.mp4', 'robot_stimuli\\\\filler.mp4']",robot_stimuli\\filler.mp4,4,0,0,0,0,0,1,1,1,,,,,,,,,,,,,,,,,,,,,302.71186589999996,302.71186589999996,None,,302.71186589999996,,303.7247347,,312.5170099,314.5431061,314.5431061,314.5431061,314.5431061,2,1.0401142999999564,315.60794949999996,315.60794949999996,315.60794949999996,315.60794949999996,315.60794949999996,315.60794949999996,315.60794949999996,315.60794949999996,None,None,None,302.71186589999996,302.71186589999996,,,,,,,,,,,,,,,,,4,001,2024-07-15_14h06.29.468,robot_cogshifting_sign,2022.2.5,59.7266312089576,
"['red_bottom_D_45', 'blue_bottom_F_45', 'blue_bottom_M_0', 'blue_left_Q_45']","{'color': 'red_bottom_D_45', 'position': 'blue_left_Q_45', 'orientation': 'blue_bottom_M_0'}",orientation,['orientation'],blue_bottom_M_0,2,1,letter,1,False,True,"['robot_stimuli\\\\filler.mp4', 'robot_stimuli\\\\filler.mp4', 'robot_stimuli\\\\filler.mp4', 'robot_stimuli\\\\filler.mp4']",robot_stimuli\\filler.mp4,4,0,0,0,0,0,2,2,2,,,,,,,,,,,,,,,,,,,,,315.60794949999996,315.60794949999996,None,,315.60794949999996,316.60816739999996,316.60816739999996,318.680092,325.39514779999996,327.61890309999995,327.61890309999995,327.61890309999995,327.61890309999995,3,11.427937599999993,339.1367502,368.3118856,339.1367502,368.3118856,339.1367502,368.3118856,339.1367502,368.3118856,9.475308641975309,22.025274500000023,space,315.60794949999996,315.60794949999996,29.08649309999997,,,,,,,,,,,,,,,,4,001,2024-07-15_14h06.29.468,robot_cogshifting_sign,2022.2.5,59.7266312089576,
"['blue_top_C_45', 'blue_top_Z_0', 'red_top_P_0', 'blue_left_X_0']","{'color': 'red_top_P_0', 'position': 'blue_left_X_0', 'orientation': 'blue_top_C_45'}",color,"['color', 'orientation']",red_top_P_0,2,2,letter,1,True,False,"['robot_stimuli\\\\filler.mp4', 'robot_stimuli\\\\filler.mp4', 'robot_stimuli\\\\filler.mp4', 'robot_stimuli\\\\filler.mp4']",robot_stimuli\\filler.mp4,4,0,0,0,0,0,3,3,3,,,,,,,,,,,,,,,,,,,,,368.3118856,368.3118856,space,5.471531099999979,373.80790939999997,374.80829589999996,374.80829589999996,376.89011619999997,383.41511219999995,385.4576479,385.4576479,385.4576479,385.4576479,3,6.677993600000022,392.15815979999996,392.15815979999996,392.15815979999996,392.15815979999996,392.15815979999996,392.15815979999996,392.15815979999996,392.15815979999996,None,None,None,,,,,,,,,,,,,,,,,,,4,001,2024-07-15_14h06.29.468,robot_cogshifting_sign,2022.2.5,59.7266312089576,
"['red_top_M_0', 'blue_bottom_T_0', 'red_bottom_N_45', 'red_bottom_W_0']","{'color': 'blue_bottom_T_0', 'position': 'red_top_M_0', 'orientation': 'red_bottom_N_45'}",orientation,"['color', 'orientation']",red_bottom_N_45,2,2,letter,1,False,False,"['robot_stimuli\\\\filler.mp4', 'robot_stimuli\\\\filler.mp4', 'robot_stimuli\\\\filler.mp4', 'robot_stimuli\\\\filler.mp4']",robot_stimuli\\filler.mp4,4,0,0,0,0,0,4,4,4,,,,,,,,,,,,,,,,,,,,,392.15815979999996,392.15815979999996,None,,392.15815979999996,393.1582554,393.1582554,395.2377601,401.5395696,403.56658869999995,403.56658869999995,403.56658869999995,403.56658869999995,2,11.450010100000029,415.041449,415.041449,415.041449,415.041449,415.041449,415.041449,415.041449,415.041449,None,None,None,392.15815979999996,392.15815979999996,,,,,,,,,,,,,,,,,4,001,2024-07-15_14h06.29.468,robot_cogshifting_sign,2022.2.5,59.7266312089576,
"['red_left_N_45', 'blue_top_L_45', 'red_top_G_0', 'red_top_V_45']","{'color': 'blue_top_L_45', 'position': 'red_left_N_45', 'orientation': 'red_top_G_0'}",position,"['color', 'position']",red_left_N_45,0,2,letter,1,False,True,"['robot_stimuli\\\\filler.mp4', 'robot_stimuli\\\\filler.mp4', 'robot_stimuli\\\\filler.mp4', 'robot_stimuli\\\\filler.mp4']",robot_stimuli\\filler.mp4,4,0,0,0,0,0,5,5,5,,,,,,,,,,,,,,,,,,,,,415.041449,415.041449,None,,415.041449,416.0417291,416.0417291,418.10681669999997,424.44813039999997,426.6623332,426.6623332,426.6623332,426.6623332,1,8.216871500000067,434.93410029999995,443.1856064,434.93410029999995,443.1856064,434.93410029999995,443.1856064,434.93410029999995,443.1856064,63.02469135802469,6.632201399999985,space,415.041449,415.041449,8.201846799999984,,,,,,,,,,,,,,,,4,001,2024-07-15_14h06.29.468,robot_cogshifting_sign,2022.2.5,59.7266312089576,
"['red_right_Z_45', 'blue_right_D_0', 'red_right_P_0', 'red_bottom_Z_0']","{'color': 'blue_right_D_0', 'position': 'red_bottom_Z_0', 'orientation': 'red_right_Z_45'}",color,"['color', 'orientation', 'position']",blue_right_D_0,1,3,letter,1,True,False,"['robot_stimuli\\\\filler.mp4', 'robot_stimuli\\\\filler.mp4', 'robot_stimuli\\\\filler.mp4', 'robot_stimuli\\\\filler.mp4']",robot_stimuli\\filler.mp4,4,0,0,0,0,0,6,6,6,,,,,,,,,,,,,,,,,,,,,443.1856064,443.1856064,space,9.19727470000008,452.40830299999993,453.408627,453.408627,455.4778265,461.9803380999999,464.0019198,464.0019198,464.0019198,464.0019198,2,4.695022799999933,468.7253693,468.7253693,468.7253693,468.7253693,468.7253693,468.7253693,468.7253693,468.7253693,None,None,None,,,,,,,,,,,,,,,,,,,4,001,2024-07-15_14h06.29.468,robot_cogshifting_sign,2022.2.5,59.7266312089576,
"['blue_top_L_0', 'blue_bottom_S_0', 'blue_top_B_45', 'red_top_Z_0']","{'color': 'red_top_Z_0', 'position': 'blue_bottom_S_0', 'orientation': 'blue_top_B_45'}",orientation,"['color', 'orientation', 'position']",blue_top_B_45,2,3,letter,1,False,False,"['robot_stimuli\\\\filler.mp4', 'robot_stimuli\\\\filler.mp4', 'robot_stimuli\\\\filler.mp4', 'robot_stimuli\\\\filler.mp4']",robot_stimuli\\filler.mp4,4,0,0,0,0,0,7,7,7,,,,,,,,,,,,,,,,,,,,,468.7253693,468.7253693,None,,468.7253693,469.7253087,469.7253087,471.79223749999994,478.49782859999993,480.72071359999995,480.72071359999995,480.72071359999995,480.72071359999995,3,5.999035899999953,486.7417872,486.7417872,486.7417872,486.7417872,486.7417872,486.7417872,486.7417872,486.7417872,None,None,None,468.7253693,468.7253693,,,,,,,,,,,,,,,,,4,001,2024-07-15_14h06.29.468,robot_cogshifting_sign,2022.2.5,59.7266312089576,
"['blue_left_D_0', 'blue_right_R_45', 'blue_left_B_45', 'red_left_D_45']","{'color': 'red_left_D_45', 'position': 'blue_right_R_45', 'orientation': 'blue_left_D_0'}",position,"['color', 'orientation', 'position']",blue_right_R_45,1,3,letter,1,False,True,"['robot_stimuli\\\\filler.mp4', 'robot_stimuli\\\\filler.mp4', 'robot_stimuli\\\\filler.mp4', 'robot_stimuli\\\\filler.mp4']",robot_stimuli\\filler.mp4,4,0,0,0,0,0,8,8,8,,,,,,,,,,,,,,,,,,,,,486.7417872,486.7417872,None,,486.7417872,487.742834,487.742834,489.8173498,496.32430999999997,498.3467117,498.3467117,498.3467117,498.3467117,2,5.2605942,503.6558682,514.9244201,503.6558682,514.9244201,503.6558682,514.9244201,503.6558682,514.9244201,67.65432098765432,5.736357699999985,space,486.7417872,486.7417872,11.215907300000012,,,,,,,,,,,,,,,,4,001,2024-07-15_14h06.29.468,robot_cogshifting_sign,2022.2.5,59.7266312089576,
"['R_Torso_Z_For', 'L_Torso_Z_For', 'L_Torso_X_Back', 'L_Base_Z_Back']","{'laterality': 'R_Torso_Z_For', 'localisation': 'L_Base_Z_Back', 'movement': 'L_Torso_X_Back'}",laterality,['laterality'],R_Torso_Z_For,0,1,robot,2,True,False,"['robot_stimuli\\R_Torso_Z_For.mp4', 'robot_stimuli\\L_Torso_Z_For.mp4', 'robot_stimuli\\L_Torso_X_Back.mp4', 'robot_stimuli\\L_Base_Z_Back.mp4']",robot_stimuli\R_Torso_Z_For.mp4,4,0,0,0,0,0,9,9,9,,,,,,,,,,,,,,,,,,,,,514.9244201,514.9244201,space,4.676973000000075,519.6250156,520.625445,520.625445,522.7221508,,,537.5493028,537.5493028,537.5493028,1,0.8907373999999066,538.4584375,538.4584375,538.4584375,538.4584375,538.4584375,538.4584375,538.4584375,538.4584375,None,None,None,,,,533.9183859999999,,,,,,,,,,,,,,,4,001,2024-07-15_14h06.29.468,robot_cogshifting_sign,2022.2.5,59.7266312089576,
"['L_Base_X_Back', 'R_Head_X_For', 'L_Head_X_For', 'L_Head_Z_Back']","{'laterality': 'R_Head_X_For', 'localisation': 'L_Base_X_Back', 'movement': 'L_Head_Z_Back'}",movement,['movement'],L_Head_Z_Back,3,1,robot,2,False,False,"['robot_stimuli\\L_Base_X_Back.mp4', 'robot_stimuli\\R_Head_X_For.mp4', 'robot_stimuli\\L_Head_X_For.mp4', 'robot_stimuli\\L_Head_Z_Back.mp4']",robot_stimuli\L_Head_Z_Back.mp4,4,0,0,0,0,0,10,10,10,,,,,,,,,,,,,,,,,,,,,538.4584375,538.4584375,None,,538.4584375,539.4583956,539.4583956,541.5475692,,,556.2763116,556.2763116,556.2763116,4,6.740382899999972,563.0419542,563.0419542,563.0419542,563.0419542,563.0419542,563.0419542,563.0419542,563.0419542,None,None,None,538.4584375,538.4584375,,552.6502495,,,,,,,,,,,,,,,4,001,2024-07-15_14h06.29.468,robot_cogshifting_sign,2022.2.5,59.7266312089576,
"['L_Head_X_Back', 'L_Torso_X_For', 'R_Torso_X_For', 'L_Torso_Y_For']","{'laterality': 'R_Torso_X_For', 'localisation': 'L_Head_X_Back', 'movement': 'L_Torso_Y_For'}",localisation,['localisation'],L_Head_X_Back,0,1,robot,2,False,True,"['robot_stimuli\\L_Head_X_Back.mp4', 'robot_stimuli\\L_Torso_X_For.mp4', 'robot_stimuli\\R_Torso_X_For.mp4', 'robot_stimuli\\L_Torso_Y_For.mp4']",robot_stimuli\L_Head_X_Back.mp4,4,0,0,0,0,0,11,11,11,,,,,,,,,,,,,,,,,,,,,563.0419542,563.0419542,None,,563.0419542,564.0420328,564.0420328,566.1227646,,,580.9644797,580.9644797,580.9644797,1,0.41123320000006913,581.417454,587.3982305,581.417454,587.3982305,581.417454,587.3982305,581.417454,587.3982305,12.407407407407407,3.092239599999971,space,563.0419542,563.0419542,5.917546399999978,577.329614,,,,,,,,,,,,,,,4,001,2024-07-15_14h06.29.468,robot_cogshifting_sign,2022.2.5,59.7266312089576,
"['L_Base_X_Back', 'L_Torso_Y_Back', 'L_Torso_X_For', 'R_Torso_X_Back']","{'laterality': 'R_Torso_X_Back', 'localisation': 'L_Base_X_Back', 'movement': 'L_Torso_Y_Back'}",localisation,"['laterality', 'localisation']",L_Base_X_Back,0,2,robot,2,True,False,"['robot_stimuli\\L_Base_X_Back.mp4', 'robot_stimuli\\L_Torso_Y_Back.mp4', 'robot_stimuli\\L_Torso_X_For.mp4', 'robot_stimuli\\R_Torso_X_Back.mp4']",robot_stimuli\L_Base_X_Back.mp4,4,0,0,0,0,0,12,12,12,,,,,,,,,,,,,,,,,,,,,587.3982305,587.3982305,space,2.28249670000001,589.709071,590.7090493,590.7090493,592.7911226,,,607.4522283,607.4522283,607.4522283,1,4.444338399999978,611.9254149,611.9254149,611.9254149,611.9254149,611.9254149,611.9254149,611.9254149,611.9254149,None,None,None,,,,603.8064925,,,,,,,,,,,,,,,4,001,2024-07-15_14h06.29.468,robot_cogshifting_sign,2022.2.5,59.7266312089576,
"['R_Torso_Y_Back', 'R_Arm_Y_For', 'L_Arm_Y_Back', 'R_Arm_X_For']","{'laterality': 'L_Arm_Y_Back', 'localisation': 'R_Torso_Y_Back', 'movement': 'R_Arm_X_For'}",laterality,"['laterality', 'movement']",L_Arm_Y_Back,2,2,robot,2,False,False,"['robot_stimuli\\R_Torso_Y_Back.mp4', 'robot_stimuli\\R_Arm_Y_For.mp4', 'robot_stimuli\\L_Arm_Y_Back.mp4', 'robot_stimuli\\R_Arm_X_For.mp4']",robot_stimuli\L_Arm_Y_Back.mp4,4,0,0,0,0,0,13,13,13,,,,,,,,,,,,,,,,,,,,,611.9254149,611.9254149,None,,611.9254149,612.9257428,612.9257428,615.0142233,,,629.7195432999999,629.7195432999999,629.7195432999999,3,4.088824600000052,633.8255805,633.8255805,633.8255805,633.8255805,633.8255805,633.8255805,633.8255805,633.8255805,None,None,None,611.9254149,611.9254149,,626.0842160999999,,,,,,,,,,,,,,,4,001,2024-07-15_14h06.29.468,robot_cogshifting_sign,2022.2.5,59.7266312089576,
"['L_Head_Z_For', 'R_Base_Z_For', 'R_Head_Y_Back', 'R_Head_Z_For']","{'laterality': 'L_Head_Z_For', 'localisation': 'R_Base_Z_For', 'movement': 'R_Head_Y_Back'}",movement,"['localisation', 'movement']",R_Head_Y_Back,2,2,robot,2,False,True,"['robot_stimuli\\L_Head_Z_For.mp4', 'robot_stimuli\\R_Base_Z_For.mp4', 'robot_stimuli\\R_Head_Y_Back.mp4', 'robot_stimuli\\R_Head_Z_For.mp4']",robot_stimuli\R_Head_Y_Back.mp4,4,0,0,0,0,0,14,14,14,,,,,,,,,,,,,,,,,,,,,633.8255805,633.8255805,None,,633.8255805,634.8258357,634.8258357,636.9053269999999,,,651.7335328,651.7335328,651.7335328,3,2.362121199999919,654.1511429,658.8783364,654.1511429,658.8783364,654.1511429,658.8783364,654.1511429,658.8783364,40.956790123456784,3.9869939999999815,space,633.8255805,633.8255805,4.680821900000055,648.0970317,,,,,,,,,,,,,,,4,001,2024-07-15_14h06.29.468,robot_cogshifting_sign,2022.2.5,59.7266312089576,
"['L_Base_X_Back', 'L_Base_Z_Back', 'L_Torso_X_For', 'R_Base_X_For']","{'laterality': 'R_Base_X_For', 'localisation': 'L_Torso_X_For', 'movement': 'L_Base_Z_Back'}",movement,"['laterality', 'localisation', 'movement']",L_Base_Z_Back,1,3,robot,2,True,False,"['robot_stimuli\\L_Base_X_Back.mp4', 'robot_stimuli\\L_Base_Z_Back.mp4', 'robot_stimuli\\L_Torso_X_For.mp4', 'robot_stimuli\\R_Base_X_For.mp4']",robot_stimuli\L_Base_Z_Back.mp4,4,0,0,0,0,0,15,15,15,,,,,,,,,,,,,,,,,,,,,658.8783364,658.8783364,space,2.657444199999972,661.5585768,662.5586695,662.5586695,664.6374958,,,679.2993642,679.2993642,679.2993642,2,11.508181299999919,690.8256893,690.8256893,690.8256893,690.8256893,690.8256893,690.8256893,690.8256893,690.8256893,None,None,None,,,,675.7562182,,,,,,,,,,,,,,,4,001,2024-07-15_14h06.29.468,robot_cogshifting_sign,2022.2.5,59.7266312089576,
"['L_Torso_Y_Back', 'R_Torso_Y_For', 'L_Base_Y_Back', 'L_Torso_Z_For']","{'laterality': 'R_Torso_Y_For', 'localisation': 'L_Base_Y_Back', 'movement': 'L_Torso_Z_For'}",localisation,"['laterality', 'localisation', 'movement']",L_Base_Y_Back,2,3,robot,2,False,False,"['robot_stimuli\\L_Torso_Y_Back.mp4', 'robot_stimuli\\R_Torso_Y_For.mp4', 'robot_stimuli\\L_Base_Y_Back.mp4', 'robot_stimuli\\L_Torso_Z_For.mp4']",robot_stimuli\L_Base_Y_Back.mp4,4,0,0,0,0,0,16,16,16,,,,,,,,,,,,,,,,,,,,,690.8256893,690.8256893,None,,690.8256893,691.8259606,691.8259606,693.9084075,,,708.5646511,708.5646511,708.5646511,2,7.13132240000003,715.7257064,715.7257064,715.7257064,715.7257064,715.7257064,715.7257064,715.7257064,715.7257064,None,None,None,690.8256893,690.8256893,,704.9205688,,,,,,,,,,,,,,,4,001,2024-07-15_14h06.29.468,robot_cogshifting_sign,2022.2.5,59.7266312089576,
"['L_Torso_X_For', 'L_Torso_Y_For', 'L_Base_Y_For', 'R_Torso_Y_For']","{'laterality': 'R_Torso_Y_For', 'localisation': 'L_Base_Y_For', 'movement': 'L_Torso_X_For'}",laterality,"['laterality', 'localisation', 'movement']",R_Torso_Y_For,3,3,robot,2,False,True,"['robot_stimuli\\L_Torso_X_For.mp4', 'robot_stimuli\\L_Torso_Y_For.mp4', 'robot_stimuli\\L_Base_Y_For.mp4', 'robot_stimuli\\R_Torso_Y_For.mp4']",robot_stimuli\R_Torso_Y_For.mp4,4,0,0,0,0,0,17,17,17,,,,,,,,,,,,,,,,,,,,,715.7257064,715.7257064,None,,715.7257064,716.7258414,716.7258414,718.798937,,,733.4825327,733.4825327,733.4825327,4,2.7416623999999814,736.2671255,746.3621449999999,736.2671255,746.3621449999999,736.2671255,746.3621449999999,736.2671255,746.3621449999999,79.84567901234568,6.190966500000059,space,715.7257064,715.7257064,10.036095799999984,729.8467469999999,,,,,,,,,,,,,,,4,001,2024-07-15_14h06.29.468,robot_cogshifting_sign,2022.2.5,59.7266312089576,
,,,,,,,,,,,,,,0,0,0,0,,,,,,,,,,,,,,,,,,,,,,,,,,,,,,,,,,,,,,,,,,,,,,,,,,,,,,,746.3621449999999,746.3621449999999,746.3621449999999,c,2.470061599999994,,,,,,,,,,4,001,2024-07-15_14h06.29.468,robot_cogshifting_sign,2022.2.5,59.7266312089576,
"['red_bottom_Z_45', 'blue_bottom_R_45', 'blue_top_W_45', 'blue_bottom_Z_0']","{'color': 'red_bottom_Z_45', 'position': 'blue_top_W_45', 'orientation': 'blue_bottom_Z_0'}",orientation,"['color', 'orientation', 'position']",blue_bottom_Z_0,3,3,letter,1,True,False,"['robot_stimuli\\\\filler.mp4', 'robot_stimuli\\\\filler.mp4', 'robot_stimuli\\\\filler.mp4', 'robot_stimuli\\\\filler.mp4']",robot_stimuli\\filler.mp4,4,,,,,,,,,,,,,0,0,0,0,,,,,,,,,,,,,,,,,,,756.2926699,758.3488533,,,767.2440617,767.2440617,767.2440617,2,6.291422499999939,773.5589305999999,773.5589305999999,773.5589305999999,773.5589305999999,773.5589305999999,773.5589305999999,773.5589305999999,773.5589305999999,None,None,None,,,,,,,,,,748.9152994,748.9152994,space,7.355853600000032,765.2207255,767.2440617,,,,4,001,2024-07-15_14h06.29.468,robot_cogshifting_sign,2022.2.5,59.7266312089576,
"['red_right_B_45', 'red_top_W_0', 'blue_right_M_0', 'red_right_L_0']","{'color': 'blue_right_M_0', 'position': 'red_top_W_0', 'orientation': 'red_right_B_45'}",orientation,"['color', 'orientation', 'position']",red_right_B_45,0,3,letter,1,False,False,"['robot_stimuli\\\\filler.mp4', 'robot_stimuli\\\\filler.mp4', 'robot_stimuli\\\\filler.mp4', 'robot_stimuli\\\\filler.mp4']",robot_stimuli\\filler.mp4,4,,,,,,,,,,,,,0,1,1,1,,,,,,,,,,,,,,,,,,,773.5589305999999,775.6300772999999,,,784.5307067,784.5307067,784.5307067,1,8.860921599999969,793.4092303,793.4092303,793.4092303,793.4092303,793.4092303,793.4092303,793.4092303,793.4092303,None,None,None,,,,,,,,,,773.5589305999999,773.5589305999999,None,,782.3113614,784.5307067,773.5589305999999,773.5589305999999,,4,001,2024-07-15_14h06.29.468,robot_cogshifting_sign,2022.2.5,59.7266312089576,
"['red_right_S_0', 'blue_right_J_45', 'red_left_S_45', 'red_right_K_45']","{'color': 'blue_right_J_45', 'position': 'red_left_S_45', 'orientation': 'red_right_S_0'}",color,"['color', 'orientation', 'position']",blue_right_J_45,1,3,letter,1,False,False,"['robot_stimuli\\\\filler.mp4', 'robot_stimuli\\\\filler.mp4', 'robot_stimuli\\\\filler.mp4', 'robot_stimuli\\\\filler.mp4']",robot_stimuli\\filler.mp4,4,,,,,,,,,,,,,0,2,2,2,,,,,,,,,,,,,,,,,,,793.4092303,795.4727445999999,,,804.3443966,804.3443966,804.3443966,2,2.61640629999998,806.9926633,806.9926633,806.9926633,806.9926633,806.9926633,806.9926633,806.9926633,806.9926633,None,None,None,,,,,,,,,,793.4092303,793.4092303,None,,802.1387916,804.3443966,793.4092303,793.4092303,,4,001,2024-07-15_14h06.29.468,robot_cogshifting_sign,2022.2.5,59.7266312089576,
"['red_top_D_45', 'red_left_G_45', 'red_top_V_0', 'blue_top_Z_45']","{'color': 'blue_top_Z_45', 'position': 'red_left_G_45', 'orientation': 'red_top_V_0'}",position,"['color', 'orientation', 'position']",red_left_G_45,1,3,letter,1,False,False,"['robot_stimuli\\\\filler.mp4', 'robot_stimuli\\\\filler.mp4', 'robot_stimuli\\\\filler.mp4', 'robot_stimuli\\\\filler.mp4']",robot_stimuli\\filler.mp4,4,,,,,,,,,,,,,0,3,3,3,,,,,,,,,,,,,,,,,,,806.9926633,809.0575984,,,817.9369667999999,817.9369667999999,817.9369667999999,2,3.286225799999997,821.2426472999999,821.2426472999999,821.2426472999999,821.2426472999999,821.2426472999999,821.2426472999999,821.2426472999999,821.2426472999999,None,None,None,,,,,,,,,,806.9926633,806.9926633,None,,815.7190552999999,817.9369667999999,806.9926633,806.9926633,,4,001,2024-07-15_14h06.29.468,robot_cogshifting_sign,2022.2.5,59.7266312089576,
"['red_top_H_0', 'blue_bottom_K_0', 'red_bottom_L_45', 'red_bottom_T_0']","{'color': 'blue_bottom_K_0', 'position': 'red_top_H_0', 'orientation': 'red_bottom_L_45'}",position,"['color', 'orientation', 'position']",red_top_H_0,0,3,letter,1,False,False,"['robot_stimuli\\\\filler.mp4', 'robot_stimuli\\\\filler.mp4', 'robot_stimuli\\\\filler.mp4', 'robot_stimuli\\\\filler.mp4']",robot_stimuli\\filler.mp4,4,,,,,,,,,,,,,0,4,4,4,,,,,,,,,,,,,,,,,,,821.2426472999999,823.2981722,,,832.3838198,832.3838198,832.3838198,1,27.06501129999991,859.4762392,859.4762392,859.4762392,859.4762392,859.4762392,859.4762392,859.4762392,859.4762392,None,None,None,,,,,,,,,,821.2426472999999,821.2426472999999,None,,830.1654445,832.3838198,821.2426472999999,821.2426472999999,,4,001,2024-07-15_14h06.29.468,robot_cogshifting_sign,2022.2.5,59.7266312089576,
"['blue_right_S_45', 'blue_top_L_45', 'red_right_P_45', 'blue_right_B_0']","{'color': 'red_right_P_45', 'position': 'blue_top_L_45', 'orientation': 'blue_right_B_0'}",orientation,"['color', 'orientation', 'position']",blue_right_B_0,3,3,letter,1,False,False,"['robot_stimuli\\\\filler.mp4', 'robot_stimuli\\\\filler.mp4', 'robot_stimuli\\\\filler.mp4', 'robot_stimuli\\\\filler.mp4']",robot_stimuli\\filler.mp4,4,,,,,,,,,,,,,0,5,5,5,,,,,,,,,,,,,,,,,,,859.4762392,861.5315081,,,870.0086408999999,870.0086408999999,870.0086408999999,4,2.8318691999999004,872.8594644,872.8594644,872.8594644,872.8594644,872.8594644,872.8594644,872.8594644,872.8594644,None,None,None,,,,,,,,,,859.4762392,859.4762392,None,,867.9908038,870.0086408999999,859.4762392,859.4762392,,4,001,2024-07-15_14h06.29.468,robot_cogshifting_sign,2022.2.5,59.7266312089576,
"['blue_right_W_45', 'blue_top_K_45', 'red_top_K_45', 'blue_top_Q_0']","{'color': 'red_top_K_45', 'position': 'blue_right_W_45', 'orientation': 'blue_top_Q_0'}",color,"['color', 'orientation', 'position']",red_top_K_45,2,3,letter,1,False,False,"['robot_stimuli\\\\filler.mp4', 'robot_stimuli\\\\filler.mp4', 'robot_stimuli\\\\filler.mp4', 'robot_stimuli\\\\filler.mp4']",robot_stimuli\\filler.mp4,4,,,,,,,,,,,,,0,6,6,6,,,,,,,,,,,,,,,,,,,872.8594644,874.9291118,,,883.8064866,883.8064866,883.8064866,3,2.3217815000000286,886.1594547999999,886.1594547999999,886.1594547999999,886.1594547999999,886.1594547999999,886.1594547999999,886.1594547999999,886.1594547999999,None,None,None,,,,,,,,,,872.8594644,872.8594644,None,,881.5969769999999,883.8064866,872.8594644,872.8594644,,4,001,2024-07-15_14h06.29.468,robot_cogshifting_sign,2022.2.5,59.7266312089576,
"['red_bottom_L_45', 'blue_top_S_45', 'blue_bottom_V_0', 'blue_bottom_Z_45']","{'color': 'red_bottom_L_45', 'position': 'blue_top_S_45', 'orientation': 'blue_bottom_V_0'}",position,"['color', 'orientation', 'position']",blue_top_S_45,1,3,letter,1,False,False,"['robot_stimuli\\\\filler.mp4', 'robot_stimuli\\\\filler.mp4', 'robot_stimuli\\\\filler.mp4', 'robot_stimuli\\\\filler.mp4']",robot_stimuli\\filler.mp4,4,,,,,,,,,,,,,0,7,7,7,,,,,,,,,,,,,,,,,,,886.1594547999999,888.2169263,,,897.3333051,897.3333051,897.3333051,2,4.76342279999993,902.1263112,902.1263112,902.1263112,902.1263112,902.1263112,902.1263112,902.1263112,902.1263112,None,None,None,,,,,,,,,,886.1594547999999,886.1594547999999,None,,895.1142354,897.3333051,886.1594547999999,886.1594547999999,,4,001,2024-07-15_14h06.29.468,robot_cogshifting_sign,2022.2.5,59.7266312089576,
"['blue_right_F_45', 'red_left_B_45', 'blue_left_L_45', 'blue_left_G_0']","{'color': 'red_left_B_45', 'position': 'blue_right_F_45', 'orientation': 'blue_left_G_0'}",color,"['color', 'orientation', 'position']",red_left_B_45,1,3,letter,1,False,True,"['robot_stimuli\\\\filler.mp4', 'robot_stimuli\\\\filler.mp4', 'robot_stimuli\\\\filler.mp4', 'robot_stimuli\\\\filler.mp4']",robot_stimuli\\filler.mp4,4,,,,,,,,,,,,,0,8,8,8,,,,,,,,,,,,,,,,,,,902.1263112,904.1864411,,,912.8887523,912.8887523,912.8887523,2,3.89560369999991,916.8346022,928.2752108999999,916.8346022,928.2752108999999,916.8346022,928.2752108999999,916.8346022,928.2752108999999,64.25925925925927,8.535715299999993,space,,,11.390411800000024,,,,,,,902.1263112,902.1263112,None,,910.6637005,912.8887523,902.1263112,902.1263112,,4,001,2024-07-15_14h06.29.468,robot_cogshifting_sign,2022.2.5,59.7266312089576,
"['blue_right_H_0', 'red_right_C_45', 'red_left_P_0', 'red_right_G_0']","{'color': 'blue_right_H_0', 'position': 'red_left_P_0', 'orientation': 'red_right_C_45'}",orientation,"['orientation', 'position']",red_right_C_45,1,2,letter,1,True,False,"['robot_stimuli\\\\filler.mp4', 'robot_stimuli\\\\filler.mp4', 'robot_stimuli\\\\filler.mp4', 'robot_stimuli\\\\filler.mp4']",robot_stimuli\\filler.mp4,4,,,,,,,,,,,,,0,9,9,9,,,,,,,,,,,,,,,,,,,933.0430236999999,935.0989193,,,943.7763503,943.7763503,943.7763503,2,3.2721075999998988,947.0761449,947.0761449,947.0761449,947.0761449,947.0761449,947.0761449,947.0761449,947.0761449,None,None,None,,,,,,,,,,928.2752108999999,928.2752108999999,space,4.748369899999929,941.7565539,943.7763503,,,,4,001,2024-07-15_14h06.29.468,robot_cogshifting_sign,2022.2.5,59.7266312089576,
"['blue_bottom_H_0', 'blue_bottom_J_45', 'blue_right_M_45', 'red_bottom_Z_45']","{'color': 'red_bottom_Z_45', 'position': 'blue_right_M_45', 'orientation': 'blue_bottom_H_0'}",color,"['color', 'orientation']",red_bottom_Z_45,3,2,letter,1,False,False,"['robot_stimuli\\\\filler.mp4', 'robot_stimuli\\\\filler.mp4', 'robot_stimuli\\\\filler.mp4', 'robot_stimuli\\\\filler.mp4']",robot_stimuli\\filler.mp4,4,,,,,,,,,,,,,0,10,10,10,,,,,,,,,,,,,,,,,,,947.0761449,949.1377566,,,957.8111471,957.8111471,957.8111471,4,2.9006911000001168,960.7432289000001,960.7432289000001,960.7432289000001,960.7432289000001,960.7432289000001,960.7432289000001,960.7432289000001,960.7432289000001,None,None,None,,,,,,,,,,947.0761449,947.0761449,None,,955.5944936999999,957.8111471,947.0761449,947.0761449,,4,001,2024-07-15_14h06.29.468,robot_cogshifting_sign,2022.2.5,59.7266312089576,
"['red_right_C_45', 'blue_right_H_0', 'blue_right_P_45', 'blue_top_K_45']","{'color': 'red_right_C_45', 'position': 'blue_top_K_45', 'orientation': 'blue_right_H_0'}",position,"['orientation', 'position']",blue_top_K_45,3,2,letter,1,False,False,"['robot_stimuli\\\\filler.mp4', 'robot_stimuli\\\\filler.mp4', 'robot_stimuli\\\\filler.mp4', 'robot_stimuli\\\\filler.mp4']",robot_stimuli\\filler.mp4,4,,,,,,,,,,,,,0,11,11,11,,,,,,,,,,,,,,,,,,,960.7432289000001,962.7986515,,,971.6764957,971.6764957,971.6764957,4,8.715479699999818,980.4096459,980.4096459,980.4096459,980.4096459,980.4096459,980.4096459,980.4096459,980.4096459,None,None,None,,,,,,,,,,960.7432289000001,960.7432289000001,None,,969.6556865,971.6764957,960.7432289000001,960.7432289000001,,4,001,2024-07-15_14h06.29.468,robot_cogshifting_sign,2022.2.5,59.7266312089576,
"['red_right_X_45', 'blue_right_C_0', 'red_right_M_0', 'red_top_C_0']","{'color': 'blue_right_C_0', 'position': 'red_top_C_0', 'orientation': 'red_right_X_45'}",position,"['orientation', 'position']",red_top_C_0,3,2,letter,1,False,False,"['robot_stimuli\\\\filler.mp4', 'robot_stimuli\\\\filler.mp4', 'robot_stimuli\\\\filler.mp4', 'robot_stimuli\\\\filler.mp4']",robot_stimuli\\filler.mp4,4,,,,,,,,,,,,,0,12,12,12,,,,,,,,,,,,,,,,,,,980.4096459,982.4645108,,,991.1442853000001,991.1442853000001,991.1442853000001,4,5.287824299999997,996.4594640999999,996.4594640999999,996.4594640999999,996.4594640999999,996.4594640999999,996.4594640999999,996.4594640999999,996.4594640999999,None,None,None,,,,,,,,,,980.4096459,980.4096459,None,,988.9284871,991.1442853000001,980.4096459,980.4096459,,4,001,2024-07-15_14h06.29.468,robot_cogshifting_sign,2022.2.5,59.7266312089576,
"['blue_bottom_T_45', 'red_bottom_L_0', 'red_right_G_45', 'red_bottom_J_45']","{'color': 'blue_bottom_T_45', 'position': 'red_right_G_45', 'orientation': 'red_bottom_L_0'}",position,"['color', 'position']",red_right_G_45,2,2,letter,1,False,False,"['robot_stimuli\\\\filler.mp4', 'robot_stimuli\\\\filler.mp4', 'robot_stimuli\\\\filler.mp4', 'robot_stimuli\\\\filler.mp4']",robot_stimuli\\filler.mp4,4,,,,,,,,,,,,,0,13,13,13,,,,,,,,,,,,,,,,,,,996.4594640999999,998.5160258999999,,,1007.5769691999999,1007.5769691999999,1007.5769691999999,3,2.366860799999799,1009.9765697,1009.9765697,1009.9765697,1009.9765697,1009.9765697,1009.9765697,1009.9765697,1009.9765697,None,None,None,,,,,,,,,,996.4594640999999,996.4594640999999,None,,1005.3633699,1007.5769691999999,996.4594640999999,996.4594640999999,,4,001,2024-07-15_14h06.29.468,robot_cogshifting_sign,2022.2.5,59.7266312089576,
"['blue_bottom_L_45', 'blue_right_S_45', 'red_bottom_P_45', 'blue_bottom_K_0']","{'color': 'red_bottom_P_45', 'position': 'blue_right_S_45', 'orientation': 'blue_bottom_K_0'}",color,"['color', 'position']",red_bottom_P_45,2,2,letter,1,False,False,"['robot_stimuli\\\\filler.mp4', 'robot_stimuli\\\\filler.mp4', 'robot_stimuli\\\\filler.mp4', 'robot_stimuli\\\\filler.mp4']",robot_stimuli\\filler.mp4,4,,,,,,,,,,,,,0,14,14,14,,,,,,,,,,,,,,,,,,,1009.9765697,1012.0469885,,,1020.7130228000001,1020.7130228000001,1020.7130228000001,3,5.071004000000116,1025.8097541,1025.8097541,1025.8097541,1025.8097541,1025.8097541,1025.8097541,1025.8097541,1025.8097541,None,None,None,,,,,,,,,,1009.9765697,1009.9765697,None,,1018.4962533999999,1020.7130228000001,1009.9765697,1009.9765697,,4,001,2024-07-15_14h06.29.468,robot_cogshifting_sign,2022.2.5,59.7266312089576,
"['red_right_V_45', 'blue_right_H_0', 'red_top_L_0', 'red_right_K_0']","{'color': 'blue_right_H_0', 'position': 'red_top_L_0', 'orientation': 'red_right_V_45'}",orientation,"['orientation', 'position']",red_right_V_45,0,2,letter,1,False,False,"['robot_stimuli\\\\filler.mp4', 'robot_stimuli\\\\filler.mp4', 'robot_stimuli\\\\filler.mp4', 'robot_stimuli\\\\filler.mp4']",robot_stimuli\\filler.mp4,4,,,,,,,,,,,,,0,15,15,15,,,,,,,,,,,,,,,,,,,1025.8097541,1027.8647282,,,1036.5482878999999,1036.5482878999999,1036.5482878999999,1,5.868654600000113,1042.4431516,1042.4431516,1042.4431516,1042.4431516,1042.4431516,1042.4431516,1042.4431516,1042.4431516,None,None,None,,,,,,,,,,1025.8097541,1025.8097541,None,,1034.3345133999999,1036.5482878999999,1025.8097541,1025.8097541,,4,001,2024-07-15_14h06.29.468,robot_cogshifting_sign,2022.2.5,59.7266312089576,
"['red_top_P_45', 'red_top_H_0', 'red_bottom_Z_45', 'blue_top_N_45']","{'color': 'blue_top_N_45', 'position': 'red_bottom_Z_45', 'orientation': 'red_top_H_0'}",orientation,"['color', 'orientation']",red_top_H_0,1,2,letter,1,False,False,"['robot_stimuli\\\\filler.mp4', 'robot_stimuli\\\\filler.mp4', 'robot_stimuli\\\\filler.mp4', 'robot_stimuli\\\\filler.mp4']",robot_stimuli\\filler.mp4,4,,,,,,,,,,,,,0,16,16,16,,,,,,,,,,,,,,,,,,,1042.4431516,1044.4979955,,,1053.1749801,1053.1749801,1053.1749801,2,5.91316909999999,1059.1097424,1059.1097424,1059.1097424,1059.1097424,1059.1097424,1059.1097424,1059.1097424,1059.1097424,None,None,None,,,,,,,,,,1042.4431516,1042.4431516,None,,1050.9613553,1053.1749801,1042.4431516,1042.4431516,,4,001,2024-07-15_14h06.29.468,robot_cogshifting_sign,2022.2.5,59.7266312089576,
"['red_left_W_0', 'blue_left_G_45', 'red_left_C_45', 'red_top_C_45']","{'color': 'blue_left_G_45', 'position': 'red_top_C_45', 'orientation': 'red_left_W_0'}",color,"['color', 'orientation']",blue_left_G_45,1,2,letter,1,False,True,"['robot_stimuli\\\\filler.mp4', 'robot_stimuli\\\\filler.mp4', 'robot_stimuli\\\\filler.mp4', 'robot_stimuli\\\\filler.mp4']",robot_stimuli\\filler.mp4,4,,,,,,,,,,,,,0,17,17,17,,,,,,,,,,,,,,,,,,,1059.1097424,1061.1645394,,,1069.6435481,1069.6435481,1069.6435481,2,2.836709099999993,1072.5380926999999,1083.5943925,1072.5380926999999,1083.5943925,1072.5380926999999,1083.5943925,1072.5380926999999,1083.5943925,53.30246913580247,3.6411613000000216,space,,,10.989469800000037,,,,,,,1059.1097424,1059.1097424,None,,1067.6253969,1069.6435481,1059.1097424,1059.1097424,,4,001,2024-07-15_14h06.29.468,robot_cogshifting_sign,2022.2.5,59.7266312089576,
"['blue_left_H_0', 'red_left_Q_45', 'blue_left_V_45', 'blue_top_M_45']","{'color': 'red_left_Q_45', 'position': 'blue_top_M_45', 'orientation': 'blue_left_H_0'}",orientation,['orientation'],blue_left_H_0,0,1,letter,1,True,False,"['robot_stimuli\\\\filler.mp4', 'robot_stimuli\\\\filler.mp4', 'robot_stimuli\\\\filler.mp4', 'robot_stimuli\\\\filler.mp4']",robot_stimuli\\filler.mp4,4,,,,,,,,,,,,,0,18,18,18,,,,,,,,,,,,,,,,,,,1088.4431236,1090.4981762,,,1099.3946262,1099.3946262,1099.3946262,1,0.40648009999993917,1099.8265603,1099.8265603,1099.8265603,1099.8265603,1099.8265603,1099.8265603,1099.8265603,1099.8265603,None,None,None,,,,,,,,,,1083.5943925,1083.5943925,space,4.823011899999969,1097.1792594,1099.3946262,,,,4,001,2024-07-15_14h06.29.468,robot_cogshifting_sign,2022.2.5,59.7266312089576,
"['blue_top_G_0', 'blue_bottom_F_45', 'blue_bottom_P_0', 'red_bottom_P_0']","{'color': 'red_bottom_P_0', 'position': 'blue_top_G_0', 'orientation': 'blue_bottom_F_45'}",color,['color'],red_bottom_P_0,3,1,letter,1,False,False,"['robot_stimuli\\\\filler.mp4', 'robot_stimuli\\\\filler.mp4', 'robot_stimuli\\\\filler.mp4', 'robot_stimuli\\\\filler.mp4']",robot_stimuli\\filler.mp4,4,,,,,,,,,,,,,0,19,19,19,,,,,,,,,,,,,,,,,,,1099.8265603,1101.882543,,,1110.3590285999999,1110.3590285999999,1110.3590285999999,4,0.6251200999997621,1111.0097974,1111.0097974,1111.0097974,1111.0097974,1111.0097974,1111.0097974,1111.0097974,1111.0097974,None,None,None,,,,,,,,,,1099.8265603,1099.8265603,None,,1108.3364087,1110.3590285999999,1099.8265603,1099.8265603,,4,001,2024-07-15_14h06.29.468,robot_cogshifting_sign,2022.2.5,59.7266312089576,
"['blue_top_L_45', 'blue_bottom_Z_0', 'blue_bottom_P_45', 'red_bottom_K_45']","{'color': 'red_bottom_K_45', 'position': 'blue_top_L_45', 'orientation': 'blue_bottom_Z_0'}",orientation,['orientation'],blue_bottom_Z_0,1,1,letter,1,False,False,"['robot_stimuli\\\\filler.mp4', 'robot_stimuli\\\\filler.mp4', 'robot_stimuli\\\\filler.mp4', 'robot_stimuli\\\\filler.mp4']",robot_stimuli\\filler.mp4,4,,,,,,,,,,,,,0,20,20,20,,,,,,,,,,,,,,,,,,,1111.0097974,1113.068092,,,1121.9330429,1121.9330429,1121.9330429,2,0.31622509999986903,1122.2766033,1122.2766033,1122.2766033,1122.2766033,1122.2766033,1122.2766033,1122.2766033,1122.2766033,None,None,None,,,,,,,,,,1111.0097974,1111.0097974,None,,1119.920724,1121.9330429,1111.0097974,1111.0097974,,4,001,2024-07-15_14h06.29.468,robot_cogshifting_sign,2022.2.5,59.7266312089576,
"['red_bottom_C_45', 'blue_left_N_45', 'red_left_F_0', 'red_left_V_45']","{'color': 'blue_left_N_45', 'position': 'red_bottom_C_45', 'orientation': 'red_left_F_0'}",position,['position'],red_bottom_C_45,0,1,letter,1,False,False,"['robot_stimuli\\\\filler.mp4', 'robot_stimuli\\\\filler.mp4', 'robot_stimuli\\\\filler.mp4', 'robot_stimuli\\\\filler.mp4']",robot_stimuli\\filler.mp4,4,,,,,,,,,,,,,0,21,21,21,,,,,,,,,,,,,,,,,,,1122.2766033,1124.3301337999999,,,1133.0044946,1133.0044946,1133.0044946,1,0.2512172999999933,1133.2766449,1133.2766449,1133.2766449,1133.2766449,1133.2766449,1133.2766449,1133.2766449,1133.2766449,None,None,None,,,,,,,,,,1122.2766033,1122.2766033,None,,1130.9909657,1133.0044946,1122.2766033,1122.2766033,,4,001,2024-07-15_14h06.29.468,robot_cogshifting_sign,2022.2.5,59.7266312089576,
"['blue_left_X_45', 'red_top_R_45', 'blue_top_Z_45', 'blue_top_V_0']","{'color': 'red_top_R_45', 'position': 'blue_left_X_45', 'orientation': 'blue_top_V_0'}",position,['position'],blue_left_X_45,0,1,letter,1,False,False,"['robot_stimuli\\\\filler.mp4', 'robot_stimuli\\\\filler.mp4', 'robot_stimuli\\\\filler.mp4', 'robot_stimuli\\\\filler.mp4']",robot_stimuli\\filler.mp4,4,,,,,,,,,,,,,0,22,22,22,,,,,,,,,,,,,,,,,,,1133.2766449,1135.3305576,,,1144.3965735,1144.3965735,1144.3965735,1,0.3395051999998344,1144.7624567999999,1144.7624567999999,1144.7624567999999,1144.7624567999999,1144.7624567999999,1144.7624567999999,1144.7624567999999,1144.7624567999999,None,None,None,,,,,,,,,,1133.2766449,1133.2766449,None,,1142.1796144,1144.3965735,1133.2766449,1133.2766449,,4,001,2024-07-15_14h06.29.468,robot_cogshifting_sign,2022.2.5,59.7266312089576,
"['red_left_J_0', 'blue_top_L_0', 'red_top_T_45', 'red_top_T_0']","{'color': 'blue_top_L_0', 'position': 'red_left_J_0', 'orientation': 'red_top_T_45'}",orientation,['orientation'],red_top_T_45,2,1,letter,1,False,False,"['robot_stimuli\\\\filler.mp4', 'robot_stimuli\\\\filler.mp4', 'robot_stimuli\\\\filler.mp4', 'robot_stimuli\\\\filler.mp4']",robot_stimuli\\filler.mp4,4,,,,,,,,,,,,,0,23,23,23,,,,,,,,,,,,,,,,,,,1144.7624567999999,,,,1155.7172744,1155.7172744,1155.7172744,3,0.22744889999988516,1155.9767353,1155.9767353,1155.9767353,1155.9767353,1155.9767353,1155.9767353,1155.9767353,1155.9767353,None,None,None,,,,,,,,,,1144.7624567999999,1144.7624567999999,None,,1153.4996044,1155.7172744,1144.7624567999999,1144.7624567999999,,4,001,2024-07-15_14h06.29.468,robot_cogshifting_sign,2022.2.5,59.7266312089576,
"['red_bottom_V_0', 'red_bottom_Q_45', 'blue_bottom_Z_45', 'red_right_S_45']","{'color': 'blue_bottom_Z_45', 'position': 'red_right_S_45', 'orientation': 'red_bottom_V_0'}",position,['position'],red_right_S_45,3,1,letter,1,False,False,"['robot_stimuli\\\\filler.mp4', 'robot_stimuli\\\\filler.mp4', 'robot_stimuli\\\\filler.mp4', 'robot_stimuli\\\\filler.mp4']",robot_stimuli\\filler.mp4,4,,,,,,,,,,,,,0,24,24,24,,,,,,,,,,,,,,,,,,,1155.9767353,1158.0318431,,,1166.9133173,1166.9133173,1166.9133173,4,1.0221033999998639,1167.9598758,1167.9598758,1167.9598758,1167.9598758,1167.9598758,1167.9598758,1167.9598758,1167.9598758,None,None,None,,,,,,,,,,1155.9767353,1155.9767353,None,,1164.8915478,1166.9133173,1155.9767353,1155.9767353,,4,001,2024-07-15_14h06.29.468,robot_cogshifting_sign,2022.2.5,59.7266312089576,
"['red_right_H_0', 'red_left_H_0', 'blue_right_L_0', 'red_right_S_45']","{'color': 'blue_right_L_0', 'position': 'red_left_H_0', 'orientation': 'red_right_S_45'}",color,['color'],blue_right_L_0,2,1,letter,1,False,False,"['robot_stimuli\\\\filler.mp4', 'robot_stimuli\\\\filler.mp4', 'robot_stimuli\\\\filler.mp4', 'robot_stimuli\\\\filler.mp4']",robot_stimuli\\filler.mp4,4,,,,,,,,,,,,,0,25,25,25,,,,,,,,,,,,,,,,,,,1167.9598758,1170.0157919,,,1178.6941036,1178.6941036,1178.6941036,3,0.5864355000000927,1179.3100683,1179.3100683,1179.3100683,1179.3100683,1179.3100683,1179.3100683,1179.3100683,1179.3100683,None,None,None,,,,,,,,,,1167.9598758,1167.9598758,None,,1176.4851361,1178.6941036,1167.9598758,1167.9598758,,4,001,2024-07-15_14h06.29.468,robot_cogshifting_sign,2022.2.5,59.7266312089576,
"['blue_top_J_0', 'red_top_F_45', 'blue_right_D_45', 'blue_top_G_45']","{'color': 'red_top_F_45', 'position': 'blue_right_D_45', 'orientation': 'blue_top_J_0'}",color,['color'],red_top_F_45,1,1,letter,1,False,True,"['robot_stimuli\\\\filler.mp4', 'robot_stimuli\\\\filler.mp4', 'robot_stimuli\\\\filler.mp4', 'robot_stimuli\\\\filler.mp4']",robot_stimuli\\filler.mp4,4,,,,,,,,,,,,,0,26,26,26,,,,,,,,,,,,,,,,,,,1179.3100683,1181.3647055,,,1190.2580094,1190.2580094,1190.2580094,2,2.062876699999819,1192.370597,1296.159993,1192.370597,1296.159993,1192.370597,1296.159993,1192.370597,1296.159993,9.78395061728395,3.928487900000164,space,,,103.72551599999996,,,,,,,1179.3100683,1179.3100683,None,,1188.2405647,1190.2580094,1179.3100683,1179.3100683,,4,001,2024-07-15_14h06.29.468,robot_cogshifting_sign,2022.2.5,59.7266312089576,
"['L_Base_X_For', 'L_Head_Z_Back', 'R_Head_X_For', 'L_Head_X_Back']","{'laterality': 'R_Head_X_For', 'localisation': 'L_Base_X_For', 'movement': 'L_Head_Z_Back'}",localisation,"['localisation', 'movement']",L_Base_X_For,0,2,robot,2,True,False,"['robot_stimuli\\L_Base_X_For.mp4', 'robot_stimuli\\L_Head_Z_Back.mp4', 'robot_stimuli\\R_Head_X_For.mp4', 'robot_stimuli\\L_Head_X_Back.mp4']",robot_stimuli\L_Base_X_For.mp4,4,,,,,,,,,,,,,0,27,27,27,,,,,,,,,,,,,,,,,,,1304.9270648,1307.0093992,,,1321.8050589,1321.8050589,1321.8050589,1,22.754901200000162,1344.57684,1344.57684,1344.57684,1344.57684,1344.57684,1344.57684,1344.57684,1344.57684,None,None,None,,,,,,,,,,1296.159993,1296.159993,space,8.735641199999904,,,,,1318.1663277,4,001,2024-07-15_14h06.29.468,robot_cogshifting_sign,2022.2.5,59.7266312089576,
"['R_Base_X_For', 'R_Head_X_For', 'R_Base_Y_For', 'L_Base_X_Back']","{'laterality': 'L_Base_X_Back', 'localisation': 'R_Head_X_For', 'movement': 'R_Base_Y_For'}",laterality,"['laterality', 'localisation']",L_Base_X_Back,3,2,robot,2,False,False,"['robot_stimuli\\R_Base_X_For.mp4', 'robot_stimuli\\R_Head_X_For.mp4', 'robot_stimuli\\R_Base_Y_For.mp4', 'robot_stimuli\\L_Base_X_Back.mp4']",robot_stimuli\L_Base_X_Back.mp4,4,,,,,,,,,,,,,0,28,28,28,,,,,,,,,,,,,,,,,,,1344.57684,1346.6666979,,,1361.3215164,1361.3215164,1361.3215164,4,30.77447310000001,1392.1267827,1392.1267827,1392.1267827,1392.1267827,1392.1267827,1392.1267827,1392.1267827,1392.1267827,None,None,None,,,,,,,,,,1344.57684,1344.57684,None,,,,1344.57684,1344.57684,1357.7194831,4,001,2024-07-15_14h06.29.468,robot_cogshifting_sign,2022.2.5,59.7266312089576,
"['L_Head_Z_For', 'R_Head_X_For', 'L_Base_X_For', 'L_Head_X_For']","{'laterality': 'R_Head_X_For', 'localisation': 'L_Base_X_For', 'movement': 'L_Head_Z_For'}",laterality,"['laterality', 'localisation']",R_Head_X_For,1,2,robot,2,False,False,"['robot_stimuli\\L_Head_Z_For.mp4', 'robot_stimuli\\R_Head_X_For.mp4', 'robot_stimuli\\L_Base_X_For.mp4', 'robot_stimuli\\L_Head_X_For.mp4']",robot_stimuli\R_Head_X_For.mp4,4,,,,,,,,,,,,,0,29,29,29,,,,,,,,,,,,,,,,,,,1392.1267827,1394.2089117,,,1408.8770764,1408.8770764,1408.8770764,2,3.308419599999965,1412.210369,1412.210369,1412.210369,1412.210369,1412.210369,1412.210369,1412.210369,1412.210369,None,None,None,,,,,,,,,,1392.1267827,1392.1267827,None,,,,1392.1267827,1392.1267827,1405.3204926,4,001,2024-07-15_14h06.29.468,robot_cogshifting_sign,2022.2.5,59.7266312089576,
"['L_Arm_Z_Back', 'R_Arm_X_For', 'L_Torso_X_Back', 'L_Arm_X_For']","{'laterality': 'R_Arm_X_For', 'localisation': 'L_Torso_X_Back', 'movement': 'L_Arm_Z_Back'}",laterality,"['laterality', 'movement']",R_Arm_X_For,1,2,robot,2,False,False,"['robot_stimuli\\L_Arm_Z_Back.mp4', 'robot_stimuli\\R_Arm_X_For.mp4', 'robot_stimuli\\L_Torso_X_Back.mp4', 'robot_stimuli\\L_Arm_X_For.mp4']",robot_stimuli\R_Arm_X_For.mp4,4,,,,,,,,,,,,,0,30,30,30,,,,,,,,,,,,,,,,,,,1412.210369,1414.2855571,,,1429.0832458,1429.0832458,1429.0832458,2,12.045066699999992,1441.1607212,1441.1607212,1441.1607212,1441.1607212,1441.1607212,1441.1607212,1441.1607212,1441.1607212,None,None,None,,,,,,,,,,1412.210369,1412.210369,None,,,,1412.210369,1412.210369,1425.4537584,4,001,2024-07-15_14h06.29.468,robot_cogshifting_sign,2022.2.5,59.7266312089576,
"['L_Torso_X_For', 'L_Arm_Y_For', 'R_Arm_X_For', 'L_Arm_X_For']","{'laterality': 'R_Arm_X_For', 'localisation': 'L_Torso_X_For', 'movement': 'L_Arm_Y_For'}",movement,"['laterality', 'movement']",L_Arm_Y_For,1,2,robot,2,False,False,"['robot_stimuli\\L_Torso_X_For.mp4', 'robot_stimuli\\L_Arm_Y_For.mp4', 'robot_stimuli\\R_Arm_X_For.mp4', 'robot_stimuli\\L_Arm_X_For.mp4']",robot_stimuli\L_Arm_Y_For.mp4,4,,,,,,,,,,,,,0,31,31,31,,,,,,,,,,,,,,,,,,,1441.1607212,1443.2368139999999,,,1458.0594829,1458.0594829,1458.0594829,2,3.5420586000000043,1461.6272365,1461.6272365,1461.6272365,1461.6272365,1461.6272365,1461.6272365,1461.6272365,1461.6272365,None,None,None,,,,,,,,,,1441.1607212,1441.1607212,None,,,,1441.1607212,1441.1607212,1454.4200537,4,001,2024-07-15_14h06.29.468,robot_cogshifting_sign,2022.2.5,59.7266312089576,
"['L_Head_X_Back', 'L_Base_Z_For', 'R_Head_Z_Back', 'L_Head_Z_Back']","{'laterality': 'R_Head_Z_Back', 'localisation': 'L_Base_Z_For', 'movement': 'L_Head_X_Back'}",localisation,"['laterality', 'localisation']",L_Base_Z_For,1,2,robot,2,False,False,"['robot_stimuli\\L_Head_X_Back.mp4', 'robot_stimuli\\L_Base_Z_For.mp4', 'robot_stimuli\\R_Head_Z_Back.mp4', 'robot_stimuli\\L_Head_Z_Back.mp4']",robot_stimuli\L_Base_Z_For.mp4,4,,,,,,,,,,,,,0,32,32,32,,,,,,,,,,,,,,,,,,,1461.6272365,1463.7006226,,,1478.4994743,1478.4994743,1478.4994743,3,23.78169780000006,1502.3105065,1502.3105065,1502.3105065,1502.3105065,1502.3105065,1502.3105065,1502.3105065,1502.3105065,None,None,None,,,,,,,,,,1461.6272365,1461.6272365,None,,,,1461.6272365,1461.6272365,1474.8625482,4,001,2024-07-15_14h06.29.468,robot_cogshifting_sign,2022.2.5,59.7266312089576,
"['L_Arm_X_For', 'R_Torso_X_Back', 'R_Arm_X_Back', 'R_Arm_Y_For']","{'laterality': 'L_Arm_X_For', 'localisation': 'R_Torso_X_Back', 'movement': 'R_Arm_Y_For'}",localisation,"['laterality', 'localisation']",R_Torso_X_Back,1,2,robot,2,False,False,"['robot_stimuli\\L_Arm_X_For.mp4', 'robot_stimuli\\R_Torso_X_Back.mp4', 'robot_stimuli\\R_Arm_X_Back.mp4', 'robot_stimuli\\R_Arm_Y_For.mp4']",robot_stimuli\R_Torso_X_Back.mp4,4,,,,,,,,,,,,,0,33,33,33,,,,,,,,,,,,,,,,,,,1502.3105065,1504.3871268999999,,,1519.0466927,1519.0466927,1519.0466927,1,21.56196249999992,1540.6274093,1540.6274093,1540.6274093,1540.6274093,1540.6274093,1540.6274093,1540.6274093,1540.6274093,None,None,None,,,,,,,,,,1502.3105065,1502.3105065,None,,,,1502.3105065,1502.3105065,1515.5478335999999,4,001,2024-07-15_14h06.29.468,robot_cogshifting_sign,2022.2.5,59.7266312089576,
"['L_Head_Y_For', 'R_Head_Z_For', 'L_Head_Z_Back', 'L_Base_Z_For']","{'laterality': 'R_Head_Z_For', 'localisation': 'L_Base_Z_For', 'movement': 'L_Head_Y_For'}",movement,"['localisation', 'movement']",L_Head_Y_For,0,2,robot,2,False,False,"['robot_stimuli\\L_Head_Y_For.mp4', 'robot_stimuli\\R_Head_Z_For.mp4', 'robot_stimuli\\L_Head_Z_Back.mp4', 'robot_stimuli\\L_Base_Z_For.mp4']",robot_stimuli\L_Head_Y_For.mp4,4,,,,,,,,,,,,,0,34,34,34,,,,,,,,,,,,,,,,,,,1540.6274093,1542.7029802,,,1557.5013461,1557.5013461,1557.5013461,4,13.227459300000177,1570.7608622999999,1570.7608622999999,1570.7608622999999,1570.7608622999999,1570.7608622999999,1570.7608622999999,1570.7608622999999,1570.7608622999999,None,None,None,,,,,,,,,,1540.6274093,1540.6274093,None,,,,1540.6274093,1540.6274093,1553.8550187,4,001,2024-07-15_14h06.29.468,robot_cogshifting_sign,2022.2.5,59.7266312089576,
"['L_Head_Z_Back', 'L_Arm_X_For', 'L_Head_X_Back', 'R_Head_X_Back']","{'laterality': 'R_Head_X_Back', 'localisation': 'L_Arm_X_For', 'movement': 'L_Head_Z_Back'}",movement,"['localisation', 'movement']",L_Head_Z_Back,0,2,robot,2,False,True,"['robot_stimuli\\L_Head_Z_Back.mp4', 'robot_stimuli\\L_Arm_X_For.mp4', 'robot_stimuli\\L_Head_X_Back.mp4', 'robot_stimuli\\R_Head_X_Back.mp4']",robot_stimuli\L_Head_Z_Back.mp4,4,,,,,,,,,,,,,0,35,35,35,,,,,,,,,,,,,,,,,,,1570.7608622999999,1572.8350805,,,1587.6353249,1587.6353249,1587.6353249,3,18.118013799999957,1605.8030491,1622.8840857999999,1605.8030491,1622.8840857999999,1605.8030491,1622.8840857999999,1605.8030491,1622.8840857999999,64.41358024691358,5.085744599999998,space,,,17.036915300000132,,,,,,,1570.7608622999999,1570.7608622999999,None,,,,1570.7608622999999,1570.7608622999999,1584.0020376,4,001,2024-07-15_14h06.29.468,robot_cogshifting_sign,2022.2.5,59.7266312089576,
"['R_Arm_Y_For', 'R_Head_Z_For', 'R_Head_Y_Back', 'L_Head_Y_Back']","{'laterality': 'L_Head_Y_Back', 'localisation': 'R_Arm_Y_For', 'movement': 'R_Head_Z_For'}",movement,['movement'],R_Head_Z_For,1,1,robot,2,True,False,"['robot_stimuli\\R_Arm_Y_For.mp4', 'robot_stimuli\\R_Head_Z_For.mp4', 'robot_stimuli\\R_Head_Y_Back.mp4', 'robot_stimuli\\L_Head_Y_Back.mp4']",robot_stimuli\R_Head_Z_For.mp4,4,,,,,,,,,,,,,0,36,36,36,,,,,,,,,,,,,,,,,,,1847.4945668,1849.5767375,,,1864.2362077999999,1864.2362077999999,1864.2362077999999,2,1.997333199999943,1866.2611846,1866.2611846,1866.2611846,1866.2611846,1866.2611846,1866.2611846,1866.2611846,1866.2611846,None,None,None,,,,,,,,,,1622.8840857999999,1622.8840857999999,space,224.58179340000015,,,,,1860.6027247,4,001,2024-07-15_14h06.29.468,robot_cogshifting_sign,2022.2.5,59.7266312089576,
"['R_Head_Z_Back', 'L_Base_Z_Back', 'R_Base_Z_For', 'R_Base_X_For']","{'laterality': 'L_Base_Z_Back', 'localisation': 'R_Head_Z_Back', 'movement': 'R_Base_X_For'}",localisation,['localisation'],R_Head_Z_Back,0,1,robot,2,False,False,"['robot_stimuli\\R_Head_Z_Back.mp4', 'robot_stimuli\\L_Base_Z_Back.mp4', 'robot_stimuli\\R_Base_Z_For.mp4', 'robot_stimuli\\R_Base_X_For.mp4']",robot_stimuli\R_Head_Z_Back.mp4,4,,,,,,,,,,,,,0,37,37,37,,,,,,,,,,,,,,,,,,,1866.2611846,1868.3355602,,,1883.0537153,1883.0537153,1883.0537153,1,1.7707971999998193,1884.8446759,1884.8446759,1884.8446759,1884.8446759,1884.8446759,1884.8446759,1884.8446759,1884.8446759,None,None,None,,,,,,,,,,1866.2611846,1866.2611846,None,,,,1866.2611846,1866.2611846,1879.5061343,4,001,2024-07-15_14h06.29.468,robot_cogshifting_sign,2022.2.5,59.7266312089576,
"['L_Head_Y_Back', 'L_Arm_Y_For', 'R_Head_Y_For', 'L_Head_Z_Back']","{'laterality': 'R_Head_Y_For', 'localisation': 'L_Arm_Y_For', 'movement': 'L_Head_Z_Back'}",movement,['movement'],L_Head_Z_Back,3,1,robot,2,False,False,"['robot_stimuli\\L_Head_Y_Back.mp4', 'robot_stimuli\\L_Arm_Y_For.mp4', 'robot_stimuli\\R_Head_Y_For.mp4', 'robot_stimuli\\L_Head_Z_Back.mp4']",robot_stimuli\L_Head_Z_Back.mp4,4,,,,,,,,,,,,,0,38,38,38,,,,,,,,,,,,,,,,,,,1884.8446759,1886.9153674,,,1901.752821,1901.752821,1901.752821,4,4.264005900000015,1906.0447531,1906.0447531,1906.0447531,1906.0447531,1906.0447531,1906.0447531,1906.0447531,1906.0447531,None,None,None,,,,,,,,,,1884.8446759,1884.8446759,None,,,,1884.8446759,1884.8446759,1898.1161653,4,001,2024-07-15_14h06.29.468,robot_cogshifting_sign,2022.2.5,59.7266312089576,
"['L_Head_X_For', 'L_Base_Z_Back', 'L_Head_Z_For', 'R_Head_Z_For']","{'laterality': 'R_Head_Z_For', 'localisation': 'L_Base_Z_Back', 'movement': 'L_Head_X_For'}",movement,['movement'],L_Head_X_For,0,1,robot,2,False,False,"['robot_stimuli\\L_Head_X_For.mp4', 'robot_stimuli\\L_Base_Z_Back.mp4', 'robot_stimuli\\L_Head_Z_For.mp4', 'robot_stimuli\\R_Head_Z_For.mp4']",robot_stimuli\L_Head_X_For.mp4,4,,,,,,,,,,,,,0,39,39,39,,,,,,,,,,,,,,,,,,,1906.0447531,1908.1193685,,,1922.8367886,1922.8367886,1922.8367886,1,3.788636199999914,1926.6449737,1926.6449737,1926.6449737,1926.6449737,1926.6449737,1926.6449737,1926.6449737,1926.6449737,None,None,None,,,,,,,,,,1906.0447531,1906.0447531,None,,,,1906.0447531,1906.0447531,1919.1999492,4,001,2024-07-15_14h06.29.468,robot_cogshifting_sign,2022.2.5,59.7266312089576,
"['L_Torso_Y_Back', 'R_Torso_Y_Back', 'L_Head_Y_Back', 'L_Torso_Z_Back']","{'laterality': 'R_Torso_Y_Back', 'localisation': 'L_Head_Y_Back', 'movement': 'L_Torso_Z_Back'}",laterality,['laterality'],R_Torso_Y_Back,1,1,robot,2,False,False,"['robot_stimuli\\L_Torso_Y_Back.mp4', 'robot_stimuli\\R_Torso_Y_Back.mp4', 'robot_stimuli\\L_Head_Y_Back.mp4', 'robot_stimuli\\L_Torso_Z_Back.mp4']",robot_stimuli\R_Torso_Y_Back.mp4,4,,,,,,,,,,,,,0,40,40,40,,,,,,,,,,,,,,,,,,,1926.6449737,1928.7215704,,,1943.2381596999999,1943.2381596999999,1943.2381596999999,2,0.35508990000015217,1943.6117136,1943.6117136,1943.6117136,1943.6117136,1943.6117136,1943.6117136,1943.6117136,1943.6117136,None,None,None,,,,,,,,,,1926.6449737,1926.6449737,None,,,,1926.6449737,1926.6449737,1939.7373266,4,001,2024-07-15_14h06.29.468,robot_cogshifting_sign,2022.2.5,59.7266312089576,
"['R_Torso_X_Back', 'R_Base_X_Back', 'R_Torso_Z_Back', 'L_Torso_X_Back']","{'laterality': 'L_Torso_X_Back', 'localisation': 'R_Base_X_Back', 'movement': 'R_Torso_Z_Back'}",localisation,['localisation'],R_Base_X_Back,1,1,robot,2,False,False,"['robot_stimuli\\R_Torso_X_Back.mp4', 'robot_stimuli\\R_Base_X_Back.mp4', 'robot_stimuli\\R_Torso_Z_Back.mp4', 'robot_stimuli\\L_Torso_X_Back.mp4']",robot_stimuli\R_Base_X_Back.mp4,4,,,,,,,,,,,,,0,41,41,41,,,,,,,,,,,,,,,,,,,1943.6117136,1945.6869107,,,1960.4702525,1960.4702525,1960.4702525,2,1.4830475000000973,1961.9781903,1961.9781903,1961.9781903,1961.9781903,1961.9781903,1961.9781903,1961.9781903,1961.9781903,None,None,None,,,,,,,,,,1943.6117136,1943.6117136,None,,,,1943.6117136,1943.6117136,1956.8347360999999,4,001,2024-07-15_14h06.29.468,robot_cogshifting_sign,2022.2.5,59.7266312089576,
"['R_Torso_X_For', 'R_Torso_Z_For', 'R_Head_Z_For', 'L_Torso_Z_Back']","{'laterality': 'L_Torso_Z_Back', 'localisation': 'R_Head_Z_For', 'movement': 'R_Torso_X_For'}",laterality,['laterality'],L_Torso_Z_Back,3,1,robot,2,False,False,"['robot_stimuli\\R_Torso_X_For.mp4', 'robot_stimuli\\R_Torso_Z_For.mp4', 'robot_stimuli\\R_Head_Z_For.mp4', 'robot_stimuli\\L_Torso_Z_Back.mp4']",robot_stimuli\L_Torso_Z_Back.mp4,4,,,,,,,,,,,,,0,42,42,42,,,,,,,,,,,,,,,,,,,1961.9781903,1964.0532243,,,1978.8020993,1978.8020993,1978.8020993,4,4.381983599999771,1983.2114992000002,1983.2114992000002,1983.2114992000002,1983.2114992000002,1983.2114992000002,1983.2114992000002,1983.2114992000002,1983.2114992000002,None,None,None,,,,,,,,,,1961.9781903,1961.9781903,None,,,,1961.9781903,1961.9781903,1975.2891359,4,001,2024-07-15_14h06.29.468,robot_cogshifting_sign,2022.2.5,59.7266312089576,
"['L_Head_Y_Back', 'R_Arm_Y_Back', 'L_Arm_Y_Back', 'L_Arm_X_Back']","{'laterality': 'R_Arm_Y_Back', 'localisation': 'L_Head_Y_Back', 'movement': 'L_Arm_X_Back'}",laterality,['laterality'],R_Arm_Y_Back,1,1,robot,2,False,False,"['robot_stimuli\\L_Head_Y_Back.mp4', 'robot_stimuli\\R_Arm_Y_Back.mp4', 'robot_stimuli\\L_Arm_Y_Back.mp4', 'robot_stimuli\\L_Arm_X_Back.mp4']",robot_stimuli\R_Arm_Y_Back.mp4,4,,,,,,,,,,,,,0,43,43,43,,,,,,,,,,,,,,,,,,,1983.2114992000002,1985.2818115999999,,,2000.1017511,2000.1017511,2000.1017511,2,0.6828265999997569,2000.8115472,2000.8115472,2000.8115472,2000.8115472,2000.8115472,2000.8115472,2000.8115472,2000.8115472,None,None,None,,,,,,,,,,1983.2114992000002,1983.2114992000002,None,,,,1983.2114992000002,1983.2114992000002,1996.4693326000001,4,001,2024-07-15_14h06.29.468,robot_cogshifting_sign,2022.2.5,59.7266312089576,
"['R_Arm_Z_Back', 'L_Arm_Y_For', 'R_Arm_Y_For', 'R_Torso_Y_Back']","{'laterality': 'L_Arm_Y_For', 'localisation': 'R_Torso_Y_Back', 'movement': 'R_Arm_Z_Back'}",localisation,['localisation'],R_Torso_Y_Back,3,1,robot,2,False,True,"['robot_stimuli\\R_Arm_Z_Back.mp4', 'robot_stimuli\\L_Arm_Y_For.mp4', 'robot_stimuli\\R_Arm_Y_For.mp4', 'robot_stimuli\\R_Torso_Y_Back.mp4']",robot_stimuli\R_Torso_Y_Back.mp4,4,,,,,,,,,,,,,0,44,44,44,,,,,,,,,,,,,,,,,,,2000.8115472,2002.8912199000001,,,2017.5689767,2017.5689767,2017.5689767,4,0.4390340999998301,2018.0539654999998,2022.3547121000001,2018.0539654999998,2022.3547121000001,2018.0539654999998,2022.3547121000001,2018.0539654999998,2022.3547121000001,11.481481481481476,2.9779027999998107,space,,,4.251648200000076,,,,,,,2000.8115472,2000.8115472,None,,,,2000.8115472,2000.8115472,2013.9380689999998,4,001,2024-07-15_14h06.29.468,robot_cogshifting_sign,2022.2.5,59.7266312089576,
"['R_Torso_Y_For', 'L_Arm_Y_For', 'L_Torso_Z_Back', 'L_Torso_Y_For']","{'laterality': 'R_Torso_Y_For', 'localisation': 'L_Arm_Y_For', 'movement': 'L_Torso_Z_Back'}",laterality,"['laterality', 'localisation', 'movement']",R_Torso_Y_For,0,3,robot,2,True,False,"['robot_stimuli\\R_Torso_Y_For.mp4', 'robot_stimuli\\L_Arm_Y_For.mp4', 'robot_stimuli\\L_Torso_Z_Back.mp4', 'robot_stimuli\\L_Torso_Y_For.mp4']",robot_stimuli\R_Torso_Y_For.mp4,4,,,,,,,,,,,,,0,45,45,45,,,,,,,,,,,,,,,,,,,2046.2619986999998,2048.3540873,,,2063.0206293,2063.0206293,2063.0206293,1,5.932961399999826,2068.9784495,2068.9784495,2068.9784495,2068.9784495,2068.9784495,2068.9784495,2068.9784495,2068.9784495,None,None,None,,,,,,,,,,2022.3547121000001,2022.3547121000001,space,23.878919299999765,,,,,2059.3694299,4,001,2024-07-15_14h06.29.468,robot_cogshifting_sign,2022.2.5,59.7266312089576,
"['L_Arm_X_Back', 'L_Head_X_Back', 'L_Arm_Z_For', 'R_Arm_X_For']","{'laterality': 'R_Arm_X_For', 'localisation': 'L_Head_X_Back', 'movement': 'L_Arm_Z_For'}",movement,"['laterality', 'localisation', 'movement']",L_Arm_Z_For,2,3,robot,2,False,False,"['robot_stimuli\\L_Arm_X_Back.mp4', 'robot_stimuli\\L_Head_X_Back.mp4', 'robot_stimuli\\L_Arm_Z_For.mp4', 'robot_stimuli\\R_Arm_X_For.mp4']",robot_stimuli\L_Arm_Z_For.mp4,4,,,,,,,,,,,,,0,46,46,46,,,,,,,,,,,,,,,,,,,2068.9784495,2071.0563328,,,2085.8482157,2085.8482157,2085.8482157,4,7.153201300000077,2093.0283876,2093.0283876,2093.0283876,2093.0283876,2093.0283876,2093.0283876,2093.0283876,2093.0283876,None,None,None,,,,,,,,,,2068.9784495,2068.9784495,None,,,,2068.9784495,2068.9784495,2082.2220342,4,001,2024-07-15_14h06.29.468,robot_cogshifting_sign,2022.2.5,59.7266312089576,
"['R_Torso_X_Back', 'R_Head_Y_Back', 'L_Head_X_For', 'R_Head_X_For']","{'laterality': 'L_Head_X_For', 'localisation': 'R_Torso_X_Back', 'movement': 'R_Head_Y_Back'}",movement,"['laterality', 'localisation', 'movement']",R_Head_Y_Back,1,3,robot,2,False,False,"['robot_stimuli\\R_Torso_X_Back.mp4', 'robot_stimuli\\R_Head_Y_Back.mp4', 'robot_stimuli\\L_Head_X_For.mp4', 'robot_stimuli\\R_Head_X_For.mp4']",robot_stimuli\R_Head_Y_Back.mp4,4,,,,,,,,,,,,,0,47,47,47,,,,,,,,,,,,,,,,,,,2093.0283876,2095.104755,,,2109.8179916,2109.8179916,2109.8179916,2,6.126644800000108,2115.9617583,2115.9617583,2115.9617583,2115.9617583,2115.9617583,2115.9617583,2115.9617583,2115.9617583,None,None,None,,,,,,,,,,2093.0283876,2093.0283876,None,,,,2093.0283876,2093.0283876,2106.1860772,4,001,2024-07-15_14h06.29.468,robot_cogshifting_sign,2022.2.5,59.7266312089576,
"['R_Base_Z_For', 'R_Torso_Y_Back', 'L_Torso_Z_Back', 'R_Torso_Z_Back']","{'laterality': 'L_Torso_Z_Back', 'localisation': 'R_Base_Z_For', 'movement': 'R_Torso_Y_Back'}",localisation,"['laterality', 'localisation', 'movement']",R_Base_Z_For,0,3,robot,2,False,False,"['robot_stimuli\\R_Base_Z_For.mp4', 'robot_stimuli\\R_Torso_Y_Back.mp4', 'robot_stimuli\\L_Torso_Z_Back.mp4', 'robot_stimuli\\R_Torso_Z_Back.mp4']",robot_stimuli\R_Base_Z_For.mp4,4,,,,,,,,,,,,,0,48,48,48,,,,,,,,,,,,,,,,,,,2115.9617583,2118.035994,,,2132.7207483,2132.7207483,2132.7207483,2,7.608901500000215,2140.3618636,2140.3618636,2140.3618636,2140.3618636,2140.3618636,2140.3618636,2140.3618636,2140.3618636,None,None,None,,,,,,,,,,2115.9617583,2115.9617583,None,,,,2115.9617583,2115.9617583,2129.0697601,4,001,2024-07-15_14h06.29.468,robot_cogshifting_sign,2022.2.5,59.7266312089576,
"['L_Torso_Z_Back', 'L_Head_Z_Back', 'R_Head_Z_For', 'L_Head_X_For']","{'laterality': 'R_Head_Z_For', 'localisation': 'L_Torso_Z_Back', 'movement': 'L_Head_X_For'}",laterality,"['laterality', 'localisation', 'movement']",R_Head_Z_For,2,3,robot,2,False,False,"['robot_stimuli\\L_Torso_Z_Back.mp4', 'robot_stimuli\\L_Head_Z_Back.mp4', 'robot_stimuli\\R_Head_Z_For.mp4', 'robot_stimuli\\L_Head_X_For.mp4']",robot_stimuli\R_Head_Z_For.mp4,4,,,,,,,,,,,,,0,49,49,49,,,,,,,,,,,,,,,,,,,2140.3618636,2142.4374544,,,2157.0424761,2157.0424761,2157.0424761,3,79.39919619999999,2236.4621048,2236.4621048,2236.4621048,2236.4621048,2236.4621048,2236.4621048,2236.4621048,2236.4621048,None,None,None,,,,,,,,,,2140.3618636,2140.3618636,None,,,,2140.3618636,2140.3618636,2153.4711615,4,001,2024-07-15_14h06.29.468,robot_cogshifting_sign,2022.2.5,59.7266312089576,
"['L_Arm_X_Back', 'R_Arm_Y_Back', 'R_Arm_X_Back', 'R_Torso_X_Back']","{'laterality': 'L_Arm_X_Back', 'localisation': 'R_Torso_X_Back', 'movement': 'R_Arm_Y_Back'}",localisation,"['laterality', 'localisation', 'movement']",R_Torso_X_Back,3,3,robot,2,False,False,"['robot_stimuli\\L_Arm_X_Back.mp4', 'robot_stimuli\\R_Arm_Y_Back.mp4', 'robot_stimuli\\R_Arm_X_Back.mp4', 'robot_stimuli\\R_Torso_X_Back.mp4']",robot_stimuli\R_Torso_X_Back.mp4,4,,,,,,,,,,,,,0,50,50,50,,,,,,,,,,,,,,,,,,,2236.4621048,2238.5520273,,,2253.335544,2253.335544,2253.335544,1,12.178637099999818,2265.5453345,2265.5453345,2265.5453345,2265.5453345,2265.5453345,2265.5453345,2265.5453345,2265.5453345,None,None,None,,,,,,,,,,2236.4621048,2236.4621048,None,,,,2236.4621048,2236.4621048,2249.7001762,4,001,2024-07-15_14h06.29.468,robot_cogshifting_sign,2022.2.5,59.7266312089576,
"['R_Base_X_Back', 'L_Base_X_Back', 'R_Base_Z_Back', 'R_Torso_X_Back']","{'laterality': 'L_Base_X_Back', 'localisation': 'R_Torso_X_Back', 'movement': 'R_Base_Z_Back'}",laterality,"['laterality', 'localisation', 'movement']",L_Base_X_Back,1,3,robot,2,False,False,"['robot_stimuli\\R_Base_X_Back.mp4', 'robot_stimuli\\L_Base_X_Back.mp4', 'robot_stimuli\\R_Base_Z_Back.mp4', 'robot_stimuli\\R_Torso_X_Back.mp4']",robot_stimuli\L_Base_X_Back.mp4,4,,,,,,,,,,,,,0,51,51,51,,,,,,,,,,,,,,,,,,,2265.5453345,2267.6205537,,,2282.2909851,2282.2909851,2282.2909851,3,5.773480900000308,2288.0954854,2288.0954854,2288.0954854,2288.0954854,2288.0954854,2288.0954854,2288.0954854,2288.0954854,None,None,None,,,,,,,,,,2265.5453345,2265.5453345,None,,,,2265.5453345,2265.5453345,2278.6553114,4,001,2024-07-15_14h06.29.468,robot_cogshifting_sign,2022.2.5,59.7266312089576,
"['L_Base_Y_For', 'L_Base_Z_For', 'L_Head_Z_Back', 'R_Base_Z_For']","{'laterality': 'R_Base_Z_For', 'localisation': 'L_Head_Z_Back', 'movement': 'L_Base_Y_For'}",movement,"['laterality', 'localisation', 'movement']",L_Base_Y_For,0,3,robot,2,False,False,"['robot_stimuli\\L_Base_Y_For.mp4', 'robot_stimuli\\L_Base_Z_For.mp4', 'robot_stimuli\\L_Head_Z_Back.mp4', 'robot_stimuli\\R_Base_Z_For.mp4']",robot_stimuli\L_Base_Y_For.mp4,4,,,,,,,,,,,,,0,52,52,52,,,,,,,,,,,,,,,,,,,2288.0954854,2290.1698912,,,2304.8732835,2304.8732835,2304.8732835,1,6.927983799999751,2311.828816,2311.828816,2311.828816,2311.828816,2311.828816,2311.828816,2311.828816,2311.828816,None,None,None,,,,,,,,,,2288.0954854,2288.0954854,None,,,,2288.0954854,2288.0954854,2301.2342556,4,001,2024-07-15_14h06.29.468,robot_cogshifting_sign,2022.2.5,59.7266312089576,
"['L_Base_Z_Back', 'R_Base_Y_For', 'L_Head_Y_Back', 'L_Base_Y_For']","{'laterality': 'R_Base_Y_For', 'localisation': 'L_Head_Y_Back', 'movement': 'L_Base_Z_Back'}",localisation,"['laterality', 'localisation', 'movement']",L_Head_Y_Back,2,3,robot,2,False,True,"['robot_stimuli\\L_Base_Z_Back.mp4', 'robot_stimuli\\R_Base_Y_For.mp4', 'robot_stimuli\\L_Head_Y_Back.mp4', 'robot_stimuli\\L_Base_Y_For.mp4']",robot_stimuli\L_Head_Y_Back.mp4,4,,,,,,,,,,,,,0,53,53,53,,,,,,,,,,,,,,,,,,,2311.828816,2313.8994094,,,2328.5879492,2328.5879492,2328.5879492,3,53.373397499999996,2382.0044226,2392.6106807,2382.0044226,2392.6106807,2382.0044226,2392.6106807,2382.0044226,2392.6106807,89.72222222222221,8.840248400000291,space,,,10.555986500000003,,,,,,,2311.828816,2311.828816,None,,,,2311.828816,2311.828816,2325.0496983,4,001,2024-07-15_14h06.29.468,robot_cogshifting_sign,2022.2.5,59.7266312089576,
"['blue_left_T_45', 'blue_top_J_0', 'blue_left_J_0', 'red_left_Q_0']","{'color': 'red_left_Q_0', 'position': 'blue_top_J_0', 'orientation': 'blue_left_T_45'}",color,['color'],red_left_Q_0,3,1,letter,3,True,False,"['robot_stimuli\\\\filler.mp4', 'robot_stimuli\\\\filler.mp4', 'robot_stimuli\\\\filler.mp4', 'robot_stimuli\\\\filler.mp4']",robot_stimuli\\filler.mp4,4,,,,,,,,,,,,,0,54,54,54,,,,,,,,,,,,,,,,,,,2395.6622497,2397.7164887,,,2406.1991996,2406.1991996,2406.1991996,4,0.36221100000010154,2406.5789658,2406.5789658,2406.5789658,2406.5789658,2406.5789658,2406.5789658,2406.5789658,2406.5789658,None,None,None,,,,,,,,,,2392.6106807,2392.6106807,space,3.0232032000003386,2404.1773894,2406.1991996,,,,4,001,2024-07-15_14h06.29.468,robot_cogshifting_sign,2022.2.5,59.7266312089576,
"['red_left_C_45', 'red_right_J_45', 'red_right_K_0', 'blue_right_G_45']","{'color': 'blue_right_G_45', 'position': 'red_left_C_45', 'orientation': 'red_right_K_0'}",orientation,['orientation'],red_right_K_0,2,1,letter,3,False,False,"['robot_stimuli\\\\filler.mp4', 'robot_stimuli\\\\filler.mp4', 'robot_stimuli\\\\filler.mp4', 'robot_stimuli\\\\filler.mp4']",robot_stimuli\\filler.mp4,4,,,,,,,,,,,,,0,55,55,55,,,,,,,,,,,,,,,,,,,2406.5789658,2408.633162,,,2417.1456056,2417.1456056,2417.1456056,3,0.3684380999998069,2417.5456694,2417.5456694,2417.5456694,2417.5456694,2417.5456694,2417.5456694,2417.5456694,2417.5456694,None,None,None,,,,,,,,,,2406.5789658,2406.5789658,None,,2415.1212701,2417.1456056,2406.5789658,2406.5789658,,4,001,2024-07-15_14h06.29.468,robot_cogshifting_sign,2022.2.5,59.7266312089576,
"['blue_left_B_45', 'blue_right_K_0', 'blue_left_R_0', 'red_left_T_0']","{'color': 'red_left_T_0', 'position': 'blue_right_K_0', 'orientation': 'blue_left_B_45'}",color,['color'],red_left_T_0,3,1,letter,3,False,False,"['robot_stimuli\\\\filler.mp4', 'robot_stimuli\\\\filler.mp4', 'robot_stimuli\\\\filler.mp4', 'robot_stimuli\\\\filler.mp4']",robot_stimuli\\filler.mp4,4,,,,,,,,,,,,,0,56,56,56,,,,,,,,,,,,,,,,,,,2417.5456694,2419.5996484,,,2428.2791297,2428.2791297,2428.2791297,4,0.20178039999971986,2428.5123899,2428.5123899,2428.5123899,2428.5123899,2428.5123899,2428.5123899,2428.5123899,2428.5123899,None,None,None,,,,,,,,,,2417.5456694,2417.5456694,None,,2426.0705446,2428.2791297,2417.5456694,2417.5456694,,4,001,2024-07-15_14h06.29.468,robot_cogshifting_sign,2022.2.5,59.7266312089576,
"['blue_left_G_0', 'red_right_Q_0', 'blue_right_Z_0', 'blue_right_F_45']","{'color': 'red_right_Q_0', 'position': 'blue_left_G_0', 'orientation': 'blue_right_F_45'}",orientation,['orientation'],blue_right_F_45,3,1,letter,3,False,False,"['robot_stimuli\\\\filler.mp4', 'robot_stimuli\\\\filler.mp4', 'robot_stimuli\\\\filler.mp4', 'robot_stimuli\\\\filler.mp4']",robot_stimuli\\filler.mp4,4,,,,,,,,,,,,,0,57,57,57,,,,,,,,,,,,,,,,,,,2428.5123899,2430.5668065,,,2439.2502019,2439.2502019,2439.2502019,4,0.30358099999965305,2439.5791002,2439.5791002,2439.5791002,2439.5791002,2439.5791002,2439.5791002,2439.5791002,2439.5791002,None,None,None,,,,,,,,,,2428.5123899,2428.5123899,None,,2437.0305546,2439.2502019,2428.5123899,2428.5123899,,4,001,2024-07-15_14h06.29.468,robot_cogshifting_sign,2022.2.5,59.7266312089576,
"['blue_bottom_Z_45', 'blue_bottom_G_0', 'red_bottom_J_45', 'blue_left_Z_45']","{'color': 'red_bottom_J_45', 'position': 'blue_left_Z_45', 'orientation': 'blue_bottom_G_0'}",position,['position'],blue_left_Z_45,3,1,letter,3,False,False,"['robot_stimuli\\\\filler.mp4', 'robot_stimuli\\\\filler.mp4', 'robot_stimuli\\\\filler.mp4', 'robot_stimuli\\\\filler.mp4']",robot_stimuli\\filler.mp4,4,,,,,,,,,,,,,0,58,58,58,,,,,,,,,,,,,,,,,,,2439.5791002,2441.6341925,,,2450.506376,2450.506376,2450.506376,4,0.3585582000000471,2450.8956994,2450.8956994,2450.8956994,2450.8956994,2450.8956994,2450.8956994,2450.8956994,2450.8956994,None,None,None,,,,,,,,,,2439.5791002,2439.5791002,None,,2448.2849253,2450.506376,2439.5791002,2439.5791002,,4,001,2024-07-15_14h06.29.468,robot_cogshifting_sign,2022.2.5,59.7266312089576,
"['blue_right_G_45', 'blue_right_R_0', 'blue_left_V_0', 'red_right_Q_0']","{'color': 'red_right_Q_0', 'position': 'blue_left_V_0', 'orientation': 'blue_right_G_45'}",position,['position'],blue_left_V_0,2,1,letter,3,False,False,"['robot_stimuli\\\\filler.mp4', 'robot_stimuli\\\\filler.mp4', 'robot_stimuli\\\\filler.mp4', 'robot_stimuli\\\\filler.mp4']",robot_stimuli\\filler.mp4,4,,,,,,,,,,,,,0,59,59,59,,,,,,,,,,,,,,,,,,,2450.8956994,2452.949027,,,2461.8152803,2461.8152803,2461.8152803,3,0.7135013000001749,2462.5457389,2462.5457389,2462.5457389,2462.5457389,2462.5457389,2462.5457389,2462.5457389,2462.5457389,None,None,None,,,,,,,,,,2450.8956994,2450.8956994,None,,2459.6027456,2461.8152803,2450.8956994,2450.8956994,,4,001,2024-07-15_14h06.29.468,robot_cogshifting_sign,2022.2.5,59.7266312089576,
"['red_bottom_F_0', 'red_bottom_T_45', 'red_top_P_0', 'blue_bottom_N_0']","{'color': 'blue_bottom_N_0', 'position': 'red_top_P_0', 'orientation': 'red_bottom_T_45'}",orientation,['orientation'],red_bottom_T_45,1,1,letter,3,False,False,"['robot_stimuli\\\\filler.mp4', 'robot_stimuli\\\\filler.mp4', 'robot_stimuli\\\\filler.mp4', 'robot_stimuli\\\\filler.mp4']",robot_stimuli\\filler.mp4,4,,,,,,,,,,,,,0,60,60,60,,,,,,,,,,,,,,,,,,,2462.5457389,2464.6002566,,,2473.2692774,2473.2692774,2473.2692774,2,0.267891099999801,2473.562621,2473.562621,2473.562621,2473.562621,2473.562621,2473.562621,2473.562621,2473.562621,None,None,None,,,,,,,,,,2462.5457389,2462.5457389,None,,2471.2619805,2473.2692774,2462.5457389,2462.5457389,,4,001,2024-07-15_14h06.29.468,robot_cogshifting_sign,2022.2.5,59.7266312089576,
"['blue_bottom_S_45', 'red_bottom_V_0', 'red_left_H_45', 'red_bottom_G_45']","{'color': 'blue_bottom_S_45', 'position': 'red_left_H_45', 'orientation': 'red_bottom_V_0'}",color,['color'],blue_bottom_S_45,0,1,letter,3,False,False,"['robot_stimuli\\\\filler.mp4', 'robot_stimuli\\\\filler.mp4', 'robot_stimuli\\\\filler.mp4', 'robot_stimuli\\\\filler.mp4']",robot_stimuli\\filler.mp4,4,,,,,,,,,,,,,0,61,61,61,,,,,,,,,,,,,,,,,,,2473.562621,2475.6174598,,,2484.2908063,2484.2908063,2484.2908063,1,0.22261919999981217,2484.5459324,2484.5459324,2484.5459324,2484.5459324,2484.5459324,2484.5459324,2484.5459324,2484.5459324,None,None,None,,,,,,,,,,2473.562621,2473.562621,None,,2482.2708143,2484.2908063,2473.562621,2473.562621,,4,001,2024-07-15_14h06.29.468,robot_cogshifting_sign,2022.2.5,59.7266312089576,
"['blue_right_C_45', 'red_right_D_0', 'red_bottom_M_45', 'red_right_L_45']","{'color': 'blue_right_C_45', 'position': 'red_bottom_M_45', 'orientation': 'red_right_D_0'}",position,['position'],red_bottom_M_45,2,1,letter,3,False,True,"['robot_stimuli\\\\filler.mp4', 'robot_stimuli\\\\filler.mp4', 'robot_stimuli\\\\filler.mp4', 'robot_stimuli\\\\filler.mp4']",robot_stimuli\\filler.mp4,4,,,,,,,,,,,,,0,62,62,62,,,,,,,,,,,,,,,,,,,2484.5459324,2486.6019838,,,2495.4587304,2495.4587304,2495.4587304,3,0.18326969999996834,2495.6887616999998,2499.94549,2495.6887616999998,2499.94549,2495.6887616999998,2499.94549,2495.6887616999998,2499.94549,4.074074074074069,2.7472827000001416,space,,,4.20028660000024,,,,,,,2484.5459324,2484.5459324,None,,2493.2483808,2495.4587304,2484.5459324,2484.5459324,,4,001,2024-07-15_14h06.29.468,robot_cogshifting_sign,2022.2.5,59.7266312089576,
"['blue_bottom_T_45', 'red_bottom_S_45', 'red_right_B_45', 'red_bottom_F_0']","{'color': 'blue_bottom_T_45', 'position': 'red_right_B_45', 'orientation': 'red_bottom_F_0'}",position,"['color', 'orientation', 'position']",red_right_B_45,2,3,letter,3,True,False,"['robot_stimuli\\\\filler.mp4', 'robot_stimuli\\\\filler.mp4', 'robot_stimuli\\\\filler.mp4', 'robot_stimuli\\\\filler.mp4']",robot_stimuli\\filler.mp4,4,,,,,,,,,,,,,0,63,63,63,,,,,,,,,,,,,,,,,,,2534.8292237,2536.8839421,,,2545.7624459,2545.7624459,2545.7624459,3,5.054018400000118,2550.8459227,2550.8459227,2550.8459227,2550.8459227,2550.8459227,2550.8459227,2550.8459227,2550.8459227,None,None,None,,,,,,,,,,2499.94549,2499.94549,space,34.86347440000007,2543.7442951,2545.7624459,,,,4,001,2024-07-15_14h06.29.468,robot_cogshifting_sign,2022.2.5,59.7266312089576,
"['red_top_P_45', 'red_left_C_45', 'red_left_S_0', 'blue_left_Q_45']","{'color': 'blue_left_Q_45', 'position': 'red_top_P_45', 'orientation': 'red_left_S_0'}",color,"['color', 'orientation', 'position']",blue_left_Q_45,3,3,letter,3,False,False,"['robot_stimuli\\\\filler.mp4', 'robot_stimuli\\\\filler.mp4', 'robot_stimuli\\\\filler.mp4', 'robot_stimuli\\\\filler.mp4']",robot_stimuli\\filler.mp4,4,,,,,,,,,,,,,0,64,64,64,,,,,,,,,,,,,,,,,,,2550.8459227,2552.904809,,,2561.3857556,2561.3857556,2561.3857556,4,2.279637099999931,2563.6960826,2563.6960826,2563.6960826,2563.6960826,2563.6960826,2563.6960826,2563.6960826,2563.6960826,None,None,None,,,,,,,,,,2550.8459227,2550.8459227,None,,2559.3604633,2561.3857556,2550.8459227,2550.8459227,,4,001,2024-07-15_14h06.29.468,robot_cogshifting_sign,2022.2.5,59.7266312089576,
"['red_top_T_45', 'blue_left_G_45', 'blue_top_R_0', 'blue_top_L_45']","{'color': 'red_top_T_45', 'position': 'blue_left_G_45', 'orientation': 'blue_top_R_0'}",orientation,"['color', 'orientation', 'position']",blue_top_R_0,2,3,letter,3,False,False,"['robot_stimuli\\\\filler.mp4', 'robot_stimuli\\\\filler.mp4', 'robot_stimuli\\\\filler.mp4', 'robot_stimuli\\\\filler.mp4']",robot_stimuli\\filler.mp4,4,,,,,,,,,,,,,0,65,65,65,,,,,,,,,,,,,,,,,,,2563.6960826,2565.7573794,,,2574.6356281,2574.6356281,2574.6356281,3,7.5497823999998985,2582.2125646,2582.2125646,2582.2125646,2582.2125646,2582.2125646,2582.2125646,2582.2125646,2582.2125646,None,None,None,,,,,,,,,,2563.6960826,2563.6960826,None,,2572.6099523,2574.6356281,2563.6960826,2563.6960826,,4,001,2024-07-15_14h06.29.468,robot_cogshifting_sign,2022.2.5,59.7266312089576,
"['blue_right_D_0', 'red_top_P_0', 'blue_top_J_0', 'blue_top_S_45']","{'color': 'red_top_P_0', 'position': 'blue_right_D_0', 'orientation': 'blue_top_S_45'}",position,"['color', 'orientation', 'position']",blue_right_D_0,0,3,letter,3,False,False,"['robot_stimuli\\\\filler.mp4', 'robot_stimuli\\\\filler.mp4', 'robot_stimuli\\\\filler.mp4', 'robot_stimuli\\\\filler.mp4']",robot_stimuli\\filler.mp4,4,,,,,,,,,,,,,0,66,66,66,,,,,,,,,,,,,,,,,,,2582.2125646,2584.2687182,,,2592.5431571,2592.5431571,2592.5431571,1,3.0739522000003348,2595.6460348,2595.6460348,2595.6460348,2595.6460348,2595.6460348,2595.6460348,2595.6460348,2595.6460348,None,None,None,,,,,,,,,,2582.2125646,2582.2125646,None,,2590.5232227,2592.5431571,2582.2125646,2582.2125646,,4,001,2024-07-15_14h06.29.468,robot_cogshifting_sign,2022.2.5,59.7266312089576,
"['red_bottom_T_45', 'blue_bottom_W_0', 'red_left_G_0', 'red_bottom_S_0']","{'color': 'blue_bottom_W_0', 'position': 'red_left_G_0', 'orientation': 'red_bottom_T_45'}",color,"['color', 'orientation', 'position']",blue_bottom_W_0,1,3,letter,3,False,False,"['robot_stimuli\\\\filler.mp4', 'robot_stimuli\\\\filler.mp4', 'robot_stimuli\\\\filler.mp4', 'robot_stimuli\\\\filler.mp4']",robot_stimuli\\filler.mp4,4,,,,,,,,,,,,,0,67,67,67,,,,,,,,,,,,,,,,,,,2595.6460348,2597.7079077,,,2606.4059357,2606.4059357,2606.4059357,2,2.9225939999996484,2609.3461659,2609.3461659,2609.3461659,2609.3461659,2609.3461659,2609.3461659,2609.3461659,2609.3461659,None,None,None,,,,,,,,,,2595.6460348,2595.6460348,None,,2604.1862499,2606.4059357,2595.6460348,2595.6460348,,4,001,2024-07-15_14h06.29.468,robot_cogshifting_sign,2022.2.5,59.7266312089576,
"['red_left_G_45', 'red_right_D_0', 'blue_left_R_0', 'red_left_W_0']","{'color': 'blue_left_R_0', 'position': 'red_right_D_0', 'orientation': 'red_left_G_45'}",color,"['color', 'orientation', 'position']",blue_left_R_0,2,3,letter,3,False,False,"['robot_stimuli\\\\filler.mp4', 'robot_stimuli\\\\filler.mp4', 'robot_stimuli\\\\filler.mp4', 'robot_stimuli\\\\filler.mp4']",robot_stimuli\\filler.mp4,4,,,,,,,,,,,,,0,68,68,68,,,,,,,,,,,,,,,,,,,2609.3461659,2611.4062138,,,2619.8922694,2619.8922694,2619.8922694,3,3.3882659000000643,2623.3128551,2623.3128551,2623.3128551,2623.3128551,2623.3128551,2623.3128551,2623.3128551,2623.3128551,None,None,None,,,,,,,,,,2609.3461659,2609.3461659,None,,2617.8765912,2619.8922694,2609.3461659,2609.3461659,,4,001,2024-07-15_14h06.29.468,robot_cogshifting_sign,2022.2.5,59.7266312089576,
"['red_bottom_B_45', 'blue_top_P_45', 'blue_bottom_D_45', 'blue_bottom_F_0']","{'color': 'red_bottom_B_45', 'position': 'blue_top_P_45', 'orientation': 'blue_bottom_F_0'}",orientation,"['color', 'orientation', 'position']",blue_bottom_F_0,3,3,letter,3,False,False,"['robot_stimuli\\\\filler.mp4', 'robot_stimuli\\\\filler.mp4', 'robot_stimuli\\\\filler.mp4', 'robot_stimuli\\\\filler.mp4']",robot_stimuli\\filler.mp4,4,,,,,,,,,,,,,0,69,69,69,,,,,,,,,,,,,,,,,,,2623.3128551,2625.3695083,,,2634.2399281,2634.2399281,2634.2399281,4,2.0405967999999888,2636.3127738,2636.3127738,2636.3127738,2636.3127738,2636.3127738,2636.3127738,2636.3127738,2636.3127738,None,None,None,,,,,,,,,,2623.3128551,2623.3128551,None,,2632.2227752,2634.2399281,2623.3128551,2623.3128551,,4,001,2024-07-15_14h06.29.468,robot_cogshifting_sign,2022.2.5,59.7266312089576,
"['blue_bottom_P_45', 'blue_left_C_0', 'blue_bottom_L_0', 'red_bottom_G_0']","{'color': 'red_bottom_G_0', 'position': 'blue_left_C_0', 'orientation': 'blue_bottom_P_45'}",position,"['color', 'orientation', 'position']",blue_left_C_0,1,3,letter,3,False,False,"['robot_stimuli\\\\filler.mp4', 'robot_stimuli\\\\filler.mp4', 'robot_stimuli\\\\filler.mp4', 'robot_stimuli\\\\filler.mp4']",robot_stimuli\\filler.mp4,4,,,,,,,,,,,,,0,70,70,70,,,,,,,,,,,,,,,,,,,2636.3127738,2638.3667456,,,2646.8463079,2646.8463079,2646.8463079,2,3.946946300000022,2650.8130330999998,2650.8130330999998,2650.8130330999998,2650.8130330999998,2650.8130330999998,2650.8130330999998,2650.8130330999998,2650.8130330999998,None,None,None,,,,,,,,,,2636.3127738,2636.3127738,None,,2644.826717,2646.8463079,2636.3127738,2636.3127738,,4,001,2024-07-15_14h06.29.468,robot_cogshifting_sign,2022.2.5,59.7266312089576,
"['red_left_Q_45', 'red_right_N_45', 'red_right_C_0', 'blue_right_N_45']","{'color': 'blue_right_N_45', 'position': 'red_left_Q_45', 'orientation': 'red_right_C_0'}",orientation,"['color', 'orientation', 'position']",red_right_C_0,2,3,letter,3,False,True,"['robot_stimuli\\\\filler.mp4', 'robot_stimuli\\\\filler.mp4', 'robot_stimuli\\\\filler.mp4', 'robot_stimuli\\\\filler.mp4']",robot_stimuli\\filler.mp4,4,,,,,,,,,,,,,0,71,71,71,,,,,,,,,,,,,,,,,,,2650.8130330999998,2652.8738512,,,2661.3538617,2661.3538617,2661.3538617,3,3.2558374999998563,2664.6557138,2669.3557199,2664.6557138,2669.3557199,2664.6557138,2669.3557199,2664.6557138,2669.3557199,38.48765432098765,2.891749400000208,space,,,4.640646999999703,,,,,,,2650.8130330999998,2650.8130330999998,None,,2659.3283757,2661.3538617,2650.8130330999998,2650.8130330999998,,4,001,2024-07-15_14h06.29.468,robot_cogshifting_sign,2022.2.5,59.7266312089576,
"['blue_right_L_45', 'blue_left_J_0', 'blue_right_Z_0', 'red_right_S_0']","{'color': 'red_right_S_0', 'position': 'blue_left_J_0', 'orientation': 'blue_right_L_45'}",orientation,"['orientation', 'position']",blue_right_L_45,0,2,letter,3,True,False,"['robot_stimuli\\\\filler.mp4', 'robot_stimuli\\\\filler.mp4', 'robot_stimuli\\\\filler.mp4', 'robot_stimuli\\\\filler.mp4']",robot_stimuli\\filler.mp4,4,,,,,,,,,,,,,0,72,72,72,,,,,,,,,,,,,,,,,,,2712.5961325,2714.6519736,,,2723.3332659,2723.3332659,2723.3332659,1,4.731094700000071,2728.0962217,2728.0962217,2728.0962217,2728.0962217,2728.0962217,2728.0962217,2728.0962217,2728.0962217,None,None,None,,,,,,,,,,2669.3557199,2669.3557199,space,43.22174570000014,2721.1146942,2723.3332659,,,,4,001,2024-07-15_14h06.29.468,robot_cogshifting_sign,2022.2.5,59.7266312089576,
"['red_top_C_0', 'red_bottom_C_45', 'blue_bottom_V_0', 'red_bottom_F_0']","{'color': 'blue_bottom_V_0', 'position': 'red_top_C_0', 'orientation': 'red_bottom_C_45'}",orientation,"['orientation', 'position']",red_bottom_C_45,1,2,letter,3,False,False,"['robot_stimuli\\\\filler.mp4', 'robot_stimuli\\\\filler.mp4', 'robot_stimuli\\\\filler.mp4', 'robot_stimuli\\\\filler.mp4']",robot_stimuli\\filler.mp4,4,,,,,,,,,,,,,0,73,73,73,,,,,,,,,,,,,,,,,,,2728.0962217,2730.1565397,,,2739.0203682,2739.0203682,2739.0203682,2,4.092579099999952,2743.1297306,2743.1297306,2743.1297306,2743.1297306,2743.1297306,2743.1297306,2743.1297306,2743.1297306,None,None,None,,,,,,,,,,2728.0962217,2728.0962217,None,,2736.8115861,2739.0203682,2728.0962217,2728.0962217,,4,001,2024-07-15_14h06.29.468,robot_cogshifting_sign,2022.2.5,59.7266312089576,
"['red_top_V_0', 'blue_bottom_D_0', 'red_bottom_C_0', 'red_bottom_B_45']","{'color': 'blue_bottom_D_0', 'position': 'red_top_V_0', 'orientation': 'red_bottom_B_45'}",color,"['color', 'orientation']",blue_bottom_D_0,1,2,letter,3,False,False,"['robot_stimuli\\\\filler.mp4', 'robot_stimuli\\\\filler.mp4', 'robot_stimuli\\\\filler.mp4', 'robot_stimuli\\\\filler.mp4']",robot_stimuli\\filler.mp4,4,,,,,,,,,,,,,0,74,74,74,,,,,,,,,,,,,,,,,,,2743.1297306,2745.1863654,,,2754.2490377999998,2754.2490377999998,2754.2490377999998,2,6.215647799999701,2760.496297,2760.496297,2760.496297,2760.496297,2760.496297,2760.496297,2760.496297,2760.496297,None,None,None,,,,,,,,,,2743.1297306,2743.1297306,None,,2752.0314415,2754.2490377999998,2743.1297306,2743.1297306,,4,001,2024-07-15_14h06.29.468,robot_cogshifting_sign,2022.2.5,59.7266312089576,
"['blue_bottom_C_0', 'blue_bottom_C_45', 'red_bottom_F_45', 'blue_left_F_45']","{'color': 'red_bottom_F_45', 'position': 'blue_left_F_45', 'orientation': 'blue_bottom_C_0'}",position,"['orientation', 'position']",blue_left_F_45,3,2,letter,3,False,False,"['robot_stimuli\\\\filler.mp4', 'robot_stimuli\\\\filler.mp4', 'robot_stimuli\\\\filler.mp4', 'robot_stimuli\\\\filler.mp4']",robot_stimuli\\filler.mp4,4,,,,,,,,,,,,,0,75,75,75,,,,,,,,,,,,,,,,,,,2760.496297,2762.5531651,,,2771.0231151,2771.0231151,2771.0231151,4,1.9220176999997278,2772.9632978,2772.9632978,2772.9632978,2772.9632978,2772.9632978,2772.9632978,2772.9632978,2772.9632978,None,None,None,,,,,,,,,,2760.496297,2760.496297,None,,2769.0041356,2771.0231151,2760.496297,2760.496297,,4,001,2024-07-15_14h06.29.468,robot_cogshifting_sign,2022.2.5,59.7266312089576,
"['red_left_K_45', 'blue_bottom_Z_45', 'blue_left_X_45', 'blue_left_N_0']","{'color': 'red_left_K_45', 'position': 'blue_bottom_Z_45', 'orientation': 'blue_left_N_0'}",color,"['color', 'position']",red_left_K_45,0,2,letter,3,False,False,"['robot_stimuli\\\\filler.mp4', 'robot_stimuli\\\\filler.mp4', 'robot_stimuli\\\\filler.mp4', 'robot_stimuli\\\\filler.mp4']",robot_stimuli\\filler.mp4,4,,,,,,,,,,,,,0,76,76,76,,,,,,,,,,,,,,,,,,,2772.9632978,2775.017183,,,2783.6898937,2783.6898937,2783.6898937,1,4.3267719999998775,2788.0464302,2788.0464302,2788.0464302,2788.0464302,2788.0464302,2788.0464302,2788.0464302,2788.0464302,None,None,None,,,,,,,,,,2772.9632978,2772.9632978,None,,2781.6738291,2783.6898937,2772.9632978,2772.9632978,,4,001,2024-07-15_14h06.29.468,robot_cogshifting_sign,2022.2.5,59.7266312089576,
"['red_bottom_S_0', 'blue_bottom_D_0', 'blue_top_C_0', 'blue_bottom_G_45']","{'color': 'red_bottom_S_0', 'position': 'blue_top_C_0', 'orientation': 'blue_bottom_G_45'}",position,"['orientation', 'position']",blue_top_C_0,2,2,letter,3,False,False,"['robot_stimuli\\\\filler.mp4', 'robot_stimuli\\\\filler.mp4', 'robot_stimuli\\\\filler.mp4', 'robot_stimuli\\\\filler.mp4']",robot_stimuli\\filler.mp4,4,,,,,,,,,,,,,0,77,77,77,,,,,,,,,,,,,,,,,,,2788.0464302,2790.1079935,,,2798.7697841,2798.7697841,2798.7697841,3,4.056143700000106,2802.8467287,2802.8467287,2802.8467287,2802.8467287,2802.8467287,2802.8467287,2802.8467287,2802.8467287,None,None,None,,,,,,,,,,2788.0464302,2788.0464302,None,,2796.5549279,2798.7697841,2788.0464302,2788.0464302,,4,001,2024-07-15_14h06.29.468,robot_cogshifting_sign,2022.2.5,59.7266312089576,
"['blue_top_P_45', 'red_right_V_45', 'red_top_Z_45', 'red_top_D_0']","{'color': 'blue_top_P_45', 'position': 'red_right_V_45', 'orientation': 'red_top_D_0'}",orientation,"['color', 'orientation']",red_top_D_0,3,2,letter,3,False,False,"['robot_stimuli\\\\filler.mp4', 'robot_stimuli\\\\filler.mp4', 'robot_stimuli\\\\filler.mp4', 'robot_stimuli\\\\filler.mp4']",robot_stimuli\\filler.mp4,4,,,,,,,,,,,,,0,78,78,78,,,,,,,,,,,,,,,,,,,2802.8467287,2804.9030836,,,2813.9705686,2813.9705686,2813.9705686,4,2.3587128000003617,2816.3463785999998,2816.3463785999998,2816.3463785999998,2816.3463785999998,2816.3463785999998,2816.3463785999998,2816.3463785999998,2816.3463785999998,None,None,None,,,,,,,,,,2802.8467287,2802.8467287,None,,2811.7544714,2813.9705686,2802.8467287,2802.8467287,,4,001,2024-07-15_14h06.29.468,robot_cogshifting_sign,2022.2.5,59.7266312089576,
"['red_right_K_45', 'blue_right_L_45', 'red_top_M_45', 'red_right_G_0']","{'color': 'blue_right_L_45', 'position': 'red_top_M_45', 'orientation': 'red_right_G_0'}",position,"['orientation', 'position']",red_top_M_45,2,2,letter,3,False,False,"['robot_stimuli\\\\filler.mp4', 'robot_stimuli\\\\filler.mp4', 'robot_stimuli\\\\filler.mp4', 'robot_stimuli\\\\filler.mp4']",robot_stimuli\\filler.mp4,4,,,,,,,,,,,,,0,79,79,79,,,,,,,,,,,,,,,,,,,2816.3463785999998,2818.4024732,,,2826.8871523,2826.8871523,2826.8871523,4,3.050610100000071,2829.9634276,2829.9634276,2829.9634276,2829.9634276,2829.9634276,2829.9634276,2829.9634276,2829.9634276,None,None,None,,,,,,,,,,2816.3463785999998,2816.3463785999998,None,,2824.8553401,2826.8871523,2816.3463785999998,2816.3463785999998,,4,001,2024-07-15_14h06.29.468,robot_cogshifting_sign,2022.2.5,59.7266312089576,
"['blue_left_G_0', 'blue_right_K_45', 'red_left_W_45', 'blue_left_W_45']","{'color': 'red_left_W_45', 'position': 'blue_right_K_45', 'orientation': 'blue_left_G_0'}",color,"['color', 'orientation']",red_left_W_45,2,2,letter,3,False,True,"['robot_stimuli\\\\filler.mp4', 'robot_stimuli\\\\filler.mp4', 'robot_stimuli\\\\filler.mp4', 'robot_stimuli\\\\filler.mp4']",robot_stimuli\\filler.mp4,4,,,,,,,,,,,,,0,80,80,80,,,,,,,,,,,,,,,,,,,2829.9634276,2832.0327601,,,2840.7237228,2840.7237228,2840.7237228,3,3.725953499999818,2844.505165,2851.2938848,2844.505165,2851.2938848,2844.505165,2851.2938848,2844.505165,2851.2938848,29.38271604938271,3.406819699999687,space,,,6.744476899999867,,,,,,,2829.9634276,2829.9634276,None,,2838.7074552,2840.7237228,2829.9634276,2829.9634276,,4,001,2024-07-15_14h06.29.468,robot_cogshifting_sign,2022.2.5,59.7266312089576,
"['L_Arm_Z_For', 'R_Head_Z_For', 'L_Head_Z_For', 'L_Head_Y_For']","{'laterality': 'R_Head_Z_For', 'localisation': 'L_Arm_Z_For', 'movement': 'L_Head_Y_For'}",localisation,"['laterality', 'localisation', 'movement']",L_Arm_Z_For,0,3,robot,4,True,False,"['robot_stimuli\\L_Arm_Z_For.mp4', 'robot_stimuli\\R_Head_Z_For.mp4', 'robot_stimuli\\L_Head_Z_For.mp4', 'robot_stimuli\\L_Head_Y_For.mp4']",robot_stimuli\L_Arm_Z_For.mp4,4,,,,,,,,,,,,,0,81,81,81,,,,,,,,,,,,,,,,,,,2908.8800613,2910.9624031,,,2925.8052461,2925.8052461,2925.8052461,1,6.221039000000005,2932.0468339,2932.0468339,2932.0468339,2932.0468339,2932.0468339,2932.0468339,2932.0468339,2932.0468339,None,None,None,,,,,,,,,,2851.2938848,2851.2938848,space,57.55546520000006,,,,,2922.1702440999998,4,001,2024-07-15_14h06.29.468,robot_cogshifting_sign,2022.2.5,59.7266312089576,
"['L_Arm_Y_For', 'R_Arm_X_Back', 'R_Head_Y_For', 'R_Arm_Y_For']","{'laterality': 'L_Arm_Y_For', 'localisation': 'R_Head_Y_For', 'movement': 'R_Arm_X_Back'}",laterality,"['laterality', 'localisation', 'movement']",L_Arm_Y_For,0,3,robot,4,False,False,"['robot_stimuli\\L_Arm_Y_For.mp4', 'robot_stimuli\\R_Arm_X_Back.mp4', 'robot_stimuli\\R_Head_Y_For.mp4', 'robot_stimuli\\R_Arm_Y_For.mp4']",robot_stimuli\L_Arm_Y_For.mp4,4,,,,,,,,,,,,,0,82,82,82,,,,,,,,,,,,,,,,,,,2932.0468339,2934.1177878,,,2948.8024356,2948.8024356,2948.8024356,1,8.952107099999907,2957.7803076,2957.7803076,2957.7803076,2957.7803076,2957.7803076,2957.7803076,2957.7803076,2957.7803076,None,None,None,,,,,,,,,,2932.0468339,2932.0468339,None,,,,2932.0468339,2932.0468339,2945.2910727,4,001,2024-07-15_14h06.29.468,robot_cogshifting_sign,2022.2.5,59.7266312089576,
"['L_Head_Z_Back', 'R_Arm_Z_Back', 'R_Head_Z_Back', 'R_Head_Y_Back']","{'laterality': 'L_Head_Z_Back', 'localisation': 'R_Arm_Z_Back', 'movement': 'R_Head_Y_Back'}",movement,"['laterality', 'localisation', 'movement']",R_Head_Y_Back,3,3,robot,4,False,False,"['robot_stimuli\\L_Head_Z_Back.mp4', 'robot_stimuli\\R_Arm_Z_Back.mp4', 'robot_stimuli\\R_Head_Z_Back.mp4', 'robot_stimuli\\R_Head_Y_Back.mp4']",robot_stimuli\R_Head_Y_Back.mp4,4,,,,,,,,,,,,,0,83,83,83,,,,,,,,,,,,,,,,,,,2957.7803076,2959.8517724,,,2974.6723345,2974.6723345,2974.6723345,4,3.7533501999996446,2978.4465245,2978.4465245,2978.4465245,2978.4465245,2978.4465245,2978.4465245,2978.4465245,2978.4465245,None,None,None,,,,,,,,,,2957.7803076,2957.7803076,None,,,,2957.7803076,2957.7803076,2971.0356939,4,001,2024-07-15_14h06.29.468,robot_cogshifting_sign,2022.2.5,59.7266312089576,
"['R_Head_Y_For', 'L_Head_Y_For', 'R_Arm_Y_For', 'R_Head_X_For']","{'laterality': 'L_Head_Y_For', 'localisation': 'R_Arm_Y_For', 'movement': 'R_Head_X_For'}",localisation,"['laterality', 'localisation', 'movement']",R_Arm_Y_For,2,3,robot,4,False,False,"['robot_stimuli\\R_Head_Y_For.mp4', 'robot_stimuli\\L_Head_Y_For.mp4', 'robot_stimuli\\R_Arm_Y_For.mp4', 'robot_stimuli\\R_Head_X_For.mp4']",robot_stimuli\R_Arm_Y_For.mp4,4,,,,,,,,,,,,,0,84,84,84,,,,,,,,,,,,,,,,,,,2978.4465245,2980.52207,,,2995.2146908,2995.2146908,2995.2146908,1,8.914956900000092,3004.1468372,3004.1468372,3004.1468372,3004.1468372,3004.1468372,3004.1468372,3004.1468372,3004.1468372,None,None,None,,,,,,,,,,2978.4465245,2978.4465245,None,,,,2978.4465245,2978.4465245,2991.5903118,4,001,2024-07-15_14h06.29.468,robot_cogshifting_sign,2022.2.5,59.7266312089576,
"['R_Arm_Z_For', 'R_Base_X_Back', 'R_Arm_X_Back', 'L_Arm_X_For']","{'laterality': 'L_Arm_X_For', 'localisation': 'R_Base_X_Back', 'movement': 'R_Arm_Z_For'}",laterality,"['laterality', 'localisation', 'movement']",L_Arm_X_For,3,3,robot,4,False,False,"['robot_stimuli\\R_Arm_Z_For.mp4', 'robot_stimuli\\R_Base_X_Back.mp4', 'robot_stimuli\\R_Arm_X_Back.mp4', 'robot_stimuli\\L_Arm_X_For.mp4']",robot_stimuli\L_Arm_X_For.mp4,4,,,,,,,,,,,,,0,85,85,85,,,,,,,,,,,,,,,,,,,3004.1468372,3006.2291874,,,3021.0314754,3021.0314754,3021.0314754,4,2.362488000000198,3023.4136315,3023.4136315,3023.4136315,3023.4136315,3023.4136315,3023.4136315,3023.4136315,3023.4136315,None,None,None,,,,,,,,,,3004.1468372,3004.1468372,None,,,,3004.1468372,3004.1468372,3017.4045242,4,001,2024-07-15_14h06.29.468,robot_cogshifting_sign,2022.2.5,59.7266312089576,
"['L_Arm_X_Back', 'L_Arm_Z_Back', 'R_Arm_Z_For', 'L_Base_Z_For']","{'laterality': 'R_Arm_Z_For', 'localisation': 'L_Base_Z_For', 'movement': 'L_Arm_X_Back'}",movement,"['laterality', 'localisation', 'movement']",L_Arm_X_Back,0,3,robot,4,False,False,"['robot_stimuli\\L_Arm_X_Back.mp4', 'robot_stimuli\\L_Arm_Z_Back.mp4', 'robot_stimuli\\R_Arm_Z_For.mp4', 'robot_stimuli\\L_Base_Z_For.mp4']",robot_stimuli\L_Arm_X_Back.mp4,4,,,,,,,,,,,,,0,86,86,86,,,,,,,,,,,,,,,,,,,3023.4136315,3025.4867661,,,3040.2710233,3040.2710233,3040.2710233,2,3.9936443000001276,3044.2970529,3044.2970529,3044.2970529,3044.2970529,3044.2970529,3044.2970529,3044.2970529,3044.2970529,None,None,None,,,,,,,,,,3023.4136315,3023.4136315,None,,,,3023.4136315,3023.4136315,3036.6358497,4,001,2024-07-15_14h06.29.468,robot_cogshifting_sign,2022.2.5,59.7266312089576,
"['L_Head_Y_For', 'L_Arm_Y_For', 'L_Head_X_For', 'R_Head_Y_For']","{'laterality': 'R_Head_Y_For', 'localisation': 'L_Arm_Y_For', 'movement': 'L_Head_X_For'}",localisation,"['laterality', 'localisation', 'movement']",L_Arm_Y_For,1,3,robot,4,False,False,"['robot_stimuli\\L_Head_Y_For.mp4', 'robot_stimuli\\L_Arm_Y_For.mp4', 'robot_stimuli\\L_Head_X_For.mp4', 'robot_stimuli\\R_Head_Y_For.mp4']",robot_stimuli\L_Arm_Y_For.mp4,4,,,,,,,,,,,,,0,87,87,87,,,,,,,,,,,,,,,,,,,3044.2970529,3046.3715893,,,3061.1074623,3061.1074623,3061.1074623,3,10.013256400000031,3071.1470427,3071.1470427,3071.1470427,3071.1470427,3071.1470427,3071.1470427,3071.1470427,3071.1470427,None,None,None,,,,,,,,,,3044.2970529,3044.2970529,None,,,,3044.2970529,3044.2970529,3057.4729307,4,001,2024-07-15_14h06.29.468,robot_cogshifting_sign,2022.2.5,59.7266312089576,
"['R_Arm_Y_Back', 'R_Arm_Z_For', 'L_Arm_Z_For', 'R_Base_Z_For']","{'laterality': 'L_Arm_Z_For', 'localisation': 'R_Base_Z_For', 'movement': 'R_Arm_Y_Back'}",laterality,"['laterality', 'localisation', 'movement']",L_Arm_Z_For,2,3,robot,4,False,False,"['robot_stimuli\\R_Arm_Y_Back.mp4', 'robot_stimuli\\R_Arm_Z_For.mp4', 'robot_stimuli\\L_Arm_Z_For.mp4', 'robot_stimuli\\R_Base_Z_For.mp4']",robot_stimuli\L_Arm_Z_For.mp4,4,,,,,,,,,,,,,0,88,88,88,,,,,,,,,,,,,,,,,,,3071.1470427,3073.2234349,,,3088.0157345,3088.0157345,3088.0157345,1,7.01718980000031,3095.0638232,3095.0638232,3095.0638232,3095.0638232,3095.0638232,3095.0638232,3095.0638232,3095.0638232,None,None,None,,,,,,,,,,3071.1470427,3071.1470427,None,,,,3071.1470427,3071.1470427,3084.3900521,4,001,2024-07-15_14h06.29.468,robot_cogshifting_sign,2022.2.5,59.7266312089576,
"['L_Arm_Z_For', 'L_Head_X_For', 'L_Head_Z_Back', 'R_Head_Z_Back']","{'laterality': 'R_Head_Z_Back', 'localisation': 'L_Arm_Z_For', 'movement': 'L_Head_X_For'}",movement,"['laterality', 'localisation', 'movement']",L_Head_X_For,1,3,robot,4,False,True,"['robot_stimuli\\L_Arm_Z_For.mp4', 'robot_stimuli\\L_Head_X_For.mp4', 'robot_stimuli\\L_Head_Z_Back.mp4', 'robot_stimuli\\R_Head_Z_Back.mp4']",robot_stimuli\L_Head_X_For.mp4,4,,,,,,,,,,,,,0,89,89,89,,,,,,,,,,,,,,,,,,,3095.0638232,3097.1377282,,,3111.9051599,3111.9051599,3111.9051599,2,5.0803975000003305,3117.0391043,3134.0373964,3117.0391043,3134.0373964,3117.0391043,3134.0373964,3117.0391043,3134.0373964,103.4567901234568,15.859975899999881,space,,,16.94618940000008,,,,,,,3095.0638232,3095.0638232,None,,,,3095.0638232,3095.0638232,3108.2576368,4,001,2024-07-15_14h06.29.468,robot_cogshifting_sign,2022.2.5,59.7266312089576,
"['L_Base_X_For', 'L_Base_Y_For', 'L_Torso_X_Back', 'R_Base_X_Back']","{'laterality': 'R_Base_X_Back', 'localisation': 'L_Torso_X_Back', 'movement': 'L_Base_Y_For'}",localisation,['localisation'],L_Torso_X_Back,2,1,robot,4,True,False,"['robot_stimuli\\L_Base_X_For.mp4', 'robot_stimuli\\L_Base_Y_For.mp4', 'robot_stimuli\\L_Torso_X_Back.mp4', 'robot_stimuli\\R_Base_X_Back.mp4']",robot_stimuli\L_Torso_X_Back.mp4,4,,,,,,,,,,,,,0,90,90,90,,,,,,,,,,,,,,,,,,,3136.9303251,3139.0093223,,,3153.6390753,3153.6390753,3153.6390753,3,0.43512390000022094,3154.0970746,3154.0970746,3154.0970746,3154.0970746,3154.0970746,3154.0970746,3154.0970746,3154.0970746,None,None,None,,,,,,,,,,3134.0373964,3134.0373964,space,2.8762016999998963,,,,,3150.0060635,4,001,2024-07-15_14h06.29.468,robot_cogshifting_sign,2022.2.5,59.7266312089576,
"['L_Head_Y_Back', 'R_Head_Z_Back', 'R_Head_Y_Back', 'R_Arm_Y_For']","{'laterality': 'L_Head_Y_Back', 'localisation': 'R_Arm_Y_For', 'movement': 'R_Head_Z_Back'}",localisation,['localisation'],R_Arm_Y_For,3,1,robot,4,False,False,"['robot_stimuli\\L_Head_Y_Back.mp4', 'robot_stimuli\\R_Head_Z_Back.mp4', 'robot_stimuli\\R_Head_Y_Back.mp4', 'robot_stimuli\\R_Arm_Y_For.mp4']",robot_stimuli\R_Arm_Y_For.mp4,4,,,,,,,,,,,,,0,91,91,91,,,,,,,,,,,,,,,,,,,3154.0970746,3156.1714369,,,3170.8505463,3170.8505463,3170.8505463,4,0.35952339999992944,3171.2305445,3171.2305445,3171.2305445,3171.2305445,3171.2305445,3171.2305445,3171.2305445,3171.2305445,None,None,None,,,,,,,,,,3154.0970746,3154.0970746,None,,,,3154.0970746,3154.0970746,3167.3376248,4,001,2024-07-15_14h06.29.468,robot_cogshifting_sign,2022.2.5,59.7266312089576,
"['R_Head_Y_Back', 'L_Head_Y_For', 'L_Head_Z_For', 'L_Arm_Y_Back']","{'laterality': 'R_Head_Y_Back', 'localisation': 'L_Arm_Y_Back', 'movement': 'L_Head_Z_For'}",localisation,['localisation'],L_Arm_Y_Back,3,1,robot,4,False,False,"['robot_stimuli\\R_Head_Y_Back.mp4', 'robot_stimuli\\L_Head_Y_For.mp4', 'robot_stimuli\\L_Head_Z_For.mp4', 'robot_stimuli\\L_Arm_Y_Back.mp4']",robot_stimuli\L_Arm_Y_Back.mp4,4,,,,,,,,,,,,,0,92,92,92,,,,,,,,,,,,,,,,,,,3171.2305445,3173.3024523,,,3188.083669,3188.083669,3188.083669,4,0.3031618999998358,3188.4139329,3188.4139329,3188.4139329,3188.4139329,3188.4139329,3188.4139329,3188.4139329,3188.4139329,None,None,None,,,,,,,,,,3171.2305445,3171.2305445,None,,,,3171.2305445,3171.2305445,3184.4569596,4,001,2024-07-15_14h06.29.468,robot_cogshifting_sign,2022.2.5,59.7266312089576,
"['R_Arm_Y_Back', 'R_Arm_Z_Back', 'L_Arm_Y_Back', 'R_Head_Y_For']","{'laterality': 'L_Arm_Y_Back', 'localisation': 'R_Head_Y_For', 'movement': 'R_Arm_Z_Back'}",movement,['movement'],R_Arm_Z_Back,1,1,robot,4,False,False,"['robot_stimuli\\R_Arm_Y_Back.mp4', 'robot_stimuli\\R_Arm_Z_Back.mp4', 'robot_stimuli\\L_Arm_Y_Back.mp4', 'robot_stimuli\\R_Head_Y_For.mp4']",robot_stimuli\R_Arm_Z_Back.mp4,4,,,,,,,,,,,,,0,93,93,93,,,,,,,,,,,,,,,,,,,3188.4139329,3190.4987757,,,3205.3222948,3205.3222948,3205.3222948,2,0.648289299999746,3205.9973851,3205.9973851,3205.9973851,3205.9973851,3205.9973851,3205.9973851,3205.9973851,3205.9973851,None,None,None,,,,,,,,,,3188.4139329,3188.4139329,None,,,,3188.4139329,3188.4139329,3201.6836757,4,001,2024-07-15_14h06.29.468,robot_cogshifting_sign,2022.2.5,59.7266312089576,
"['L_Arm_Y_For', 'L_Torso_Y_Back', 'R_Torso_Y_For', 'L_Torso_X_Back']","{'laterality': 'R_Torso_Y_For', 'localisation': 'L_Arm_Y_For', 'movement': 'L_Torso_X_Back'}",laterality,['laterality'],R_Torso_Y_For,2,1,robot,4,False,False,"['robot_stimuli\\L_Arm_Y_For.mp4', 'robot_stimuli\\L_Torso_Y_Back.mp4', 'robot_stimuli\\R_Torso_Y_For.mp4', 'robot_stimuli\\L_Torso_X_Back.mp4']",robot_stimuli\R_Torso_Y_For.mp4,4,,,,,,,,,,,,,0,94,94,94,,,,,,,,,,,,,,,,,,,3205.9973851,3208.0728366,,,3222.7537153,3222.7537153,3222.7537153,3,0.5526196000000567,3223.3305918,3223.3305918,3223.3305918,3223.3305918,3223.3305918,3223.3305918,3223.3305918,3223.3305918,None,None,None,,,,,,,,,,3205.9973851,3205.9973851,None,,,,3205.9973851,3205.9973851,3219.1082095,4,001,2024-07-15_14h06.29.468,robot_cogshifting_sign,2022.2.5,59.7266312089576,
"['L_Base_X_For', 'L_Torso_Z_For', 'R_Torso_X_For', 'L_Torso_X_Back']","{'laterality': 'R_Torso_X_For', 'localisation': 'L_Base_X_For', 'movement': 'L_Torso_Z_For'}",laterality,['laterality'],R_Torso_X_For,2,1,robot,4,False,False,"['robot_stimuli\\L_Base_X_For.mp4', 'robot_stimuli\\L_Torso_Z_For.mp4', 'robot_stimuli\\R_Torso_X_For.mp4', 'robot_stimuli\\L_Torso_X_Back.mp4']",robot_stimuli\R_Torso_X_For.mp4,4,,,,,,,,,,,,,0,95,95,95,,,,,,,,,,,,,,,,,,,3223.3305918,3225.4066708,,,3240.1306364,3240.1306364,3240.1306364,3,0.4158706000002752,3240.5639536,3240.5639536,3240.5639536,3240.5639536,3240.5639536,3240.5639536,3240.5639536,3240.5639536,None,None,None,,,,,,,,,,3223.3305918,3223.3305918,None,,,,3223.3305918,3223.3305918,3236.5068356,4,001,2024-07-15_14h06.29.468,robot_cogshifting_sign,2022.2.5,59.7266312089576,
"['R_Torso_Z_For', 'L_Torso_Y_For', 'L_Torso_Z_For', 'L_Head_Z_Back']","{'laterality': 'R_Torso_Z_For', 'localisation': 'L_Head_Z_Back', 'movement': 'L_Torso_Y_For'}",movement,['movement'],L_Torso_Y_For,1,1,robot,4,False,False,"['robot_stimuli\\R_Torso_Z_For.mp4', 'robot_stimuli\\L_Torso_Y_For.mp4', 'robot_stimuli\\L_Torso_Z_For.mp4', 'robot_stimuli\\L_Head_Z_Back.mp4']",robot_stimuli\L_Torso_Y_For.mp4,4,,,,,,,,,,,,,0,96,96,96,,,,,,,,,,,,,,,,,,,3240.5639536,3242.6324856,,,3257.4350949,3257.4350949,3257.4350949,2,0.6786612000000645,3258.1304741999998,3258.1304741999998,3258.1304741999998,3258.1304741999998,3258.1304741999998,3258.1304741999998,3258.1304741999998,3258.1304741999998,None,None,None,,,,,,,,,,3240.5639536,3240.5639536,None,,,,3240.5639536,3240.5639536,3253.8000815,4,001,2024-07-15_14h06.29.468,robot_cogshifting_sign,2022.2.5,59.7266312089576,
