sequence,is_true,target,condition,stimuli,block,is_block_beginning,is_block_ending,sequence_fnames,target_fname,subject,retraining.thisRepN,retraining.thisTrialN,retraining.thisN,retraining.thisIndex,training.thisRepN,training.thisTrialN,training.thisN,training.thisIndex,training_sequence_loop.thisRepN,training_sequence_loop.thisTrialN,training_sequence_loop.thisN,training_sequence_loop.thisIndex,trials.thisRepN,trials.thisTrialN,trials.thisN,trials.thisIndex,sequence_loop.thisRepN,sequence_loop.thisTrialN,sequence_loop.thisN,sequence_loop.thisIndex,langage_text.started,langage_key.started,langage_key.keys,langage_key.rt,intro_text.started,intro_key.started,intro_key.keys,intro_key.rt,training_intro_text.started,training_intro_key.started,training_intro_key.keys,training_intro_key.rt,polygon.started,polygon.stopped,training_presentation_letter.started,training_presentation_letter.stopped,training_recall_letter.started,training_recall_key.started,training_recall_question.started,training_recall_answer.started,training_recall_key.keys,training_recall_key.rt,RSME_labels.started,RSME_labels.stopped,RSME_ticks.started,RSME_ticks.stopped,RSME_text.started,RSME_text.stopped,RSME_key.started,RSME_key.stopped,RSME_ticks.response,RSME_ticks.rt,RSME_key.keys,training_intro_text.stopped,training_intro_key.stopped,RSME_key.rt,training_presentation_movie.started,training_recall_movie.started,experiment_beginning_text.started,experiment_beginning_keys.started,experiment_beginning_key.started,experiment_beginning_key.keys,experiment_beginning_key.rt,block_intro_text.started,block_intro_key.started,block_intro_key.keys,block_intro_key.rt,presentation_letter.started,presentation_letter.stopped,recall_letter.started,recall_key.started,recall_question.started,recall_answer.started,recall_key.keys,recall_key.rt,block_intro_text.stopped,block_intro_key.stopped,presentation_movie.started,recall_movie.started,participant,session,date,expName,psychopyVersion,frameRate,
,,,,,,,,,,,,,,,,,,,,,,,,,,,,,,,13.253569000000027,13.253569000000027,f,28.74141579999997,,,,,,,,,,,,,,,,,,,,,,,,,,,,,,,,,,,,,,,,,,,,,,,,,,,,,,,,0,001,2024-06-11_13h39.16.200,robot_sternberg_sign,2022.2.5,60.11045897940956,
,,,,,,,,,,,,,,,,,,,,,,,,,,,,,,,,,,,42.055812600000024,42.055812600000024,space,1807.8065576999998,,,,,,,,,,,,,,,,,,,,,,,,,,,,,,,,,,,,,,,,,,,,,,,,,,,,0,001,2024-06-11_13h39.16.200,robot_sternberg_sign,2022.2.5,60.11045897940956,
"['H', 'W']",True,H,2,letter,1,True,False,"['robot_stimuli\\\\filler.mp4', 'robot_stimuli\\\\filler.mp4']",robot_stimuli\\filler.mp4,0,0,0,0,0,0,0,0,0,,,,,,,,,,,,,,,,,,,,,1849.9021888000002,1849.9021888000002,space,4.623685099999932,1860.5348126,1861.6132661000001,1858.316284,1860.5348126,1861.6132661000001,1861.6132661000001,1861.6132661000001,1861.6132661000001,c,1.3916611999998736,1863.3445398,1863.3445398,1863.3445398,1863.3445398,1863.3445398,1863.3445398,1863.3445398,1863.3445398,None,None,None,,,,,,,,,,,,,,,,,,,,,,,,,,,0,001,2024-06-11_13h39.16.200,robot_sternberg_sign,2022.2.5,60.11045897940956,
"['R', 'G']",True,G,2,letter,1,False,False,"['robot_stimuli\\\\filler.mp4', 'robot_stimuli\\\\filler.mp4']",robot_stimuli\\filler.mp4,0,0,0,0,0,0,1,1,1,,,,,,,,,,,,,,,,,,,,,1863.3445398,1863.3445398,None,,1868.7360987000002,1869.8005432,1866.7186099,1868.7360987000002,1869.8005432,1869.8005432,1869.8005432,1869.8005432,c,0.9318389999999113,1870.8340359,1870.8340359,1870.8340359,1870.8340359,1870.8340359,1870.8340359,1870.8340359,1870.8340359,None,None,None,1863.3445398,1863.3445398,,,,,,,,,,,,,,,,,,,,,,,,,0,001,2024-06-11_13h39.16.200,robot_sternberg_sign,2022.2.5,60.11045897940956,
"['L', 'B']",False,J,2,letter,1,False,True,"['robot_stimuli\\\\filler.mp4', 'robot_stimuli\\\\filler.mp4']",robot_stimuli\\filler.mp4,0,0,0,0,0,0,2,2,2,,,,,,,,,,,,,,,,,,,,,1870.8340359,1870.8340359,None,,1876.4399538000002,1877.5197156,1874.2287581,1876.4399538000002,1877.5197156,1877.5197156,1877.5197156,1877.5197156,n,0.9258385999997358,1878.6137859,1892.1377311,1878.6137859,1892.1377311,1878.6137859,1892.1377311,1878.6137859,1892.1377311,22.43827160493827,11.740657700000156,space,1870.8340359,1870.8340359,13.463128500000096,,,,,,,,,,,,,,,,,,,,,,,,0,001,2024-06-11_13h39.16.200,robot_sternberg_sign,2022.2.5,60.11045897940956,
"['F', 'R', 'J', 'V']",False,W,4,letter,1,True,False,"['robot_stimuli\\\\filler.mp4', 'robot_stimuli\\\\filler.mp4', 'robot_stimuli\\\\filler.mp4', 'robot_stimuli\\\\filler.mp4']",robot_stimuli\\filler.mp4,0,0,0,0,0,0,3,3,3,,,,,,,,,,,,,,,,,,,,,1892.1377311,1892.1377311,space,7.083170199999643,1909.2524829,1910.3185209000003,1907.0376695999998,1909.2524829,1910.3185209000003,1910.3185209000003,1910.3185209000003,1910.3185209000003,n,0.9275384999996845,1911.3438032,1911.3438032,1911.3438032,1911.3438032,1911.3438032,1911.3438032,1911.3438032,1911.3438032,None,None,None,,,,,,,,,,,,,,,,,,,,,,,,,,,0,001,2024-06-11_13h39.16.200,robot_sternberg_sign,2022.2.5,60.11045897940956,
"['Q', 'H', 'P', 'B']",True,H,4,letter,1,False,False,"['robot_stimuli\\\\filler.mp4', 'robot_stimuli\\\\filler.mp4', 'robot_stimuli\\\\filler.mp4', 'robot_stimuli\\\\filler.mp4']",robot_stimuli\\filler.mp4,0,0,0,0,0,0,4,4,4,,,,,,,,,,,,,,,,,,,,,1911.3438032,1911.3438032,None,,1921.1449006000003,1922.2182547000002,1919.1266114999999,1921.1449006000003,1922.2182547000002,1922.2182547000002,1922.2182547000002,1922.2182547000002,c,1.0835374999997498,1923.4510415,1923.4510415,1923.4510415,1923.4510415,1923.4510415,1923.4510415,1923.4510415,1923.4510415,None,None,None,1911.3438032,1911.3438032,,,,,,,,,,,,,,,,,,,,,,,,,0,001,2024-06-11_13h39.16.200,robot_sternberg_sign,2022.2.5,60.11045897940956,
"['H', 'Q', 'V', 'N']",True,N,4,letter,1,False,True,"['robot_stimuli\\\\filler.mp4', 'robot_stimuli\\\\filler.mp4', 'robot_stimuli\\\\filler.mp4', 'robot_stimuli\\\\filler.mp4']",robot_stimuli\\filler.mp4,0,0,0,0,0,0,5,5,5,,,,,,,,,,,,,,,,,,,,,1923.4510415,1923.4510415,None,,1932.8403884,1933.9168533000002,1930.8206187,1932.8403884,1933.9168533000002,1933.9168533000002,1933.9168533000002,1933.9168533000002,c,1.0564947000003144,1935.1747056,1940.5973402,1935.1747056,1940.5973402,1935.1747056,1940.5973402,1935.1747056,1940.5973402,25.524691358024683,3.645979100000204,space,1923.4510415,1923.4510415,5.36645089999962,,,,,,,,,,,,,,,,,,,,,,,,0,001,2024-06-11_13h39.16.200,robot_sternberg_sign,2022.2.5,60.11045897940956,
"['L', 'V', 'F', 'K', 'W', 'Q']",True,Q,6,letter,1,True,False,"['robot_stimuli\\\\filler.mp4', 'robot_stimuli\\\\filler.mp4', 'robot_stimuli\\\\filler.mp4', 'robot_stimuli\\\\filler.mp4', 'robot_stimuli\\\\filler.mp4', 'robot_stimuli\\\\filler.mp4']",robot_stimuli\\filler.mp4,0,0,0,0,0,0,6,6,6,,,,,,,,,,,,,,,,,,,,,1940.5973402,1940.5973402,space,1.6569866000000388,1956.6932876,1957.7615157,1954.4791831000002,1956.6932876,1957.7615157,1957.7615157,1957.7615157,1957.7615157,c,0.9326024000002349,1958.7888882000002,1958.7888882000002,1958.7888882000002,1958.7888882000002,1958.7888882000002,1958.7888882000002,1958.7888882000002,1958.7888882000002,None,None,None,,,,,,,,,,,,,,,,,,,,,,,,,,,0,001,2024-06-11_13h39.16.200,robot_sternberg_sign,2022.2.5,60.11045897940956,
"['S', 'L', 'Q', 'X', 'C', 'T']",True,X,6,letter,1,False,False,"['robot_stimuli\\\\filler.mp4', 'robot_stimuli\\\\filler.mp4', 'robot_stimuli\\\\filler.mp4', 'robot_stimuli\\\\filler.mp4', 'robot_stimuli\\\\filler.mp4', 'robot_stimuli\\\\filler.mp4']",robot_stimuli\\filler.mp4,0,0,0,0,0,0,7,7,7,,,,,,,,,,,,,,,,,,,,,1958.7888882000002,1958.7888882000002,None,,1973.0071661000002,1974.0802566000002,1970.7928417000003,1973.0071661000002,1974.0802566000002,1974.0802566000002,1974.0802566000002,1974.0802566000002,c,1.5416719000000398,1975.7092963,1975.7092963,1975.7092963,1975.7092963,1975.7092963,1975.7092963,1975.7092963,1975.7092963,None,None,None,1958.7888882000002,1958.7888882000002,,,,,,,,,,,,,,,,,,,,,,,,,0,001,2024-06-11_13h39.16.200,robot_sternberg_sign,2022.2.5,60.11045897940956,
"['Z', 'B', 'C', 'G', 'L', 'F']",False,J,6,letter,1,False,True,"['robot_stimuli\\\\filler.mp4', 'robot_stimuli\\\\filler.mp4', 'robot_stimuli\\\\filler.mp4', 'robot_stimuli\\\\filler.mp4', 'robot_stimuli\\\\filler.mp4', 'robot_stimuli\\\\filler.mp4']",robot_stimuli\\filler.mp4,0,0,0,0,0,0,8,8,8,,,,,,,,,,,,,,,,,,,,,1975.7092963,1975.7092963,None,,1989.4784313,1990.5476094,1987.4638963000002,1989.4784313,1990.5476094,1990.5476094,1990.5476094,1990.5476094,n,1.0505848999997056,1991.8047891,1999.0154469,1991.8047891,1999.0154469,1991.8047891,1999.0154469,1991.8047891,1999.0154469,28.14814814814814,2.61271140000008,space,1975.7092963,1975.7092963,7.143725799999686,,,,,,,,,,,,,,,,,,,,,,,,0,001,2024-06-11_13h39.16.200,robot_sternberg_sign,2022.2.5,60.11045897940956,
"['L_Base_X_Back', 'R_Arm_Z_For']",False,L_Head_Y_Back,2,robot,2,True,False,"['robot_stimuli\\L_Base_X_Back.mp4', 'robot_stimuli\\R_Arm_Z_For.mp4']",robot_stimuli\L_Head_Y_Back.mp4,0,0,0,0,0,0,9,9,9,,,,,,,,,,,,,,,,,,,,,1999.0154469,1999.0154469,space,1.934517499999913,2009.3973707999999,2010.4999629,,,,2010.4999629,2010.4999629,2010.4999629,n,2.729571599999929,2014.1505493,2014.1505493,2014.1505493,2014.1505493,2014.1505493,2014.1505493,2014.1505493,2014.1505493,None,None,None,,,,2005.7658895,2010.4999629,,,,,,,,,,,,,,,,,,,,,,0,001,2024-06-11_13h39.16.200,robot_sternberg_sign,2022.2.5,60.11045897940956,
"['L_Head_Z_For', 'L_Arm_Y_For']",True,L_Head_Z_For,2,robot,2,False,False,"['robot_stimuli\\L_Head_Z_For.mp4', 'robot_stimuli\\L_Arm_Y_For.mp4']",robot_stimuli\L_Head_Z_For.mp4,0,0,0,0,0,0,10,10,10,,,,,,,,,,,,,,,,,,,,,2014.1505493,2014.1505493,None,,2022.6076595,2023.703857,,,,2023.703857,2023.703857,2023.703857,c,4.110167200000035,2027.8536817,2027.8536817,2027.8536817,2027.8536817,2027.8536817,2027.8536817,2027.8536817,2027.8536817,None,None,None,2014.1505493,2014.1505493,,2018.9756456999999,2023.703857,,,,,,,,,,,,,,,,,,,,,,0,001,2024-06-11_13h39.16.200,robot_sternberg_sign,2022.2.5,60.11045897940956,
"['R_Base_Z_Back', 'R_Base_Z_For']",True,R_Base_Z_Back,2,robot,2,False,True,"['robot_stimuli\\R_Base_Z_Back.mp4', 'robot_stimuli\\R_Base_Z_For.mp4']",robot_stimuli\R_Base_Z_Back.mp4,0,0,0,0,0,0,11,11,11,,,,,,,,,,,,,,,,,,,,,2027.8536817,2027.8536817,None,,2036.2129156,2037.3144625,,,,2037.3144625,2037.3144625,2037.3144625,c,2.6831011999998395,2040.8853921,2047.9366663,2040.8853921,2047.9366663,2040.8853921,2047.9366663,2040.8853921,2047.9366663,21.975308641975307,6.094175499999892,space,2027.8536817,2027.8536817,6.991264499999545,2032.5710757000002,2037.3144625,,,,,,,,,,,,,,,,,,,,,,0,001,2024-06-11_13h39.16.200,robot_sternberg_sign,2022.2.5,60.11045897940956,
"['L_Torso_Z_For', 'R_Torso_Y_Back', 'L_Torso_Z_Back', 'L_Arm_Y_For']",True,L_Torso_Z_Back,4,robot,2,True,False,"['robot_stimuli\\L_Torso_Z_For.mp4', 'robot_stimuli\\R_Torso_Y_Back.mp4', 'robot_stimuli\\L_Torso_Z_Back.mp4', 'robot_stimuli\\L_Arm_Y_For.mp4']",robot_stimuli\L_Torso_Z_Back.mp4,0,0,0,0,0,0,12,12,12,,,,,,,,,,,,,,,,,,,,,2047.9366663,2047.9366663,space,4.115930099999844,2067.8943136000003,2068.9829606,,,,2068.9829606,2068.9829606,2068.9829606,c,2.717956999999899,2072.5003637,2072.5003637,2072.5003637,2072.5003637,2072.5003637,2072.5003637,2072.5003637,2072.5003637,None,None,None,,,,2064.2470831,2068.9829606,,,,,,,,,,,,,,,,,,,,,,0,001,2024-06-11_13h39.16.200,robot_sternberg_sign,2022.2.5,60.11045897940956,
"['R_Head_Y_Back', 'L_Arm_Y_Back', 'L_Base_Z_Back', 'L_Arm_X_Back']",False,R_Head_X_Back,4,robot,2,False,False,"['robot_stimuli\\R_Head_Y_Back.mp4', 'robot_stimuli\\L_Arm_Y_Back.mp4', 'robot_stimuli\\L_Base_Z_Back.mp4', 'robot_stimuli\\L_Arm_X_Back.mp4']",robot_stimuli\R_Head_X_Back.mp4,0,0,0,0,0,0,13,13,13,,,,,,,,,,,,,,,,,,,,,2072.5003637,2072.5003637,None,,2088.4110754,2089.5045567,,,,2089.5045567,2089.5045567,2089.5045567,n,2.9490482000001634,2093.1577129,2093.1577129,2093.1577129,2093.1577129,2093.1577129,2093.1577129,2093.1577129,2093.1577129,None,None,None,2072.5003637,2072.5003637,,2084.7681525000003,2089.5045567,,,,,,,,,,,,,,,,,,,,,,0,001,2024-06-11_13h39.16.200,robot_sternberg_sign,2022.2.5,60.11045897940956,
"['R_Head_Y_Back', 'R_Torso_Y_Back', 'L_Arm_Y_For', 'L_Base_Y_For']",True,L_Arm_Y_For,4,robot,2,False,True,"['robot_stimuli\\R_Head_Y_Back.mp4', 'robot_stimuli\\R_Torso_Y_Back.mp4', 'robot_stimuli\\L_Arm_Y_For.mp4', 'robot_stimuli\\L_Base_Y_For.mp4']",robot_stimuli\L_Arm_Y_For.mp4,0,0,0,0,0,0,14,14,14,,,,,,,,,,,,,,,,,,,,,2093.1577129,2093.1577129,None,,2109.0118937,2110.099431,,,,2110.099431,2110.099431,2110.099431,c,2.354250199999626,2113.7799521,2117.4428221000003,2113.7799521,2117.4428221000003,2113.7799521,2117.4428221000003,2113.7799521,2117.4428221000003,25.524691358024683,2.5028348999999253,space,2093.1577129,2093.1577129,3.601516799999956,2105.4686353,2110.099431,,,,,,,,,,,,,,,,,,,,,,0,001,2024-06-11_13h39.16.200,robot_sternberg_sign,2022.2.5,60.11045897940956,
"['L_Head_Z_For', 'R_Arm_Y_For', 'R_Head_Z_Back', 'L_Arm_Z_Back', 'L_Head_X_For', 'R_Arm_X_For']",True,L_Arm_Z_Back,6,robot,2,True,False,"['robot_stimuli\\L_Head_Z_For.mp4', 'robot_stimuli\\R_Arm_Y_For.mp4', 'robot_stimuli\\R_Head_Z_Back.mp4', 'robot_stimuli\\L_Arm_Z_Back.mp4', 'robot_stimuli\\L_Head_X_For.mp4', 'robot_stimuli\\R_Arm_X_For.mp4']",robot_stimuli\L_Arm_Z_Back.mp4,0,0,0,0,0,0,15,15,15,,,,,,,,,,,,,,,,,,,,,2117.4428221000003,2117.4428221000003,space,1.1154455999999868,2141.7225171,2119.6671286,,,,2142.814226,2142.814226,2142.814226,c,3.4875370000000316,2146.4540221,2146.4540221,2146.4540221,2146.4540221,2146.4540221,2146.4540221,2146.4540221,2146.4540221,None,None,None,,,,2138.0977919,2142.814226,,,,,,,,,,,,,,,,,,,,,,0,001,2024-06-11_13h39.16.200,robot_sternberg_sign,2022.2.5,60.11045897940956,
"['R_Torso_Y_Back', 'R_Head_X_For', 'L_Base_Z_Back', 'R_Arm_Y_For', 'L_Torso_Y_Back', 'L_Head_Y_For']",False,R_Torso_X_Back,6,robot,2,False,False,"['robot_stimuli\\R_Torso_Y_Back.mp4', 'robot_stimuli\\R_Head_X_For.mp4', 'robot_stimuli\\L_Base_Z_Back.mp4', 'robot_stimuli\\R_Arm_Y_For.mp4', 'robot_stimuli\\L_Torso_Y_Back.mp4', 'robot_stimuli\\L_Head_Y_For.mp4']",robot_stimuli\R_Torso_X_Back.mp4,0,0,0,0,0,0,16,16,16,,,,,,,,,,,,,,,,,,,,,2146.4540221,2146.4540221,None,,2169.4710742,2170.553326,,,,2170.553326,2170.553326,2170.553326,n,5.22878390000011,2175.8150060000003,2175.8150060000003,2175.8150060000003,2175.8150060000003,2175.8150060000003,2175.8150060000003,2175.8150060000003,2175.8150060000003,None,None,None,2146.4540221,2146.4540221,,2165.8472672000003,2170.553326,,,,,,,,,,,,,,,,,,,,,,0,001,2024-06-11_13h39.16.200,robot_sternberg_sign,2022.2.5,60.11045897940956,
"['R_Arm_Y_For', 'R_Arm_Y_Back', 'R_Head_Z_Back', 'R_Base_Z_Back', 'R_Torso_X_Back', 'L_Arm_Z_For']",True,R_Arm_Y_For,6,robot,2,False,True,"['robot_stimuli\\R_Arm_Y_For.mp4', 'robot_stimuli\\R_Arm_Y_Back.mp4', 'robot_stimuli\\R_Head_Z_Back.mp4', 'robot_stimuli\\R_Base_Z_Back.mp4', 'robot_stimuli\\R_Torso_X_Back.mp4', 'robot_stimuli\\L_Arm_Z_For.mp4']",robot_stimuli\R_Arm_Y_For.mp4,0,0,0,0,0,0,17,17,17,,,,,,,,,,,,,,,,,,,,,2175.8150060000003,2175.8150060000003,None,,2198.9930004000003,2200.0904547,,,,2200.0904547,2200.0904547,2200.0904547,c,2.6825371000000473,2203.6265258,2209.1933598,2203.6265258,2209.1933598,2203.6265258,2209.1933598,2203.6265258,2209.1933598,32.160493827160494,4.000184799999715,space,2175.8150060000003,2175.8150060000003,5.5225571999995395,2195.350738,2200.0904547,,,,,,,,,,,,,,,,,,,,,,0,001,2024-06-11_13h39.16.200,robot_sternberg_sign,2022.2.5,60.11045897940956,
,,,,,,,,,,,0,0,0,0,,,,,,,,,,,,,,,,,,,,,,,,,,,,,,,,,,,,,,,,,,,,,,,,,,,,,,,2209.1933598,2209.1933598,2209.1933598,c,7.453157900000008,,,,,,,,,,,,,,,,,0,001,2024-06-11_13h39.16.200,robot_sternberg_sign,2022.2.5,60.11045897940956,
"['C', 'P', 'V', 'T', 'R', 'H']",False,Q,6,letter,1,True,False,"['robot_stimuli\\\\filler.mp4', 'robot_stimuli\\\\filler.mp4', 'robot_stimuli\\\\filler.mp4', 'robot_stimuli\\\\filler.mp4', 'robot_stimuli\\\\filler.mp4', 'robot_stimuli\\\\filler.mp4']",robot_stimuli\\filler.mp4,0,,,,,,,,,,,,,0,0,0,0,,,,,,,,,,,,,,,,,2234.4420994,2235.519557,,,,,,,,,2236.7394157,2236.7394157,2236.7394157,2236.7394157,2236.7394157,2236.7394157,2236.7394157,2236.7394157,None,None,None,,,,,,,,,,,2216.6864427,2216.6864427,space,3.631840800000248,2232.2266106,2234.4420994,2235.519557,2235.519557,2235.519557,2235.519557,n,1.1179612000001384,,,,,0,001,2024-06-11_13h39.16.200,robot_sternberg_sign,2022.2.5,60.11045897940956,
"['T', 'F', 'Q', 'G', 'L', 'M']",True,G,6,letter,1,False,False,"['robot_stimuli\\\\filler.mp4', 'robot_stimuli\\\\filler.mp4', 'robot_stimuli\\\\filler.mp4', 'robot_stimuli\\\\filler.mp4', 'robot_stimuli\\\\filler.mp4', 'robot_stimuli\\\\filler.mp4']",robot_stimuli\\filler.mp4,0,,,,,,,,,,,,,0,1,1,1,,,,,,,,,,,,,,,,,2250.8581088,2251.9255033,,,,,,,,,2252.9525954,2252.9525954,2252.9525954,2252.9525954,2252.9525954,2252.9525954,2252.9525954,2252.9525954,None,None,None,,,,,,,,,,,2236.7394157,2236.7394157,None,,2248.6422682,2250.8581088,2251.9255033,2251.9255033,2251.9255033,2251.9255033,c,0.9445117000000778,2236.7394157,2236.7394157,,,0,001,2024-06-11_13h39.16.200,robot_sternberg_sign,2022.2.5,60.11045897940956,
"['T', 'F', 'Q', 'C', 'M', 'S']",True,C,6,letter,1,False,False,"['robot_stimuli\\\\filler.mp4', 'robot_stimuli\\\\filler.mp4', 'robot_stimuli\\\\filler.mp4', 'robot_stimuli\\\\filler.mp4', 'robot_stimuli\\\\filler.mp4', 'robot_stimuli\\\\filler.mp4']",robot_stimuli\\filler.mp4,0,,,,,,,,,,,,,0,2,2,2,,,,,,,,,,,,,,,,,2266.4459203,2267.5081048,,,,,,,,,2269.1353569000003,2269.1353569000003,2269.1353569000003,2269.1353569000003,2269.1353569000003,2269.1353569000003,2269.1353569000003,2269.1353569000003,None,None,None,,,,,,,,,,,2252.9525954,2252.9525954,None,,2264.4302902,2266.4459203,2267.5081048,2267.5081048,2267.5081048,2267.5081048,c,1.522397599999806,2252.9525954,2252.9525954,,,0,001,2024-06-11_13h39.16.200,robot_sternberg_sign,2022.2.5,60.11045897940956,
"['S', 'L', 'N', 'J', 'V', 'G']",False,C,6,letter,1,False,False,"['robot_stimuli\\\\filler.mp4', 'robot_stimuli\\\\filler.mp4', 'robot_stimuli\\\\filler.mp4', 'robot_stimuli\\\\filler.mp4', 'robot_stimuli\\\\filler.mp4', 'robot_stimuli\\\\filler.mp4']",robot_stimuli\\filler.mp4,0,,,,,,,,,,,,,0,3,3,3,,,,,,,,,,,,,,,,,2283.4230107,2270.1897431,,,,,,,,,2286.7188568,2286.7188568,2286.7188568,2286.7188568,2286.7188568,2286.7188568,2286.7188568,2286.7188568,None,None,None,,,,,,,,,,,2269.1353569000003,2269.1353569000003,None,,2281.4009669,2283.4230107,2284.4918125,2284.4918125,2284.4918125,2284.4918125,n,2.042701699999782,2269.1353569000003,2269.1353569000003,,,0,001,2024-06-11_13h39.16.200,robot_sternberg_sign,2022.2.5,60.11045897940956,
"['C', 'T', 'D', 'R', 'Q', 'F']",True,C,6,letter,1,False,False,"['robot_stimuli\\\\filler.mp4', 'robot_stimuli\\\\filler.mp4', 'robot_stimuli\\\\filler.mp4', 'robot_stimuli\\\\filler.mp4', 'robot_stimuli\\\\filler.mp4', 'robot_stimuli\\\\filler.mp4']",robot_stimuli\\filler.mp4,0,,,,,,,,,,,,,0,4,4,4,,,,,,,,,,,,,,,,,2301.0270212,2302.0899808,,,,,,,,,2303.715468,2303.715468,2303.715468,2303.715468,2303.715468,2303.715468,2303.715468,2303.715468,None,None,None,,,,,,,,,,,2286.7188568,2286.7188568,None,,2298.8059344,2301.0270212,2302.0899808,2302.0899808,2302.0899808,2302.0899808,c,1.5487537999998153,2286.7188568,2286.7188568,,,0,001,2024-06-11_13h39.16.200,robot_sternberg_sign,2022.2.5,60.11045897940956,
"['F', 'N', 'T', 'D', 'B', 'X']",False,L,6,letter,1,False,False,"['robot_stimuli\\\\filler.mp4', 'robot_stimuli\\\\filler.mp4', 'robot_stimuli\\\\filler.mp4', 'robot_stimuli\\\\filler.mp4', 'robot_stimuli\\\\filler.mp4', 'robot_stimuli\\\\filler.mp4']",robot_stimuli\\filler.mp4,0,,,,,,,,,,,,,0,5,5,5,,,,,,,,,,,,,,,,,2318.0110846000002,2319.0851801,,,,,,,,,2320.7089321,2320.7089321,2320.7089321,2320.7089321,2320.7089321,2320.7089321,2320.7089321,2320.7089321,None,None,None,,,,,,,,,,,2303.715468,2303.715468,None,,2315.9964131,2318.0110846000002,2319.0851801,2319.0851801,2319.0851801,2319.0851801,n,1.4570371999998883,2303.715468,2303.715468,,,0,001,2024-06-11_13h39.16.200,robot_sternberg_sign,2022.2.5,60.11045897940956,
"['P', 'J', 'D', 'H', 'M', 'B']",True,D,6,letter,1,False,False,"['robot_stimuli\\\\filler.mp4', 'robot_stimuli\\\\filler.mp4', 'robot_stimuli\\\\filler.mp4', 'robot_stimuli\\\\filler.mp4', 'robot_stimuli\\\\filler.mp4', 'robot_stimuli\\\\filler.mp4']",robot_stimuli\\filler.mp4,0,,,,,,,,,,,,,0,6,6,6,,,,,,,,,,,,,,,,,2334.8222517,2321.7775477,,,,,,,,,2338.5237451000003,2338.5237451000003,2338.5237451000003,2338.5237451000003,2338.5237451000003,2338.5237451000003,2338.5237451000003,2338.5237451000003,None,None,None,,,,,,,,,,,2320.7089321,2320.7089321,None,,2332.6086241000003,2334.8222517,2335.8916834,2335.8916834,2335.8916834,2335.8916834,c,2.4664620999997737,2320.7089321,2320.7089321,,,0,001,2024-06-11_13h39.16.200,robot_sternberg_sign,2022.2.5,60.11045897940956,
"['F', 'Z', 'P', 'C', 'G', 'D']",False,R,6,letter,1,False,False,"['robot_stimuli\\\\filler.mp4', 'robot_stimuli\\\\filler.mp4', 'robot_stimuli\\\\filler.mp4', 'robot_stimuli\\\\filler.mp4', 'robot_stimuli\\\\filler.mp4', 'robot_stimuli\\\\filler.mp4']",robot_stimuli\\filler.mp4,0,,,,,,,,,,,,,0,7,7,7,,,,,,,,,,,,,,,,,2352.4542244,2353.5081095,,,,,,,,,2355.7311718,2355.7311718,2355.7311718,2355.7311718,2355.7311718,2355.7311718,2355.7311718,2355.7311718,None,None,None,,,,,,,,,,,2338.5237451000003,2338.5237451000003,None,,2350.2450761,2352.4542244,2353.5081095,2353.5081095,2353.5081095,2353.5081095,n,2.0888568999999393,2338.5237451000003,2338.5237451000003,,,0,001,2024-06-11_13h39.16.200,robot_sternberg_sign,2022.2.5,60.11045897940956,
"['Q', 'V', 'G', 'T', 'X', 'S']",False,F,6,letter,1,False,False,"['robot_stimuli\\\\filler.mp4', 'robot_stimuli\\\\filler.mp4', 'robot_stimuli\\\\filler.mp4', 'robot_stimuli\\\\filler.mp4', 'robot_stimuli\\\\filler.mp4', 'robot_stimuli\\\\filler.mp4']",robot_stimuli\\filler.mp4,0,,,,,,,,,,,,,0,8,8,8,,,,,,,,,,,,,,,,,2369.8547351,2370.911353,,,,,,,,,2374.5475756,2374.5475756,2374.5475756,2374.5475756,2374.5475756,2374.5475756,2374.5475756,2374.5475756,None,None,None,,,,,,,,,,,2355.7311718,2355.7311718,None,,2367.8362003,2369.8547351,2370.911353,2370.911353,2370.911353,2370.911353,n,3.5110717999996837,2355.7311718,2355.7311718,,,0,001,2024-06-11_13h39.16.200,robot_sternberg_sign,2022.2.5,60.11045897940956,
"['F', 'H', 'M', 'C', 'J', 'V']",True,M,6,letter,1,False,True,"['robot_stimuli\\\\filler.mp4', 'robot_stimuli\\\\filler.mp4', 'robot_stimuli\\\\filler.mp4', 'robot_stimuli\\\\filler.mp4', 'robot_stimuli\\\\filler.mp4', 'robot_stimuli\\\\filler.mp4']",robot_stimuli\\filler.mp4,0,,,,,,,,,,,,,0,9,9,9,,,,,,,,,,,,,,,,,2388.451284,2389.511165,,,,,,,,,2391.5720242,2405.1226178,2391.5720242,2405.1226178,2391.5720242,2405.1226178,2391.5720242,2405.1226178,39.104938271604944,3.9636342999997396,space,,,13.50554339999968,,,,,,,,2374.5475756,2374.5475756,None,,2386.4300005,2388.451284,2389.511165,2389.511165,2389.511165,2389.511165,c,1.9419573999999216,2374.5475756,2374.5475756,,,0,001,2024-06-11_13h39.16.200,robot_sternberg_sign,2022.2.5,60.11045897940956,
"['Z', 'D', 'T', 'H']",False,L,4,letter,1,True,False,"['robot_stimuli\\\\filler.mp4', 'robot_stimuli\\\\filler.mp4', 'robot_stimuli\\\\filler.mp4', 'robot_stimuli\\\\filler.mp4']",robot_stimuli\\filler.mp4,0,,,,,,,,,,,,,0,10,10,10,,,,,,,,,,,,,,,,,2420.117179,2421.178398,,,,,,,,,2422.2022334000003,2422.2022334000003,2422.2022334000003,2422.2022334000003,2422.2022334000003,2422.2022334000003,2422.2022334000003,2422.2022334000003,None,None,None,,,,,,,,,,,2405.1226178,2405.1226178,space,5.243768599999896,2418.1000725,2420.117179,2421.178398,2421.178398,2421.178398,2421.178398,n,0.8751988999998161,,,,,0,001,2024-06-11_13h39.16.200,robot_sternberg_sign,2022.2.5,60.11045897940956,
"['B', 'S', 'P', 'X']",False,H,4,letter,1,False,False,"['robot_stimuli\\\\filler.mp4', 'robot_stimuli\\\\filler.mp4', 'robot_stimuli\\\\filler.mp4', 'robot_stimuli\\\\filler.mp4']",robot_stimuli\\filler.mp4,0,,,,,,,,,,,,,0,11,11,11,,,,,,,,,,,,,,,,,2431.750007,2432.8096663,,,,,,,,,2433.8360794,2433.8360794,2433.8360794,2433.8360794,2433.8360794,2433.8360794,2433.8360794,2433.8360794,None,None,None,,,,,,,,,,,2422.2022334000003,2422.2022334000003,None,,2429.7295053000003,2431.750007,2432.8096663,2432.8096663,2432.8096663,2432.8096663,n,0.8847919999998908,2422.2022334000003,2422.2022334000003,,,0,001,2024-06-11_13h39.16.200,robot_sternberg_sign,2022.2.5,60.11045897940956,
"['V', 'T', 'J', 'Q']",False,F,4,letter,1,False,False,"['robot_stimuli\\\\filler.mp4', 'robot_stimuli\\\\filler.mp4', 'robot_stimuli\\\\filler.mp4', 'robot_stimuli\\\\filler.mp4']",robot_stimuli\\filler.mp4,0,,,,,,,,,,,,,0,12,12,12,,,,,,,,,,,,,,,,,2443.3686464,2444.4257721,,,,,,,,,2445.4473854000003,2445.4473854000003,2445.4473854000003,2445.4473854000003,2445.4473854000003,2445.4473854000003,2445.4473854000003,2445.4473854000003,None,None,None,,,,,,,,,,,2433.8360794,2433.8360794,None,,2441.156436,2443.3686464,2444.4257721,2444.4257721,2444.4257721,2444.4257721,n,0.8366373999998018,2433.8360794,2433.8360794,,,0,001,2024-06-11_13h39.16.200,robot_sternberg_sign,2022.2.5,60.11045897940956,
"['D', 'B', 'J', 'K']",True,K,4,letter,1,False,False,"['robot_stimuli\\\\filler.mp4', 'robot_stimuli\\\\filler.mp4', 'robot_stimuli\\\\filler.mp4', 'robot_stimuli\\\\filler.mp4']",robot_stimuli\\filler.mp4,0,,,,,,,,,,,,,0,13,13,13,,,,,,,,,,,,,,,,,2455.2049851,2456.2732323,,,,,,,,,2457.6940184,2457.6940184,2457.6940184,2457.6940184,2457.6940184,2457.6940184,2457.6940184,2457.6940184,None,None,None,,,,,,,,,,,2445.4473854000003,2445.4473854000003,None,,2453.1780258,2455.2049851,2456.2732323,2456.2732323,2456.2732323,2456.2732323,c,1.253311599999563,2445.4473854000003,2445.4473854000003,,,0,001,2024-06-11_13h39.16.200,robot_sternberg_sign,2022.2.5,60.11045897940956,
"['Q', 'V', 'X', 'G']",True,Q,4,letter,1,False,False,"['robot_stimuli\\\\filler.mp4', 'robot_stimuli\\\\filler.mp4', 'robot_stimuli\\\\filler.mp4', 'robot_stimuli\\\\filler.mp4']",robot_stimuli\\filler.mp4,0,,,,,,,,,,,,,0,14,14,14,,,,,,,,,,,,,,,,,2467.2463464,2468.3091026,,,,,,,,,2469.3310399,2469.3310399,2469.3310399,2469.3310399,2469.3310399,2469.3310399,2469.3310399,2469.3310399,None,None,None,,,,,,,,,,,2457.6940184,2457.6940184,None,,2465.0255759,2467.2463464,2468.3091026,2468.3091026,2468.3091026,2468.3091026,c,0.9688842999999565,2457.6940184,2457.6940184,,,0,001,2024-06-11_13h39.16.200,robot_sternberg_sign,2022.2.5,60.11045897940956,
"['G', 'V', 'M', 'P']",True,G,4,letter,1,False,False,"['robot_stimuli\\\\filler.mp4', 'robot_stimuli\\\\filler.mp4', 'robot_stimuli\\\\filler.mp4', 'robot_stimuli\\\\filler.mp4']",robot_stimuli\\filler.mp4,0,,,,,,,,,,,,,0,15,15,15,,,,,,,,,,,,,,,,,2478.6649178000002,2479.7258447,,,,,,,,,2480.9570067,2480.9570067,2480.9570067,2480.9570067,2480.9570067,2480.9570067,2480.9570067,2480.9570067,None,None,None,,,,,,,,,,,2469.3310399,2469.3310399,None,,2476.6486066,2478.6649178000002,2479.7258447,2479.7258447,2479.7258447,2479.7258447,c,1.0001748999998767,2469.3310399,2469.3310399,,,0,001,2024-06-11_13h39.16.200,robot_sternberg_sign,2022.2.5,60.11045897940956,
"['T', 'S', 'R', 'X']",False,K,4,letter,1,False,False,"['robot_stimuli\\\\filler.mp4', 'robot_stimuli\\\\filler.mp4', 'robot_stimuli\\\\filler.mp4', 'robot_stimuli\\\\filler.mp4']",robot_stimuli\\filler.mp4,0,,,,,,,,,,,,,0,16,16,16,,,,,,,,,,,,,,,,,2490.703714,2491.7600272,,,,,,,,,2493.9848213,2493.9848213,2493.9848213,2493.9848213,2493.9848213,2493.9848213,2493.9848213,2493.9848213,None,None,None,,,,,,,,,,,2480.9570067,2480.9570067,None,,2488.4910058,2490.703714,2491.7600272,2491.7600272,2491.7600272,2491.7600272,n,2.1100326999999766,2480.9570067,2480.9570067,,,0,001,2024-06-11_13h39.16.200,robot_sternberg_sign,2022.2.5,60.11045897940956,
"['V', 'D', 'M', 'J']",True,D,4,letter,1,False,False,"['robot_stimuli\\\\filler.mp4', 'robot_stimuli\\\\filler.mp4', 'robot_stimuli\\\\filler.mp4', 'robot_stimuli\\\\filler.mp4']",robot_stimuli\\filler.mp4,0,,,,,,,,,,,,,0,17,17,17,,,,,,,,,,,,,,,,,2503.7325197,2504.7947763,,,,,,,,,2506.224587,2506.224587,2506.224587,2506.224587,2506.224587,2506.224587,2506.224587,2506.224587,None,None,None,,,,,,,,,,,2493.9848213,2493.9848213,None,,2501.5183476,2503.7325197,2504.7947763,2504.7947763,2504.7947763,2504.7947763,c,1.2428058999999507,2493.9848213,2493.9848213,,,0,001,2024-06-11_13h39.16.200,robot_sternberg_sign,2022.2.5,60.11045897940956,
"['J', 'C', 'S', 'T']",True,C,4,letter,1,False,False,"['robot_stimuli\\\\filler.mp4', 'robot_stimuli\\\\filler.mp4', 'robot_stimuli\\\\filler.mp4', 'robot_stimuli\\\\filler.mp4']",robot_stimuli\\filler.mp4,0,,,,,,,,,,,,,0,18,18,18,,,,,,,,,,,,,,,,,2515.7621427,2516.8253531,,,,,,,,,2517.8486092000003,2517.8486092000003,2517.8486092000003,2517.8486092000003,2517.8486092000003,2517.8486092000003,2517.8486092000003,2517.8486092000003,None,None,None,,,,,,,,,,,2506.224587,2506.224587,None,,2513.7533279,2515.7621427,2516.8253531,2516.8253531,2516.8253531,2516.8253531,c,0.7976294000000621,2506.224587,2506.224587,,,0,001,2024-06-11_13h39.16.200,robot_sternberg_sign,2022.2.5,60.11045897940956,
"['Z', 'X', 'N', 'T']",False,S,4,letter,1,False,True,"['robot_stimuli\\\\filler.mp4', 'robot_stimuli\\\\filler.mp4', 'robot_stimuli\\\\filler.mp4', 'robot_stimuli\\\\filler.mp4']",robot_stimuli\\filler.mp4,0,,,,,,,,,,,,,0,19,19,19,,,,,,,,,,,,,,,,,2527.5871842,2528.6439429,,,,,,,,,2530.0972317,2539.4889812,2530.0972317,2539.4889812,2530.0972317,2539.4889812,2530.0972317,2539.4889812,30.925925925925924,8.000094199999694,space,,,9.34045939999993,,,,,,,,2517.8486092000003,2517.8486092000003,None,,2525.3770488,2527.5871842,2528.6439429,2528.6439429,2528.6439429,2528.6439429,n,1.3703496999997355,2517.8486092000003,2517.8486092000003,,,0,001,2024-06-11_13h39.16.200,robot_sternberg_sign,2022.2.5,60.11045897940956,
"['B', 'P']",True,P,2,letter,1,True,False,"['robot_stimuli\\\\filler.mp4', 'robot_stimuli\\\\filler.mp4']",robot_stimuli\\filler.mp4,0,,,,,,,,,,,,,0,20,20,20,,,,,,,,,,,,,,,,,2549.6411826,2545.1446153,,,,,,,,,2551.5427306,2551.5427306,2551.5427306,2551.5427306,2551.5427306,2551.5427306,2551.5427306,2551.5427306,None,None,None,,,,,,,,,,,2539.4889812,2539.4889812,space,4.573656000000085,2547.428972,2549.6411826,2550.7098481000003,2550.7098481000003,2550.7098481000003,2550.7098481000003,c,0.6249398999999016,,,,,0,001,2024-06-11_13h39.16.200,robot_sternberg_sign,2022.2.5,60.11045897940956,
"['K', 'N']",False,C,2,letter,1,False,False,"['robot_stimuli\\\\filler.mp4', 'robot_stimuli\\\\filler.mp4']",robot_stimuli\\filler.mp4,0,,,,,,,,,,,,,0,21,21,21,,,,,,,,,,,,,,,,,2557.1101243000003,2558.1762373,,,,,,,,,2559.1977534000002,2559.1977534000002,2559.1977534000002,2559.1977534000002,2559.1977534000002,2559.1977534000002,2559.1977534000002,2559.1977534000002,None,None,None,,,,,,,,,,,2551.5427306,2551.5427306,None,,2554.891041,2557.1101243000003,2558.1762373,2558.1762373,2558.1762373,2558.1762373,n,0.8068840999999907,2551.5427306,2551.5427306,,,0,001,2024-06-11_13h39.16.200,robot_sternberg_sign,2022.2.5,60.11045897940956,
"['M', 'T']",True,M,2,letter,1,False,False,"['robot_stimuli\\\\filler.mp4', 'robot_stimuli\\\\filler.mp4']",robot_stimuli\\filler.mp4,0,,,,,,,,,,,,,0,22,22,22,,,,,,,,,,,,,,,,,2564.5679006,2565.6255172,,,,,,,,,2567.0550948,2567.0550948,2567.0550948,2567.0550948,2567.0550948,2567.0550948,2567.0550948,2567.0550948,None,None,None,,,,,,,,,,,2559.1977534000002,2559.1977534000002,None,,2562.5499882,2564.5679006,2565.6255172,2565.6255172,2565.6255172,2565.6255172,c,1.3088424000002874,2559.1977534000002,2559.1977534000002,,,0,001,2024-06-11_13h39.16.200,robot_sternberg_sign,2022.2.5,60.11045897940956,
"['J', 'C']",False,B,2,letter,1,False,False,"['robot_stimuli\\\\filler.mp4', 'robot_stimuli\\\\filler.mp4']",robot_stimuli\\filler.mp4,0,,,,,,,,,,,,,0,23,23,23,,,,,,,,,,,,,,,,,2572.4194693,2573.4760021,,,,,,,,,2575.2997226,2575.2997226,2575.2997226,2575.2997226,2575.2997226,2575.2997226,2575.2997226,2575.2997226,None,None,None,,,,,,,,,,,2567.0550948,2567.0550948,None,,2570.3978488000002,2572.4194693,2573.4760021,2573.4760021,2573.4760021,2573.4760021,n,1.6666173999997795,2567.0550948,2567.0550948,,,0,001,2024-06-11_13h39.16.200,robot_sternberg_sign,2022.2.5,60.11045897940956,
"['M', 'G']",True,M,2,letter,1,False,False,"['robot_stimuli\\\\filler.mp4', 'robot_stimuli\\\\filler.mp4']",robot_stimuli\\filler.mp4,0,,,,,,,,,,,,,0,24,24,24,,,,,,,,,,,,,,,,,2580.6690754,2581.7257828,,,,,,,,,2582.9556985,2582.9556985,2582.9556985,2582.9556985,2582.9556985,2582.9556985,2582.9556985,2582.9556985,None,None,None,,,,,,,,,,,2575.2997226,2575.2997226,None,,2578.6496978,2580.6690754,2581.7257828,2581.7257828,2581.7257828,2581.7257828,c,1.0406275999999366,2575.2997226,2575.2997226,,,0,001,2024-06-11_13h39.16.200,robot_sternberg_sign,2022.2.5,60.11045897940956,
"['Q', 'Z']",False,M,2,letter,1,False,False,"['robot_stimuli\\\\filler.mp4', 'robot_stimuli\\\\filler.mp4']",robot_stimuli\\filler.mp4,0,,,,,,,,,,,,,0,25,25,25,,,,,,,,,,,,,,,,,2588.5223334,2589.5742135,,,,,,,,,2590.4000172,2590.4000172,2590.4000172,2590.4000172,2590.4000172,2590.4000172,2590.4000172,2590.4000172,None,None,None,,,,,,,,,,,2582.9556985,2582.9556985,None,,2586.3086417,2588.5223334,2589.5742135,2589.5742135,2589.5742135,2589.5742135,n,0.768749899999932,2582.9556985,2582.9556985,,,0,001,2024-06-11_13h39.16.200,robot_sternberg_sign,2022.2.5,60.11045897940956,
"['Q', 'X']",True,X,2,letter,1,False,False,"['robot_stimuli\\\\filler.mp4', 'robot_stimuli\\\\filler.mp4']",robot_stimuli\\filler.mp4,0,,,,,,,,,,,,,0,26,26,26,,,,,,,,,,,,,,,,,2595.9759158,2597.0537251,,,,,,,,,2598.0744743,2598.0744743,2598.0744743,2598.0744743,2598.0744743,2598.0744743,2598.0744743,2598.0744743,None,None,None,,,,,,,,,,,2590.4000172,2590.4000172,None,,2593.7571839,2595.9759158,2597.0537251,2597.0537251,2597.0537251,2597.0537251,c,0.8251986000000784,2590.4000172,2590.4000172,,,0,001,2024-06-11_13h39.16.200,robot_sternberg_sign,2022.2.5,60.11045897940956,
"['M', 'D']",False,L,2,letter,1,False,False,"['robot_stimuli\\\\filler.mp4', 'robot_stimuli\\\\filler.mp4']",robot_stimuli\\filler.mp4,0,,,,,,,,,,,,,0,27,27,27,,,,,,,,,,,,,,,,,2603.6437096,2604.7098734,,,,,,,,,2606.9417154000002,2606.9417154000002,2606.9417154000002,2606.9417154000002,2606.9417154000002,2606.9417154000002,2606.9417154000002,2606.9417154000002,None,None,None,,,,,,,,,,,2598.0744743,2598.0744743,None,,2601.4239303,2603.6437096,2604.7098734,2604.7098734,2604.7098734,2604.7098734,n,2.089193399999715,2598.0744743,2598.0744743,,,0,001,2024-06-11_13h39.16.200,robot_sternberg_sign,2022.2.5,60.11045897940956,
"['S', 'D']",False,F,2,letter,1,False,False,"['robot_stimuli\\\\filler.mp4', 'robot_stimuli\\\\filler.mp4']",robot_stimuli\\filler.mp4,0,,,,,,,,,,,,,0,28,28,28,,,,,,,,,,,,,,,,,2612.5053676,2613.5588781,,,,,,,,,2614.7813371,2614.7813371,2614.7813371,2614.7813371,2614.7813371,2614.7813371,2614.7813371,2614.7813371,None,None,None,,,,,,,,,,,2606.9417154000002,2606.9417154000002,None,,2610.3043321,2612.5053676,2613.5588781,2613.5588781,2613.5588781,2613.5588781,n,1.1275487000003181,2606.9417154000002,2606.9417154000002,,,0,001,2024-06-11_13h39.16.200,robot_sternberg_sign,2022.2.5,60.11045897940956,
"['X', 'H']",True,H,2,letter,1,False,True,"['robot_stimuli\\\\filler.mp4', 'robot_stimuli\\\\filler.mp4']",robot_stimuli\\filler.mp4,0,,,,,,,,,,,,,0,29,29,29,,,,,,,,,,,,,,,,,2620.1456834,2621.2085338,,,,,,,,,2622.2673305,2632.6129131000002,2622.2673305,2632.6129131000002,2622.2673305,2632.6129131000002,2622.2673305,2632.6129131000002,29.537037037037038,4.949353599999995,space,,,10.290703199999882,,,,,,,,2614.7813371,2614.7813371,None,,2618.1322034,2620.1456834,2621.2085338,2621.2085338,2621.2085338,2621.2085338,c,0.956757699999855,2614.7813371,2614.7813371,,,0,001,2024-06-11_13h39.16.200,robot_sternberg_sign,2022.2.5,60.11045897940956,
"['R_Arm_X_Back', 'R_Torso_X_Back']",True,R_Arm_X_Back,2,robot,2,True,False,"['robot_stimuli\\R_Arm_X_Back.mp4', 'robot_stimuli\\R_Torso_X_Back.mp4']",robot_stimuli\R_Arm_X_Back.mp4,0,,,,,,,,,,,,,0,30,30,30,,,,,,,,,,,,,,,,,2647.0838517,2648.1830607,,,,,,,,,2651.8963162,2651.8963162,2651.8963162,2651.8963162,2651.8963162,2651.8963162,2651.8963162,2651.8963162,None,None,None,,,,,,,,,,,2632.6129131000002,2632.6129131000002,space,6.001713700000039,,,,2648.1830607,2648.1830607,2648.1830607,c,3.6864869000001477,,,2643.4497708,2648.1830607,0,001,2024-06-11_13h39.16.200,robot_sternberg_sign,2022.2.5,60.11045897940956,
"['L_Arm_Z_Back', 'R_Base_Y_Back']",True,R_Base_Y_Back,2,robot,2,False,False,"['robot_stimuli\\L_Arm_Z_Back.mp4', 'robot_stimuli\\R_Base_Y_Back.mp4']",robot_stimuli\R_Base_Y_Back.mp4,0,,,,,,,,,,,,,0,31,31,31,,,,,,,,,,,,,,,,,2660.3383021,2661.4191085,,,,,,,,,2665.0695021,2665.0695021,2665.0695021,2665.0695021,2665.0695021,2665.0695021,2665.0695021,2665.0695021,None,None,None,,,,,,,,,,,2651.8963162,2651.8963162,None,,,,,2661.4191085,2661.4191085,2661.4191085,c,2.906521999999825,2651.8963162,2651.8963162,2656.7080929,2661.4191085,0,001,2024-06-11_13h39.16.200,robot_sternberg_sign,2022.2.5,60.11045897940956,
"['R_Head_X_For', 'L_Base_Z_Back']",False,L_Base_Z_For,2,robot,2,False,False,"['robot_stimuli\\R_Head_X_For.mp4', 'robot_stimuli\\L_Base_Z_Back.mp4']",robot_stimuli\L_Base_Z_For.mp4,0,,,,,,,,,,,,,0,32,32,32,,,,,,,,,,,,,,,,,2673.4925784,2674.6553522,,,,,,,,,2678.2961879,2678.2961879,2678.2961879,2678.2961879,2678.2961879,2678.2961879,2678.2961879,2678.2961879,None,None,None,,,,,,,,,,,2665.0695021,2665.0695021,None,,,,,2674.6553522,2674.6553522,2674.6553522,n,2.295711900000299,2665.0695021,2665.0695021,2669.8678729000003,2674.6553522,0,001,2024-06-11_13h39.16.200,robot_sternberg_sign,2022.2.5,60.11045897940956,
"['L_Torso_Y_Back', 'L_Arm_X_Back']",False,R_Arm_Y_Back,2,robot,2,False,False,"['robot_stimuli\\L_Torso_Y_Back.mp4', 'robot_stimuli\\L_Arm_X_Back.mp4']",robot_stimuli\R_Arm_Y_Back.mp4,0,,,,,,,,,,,,,0,33,33,33,,,,,,,,,,,,,,,,,2686.5881585,2687.6716868,,,,,,,,,2691.3208822,2691.3208822,2691.3208822,2691.3208822,2691.3208822,2691.3208822,2691.3208822,2691.3208822,None,None,None,,,,,,,,,,,2678.2961879,2678.2961879,None,,,,,2687.6716868,2687.6716868,2687.6716868,n,3.1500670000000923,2678.2961879,2678.2961879,2682.9680789,2687.6716868,0,001,2024-06-11_13h39.16.200,robot_sternberg_sign,2022.2.5,60.11045897940956,
"['L_Head_Z_Back', 'R_Head_Y_For']",True,R_Head_Y_For,2,robot,2,False,False,"['robot_stimuli\\L_Head_Z_Back.mp4', 'robot_stimuli\\R_Head_Y_For.mp4']",robot_stimuli\R_Head_Y_For.mp4,0,,,,,,,,,,,,,0,34,34,34,,,,,,,,,,,,,,,,,2699.7461236,2700.8336955,,,,,,,,,2704.4830266,2704.4830266,2704.4830266,2704.4830266,2704.4830266,2704.4830266,2704.4830266,2704.4830266,None,None,None,,,,,,,,,,,2691.3208822,2691.3208822,None,,,,,2700.8336955,2700.8336955,2700.8336955,c,2.252772100000186,2691.3208822,2691.3208822,2696.1162849,2700.8336955,0,001,2024-06-11_13h39.16.200,robot_sternberg_sign,2022.2.5,60.11045897940956,
"['R_Torso_Z_For', 'L_Torso_Y_For']",False,L_Torso_X_Back,2,robot,2,False,False,"['robot_stimuli\\R_Torso_Z_For.mp4', 'robot_stimuli\\L_Torso_Y_For.mp4']",robot_stimuli\L_Torso_X_Back.mp4,0,,,,,,,,,,,,,0,35,35,35,,,,,,,,,,,,,,,,,2712.9288589000003,2714.0189221,,,,,,,,,2717.739639,2717.739639,2717.739639,2717.739639,2717.739639,2717.739639,2717.739639,2717.739639,None,None,None,,,,,,,,,,,2704.4830266,2704.4830266,None,,,,,2714.0189221,2714.0189221,2714.0189221,n,3.6756148000000053,2704.4830266,2704.4830266,2709.2993225,2714.0189221,0,001,2024-06-11_13h39.16.200,robot_sternberg_sign,2022.2.5,60.11045897940956,
"['R_Torso_X_Back', 'R_Torso_Y_Back']",False,L_Head_X_For,2,robot,2,False,False,"['robot_stimuli\\R_Torso_X_Back.mp4', 'robot_stimuli\\R_Torso_Y_Back.mp4']",robot_stimuli\L_Head_X_For.mp4,0,,,,,,,,,,,,,0,36,36,36,,,,,,,,,,,,,,,,,2726.1715899,2727.2518138,,,,,,,,,2730.8379677000003,2730.8379677000003,2730.8379677000003,2730.8379677000003,2730.8379677000003,2730.8379677000003,2730.8379677000003,2730.8379677000003,None,None,None,,,,,,,,,,,2717.739639,2717.739639,None,,,,,2727.2518138,2727.2518138,2727.2518138,n,1.8902975999999967,2717.739639,2717.739639,2722.5514781,2727.2518138,0,001,2024-06-11_13h39.16.200,robot_sternberg_sign,2022.2.5,60.11045897940956,
"['L_Arm_X_Back', 'R_Head_Z_Back']",True,L_Arm_X_Back,2,robot,2,False,False,"['robot_stimuli\\L_Arm_X_Back.mp4', 'robot_stimuli\\R_Head_Z_Back.mp4']",robot_stimuli\L_Arm_X_Back.mp4,0,,,,,,,,,,,,,0,37,37,37,,,,,,,,,,,,,,,,,2739.2619130000003,2740.351654,,,,,,,,,2744.0010107000003,2744.0010107000003,2744.0010107000003,2744.0010107000003,2744.0010107000003,2744.0010107000003,2744.0010107000003,2744.0010107000003,None,None,None,,,,,,,,,,,2730.8379677000003,2730.8379677000003,None,,,,,2740.351654,2740.351654,2740.351654,c,2.741788500000041,2730.8379677000003,2730.8379677000003,2735.6340494,2740.351654,0,001,2024-06-11_13h39.16.200,robot_sternberg_sign,2022.2.5,60.11045897940956,
"['L_Torso_Y_Back', 'R_Arm_Y_Back']",True,L_Torso_Y_Back,2,robot,2,False,False,"['robot_stimuli\\L_Torso_Y_Back.mp4', 'robot_stimuli\\R_Arm_Y_Back.mp4']",robot_stimuli\L_Torso_Y_Back.mp4,0,,,,,,,,,,,,,0,38,38,38,,,,,,,,,,,,,,,,,2752.3100127000002,2753.4024941000002,,,,,,,,,2756.9187635000003,2756.9187635000003,2756.9187635000003,2756.9187635000003,2756.9187635000003,2756.9187635000003,2756.9187635000003,2756.9187635000003,None,None,None,,,,,,,,,,,2744.0010107000003,2744.0010107000003,None,,,,,2753.4024941000002,2753.4024941000002,2753.4024941000002,c,2.707664499999794,2744.0010107000003,2744.0010107000003,2748.6697594,2753.4024941000002,0,001,2024-06-11_13h39.16.200,robot_sternberg_sign,2022.2.5,60.11045897940956,
"['L_Head_X_For', 'R_Base_Z_Back']",False,R_Arm_Y_Back,2,robot,2,False,True,"['robot_stimuli\\L_Head_X_For.mp4', 'robot_stimuli\\R_Base_Z_Back.mp4']",robot_stimuli\R_Arm_Y_Back.mp4,0,,,,,,,,,,,,,0,39,39,39,,,,,,,,,,,,,,,,,2765.1915593,2757.99795,,,,,,,,,2770.3142067,2775.7642583,2770.3142067,2775.7642583,2770.3142067,2775.7642583,2770.3142067,2775.7642583,33.85802469135802,3.2599488000000747,space,,,5.388129399999855,,,,,,,,2756.9187635000003,2756.9187635000003,None,,,,,2766.2836293,2766.2836293,2766.2836293,n,3.9634705999997664,2756.9187635000003,2756.9187635000003,2761.6524506,2766.2836293,0,001,2024-06-11_13h39.16.200,robot_sternberg_sign,2022.2.5,60.11045897940956,
"['L_Base_X_For', 'L_Base_Z_For', 'L_Arm_Y_For', 'L_Torso_Y_For']",False,L_Head_Y_Back,4,robot,2,True,False,"['robot_stimuli\\L_Base_X_For.mp4', 'robot_stimuli\\L_Base_Z_For.mp4', 'robot_stimuli\\L_Arm_Y_For.mp4', 'robot_stimuli\\L_Torso_Y_For.mp4']",robot_stimuli\L_Head_Y_Back.mp4,0,,,,,,,,,,,,,0,40,40,40,,,,,,,,,,,,,,,,,2798.5619921,2799.6475004,,,,,,,,,2803.2855181,2803.2855181,2803.2855181,2803.2855181,2803.2855181,2803.2855181,2803.2855181,2803.2855181,None,None,None,,,,,,,,,,,2775.7642583,2775.7642583,space,6.9859612999999285,,,,2799.6475004,2799.6475004,2799.6475004,n,2.710203900000181,,,2794.9315229,2799.6475004,0,001,2024-06-11_13h39.16.200,robot_sternberg_sign,2022.2.5,60.11045897940956,
"['L_Arm_Y_Back', 'L_Base_X_Back', 'L_Torso_X_Back', 'L_Head_Y_For']",True,L_Head_Y_For,4,robot,2,False,False,"['robot_stimuli\\L_Arm_Y_Back.mp4', 'robot_stimuli\\L_Base_X_Back.mp4', 'robot_stimuli\\L_Torso_X_Back.mp4', 'robot_stimuli\\L_Head_Y_For.mp4']",robot_stimuli\L_Head_Y_For.mp4,0,,,,,,,,,,,,,0,41,41,41,,,,,,,,,,,,,,,,,2819.1227671,2820.2145847,,,,,,,,,2823.8596592,2823.8596592,2823.8596592,2823.8596592,2823.8596592,2823.8596592,2823.8596592,2823.8596592,None,None,None,,,,,,,,,,,2803.2855181,2803.2855181,None,,,,,2820.2145847,2820.2145847,2820.2145847,c,2.5837210000000255,2803.2855181,2803.2855181,2815.4984609000003,2820.2145847,0,001,2024-06-11_13h39.16.200,robot_sternberg_sign,2022.2.5,60.11045897940956,
"['R_Head_X_Back', 'R_Arm_Y_For', 'R_Torso_Y_For', 'L_Head_Z_Back']",False,L_Base_X_Back,4,robot,2,False,False,"['robot_stimuli\\R_Head_X_Back.mp4', 'robot_stimuli\\R_Arm_Y_For.mp4', 'robot_stimuli\\R_Torso_Y_For.mp4', 'robot_stimuli\\L_Head_Z_Back.mp4']",robot_stimuli\L_Base_X_Back.mp4,0,,,,,,,,,,,,,0,42,42,42,,,,,,,,,,,,,,,,,2839.6280500000003,2840.7183851,,,,,,,,,2844.3349435,2844.3349435,2844.3349435,2844.3349435,2844.3349435,2844.3349435,2844.3349435,2844.3349435,None,None,None,,,,,,,,,,,2823.8596592,2823.8596592,None,,,,,2840.7183851,2840.7183851,2840.7183851,n,3.232843899999864,2823.8596592,2823.8596592,2835.9975263,2840.7183851,0,001,2024-06-11_13h39.16.200,robot_sternberg_sign,2022.2.5,60.11045897940956,
"['L_Head_Y_For', 'R_Arm_X_Back', 'R_Head_Z_Back', 'L_Torso_Y_Back']",True,R_Head_Z_Back,4,robot,2,False,False,"['robot_stimuli\\L_Head_Y_For.mp4', 'robot_stimuli\\R_Arm_X_Back.mp4', 'robot_stimuli\\R_Head_Z_Back.mp4', 'robot_stimuli\\L_Torso_Y_Back.mp4']",robot_stimuli\R_Head_Z_Back.mp4,0,,,,,,,,,,,,,0,43,43,43,,,,,,,,,,,,,,,,,2860.0761024,2861.1660972,,,,,,,,,2864.8053113,2864.8053113,2864.8053113,2864.8053113,2864.8053113,2864.8053113,2864.8053113,2864.8053113,None,None,None,,,,,,,,,,,2844.3349435,2844.3349435,None,,,,,2861.1660972,2861.1660972,2861.1660972,c,2.8327860999998506,2844.3349435,2844.3349435,2856.5673798000003,2861.1660972,0,001,2024-06-11_13h39.16.200,robot_sternberg_sign,2022.2.5,60.11045897940956,
"['L_Arm_Z_Back', 'R_Torso_Y_Back', 'L_Head_Y_For', 'R_Torso_Z_Back']",False,R_Base_Z_Back,4,robot,2,False,False,"['robot_stimuli\\L_Arm_Z_Back.mp4', 'robot_stimuli\\R_Torso_Y_Back.mp4', 'robot_stimuli\\L_Head_Y_For.mp4', 'robot_stimuli\\R_Torso_Z_Back.mp4']",robot_stimuli\R_Base_Z_Back.mp4,0,,,,,,,,,,,,,0,44,44,44,,,,,,,,,,,,,,,,,2880.6974565,2881.7835547,,,,,,,,,2885.3230142,2885.3230142,2885.3230142,2885.3230142,2885.3230142,2885.3230142,2885.3230142,2885.3230142,None,None,None,,,,,,,,,,,2864.8053113,2864.8053113,None,,,,,2881.7835547,2881.7835547,2881.7835547,c,2.751385200000243,2864.8053113,2864.8053113,2877.0659114,2881.7835547,0,001,2024-06-11_13h39.16.200,robot_sternberg_sign,2022.2.5,60.11045897940956,
"['R_Torso_Y_Back', 'R_Arm_Y_Back', 'R_Base_X_For', 'L_Arm_X_Back']",True,R_Base_X_For,4,robot,2,False,False,"['robot_stimuli\\R_Torso_Y_Back.mp4', 'robot_stimuli\\R_Arm_Y_Back.mp4', 'robot_stimuli\\R_Base_X_For.mp4', 'robot_stimuli\\L_Arm_X_Back.mp4']",robot_stimuli\R_Base_X_For.mp4,0,,,,,,,,,,,,,0,45,45,45,,,,,,,,,,,,,,,,,2901.0726508000002,2902.1535871,,,,,,,,,2905.8836795,2905.8836795,2905.8836795,2905.8836795,2905.8836795,2905.8836795,2905.8836795,2905.8836795,None,None,None,,,,,,,,,,,2885.3230142,2885.3230142,None,,,,,2902.1535871,2902.1535871,2902.1535871,n,3.7001326999998696,2885.3230142,2885.3230142,2897.442061,2902.1535871,0,001,2024-06-11_13h39.16.200,robot_sternberg_sign,2022.2.5,60.11045897940956,
"['L_Torso_Z_Back', 'R_Base_X_For', 'L_Head_Y_Back', 'L_Arm_X_Back']",False,R_Torso_X_Back,4,robot,2,False,False,"['robot_stimuli\\L_Torso_Z_Back.mp4', 'robot_stimuli\\R_Base_X_For.mp4', 'robot_stimuli\\L_Head_Y_Back.mp4', 'robot_stimuli\\L_Arm_X_Back.mp4']",robot_stimuli\R_Torso_X_Back.mp4,0,,,,,,,,,,,,,0,46,46,46,,,,,,,,,,,,,,,,,2921.5106695,2922.6016023,,,,,,,,,2929.6003159,2929.6003159,2929.6003159,2929.6003159,2929.6003159,2929.6003159,2929.6003159,2929.6003159,None,None,None,,,,,,,,,,,2905.8836795,2905.8836795,None,,,,,2922.6016023,2922.6016023,2922.6016023,n,6.956856400000163,2905.8836795,2905.8836795,2917.8799559,2922.6016023,0,001,2024-06-11_13h39.16.200,robot_sternberg_sign,2022.2.5,60.11045897940956,
"['R_Base_X_For', 'L_Base_X_Back', 'L_Base_Y_Back', 'L_Arm_Y_For']",True,L_Base_Y_Back,4,robot,2,False,False,"['robot_stimuli\\R_Base_X_For.mp4', 'robot_stimuli\\L_Base_X_Back.mp4', 'robot_stimuli\\L_Base_Y_Back.mp4', 'robot_stimuli\\L_Arm_Y_For.mp4']",robot_stimuli\L_Base_Y_Back.mp4,0,,,,,,,,,,,,,0,47,47,47,,,,,,,,,,,,,,,,,2945.2623196,2946.3518656,,,,,,,,,2950.3388187,2950.3388187,2950.3388187,2950.3388187,2950.3388187,2950.3388187,2950.3388187,2950.3388187,None,None,None,,,,,,,,,,,2929.6003159,2929.6003159,None,,,,,2946.3518656,2946.3518656,2946.3518656,c,3.9429399999999646,2929.6003159,2929.6003159,2941.6303080000002,2946.3518656,0,001,2024-06-11_13h39.16.200,robot_sternberg_sign,2022.2.5,60.11045897940956,
"['R_Head_X_Back', 'L_Torso_X_For', 'L_Base_Z_Back', 'R_Arm_Z_For']",True,L_Torso_X_For,4,robot,2,False,False,"['robot_stimuli\\R_Head_X_Back.mp4', 'robot_stimuli\\L_Torso_X_For.mp4', 'robot_stimuli\\L_Base_Z_Back.mp4', 'robot_stimuli\\R_Arm_Z_For.mp4']",robot_stimuli\L_Torso_X_For.mp4,0,,,,,,,,,,,,,0,48,48,48,,,,,,,,,,,,,,,,,2966.2289511,2967.3174482,,,,,,,,,2973.4666294,2973.4666294,2973.4666294,2973.4666294,2973.4666294,2973.4666294,2973.4666294,2973.4666294,None,None,None,,,,,,,,,,,2950.3388187,2950.3388187,None,,,,,2967.3174482,2967.3174482,2967.3174482,n,6.120930499999815,2950.3388187,2950.3388187,2962.5851648000003,2967.3174482,0,001,2024-06-11_13h39.16.200,robot_sternberg_sign,2022.2.5,60.11045897940956,
"['R_Base_Z_Back', 'L_Arm_Z_Back', 'R_Head_Y_Back', 'L_Torso_X_Back']",False,R_Arm_Z_Back,4,robot,2,False,True,"['robot_stimuli\\R_Base_Z_Back.mp4', 'robot_stimuli\\L_Arm_Z_Back.mp4', 'robot_stimuli\\R_Head_Y_Back.mp4', 'robot_stimuli\\L_Torso_X_Back.mp4']",robot_stimuli\R_Arm_Z_Back.mp4,0,,,,,,,,,,,,,0,49,49,49,,,,,,,,,,,,,,,,,2989.2614436,2990.3567151,,,,,,,,,2994.0299083,3003.4773426,2994.0299083,3003.4773426,2994.0299083,3003.4773426,2994.0299083,3003.4773426,38.7962962962963,5.858097000000271,space,,,9.376504999999781,,,,,,,,2973.4666294,2973.4666294,None,,,,,2990.3567151,2990.3567151,2990.3567151,n,2.9930245000001037,2973.4666294,2973.4666294,2985.6184015,2990.3567151,0,001,2024-06-11_13h39.16.200,robot_sternberg_sign,2022.2.5,60.11045897940956,
"['L_Head_Z_Back', 'L_Head_X_Back', 'R_Arm_Z_For', 'L_Torso_Y_Back', 'L_Base_Z_Back', 'R_Head_Y_Back']",False,R_Torso_X_For,6,robot,2,True,False,"['robot_stimuli\\L_Head_Z_Back.mp4', 'robot_stimuli\\L_Head_X_Back.mp4', 'robot_stimuli\\R_Arm_Z_For.mp4', 'robot_stimuli\\L_Torso_Y_Back.mp4', 'robot_stimuli\\L_Base_Z_Back.mp4', 'robot_stimuli\\R_Head_Y_Back.mp4']",robot_stimuli\R_Torso_X_For.mp4,0,,,,,,,,,,,,,0,50,50,50,,,,,,,,,,,,,,,,,3046.2181795,3047.3162581,,,,,,,,,3050.9562702000003,3050.9562702000003,3050.9562702000003,3050.9562702000003,3050.9562702000003,3050.9562702000003,3050.9562702000003,3050.9562702000003,None,None,None,,,,,,,,,,,3003.4773426,3003.4773426,space,19.561353599999677,,,,3047.3162581,3047.3162581,3047.3162581,n,2.961957799999766,,,3042.5831985,3047.3162581,0,001,2024-06-11_13h39.16.200,robot_sternberg_sign,2022.2.5,60.11045897940956,
"['L_Base_Y_Back', 'R_Head_X_Back', 'L_Base_Z_Back', 'R_Torso_X_Back', 'R_Torso_Y_For', 'L_Arm_Z_Back']",True,R_Torso_Y_For,6,robot,2,False,False,"['robot_stimuli\\L_Base_Y_Back.mp4', 'robot_stimuli\\R_Head_X_Back.mp4', 'robot_stimuli\\L_Base_Z_Back.mp4', 'robot_stimuli\\R_Torso_X_Back.mp4', 'robot_stimuli\\R_Torso_Y_For.mp4', 'robot_stimuli\\L_Arm_Z_Back.mp4']",robot_stimuli\R_Torso_Y_For.mp4,0,,,,,,,,,,,,,0,51,51,51,,,,,,,,,,,,,,,,,3074.2270043,3075.3216761,,,,,,,,,3079.0024813,3079.0024813,3079.0024813,3079.0024813,3079.0024813,3079.0024813,3079.0024813,3079.0024813,None,None,None,,,,,,,,,,,3050.9562702000003,3050.9562702000003,None,,,,,3075.3216761,3075.3216761,3075.3216761,c,3.645148599999686,3050.9562702000003,3050.9562702000003,3070.5944874,3075.3216761,0,001,2024-06-11_13h39.16.200,robot_sternberg_sign,2022.2.5,60.11045897940956,
"['R_Torso_Y_Back', 'L_Arm_X_Back', 'L_Torso_Z_For', 'L_Head_Z_For', 'R_Torso_Z_For', 'L_Head_Y_Back']",True,R_Torso_Z_For,6,robot,2,False,False,"['robot_stimuli\\R_Torso_Y_Back.mp4', 'robot_stimuli\\L_Arm_X_Back.mp4', 'robot_stimuli\\L_Torso_Z_For.mp4', 'robot_stimuli\\L_Head_Z_For.mp4', 'robot_stimuli\\R_Torso_Z_For.mp4', 'robot_stimuli\\L_Head_Y_Back.mp4']",robot_stimuli\R_Torso_Z_For.mp4,0,,,,,,,,,,,,,0,52,52,52,,,,,,,,,,,,,,,,,3102.3474448,3103.4351551,,,,,,,,,3112.2812913000002,3112.2812913000002,3112.2812913000002,3112.2812913000002,3112.2812913000002,3112.2812913000002,3112.2812913000002,3112.2812913000002,None,None,None,,,,,,,,,,,3079.0024813,3079.0024813,None,,,,,3103.4351551,3103.4351551,3103.4351551,c,8.812380800000085,3079.0024813,3079.0024813,3098.7154269000002,3103.4351551,0,001,2024-06-11_13h39.16.200,robot_sternberg_sign,2022.2.5,60.11045897940956,
"['L_Base_Y_Back', 'R_Torso_Y_For', 'R_Arm_Z_For', 'R_Base_Y_Back', 'R_Base_X_For', 'R_Arm_Y_For']",True,R_Torso_Y_For,6,robot,2,False,False,"['robot_stimuli\\L_Base_Y_Back.mp4', 'robot_stimuli\\R_Torso_Y_For.mp4', 'robot_stimuli\\R_Arm_Z_For.mp4', 'robot_stimuli\\R_Base_Y_Back.mp4', 'robot_stimuli\\R_Base_X_For.mp4', 'robot_stimuli\\R_Arm_Y_For.mp4']",robot_stimuli\R_Torso_Y_For.mp4,0,,,,,,,,,,,,,0,53,53,53,,,,,,,,,,,,,,,,,3135.2743859,3113.366715,,,,,,,,,3141.5485193,3141.5485193,3141.5485193,3141.5485193,3141.5485193,3141.5485193,3141.5485193,3141.5485193,None,None,None,,,,,,,,,,,3112.2812913000002,3112.2812913000002,None,,,,,3136.3683841,3136.3683841,3136.3683841,c,5.143309399999964,3112.2812913000002,3112.2812913000002,3131.7762834,3136.3683841,0,001,2024-06-11_13h39.16.200,robot_sternberg_sign,2022.2.5,60.11045897940956,
"['L_Torso_X_For', 'R_Base_X_For', 'L_Torso_Y_Back', 'R_Head_Z_For', 'R_Torso_X_Back', 'R_Torso_Z_For']",False,R_Head_X_Back,6,robot,2,False,False,"['robot_stimuli\\L_Torso_X_For.mp4', 'robot_stimuli\\R_Base_X_For.mp4', 'robot_stimuli\\L_Torso_Y_Back.mp4', 'robot_stimuli\\R_Head_Z_For.mp4', 'robot_stimuli\\R_Torso_X_Back.mp4', 'robot_stimuli\\R_Torso_Z_For.mp4']",robot_stimuli\R_Head_X_Back.mp4,0,,,,,,,,,,,,,0,54,54,54,,,,,,,,,,,,,,,,,3164.6317024,3165.7192715,,,,,,,,,3169.369568,3169.369568,3169.369568,3169.369568,3169.369568,3169.369568,3169.369568,3169.369568,None,None,None,,,,,,,,,,,3141.5485193,3141.5485193,None,,,,,3165.7192715,3165.7192715,3165.7192715,n,2.4713987999999176,3141.5485193,3141.5485193,3160.9995240000003,3165.7192715,0,001,2024-06-11_13h39.16.200,robot_sternberg_sign,2022.2.5,60.11045897940956,
"['R_Arm_Y_Back', 'R_Arm_Z_For', 'L_Base_Z_Back', 'L_Head_X_Back', 'R_Torso_Z_For', 'L_Head_Y_For']",False,L_Base_Z_For,6,robot,2,False,False,"['robot_stimuli\\R_Arm_Y_Back.mp4', 'robot_stimuli\\R_Arm_Z_For.mp4', 'robot_stimuli\\L_Base_Z_Back.mp4', 'robot_stimuli\\L_Head_X_Back.mp4', 'robot_stimuli\\R_Torso_Z_For.mp4', 'robot_stimuli\\L_Head_Y_For.mp4']",robot_stimuli\L_Base_Z_For.mp4,0,,,,,,,,,,,,,0,55,55,55,,,,,,,,,,,,,,,,,3192.7279729,3193.8193382,,,,,,,,,3197.4703646000003,3197.4703646000003,3197.4703646000003,3197.4703646000003,3197.4703646000003,3197.4703646000003,3197.4703646000003,3197.4703646000003,None,None,None,,,,,,,,,,,3169.369568,3169.369568,None,,,,,3193.8193382,3193.8193382,3193.8193382,c,2.5638089999998215,3169.369568,3169.369568,3189.0860489,3193.8193382,0,001,2024-06-11_13h39.16.200,robot_sternberg_sign,2022.2.5,60.11045897940956,
"['L_Arm_X_Back', 'R_Torso_X_Back', 'L_Torso_X_For', 'R_Arm_Y_For', 'R_Arm_X_Back', 'L_Torso_Z_For']",False,R_Head_Y_Back,6,robot,2,False,False,"['robot_stimuli\\L_Arm_X_Back.mp4', 'robot_stimuli\\R_Torso_X_Back.mp4', 'robot_stimuli\\L_Torso_X_For.mp4', 'robot_stimuli\\R_Arm_Y_For.mp4', 'robot_stimuli\\R_Arm_X_Back.mp4', 'robot_stimuli\\L_Torso_Z_For.mp4']",robot_stimuli\R_Head_Y_Back.mp4,0,,,,,,,,,,,,,0,56,56,56,,,,,,,,,,,,,,,,,3220.677955,3221.7711915,,,,,,,,,3225.4194062,3225.4194062,3225.4194062,3225.4194062,3225.4194062,3225.4194062,3225.4194062,3225.4194062,None,None,None,,,,,,,,,,,3197.4703646000003,3197.4703646000003,None,,,,,3221.7711915,3221.7711915,3221.7711915,n,2.45926680000008,3197.4703646000003,3197.4703646000003,3217.0540634,3221.7711915,0,001,2024-06-11_13h39.16.200,robot_sternberg_sign,2022.2.5,60.11045897940956,
"['L_Arm_X_For', 'L_Base_X_For', 'R_Arm_X_For', 'L_Torso_Z_Back', 'L_Head_Y_For', 'L_Base_Z_For']",True,L_Base_X_For,6,robot,2,False,False,"['robot_stimuli\\L_Arm_X_For.mp4', 'robot_stimuli\\L_Base_X_For.mp4', 'robot_stimuli\\R_Arm_X_For.mp4', 'robot_stimuli\\L_Torso_Z_Back.mp4', 'robot_stimuli\\L_Head_Y_For.mp4', 'robot_stimuli\\L_Base_Z_For.mp4']",robot_stimuli\L_Base_X_For.mp4,0,,,,,,,,,,,,,0,57,57,57,,,,,,,,,,,,,,,,,3248.5280978,3249.6175871,,,,,,,,,3253.390412,3253.390412,3253.390412,3253.390412,3253.390412,3253.390412,3253.390412,3253.390412,None,None,None,,,,,,,,,,,3225.4194062,3225.4194062,None,,,,,3249.6175871,3249.6175871,3249.6175871,c,3.7339012999996726,3225.4194062,3225.4194062,3244.8854194,3249.6175871,0,001,2024-06-11_13h39.16.200,robot_sternberg_sign,2022.2.5,60.11045897940956,
"['L_Head_Y_For', 'L_Arm_Z_Back', 'L_Arm_X_For', 'L_Base_Z_For', 'L_Head_X_For', 'R_Torso_Z_Back']",True,L_Head_X_For,6,robot,2,False,False,"['robot_stimuli\\L_Head_Y_For.mp4', 'robot_stimuli\\L_Arm_Z_Back.mp4', 'robot_stimuli\\L_Arm_X_For.mp4', 'robot_stimuli\\L_Base_Z_For.mp4', 'robot_stimuli\\L_Head_X_For.mp4', 'robot_stimuli\\R_Torso_Z_Back.mp4']",robot_stimuli\L_Head_X_For.mp4,0,,,,,,,,,,,,,0,58,58,58,,,,,,,,,,,,,,,,,3276.6396753,3277.7199795,,,,,,,,,3281.3022327,3281.3022327,3281.3022327,3281.3022327,3281.3022327,3281.3022327,3281.3022327,3281.3022327,None,None,None,,,,,,,,,,,3253.390412,3253.390412,None,,,,,3277.7199795,3277.7199795,3277.7199795,c,2.462321999999915,3253.390412,3253.390412,3273.0144468,3277.7199795,0,001,2024-06-11_13h39.16.200,robot_sternberg_sign,2022.2.5,60.11045897940956,
"['L_Arm_Y_For', 'R_Base_Y_Back', 'R_Head_X_Back', 'R_Torso_X_For', 'R_Arm_Y_For', 'R_Arm_X_Back']",False,L_Torso_X_Back,6,robot,2,False,True,"['robot_stimuli\\L_Arm_Y_For.mp4', 'robot_stimuli\\R_Base_Y_Back.mp4', 'robot_stimuli\\R_Head_X_Back.mp4', 'robot_stimuli\\R_Torso_X_For.mp4', 'robot_stimuli\\R_Arm_Y_For.mp4', 'robot_stimuli\\R_Arm_X_Back.mp4']",robot_stimuli\L_Torso_X_Back.mp4,0,,,,,,,,,,,,,0,59,59,59,,,,,,,,,,,,,,,,,3304.4912032,3282.3812780000003,,,,,,,,,3309.2738963,3314.7379088000002,3309.2738963,3314.7379088000002,3309.2738963,3314.7379088000002,3309.2738963,3314.7379088000002,43.11728395061728,3.482363600000099,space,,,5.4125927000000615,,,,,,,,3281.3022327,3281.3022327,None,,,,,3305.5852012,3305.5852012,3305.5852012,n,3.302463600000067,3281.3022327,3281.3022327,3300.8587475,3305.5852012,0,001,2024-06-11_13h39.16.200,robot_sternberg_sign,2022.2.5,60.11045897940956,
"['T', 'W', 'J', 'G', 'M', 'P']",False,D,6,letter,3,True,False,"['robot_stimuli\\\\filler.mp4', 'robot_stimuli\\\\filler.mp4', 'robot_stimuli\\\\filler.mp4', 'robot_stimuli\\\\filler.mp4', 'robot_stimuli\\\\filler.mp4', 'robot_stimuli\\\\filler.mp4']",robot_stimuli\\filler.mp4,0,,,,,,,,,,,,,0,60,60,60,,,,,,,,,,,,,,,,,3353.9190158,3354.978148,,,,,,,,,3356.209412,3356.209412,3356.209412,3356.209412,3356.209412,3356.209412,3356.209412,3356.209412,None,None,None,,,,,,,,,,,3314.7379088000002,3314.7379088000002,space,25.253177399999515,3351.6963425,3353.9190158,3354.978148,3354.978148,3354.978148,3354.978148,n,1.1563296999998443,,,,,0,001,2024-06-11_13h39.16.200,robot_sternberg_sign,2022.2.5,60.11045897940956,
"['F', 'V', 'S', 'M', 'T', 'Z']",False,N,6,letter,3,False,False,"['robot_stimuli\\\\filler.mp4', 'robot_stimuli\\\\filler.mp4', 'robot_stimuli\\\\filler.mp4', 'robot_stimuli\\\\filler.mp4', 'robot_stimuli\\\\filler.mp4', 'robot_stimuli\\\\filler.mp4']",robot_stimuli\\filler.mp4,0,,,,,,,,,,,,,0,61,61,61,,,,,,,,,,,,,,,,,3370.1142537,3371.1776275,,,,,,,,,3372.4070989,3372.4070989,3372.4070989,3372.4070989,3372.4070989,3372.4070989,3372.4070989,3372.4070989,None,None,None,,,,,,,,,,,3356.209412,3356.209412,None,,3368.1060809,3370.1142537,3371.1776275,3371.1776275,3371.1776275,3371.1776275,n,1.1738743000001364,3356.209412,3356.209412,,,0,001,2024-06-11_13h39.16.200,robot_sternberg_sign,2022.2.5,60.11045897940956,
"['W', 'K', 'Q', 'F', 'V', 'Z']",True,K,6,letter,3,False,False,"['robot_stimuli\\\\filler.mp4', 'robot_stimuli\\\\filler.mp4', 'robot_stimuli\\\\filler.mp4', 'robot_stimuli\\\\filler.mp4', 'robot_stimuli\\\\filler.mp4', 'robot_stimuli\\\\filler.mp4']",robot_stimuli\\filler.mp4,0,,,,,,,,,,,,,0,62,62,62,,,,,,,,,,,,,,,,,3386.3096526,3373.4617811000003,,,,,,,,,3389.2000765000003,3389.2000765000003,3389.2000765000003,3389.2000765000003,3389.2000765000003,3389.2000765000003,3389.2000765000003,3389.2000765000003,None,None,None,,,,,,,,,,,3372.4070989,3372.4070989,None,,3384.2896878,3386.3096526,3387.3778055000002,3387.3778055000002,3387.3778055000002,3387.3778055000002,c,1.7006365999996547,3372.4070989,3372.4070989,,,0,001,2024-06-11_13h39.16.200,robot_sternberg_sign,2022.2.5,60.11045897940956,
"['H', 'P', 'D', 'X', 'R', 'C']",True,P,6,letter,3,False,False,"['robot_stimuli\\\\filler.mp4', 'robot_stimuli\\\\filler.mp4', 'robot_stimuli\\\\filler.mp4', 'robot_stimuli\\\\filler.mp4', 'robot_stimuli\\\\filler.mp4', 'robot_stimuli\\\\filler.mp4']",robot_stimuli\\filler.mp4,0,,,,,,,,,,,,,0,63,63,63,,,,,,,,,,,,,,,,,3403.1095622000003,3390.2611804000003,,,,,,,,,3405.6003454,3405.6003454,3405.6003454,3405.6003454,3405.6003454,3405.6003454,3405.6003454,3405.6003454,None,None,None,,,,,,,,,,,3389.2000765000003,3389.2000765000003,None,,3401.0890069,3403.1095622000003,3404.1773479,3404.1773479,3404.1773479,3404.1773479,c,1.2614045999999348,3389.2000765000003,3389.2000765000003,,,0,001,2024-06-11_13h39.16.200,robot_sternberg_sign,2022.2.5,60.11045897940956,
"['P', 'C', 'R', 'L', 'B', 'N']",False,Q,6,letter,3,False,False,"['robot_stimuli\\\\filler.mp4', 'robot_stimuli\\\\filler.mp4', 'robot_stimuli\\\\filler.mp4', 'robot_stimuli\\\\filler.mp4', 'robot_stimuli\\\\filler.mp4', 'robot_stimuli\\\\filler.mp4']",robot_stimuli\\filler.mp4,0,,,,,,,,,,,,,0,64,64,64,,,,,,,,,,,,,,,,,3419.8962765,3420.9617266,,,,,,,,,3422.1903555,3422.1903555,3422.1903555,3422.1903555,3422.1903555,3422.1903555,3422.1903555,3422.1903555,None,None,None,,,,,,,,,,,3405.6003454,3405.6003454,None,,3417.6951817,3419.8962765,3420.9617266,3420.9617266,3420.9617266,3420.9617266,n,1.1416687000001389,3405.6003454,3405.6003454,,,0,001,2024-06-11_13h39.16.200,robot_sternberg_sign,2022.2.5,60.11045897940956,
"['T', 'W', 'Q', 'K', 'M', 'D']",False,P,6,letter,3,False,False,"['robot_stimuli\\\\filler.mp4', 'robot_stimuli\\\\filler.mp4', 'robot_stimuli\\\\filler.mp4', 'robot_stimuli\\\\filler.mp4', 'robot_stimuli\\\\filler.mp4', 'robot_stimuli\\\\filler.mp4']",robot_stimuli\\filler.mp4,0,,,,,,,,,,,,,0,65,65,65,,,,,,,,,,,,,,,,,3436.090487,3437.1459994,,,,,,,,,3438.7749726,3438.7749726,3438.7749726,3438.7749726,3438.7749726,3438.7749726,3438.7749726,3438.7749726,None,None,None,,,,,,,,,,,3422.1903555,3422.1903555,None,,3433.8769828,3436.090487,3437.1459994,3437.1459994,3437.1459994,3437.1459994,n,1.3818031999995242,3422.1903555,3422.1903555,,,0,001,2024-06-11_13h39.16.200,robot_sternberg_sign,2022.2.5,60.11045897940956,
"['K', 'F', 'N', 'Z', 'J', 'C']",True,N,6,letter,3,False,False,"['robot_stimuli\\\\filler.mp4', 'robot_stimuli\\\\filler.mp4', 'robot_stimuli\\\\filler.mp4', 'robot_stimuli\\\\filler.mp4', 'robot_stimuli\\\\filler.mp4', 'robot_stimuli\\\\filler.mp4']",robot_stimuli\\filler.mp4,0,,,,,,,,,,,,,0,66,66,66,,,,,,,,,,,,,,,,,3453.1175708,3454.178806,,,,,,,,,3456.8048868,3456.8048868,3456.8048868,3456.8048868,3456.8048868,3456.8048868,3456.8048868,3456.8048868,None,None,None,,,,,,,,,,,3438.7749726,3438.7749726,None,,3451.0982701000003,3453.1175708,3454.178806,3454.178806,3454.178806,3454.178806,c,2.4845055000001253,3438.7749726,3438.7749726,,,0,001,2024-06-11_13h39.16.200,robot_sternberg_sign,2022.2.5,60.11045897940956,
"['S', 'V', 'H', 'B', 'G', 'D']",True,S,6,letter,3,False,False,"['robot_stimuli\\\\filler.mp4', 'robot_stimuli\\\\filler.mp4', 'robot_stimuli\\\\filler.mp4', 'robot_stimuli\\\\filler.mp4', 'robot_stimuli\\\\filler.mp4', 'robot_stimuli\\\\filler.mp4']",robot_stimuli\\filler.mp4,0,,,,,,,,,,,,,0,67,67,67,,,,,,,,,,,,,,,,,3470.4975491,3471.5604965,,,,,,,,,3474.1897206,3474.1897206,3474.1897206,3474.1897206,3474.1897206,3474.1897206,3474.1897206,3474.1897206,None,None,None,,,,,,,,,,,3456.8048868,3456.8048868,None,,3468.4860936,3470.4975491,3471.5604965,3471.5604965,3471.5604965,3471.5604965,c,2.591975100000184,3456.8048868,3456.8048868,,,0,001,2024-06-11_13h39.16.200,robot_sternberg_sign,2022.2.5,60.11045897940956,
"['N', 'H', 'D', 'K', 'S', 'F']",False,J,6,letter,3,False,False,"['robot_stimuli\\\\filler.mp4', 'robot_stimuli\\\\filler.mp4', 'robot_stimuli\\\\filler.mp4', 'robot_stimuli\\\\filler.mp4', 'robot_stimuli\\\\filler.mp4', 'robot_stimuli\\\\filler.mp4']",robot_stimuli\\filler.mp4,0,,,,,,,,,,,,,0,68,68,68,,,,,,,,,,,,,,,,,3488.2754955,3475.2453211,,,,,,,,,3490.7668853,3490.7668853,3490.7668853,3490.7668853,3490.7668853,3490.7668853,3490.7668853,3490.7668853,None,None,None,,,,,,,,,,,3474.1897206,3474.1897206,None,,3486.0650433,3488.2754955,3489.3438945000003,3489.3438945000003,3489.3438945000003,3489.3438945000003,n,1.3362278000000174,3474.1897206,3474.1897206,,,0,001,2024-06-11_13h39.16.200,robot_sternberg_sign,2022.2.5,60.11045897940956,
"['R', 'G', 'X', 'Z', 'L', 'T']",True,R,6,letter,3,False,True,"['robot_stimuli\\\\filler.mp4', 'robot_stimuli\\\\filler.mp4', 'robot_stimuli\\\\filler.mp4', 'robot_stimuli\\\\filler.mp4', 'robot_stimuli\\\\filler.mp4', 'robot_stimuli\\\\filler.mp4']",robot_stimuli\\filler.mp4,0,,,,,,,,,,,,,0,69,69,69,,,,,,,,,,,,,,,,,3504.8725505,3505.9282081,,,,,,,,,3507.1842551,3517.5255073,3507.1842551,3517.5255073,3507.1842551,3517.5255073,3507.1842551,3517.5255073,37.71604938271605,8.78268109999999,space,,,10.270419300000015,,,,,,,,3490.7668853,3490.7668853,None,,3502.6674162,3504.8725505,3505.9282081,3505.9282081,3505.9282081,3505.9282081,c,1.0874915999998507,3490.7668853,3490.7668853,,,0,001,2024-06-11_13h39.16.200,robot_sternberg_sign,2022.2.5,60.11045897940956,
"['P', 'C', 'M', 'Z']",True,C,4,letter,3,True,False,"['robot_stimuli\\\\filler.mp4', 'robot_stimuli\\\\filler.mp4', 'robot_stimuli\\\\filler.mp4', 'robot_stimuli\\\\filler.mp4']",robot_stimuli\\filler.mp4,0,,,,,,,,,,,,,0,70,70,70,,,,,,,,,,,,,,,,,3546.5437963,3538.0638241,,,,,,,,,3549.2438836,3549.2438836,3549.2438836,3549.2438836,3549.2438836,3549.2438836,3549.2438836,3549.2438836,None,None,None,,,,,,,,,,,3517.5255073,3517.5255073,space,19.44953419999962,3544.5228406,3546.5437963,3547.6117161,3547.6117161,3547.6117161,3547.6117161,c,1.380402899999865,,,,,0,001,2024-06-11_13h39.16.200,robot_sternberg_sign,2022.2.5,60.11045897940956,
"['S', 'R', 'Q', 'B']",False,H,4,letter,3,False,False,"['robot_stimuli\\\\filler.mp4', 'robot_stimuli\\\\filler.mp4', 'robot_stimuli\\\\filler.mp4', 'robot_stimuli\\\\filler.mp4']",robot_stimuli\\filler.mp4,0,,,,,,,,,,,,,0,71,71,71,,,,,,,,,,,,,,,,,3558.7886006,3559.8462761,,,,,,,,,3561.2745148,3561.2745148,3561.2745148,3561.2745148,3561.2745148,3561.2745148,3561.2745148,3561.2745148,None,None,None,,,,,,,,,,,3549.2438836,3549.2438836,None,,3556.773209,3558.7886006,3559.8462761,3559.8462761,3559.8462761,3559.8462761,n,1.3690844999997012,3549.2438836,3549.2438836,,,0,001,2024-06-11_13h39.16.200,robot_sternberg_sign,2022.2.5,60.11045897940956,
"['Z', 'T', 'K', 'Q']",False,R,4,letter,3,False,False,"['robot_stimuli\\\\filler.mp4', 'robot_stimuli\\\\filler.mp4', 'robot_stimuli\\\\filler.mp4', 'robot_stimuli\\\\filler.mp4']",robot_stimuli\\filler.mp4,0,,,,,,,,,,,,,0,72,72,72,,,,,,,,,,,,,,,,,3570.9921302000002,3562.329252,,,,,,,,,3575.2912157,3575.2912157,3575.2912157,3575.2912157,3575.2912157,3575.2912157,3575.2912157,3575.2912157,None,None,None,,,,,,,,,,,3561.2745148,3561.2745148,None,,3568.7776151000003,3570.9921302000002,3572.0632279,3572.0632279,3572.0632279,3572.0632279,n,3.0238193000000706,3561.2745148,3561.2745148,,,0,001,2024-06-11_13h39.16.200,robot_sternberg_sign,2022.2.5,60.11045897940956,
"['P', 'L', 'G', 'Z']",True,L,4,letter,3,False,False,"['robot_stimuli\\\\filler.mp4', 'robot_stimuli\\\\filler.mp4', 'robot_stimuli\\\\filler.mp4', 'robot_stimuli\\\\filler.mp4']",robot_stimuli\\filler.mp4,0,,,,,,,,,,,,,0,73,73,73,,,,,,,,,,,,,,,,,3585.0130538,3586.0782923,,,,,,,,,3587.3061781,3587.3061781,3587.3061781,3587.3061781,3587.3061781,3587.3061781,3587.3061781,3587.3061781,None,None,None,,,,,,,,,,,3575.2912157,3575.2912157,None,,3583.0054029000003,3585.0130538,3586.0782923,3586.0782923,3586.0782923,3586.0782923,c,1.0971387000000163,3575.2912157,3575.2912157,,,0,001,2024-06-11_13h39.16.200,robot_sternberg_sign,2022.2.5,60.11045897940956,
"['Q', 'S', 'B', 'F']",False,Z,4,letter,3,False,False,"['robot_stimuli\\\\filler.mp4', 'robot_stimuli\\\\filler.mp4', 'robot_stimuli\\\\filler.mp4', 'robot_stimuli\\\\filler.mp4']",robot_stimuli\\filler.mp4,0,,,,,,,,,,,,,0,74,74,74,,,,,,,,,,,,,,,,,3597.0378061,3598.0961038,,,,,,,,,3599.3300914,3599.3300914,3599.3300914,3599.3300914,3599.3300914,3599.3300914,3599.3300914,3599.3300914,None,None,None,,,,,,,,,,,3587.3061781,3587.3061781,None,,3595.024656,3597.0378061,3598.0961038,3598.0961038,3598.0961038,3598.0961038,n,1.062401100000045,3587.3061781,3587.3061781,,,0,001,2024-06-11_13h39.16.200,robot_sternberg_sign,2022.2.5,60.11045897940956,
"['G', 'R', 'Z', 'D']",True,R,4,letter,3,False,False,"['robot_stimuli\\\\filler.mp4', 'robot_stimuli\\\\filler.mp4', 'robot_stimuli\\\\filler.mp4', 'robot_stimuli\\\\filler.mp4']",robot_stimuli\\filler.mp4,0,,,,,,,,,,,,,0,75,75,75,,,,,,,,,,,,,,,,,3608.6662925,3609.7384502,,,,,,,,,3611.3614684,3611.3614684,3611.3614684,3611.3614684,3611.3614684,3611.3614684,3611.3614684,3611.3614684,None,None,None,,,,,,,,,,,3599.3300914,3599.3300914,None,,3606.6565989,3608.6662925,3609.7384502,3609.7384502,3609.7384502,3609.7384502,c,1.5092062999997893,3599.3300914,3599.3300914,,,0,001,2024-06-11_13h39.16.200,robot_sternberg_sign,2022.2.5,60.11045897940956,
"['K', 'V', 'T', 'N']",True,T,4,letter,3,False,False,"['robot_stimuli\\\\filler.mp4', 'robot_stimuli\\\\filler.mp4', 'robot_stimuli\\\\filler.mp4', 'robot_stimuli\\\\filler.mp4']",robot_stimuli\\filler.mp4,0,,,,,,,,,,,,,0,76,76,76,,,,,,,,,,,,,,,,,3621.1066184,3622.1643751,,,,,,,,,3625.7965188999997,3625.7965188999997,3625.7965188999997,3625.7965188999997,3625.7965188999997,3625.7965188999997,3625.7965188999997,3625.7965188999997,None,None,None,,,,,,,,,,,3611.3614684,3611.3614684,None,,3619.084857,3621.1066184,3622.1643751,3622.1643751,3622.1643751,3622.1643751,c,3.5553248000006192,3611.3614684,3611.3614684,,,0,001,2024-06-11_13h39.16.200,robot_sternberg_sign,2022.2.5,60.11045897940956,
"['L', 'T', 'B', 'V']",False,F,4,letter,3,False,False,"['robot_stimuli\\\\filler.mp4', 'robot_stimuli\\\\filler.mp4', 'robot_stimuli\\\\filler.mp4', 'robot_stimuli\\\\filler.mp4']",robot_stimuli\\filler.mp4,0,,,,,,,,,,,,,0,77,77,77,,,,,,,,,,,,,,,,,3635.5326588,3636.5958188000004,,,,,,,,,3637.8247209,3637.8247209,3637.8247209,3637.8247209,3637.8247209,3637.8247209,3637.8247209,3637.8247209,None,None,None,,,,,,,,,,,3625.7965188999997,3625.7965188999997,None,,3633.5133281999997,3635.5326588,3636.5958188000004,3636.5958188000004,3636.5958188000004,3636.5958188000004,n,1.1720384999999283,3625.7965188999997,3625.7965188999997,,,0,001,2024-06-11_13h39.16.200,robot_sternberg_sign,2022.2.5,60.11045897940956,
"['V', 'B', 'F', 'M']",True,F,4,letter,3,False,False,"['robot_stimuli\\\\filler.mp4', 'robot_stimuli\\\\filler.mp4', 'robot_stimuli\\\\filler.mp4', 'robot_stimuli\\\\filler.mp4']",robot_stimuli\\filler.mp4,0,,,,,,,,,,,,,0,78,78,78,,,,,,,,,,,,,,,,,3647.7452624,3648.8127234000003,,,,,,,,,3651.6414875,3651.6414875,3651.6414875,3651.6414875,3651.6414875,3651.6414875,3651.6414875,3651.6414875,None,None,None,,,,,,,,,,,3637.8247209,3637.8247209,None,,3645.5287295,3647.7452624,3648.8127234000003,3648.8127234000003,3648.8127234000003,3648.8127234000003,c,2.706100299999946,3637.8247209,3637.8247209,,,0,001,2024-06-11_13h39.16.200,robot_sternberg_sign,2022.2.5,60.11045897940956,
"['Q', 'V', 'C', 'F']",False,T,4,letter,3,False,True,"['robot_stimuli\\\\filler.mp4', 'robot_stimuli\\\\filler.mp4', 'robot_stimuli\\\\filler.mp4', 'robot_stimuli\\\\filler.mp4']",robot_stimuli\\filler.mp4,0,,,,,,,,,,,,,0,79,79,79,,,,,,,,,,,,,,,,,3661.7534425000003,3662.8109799000003,,,,,,,,,3665.8684270000003,3669.6360003,3665.8684270000003,3669.6360003,3665.8684270000003,3669.6360003,3665.8684270000003,3669.6360003,33.54938271604938,2.6255876999994143,space,,,3.7071411999996258,,,,,,,,3651.6414875,3651.6414875,None,,3659.5457033000002,3661.7534425000003,3662.8109799000003,3662.8109799000003,3662.8109799000003,3662.8109799000003,n,2.869039199999918,3651.6414875,3651.6414875,,,0,001,2024-06-11_13h39.16.200,robot_sternberg_sign,2022.2.5,60.11045897940956,
"['R', 'M']",False,N,2,letter,3,True,False,"['robot_stimuli\\\\filler.mp4', 'robot_stimuli\\\\filler.mp4']",robot_stimuli\\filler.mp4,0,,,,,,,,,,,,,0,80,80,80,,,,,,,,,,,,,,,,,3676.4372375000003,3677.4957056000003,,,,,,,,,3679.1249263,3679.1249263,3679.1249263,3679.1249263,3679.1249263,3679.1249263,3679.1249263,3679.1249263,None,None,None,,,,,,,,,,,3669.6360003,3669.6360003,space,1.618849599999578,3674.4226713999997,3676.4372375000003,3677.4957056000003,3677.4957056000003,3677.4957056000003,3677.4957056000003,n,1.5354232000000252,,,,,0,001,2024-06-11_13h39.16.200,robot_sternberg_sign,2022.2.5,60.11045897940956,
"['N', 'C']",False,M,2,letter,3,False,False,"['robot_stimuli\\\\filler.mp4', 'robot_stimuli\\\\filler.mp4']",robot_stimuli\\filler.mp4,0,,,,,,,,,,,,,0,81,81,81,,,,,,,,,,,,,,,,,3684.4930457,3680.1805915000004,,,,,,,,,3686.7802748000004,3686.7802748000004,3686.7802748000004,3686.7802748000004,3686.7802748000004,3686.7802748000004,3686.7802748000004,3686.7802748000004,None,None,None,,,,,,,,,,,3679.1249263,3679.1249263,None,,3682.4697036,3684.4930457,3685.560979,3685.560979,3685.560979,3685.560979,n,1.1504237999998281,3679.1249263,3679.1249263,,,0,001,2024-06-11_13h39.16.200,robot_sternberg_sign,2022.2.5,60.11045897940956,
"['G', 'B']",True,G,2,letter,3,False,False,"['robot_stimuli\\\\filler.mp4', 'robot_stimuli\\\\filler.mp4']",robot_stimuli\\filler.mp4,0,,,,,,,,,,,,,0,82,82,82,,,,,,,,,,,,,,,,,3692.3453484,3693.4145202,,,,,,,,,3694.4327796999996,3694.4327796999996,3694.4327796999996,3694.4327796999996,3694.4327796999996,3694.4327796999996,3694.4327796999996,3694.4327796999996,None,None,None,,,,,,,,,,,3686.7802748000004,3686.7802748000004,None,,3690.1308150000004,3692.3453484,3693.4145202,3693.4145202,3693.4145202,3693.4145202,c,0.8821024999998031,3686.7802748000004,3686.7802748000004,,,0,001,2024-06-11_13h39.16.200,robot_sternberg_sign,2022.2.5,60.11045897940956,
"['Q', 'K']",True,K,2,letter,3,False,False,"['robot_stimuli\\\\filler.mp4', 'robot_stimuli\\\\filler.mp4']",robot_stimuli\\filler.mp4,0,,,,,,,,,,,,,0,83,83,83,,,,,,,,,,,,,,,,,3699.9984817000004,3701.0622611999997,,,,,,,,,3702.0819024,3702.0819024,3702.0819024,3702.0819024,3702.0819024,3702.0819024,3702.0819024,3702.0819024,None,None,None,,,,,,,,,,,3694.4327796999996,3694.4327796999996,None,,3697.7813455000005,3699.9984817000004,3701.0622611999997,3701.0622611999997,3701.0622611999997,3701.0622611999997,c,0.969447399999865,3694.4327796999996,3694.4327796999996,,,0,001,2024-06-11_13h39.16.200,robot_sternberg_sign,2022.2.5,60.11045897940956,
"['N', 'G']",True,N,2,letter,3,False,False,"['robot_stimuli\\\\filler.mp4', 'robot_stimuli\\\\filler.mp4']",robot_stimuli\\filler.mp4,0,,,,,,,,,,,,,0,84,84,84,,,,,,,,,,,,,,,,,3707.2503908999997,3708.3122124,,,,,,,,,3710.1395687000004,3710.1395687000004,3710.1395687000004,3710.1395687000004,3710.1395687000004,3710.1395687000004,3710.1395687000004,3710.1395687000004,None,None,None,,,,,,,,,,,3702.0819024,3702.0819024,None,,3705.2360301,3707.2503908999997,3708.3122124,3708.3122124,3708.3122124,3708.3122124,c,1.7045097999999257,3702.0819024,3702.0819024,,,0,001,2024-06-11_13h39.16.200,robot_sternberg_sign,2022.2.5,60.11045897940956,
"['B', 'H']",False,T,2,letter,3,False,False,"['robot_stimuli\\\\filler.mp4', 'robot_stimuli\\\\filler.mp4']",robot_stimuli\\filler.mp4,0,,,,,,,,,,,,,0,85,85,85,,,,,,,,,,,,,,,,,3715.5069874,3716.5622411000004,,,,,,,,,3717.7840533,3717.7840533,3717.7840533,3717.7840533,3717.7840533,3717.7840533,3717.7840533,3717.7840533,None,None,None,,,,,,,,,,,3710.1395687000004,3710.1395687000004,None,,3713.4861815000004,3715.5069874,3716.5622411000004,3716.5622411000004,3716.5622411000004,3716.5622411000004,n,1.1649999000001685,3710.1395687000004,3710.1395687000004,,,0,001,2024-06-11_13h39.16.200,robot_sternberg_sign,2022.2.5,60.11045897940956,
"['X', 'D']",True,D,2,letter,3,False,False,"['robot_stimuli\\\\filler.mp4', 'robot_stimuli\\\\filler.mp4']",robot_stimuli\\filler.mp4,0,,,,,,,,,,,,,0,86,86,86,,,,,,,,,,,,,,,,,3723.1504541000004,3724.2127628999997,,,,,,,,,3726.8394541,3726.8394541,3726.8394541,3726.8394541,3726.8394541,3726.8394541,3726.8394541,3726.8394541,None,None,None,,,,,,,,,,,3717.7840533,3717.7840533,None,,3720.9344296,3723.1504541000004,3724.2127628999997,3724.2127628999997,3724.2127628999997,3724.2127628999997,c,2.44209860000052,3717.7840533,3717.7840533,,,0,001,2024-06-11_13h39.16.200,robot_sternberg_sign,2022.2.5,60.11045897940956,
"['X', 'W']",False,D,2,letter,3,False,False,"['robot_stimuli\\\\filler.mp4', 'robot_stimuli\\\\filler.mp4']",robot_stimuli\\filler.mp4,0,,,,,,,,,,,,,0,87,87,87,,,,,,,,,,,,,,,,,3732.3977605,3733.4687252000003,,,,,,,,,3735.0929628000004,3735.0929628000004,3735.0929628000004,3735.0929628000004,3735.0929628000004,3735.0929628000004,3735.0929628000004,3735.0929628000004,None,None,None,,,,,,,,,,,3726.8394541,3726.8394541,None,,3730.1892046000003,3732.3977605,3733.4687252000003,3733.4687252000003,3733.4687252000003,3733.4687252000003,n,1.4661127999998484,3726.8394541,3726.8394541,,,0,001,2024-06-11_13h39.16.200,robot_sternberg_sign,2022.2.5,60.11045897940956,
"['L', 'Q']",True,L,2,letter,3,False,False,"['robot_stimuli\\\\filler.mp4', 'robot_stimuli\\\\filler.mp4']",robot_stimuli\\filler.mp4,0,,,,,,,,,,,,,0,88,88,88,,,,,,,,,,,,,,,,,3740.4903802,3741.5551891000005,,,,,,,,,3742.5866794000003,3742.5866794000003,3742.5866794000003,3742.5866794000003,3742.5866794000003,3742.5866794000003,3742.5866794000003,3742.5866794000003,None,None,None,,,,,,,,,,,3735.0929628000004,3735.0929628000004,None,,3738.4751490999997,3740.4903802,3741.5551891000005,3741.5551891000005,3741.5551891000005,3741.5551891000005,c,0.8686043999996969,3735.0929628000004,3735.0929628000004,,,0,001,2024-06-11_13h39.16.200,robot_sternberg_sign,2022.2.5,60.11045897940956,
"['G', 'M']",False,Z,2,letter,3,False,True,"['robot_stimuli\\\\filler.mp4', 'robot_stimuli\\\\filler.mp4']",robot_stimuli\\filler.mp4,0,,,,,,,,,,,,,0,89,89,89,,,,,,,,,,,,,,,,,3747.9565904,3749.0120002000003,,,,,,,,,3750.2634258999997,3757.1402706,3750.2634258999997,3757.1402706,3750.2634258999997,3757.1402706,3750.2634258999997,3757.1402706,30.15432098765432,5.27091560000008,space,,,6.81610360000019,,,,,,,,3742.5866794000003,3742.5866794000003,None,,3745.743133,3747.9565904,3749.0120002000003,3749.0120002000003,3749.0120002000003,3749.0120002000003,n,1.1632871999991607,3742.5866794000003,3742.5866794000003,,,0,001,2024-06-11_13h39.16.200,robot_sternberg_sign,2022.2.5,60.11045897940956,
"['R_Arm_X_Back', 'L_Torso_X_For', 'L_Head_Z_Back', 'R_Arm_Y_Back']",True,L_Torso_X_For,4,robot,4,True,False,"['robot_stimuli\\R_Arm_X_Back.mp4', 'robot_stimuli\\L_Torso_X_For.mp4', 'robot_stimuli\\L_Head_Z_Back.mp4', 'robot_stimuli\\R_Arm_Y_Back.mp4']",robot_stimuli\L_Torso_X_For.mp4,0,,,,,,,,,,,,,0,90,90,90,,,,,,,,,,,,,,,,,3791.3313712,3792.4185877,,,,,,,,,3796.0574776000003,3796.0574776000003,3796.0574776000003,3796.0574776000003,3796.0574776000003,3796.0574776000003,3796.0574776000003,3796.0574776000003,None,None,None,,,,,,,,,,,3757.1402706,3757.1402706,space,18.276545599999793,,,,3792.4185877,3792.4185877,3792.4185877,c,3.3573976999996944,,,3787.6996369,3792.4185877,0,001,2024-06-11_13h39.16.200,robot_sternberg_sign,2022.2.5,60.11045897940956,
"['L_Torso_Z_For', 'R_Head_X_Back', 'R_Torso_Z_Back', 'R_Torso_X_For']",True,R_Torso_Z_Back,4,robot,4,False,False,"['robot_stimuli\\L_Torso_Z_For.mp4', 'robot_stimuli\\R_Head_X_Back.mp4', 'robot_stimuli\\R_Torso_Z_Back.mp4', 'robot_stimuli\\R_Torso_X_For.mp4']",robot_stimuli\R_Torso_Z_Back.mp4,0,,,,,,,,,,,,,0,91,91,91,,,,,,,,,,,,,,,,,3811.9276582,3797.1338766999997,,,,,,,,,3817.3940405000003,3817.3940405000003,3817.3940405000003,3817.3940405000003,3817.3940405000003,3817.3940405000003,3817.3940405000003,3817.3940405000003,None,None,None,,,,,,,,,,,3796.0574776000003,3796.0574776000003,None,,,,,3813.0230663,3813.0230663,3813.0230663,c,4.321403699999848,3796.0574776000003,3796.0574776000003,3808.2859098,3813.0230663,0,001,2024-06-11_13h39.16.200,robot_sternberg_sign,2022.2.5,60.11045897940956,
"['R_Base_Y_For', 'L_Base_Y_For', 'R_Base_X_For', 'R_Head_Z_For']",False,R_Torso_Z_For,4,robot,4,False,False,"['robot_stimuli\\R_Base_Y_For.mp4', 'robot_stimuli\\L_Base_Y_For.mp4', 'robot_stimuli\\R_Base_X_For.mp4', 'robot_stimuli\\R_Head_Z_For.mp4']",robot_stimuli\R_Torso_Z_For.mp4,0,,,,,,,,,,,,,0,92,92,92,,,,,,,,,,,,,,,,,3833.0804278000005,3834.1700877000003,,,,,,,,,3837.8197092,3837.8197092,3837.8197092,3837.8197092,3837.8197092,3837.8197092,3837.8197092,3837.8197092,None,None,None,,,,,,,,,,,3817.3940405000003,3817.3940405000003,None,,,,,3834.1700877000003,3834.1700877000003,3834.1700877000003,n,2.7901421999995932,3817.3940405000003,3817.3940405000003,3829.4469832000004,3834.1700877000003,0,001,2024-06-11_13h39.16.200,robot_sternberg_sign,2022.2.5,60.11045897940956,
"['R_Base_X_For', 'L_Head_Y_Back', 'L_Head_Y_For', 'L_Head_X_For']",False,R_Arm_X_Back,4,robot,4,False,False,"['robot_stimuli\\R_Base_X_For.mp4', 'robot_stimuli\\L_Head_Y_Back.mp4', 'robot_stimuli\\L_Head_Y_For.mp4', 'robot_stimuli\\L_Head_X_For.mp4']",robot_stimuli\R_Arm_X_Back.mp4,0,,,,,,,,,,,,,0,93,93,93,,,,,,,,,,,,,,,,,3853.5127007,3854.6031622,,,,,,,,,3858.2330908000004,3858.2330908000004,3858.2330908000004,3858.2330908000004,3858.2330908000004,3858.2330908000004,3858.2330908000004,3858.2330908000004,None,None,None,,,,,,,,,,,3837.8197092,3837.8197092,None,,,,,3854.6031622,3854.6031622,3854.6031622,n,3.0446622000000048,3837.8197092,3837.8197092,3849.9480217,3854.6031622,0,001,2024-06-11_13h39.16.200,robot_sternberg_sign,2022.2.5,60.11045897940956,
"['L_Arm_X_Back', 'L_Head_X_Back', 'R_Arm_Z_Back', 'L_Head_X_For']",True,R_Arm_Z_Back,4,robot,4,False,False,"['robot_stimuli\\L_Arm_X_Back.mp4', 'robot_stimuli\\L_Head_X_Back.mp4', 'robot_stimuli\\R_Arm_Z_Back.mp4', 'robot_stimuli\\L_Head_X_For.mp4']",robot_stimuli\R_Arm_Z_Back.mp4,0,,,,,,,,,,,,,0,94,94,94,,,,,,,,,,,,,,,,,3874.0599264,3859.3152293000003,,,,,,,,,3878.8026179,3878.8026179,3878.8026179,3878.8026179,3878.8026179,3878.8026179,3878.8026179,3878.8026179,None,None,None,,,,,,,,,,,3858.2330908000004,3858.2330908000004,None,,,,,3875.1545904000004,3875.1545904000004,3875.1545904000004,c,2.852780399999631,3858.2330908000004,3858.2330908000004,3870.4857316999996,3875.1545904000004,0,001,2024-06-11_13h39.16.200,robot_sternberg_sign,2022.2.5,60.11045897940956,
"['R_Base_X_For', 'L_Torso_Y_For', 'L_Base_X_For', 'L_Arm_Y_Back']",True,R_Base_X_For,4,robot,4,False,False,"['robot_stimuli\\R_Base_X_For.mp4', 'robot_stimuli\\L_Torso_Y_For.mp4', 'robot_stimuli\\L_Base_X_For.mp4', 'robot_stimuli\\L_Arm_Y_Back.mp4']",robot_stimuli\R_Base_X_For.mp4,0,,,,,,,,,,,,,0,95,95,95,,,,,,,,,,,,,,,,,3894.513997,3895.6038587000003,,,,,,,,,3899.2890102,3899.2890102,3899.2890102,3899.2890102,3899.2890102,3899.2890102,3899.2890102,3899.2890102,None,None,None,,,,,,,,,,,3878.8026179,3878.8026179,None,,,,,3895.6038587000003,3895.6038587000003,3895.6038587000003,c,3.644715799999233,3878.8026179,3878.8026179,3890.8831493,3895.6038587000003,0,001,2024-06-11_13h39.16.200,robot_sternberg_sign,2022.2.5,60.11045897940956,
"['L_Head_Z_For', 'R_Torso_X_For', 'L_Base_X_Back', 'R_Arm_Z_Back']",False,L_Torso_Z_Back,4,robot,4,False,False,"['robot_stimuli\\L_Head_Z_For.mp4', 'robot_stimuli\\R_Torso_X_For.mp4', 'robot_stimuli\\L_Base_X_Back.mp4', 'robot_stimuli\\R_Arm_Z_Back.mp4']",robot_stimuli\L_Torso_Z_Back.mp4,0,,,,,,,,,,,,,0,96,96,96,,,,,,,,,,,,,,,,,3915.1325228000005,3916.2198645999997,,,,,,,,,3920.0544182000003,3920.0544182000003,3920.0544182000003,3920.0544182000003,3920.0544182000003,3920.0544182000003,3920.0544182000003,3920.0544182000003,None,None,None,,,,,,,,,,,3899.2890102,3899.2890102,None,,,,,3916.2198645999997,3916.2198645999997,3916.2198645999997,n,3.795043600000156,3899.2890102,3899.2890102,3911.5026209999996,3916.2198645999997,0,001,2024-06-11_13h39.16.200,robot_sternberg_sign,2022.2.5,60.11045897940956,
"['R_Head_Z_For', 'R_Base_Y_Back', 'L_Head_Z_Back', 'L_Head_X_Back']",True,R_Base_Y_Back,4,robot,4,False,False,"['robot_stimuli\\R_Head_Z_For.mp4', 'robot_stimuli\\R_Base_Y_Back.mp4', 'robot_stimuli\\L_Head_Z_Back.mp4', 'robot_stimuli\\L_Head_X_Back.mp4']",robot_stimuli\R_Base_Y_Back.mp4,0,,,,,,,,,,,,,0,97,97,97,,,,,,,,,,,,,,,,,3935.9478184,3937.051235,,,,,,,,,3940.6903425,3940.6903425,3940.6903425,3940.6903425,3940.6903425,3940.6903425,3940.6903425,3940.6903425,None,None,None,,,,,,,,,,,3920.0544182000003,3920.0544182000003,None,,,,,3937.051235,3937.051235,3937.051235,c,2.499883600000487,3920.0544182000003,3920.0544182000003,3932.3032966,3937.051235,0,001,2024-06-11_13h39.16.200,robot_sternberg_sign,2022.2.5,60.11045897940956,
"['R_Head_X_Back', 'R_Torso_X_For', 'R_Head_Y_Back', 'R_Base_Z_Back']",False,L_Arm_X_For,4,robot,4,False,False,"['robot_stimuli\\R_Head_X_Back.mp4', 'robot_stimuli\\R_Torso_X_For.mp4', 'robot_stimuli\\R_Head_Y_Back.mp4', 'robot_stimuli\\R_Base_Z_Back.mp4']",robot_stimuli\L_Arm_X_For.mp4,0,,,,,,,,,,,,,0,98,98,98,,,,,,,,,,,,,,,,,3956.4814736,3957.5688324000002,,,,,,,,,3961.2090986000003,3961.2090986000003,3961.2090986000003,3961.2090986000003,3961.2090986000003,3961.2090986000003,3961.2090986000003,3961.2090986000003,None,None,None,,,,,,,,,,,3940.6903425,3940.6903425,None,,,,,3957.5688324000002,3957.5688324000002,3957.5688324000002,n,2.694937100000118,3940.6903425,3940.6903425,3952.9506493,3957.5688324000002,0,001,2024-06-11_13h39.16.200,robot_sternberg_sign,2022.2.5,60.11045897940956,
"['L_Base_Z_Back', 'R_Arm_Z_For', 'R_Head_Y_For', 'R_Base_Y_For']",False,R_Arm_X_For,4,robot,4,False,True,"['robot_stimuli\\L_Base_Z_Back.mp4', 'robot_stimuli\\R_Arm_Z_For.mp4', 'robot_stimuli\\R_Head_Y_For.mp4', 'robot_stimuli\\R_Base_Y_For.mp4']",robot_stimuli\R_Arm_X_For.mp4,0,,,,,,,,,,,,,0,99,99,99,,,,,,,,,,,,,,,,,3977.0954466000003,3978.2011042000004,,,,,,,,,3981.8729338000003,3988.5673733000003,3981.8729338000003,3988.5673733000003,3981.8729338000003,3988.5673733000003,3981.8729338000003,3988.5673733000003,38.02469135802469,5.341989900000044,space,,,6.630611499999816,,,,,,,,3961.2090986000003,3961.2090986000003,None,,,,,3978.2011042000004,3978.2011042000004,3978.2011042000004,n,2.6153158999996435,3961.2090986000003,3961.2090986000003,3973.4672147,3978.2011042000004,0,001,2024-06-11_13h39.16.200,robot_sternberg_sign,2022.2.5,60.11045897940956,
"['L_Arm_Z_For', 'L_Arm_Z_Back', 'R_Arm_X_Back', 'R_Base_Y_Back', 'R_Arm_Z_Back', 'L_Torso_Z_Back']",True,L_Arm_Z_For,6,robot,4,True,False,"['robot_stimuli\\L_Arm_Z_For.mp4', 'robot_stimuli\\L_Arm_Z_Back.mp4', 'robot_stimuli\\R_Arm_X_Back.mp4', 'robot_stimuli\\R_Base_Y_Back.mp4', 'robot_stimuli\\R_Arm_Z_Back.mp4', 'robot_stimuli\\L_Torso_Z_Back.mp4']",robot_stimuli\L_Arm_Z_For.mp4,0,,,,,,,,,,,,,0,100,100,100,,,,,,,,,,,,,,,,,4036.7104113000005,4014.5855645,,,,,,,,,4041.4424598000005,4041.4424598000005,4041.4424598000005,4041.4424598000005,4041.4424598000005,4041.4424598000005,4041.4424598000005,4041.4424598000005,None,None,None,,,,,,,,,,,3988.5673733000003,3988.5673733000003,space,24.91324609999998,,,,4037.8034383000004,4037.8034383000004,4037.8034383000004,c,2.532490900000141,,,4033.2121880000004,4037.8034383000004,0,001,2024-06-11_13h39.16.200,robot_sternberg_sign,2022.2.5,60.11045897940956,
"['R_Base_Y_Back', 'L_Arm_Y_For', 'R_Arm_Z_For', 'R_Base_X_For', 'L_Arm_Y_Back', 'L_Head_X_For']",False,R_Base_X_Back,6,robot,4,False,False,"['robot_stimuli\\R_Base_Y_Back.mp4', 'robot_stimuli\\L_Arm_Y_For.mp4', 'robot_stimuli\\R_Arm_Z_For.mp4', 'robot_stimuli\\R_Base_X_For.mp4', 'robot_stimuli\\L_Arm_Y_Back.mp4', 'robot_stimuli\\L_Head_X_For.mp4']",robot_stimuli\R_Base_X_Back.mp4,0,,,,,,,,,,,,,0,101,101,101,,,,,,,,,,,,,,,,,4064.6165711000003,4065.7079808999997,,,,,,,,,4069.4866297,4069.4866297,4069.4866297,4069.4866297,4069.4866297,4069.4866297,4069.4866297,4069.4866297,None,None,None,,,,,,,,,,,4041.4424598000005,4041.4424598000005,None,,,,,4065.7079808999997,4065.7079808999997,4065.7079808999997,n,3.7479170000006548,4041.4424598000005,4041.4424598000005,4061.0523884000004,4065.7079808999997,0,001,2024-06-11_13h39.16.200,robot_sternberg_sign,2022.2.5,60.11045897940956,
"['R_Torso_Y_Back', 'L_Head_Y_For', 'L_Arm_X_Back', 'R_Torso_X_Back', 'R_Torso_Y_For', 'R_Torso_Z_Back']",True,R_Torso_Y_Back,6,robot,4,False,False,"['robot_stimuli\\R_Torso_Y_Back.mp4', 'robot_stimuli\\L_Head_Y_For.mp4', 'robot_stimuli\\L_Arm_X_Back.mp4', 'robot_stimuli\\R_Torso_X_Back.mp4', 'robot_stimuli\\R_Torso_Y_For.mp4', 'robot_stimuli\\R_Torso_Z_Back.mp4']",robot_stimuli\R_Torso_Y_Back.mp4,0,,,,,,,,,,,,,0,102,102,102,,,,,,,,,,,,,,,,,4092.8150074000005,4093.9027653000003,,,,,,,,,4101.8726347,4101.8726347,4101.8726347,4101.8726347,4101.8726347,4101.8726347,4101.8726347,4101.8726347,None,None,None,,,,,,,,,,,4069.4866297,4069.4866297,None,,,,,4093.9027653000003,4093.9027653000003,4093.9027653000003,c,7.938067300000569,4069.4866297,4069.4866297,4089.1840136,4093.9027653000003,0,001,2024-06-11_13h39.16.200,robot_sternberg_sign,2022.2.5,60.11045897940956,
"['L_Arm_X_Back', 'L_Arm_Y_For', 'R_Head_Z_For', 'R_Base_X_For', 'R_Head_X_For', 'L_Base_Z_Back']",True,R_Head_X_For,6,robot,4,False,False,"['robot_stimuli\\L_Arm_X_Back.mp4', 'robot_stimuli\\L_Arm_Y_For.mp4', 'robot_stimuli\\R_Head_Z_For.mp4', 'robot_stimuli\\R_Base_X_For.mp4', 'robot_stimuli\\R_Head_X_For.mp4', 'robot_stimuli\\L_Base_Z_Back.mp4']",robot_stimuli\R_Head_X_For.mp4,0,,,,,,,,,,,,,0,103,103,103,,,,,,,,,,,,,,,,,4125.0771734,4102.9502188,,,,,,,,,4129.8199595,4129.8199595,4129.8199595,4129.8199595,4129.8199595,4129.8199595,4129.8199595,4129.8199595,None,None,None,,,,,,,,,,,4101.8726347,4101.8726347,None,,,,,4126.1715417000005,4126.1715417000005,4126.1715417000005,c,3.0128687999995805,4101.8726347,4101.8726347,4121.4371111,4126.1715417000005,0,001,2024-06-11_13h39.16.200,robot_sternberg_sign,2022.2.5,60.11045897940956,
"['R_Arm_X_Back', 'R_Head_Z_Back', 'R_Head_Y_Back', 'R_Arm_Z_Back', 'R_Arm_Y_Back', 'L_Base_X_For']",False,R_Arm_Y_For,6,robot,4,False,False,"['robot_stimuli\\R_Arm_X_Back.mp4', 'robot_stimuli\\R_Head_Z_Back.mp4', 'robot_stimuli\\R_Head_Y_Back.mp4', 'robot_stimuli\\R_Arm_Z_Back.mp4', 'robot_stimuli\\R_Arm_Y_Back.mp4', 'robot_stimuli\\L_Base_X_For.mp4']",robot_stimuli\R_Arm_Y_For.mp4,0,,,,,,,,,,,,,0,104,104,104,,,,,,,,,,,,,,,,,4153.0800811,4154.1735745,,,,,,,,,4157.6917289,4157.6917289,4157.6917289,4157.6917289,4157.6917289,4157.6917289,4157.6917289,4157.6917289,None,None,None,,,,,,,,,,,4129.8199595,4129.8199595,None,,,,,4154.1735745,4154.1735745,4154.1735745,n,2.754932699999756,4129.8199595,4129.8199595,4149.5045873,4154.1735745,0,001,2024-06-11_13h39.16.200,robot_sternberg_sign,2022.2.5,60.11045897940956,
"['L_Head_X_For', 'L_Base_Y_For', 'L_Base_Z_For', 'R_Torso_Z_For', 'R_Base_Z_For', 'R_Base_Z_Back']",True,R_Base_Z_For,6,robot,4,False,False,"['robot_stimuli\\L_Head_X_For.mp4', 'robot_stimuli\\L_Base_Y_For.mp4', 'robot_stimuli\\L_Base_Z_For.mp4', 'robot_stimuli\\R_Torso_Z_For.mp4', 'robot_stimuli\\R_Base_Z_For.mp4', 'robot_stimuli\\R_Base_Z_Back.mp4']",robot_stimuli\R_Base_Z_For.mp4,0,,,,,,,,,,,,,0,105,105,105,,,,,,,,,,,,,,,,,4180.7667224,4181.8536393,,,,,,,,,4185.4920520000005,4185.4920520000005,4185.4920520000005,4185.4920520000005,4185.4920520000005,4185.4920520000005,4185.4920520000005,4185.4920520000005,None,None,None,,,,,,,,,,,4157.6917289,4157.6917289,None,,,,,4181.8536393,4181.8536393,4181.8536393,c,2.35369469999938,4157.6917289,4157.6917289,4177.2357777,4181.8536393,0,001,2024-06-11_13h39.16.200,robot_sternberg_sign,2022.2.5,60.11045897940956,
"['R_Base_Y_For', 'L_Head_X_For', 'R_Head_Y_Back', 'R_Base_X_Back', 'R_Arm_Z_For', 'R_Torso_Y_Back']",True,R_Torso_Y_Back,6,robot,4,False,False,"['robot_stimuli\\R_Base_Y_For.mp4', 'robot_stimuli\\L_Head_X_For.mp4', 'robot_stimuli\\R_Head_Y_Back.mp4', 'robot_stimuli\\R_Base_X_Back.mp4', 'robot_stimuli\\R_Arm_Z_For.mp4', 'robot_stimuli\\R_Torso_Y_Back.mp4']",robot_stimuli\R_Torso_Y_Back.mp4,0,,,,,,,,,,,,,0,106,106,106,,,,,,,,,,,,,,,,,4208.7323177,4209.8207888,,,,,,,,,4213.4523974,4213.4523974,4213.4523974,4213.4523974,4213.4523974,4213.4523974,4213.4523974,4213.4523974,None,None,None,,,,,,,,,,,4185.4920520000005,4185.4920520000005,None,,,,,4209.8207888,4209.8207888,4209.8207888,c,2.7474112000000446,4185.4920520000005,4185.4920520000005,4205.1009063,4209.8207888,0,001,2024-06-11_13h39.16.200,robot_sternberg_sign,2022.2.5,60.11045897940956,
"['R_Base_Z_For', 'L_Base_X_Back', 'L_Torso_Z_For', 'L_Arm_X_Back', 'R_Base_Y_For', 'L_Arm_X_For']",False,R_Base_X_For,6,robot,4,False,False,"['robot_stimuli\\R_Base_Z_For.mp4', 'robot_stimuli\\L_Base_X_Back.mp4', 'robot_stimuli\\L_Torso_Z_For.mp4', 'robot_stimuli\\L_Arm_X_Back.mp4', 'robot_stimuli\\R_Base_Y_For.mp4', 'robot_stimuli\\L_Arm_X_For.mp4']",robot_stimuli\R_Base_X_For.mp4,0,,,,,,,,,,,,,0,107,107,107,,,,,,,,,,,,,,,,,4236.8041026,4237.9019653000005,,,,,,,,,4242.2521717,4242.2521717,4242.2521717,4242.2521717,4242.2521717,4242.2521717,4242.2521717,4242.2521717,None,None,None,,,,,,,,,,,4213.4523974,4213.4523974,None,,,,,4237.9019653000005,4237.9019653000005,4237.9019653000005,n,4.32242279999997,4213.4523974,4213.4523974,4233.157364,4237.9019653000005,0,001,2024-06-11_13h39.16.200,robot_sternberg_sign,2022.2.5,60.11045897940956,
"['R_Base_Z_Back', 'R_Head_X_Back', 'L_Arm_Y_For', 'R_Head_Y_For', 'L_Head_Y_For', 'L_Torso_Y_For']",False,R_Torso_Y_Back,6,robot,4,False,False,"['robot_stimuli\\R_Base_Z_Back.mp4', 'robot_stimuli\\R_Head_X_Back.mp4', 'robot_stimuli\\L_Arm_Y_For.mp4', 'robot_stimuli\\R_Head_Y_For.mp4', 'robot_stimuli\\L_Head_Y_For.mp4', 'robot_stimuli\\L_Torso_Y_For.mp4']",robot_stimuli\R_Torso_Y_Back.mp4,0,,,,,,,,,,,,,0,108,108,108,,,,,,,,,,,,,,,,,4265.4961962,4266.5875943,,,,,,,,,4270.2171783,4270.2171783,4270.2171783,4270.2171783,4270.2171783,4270.2171783,4270.2171783,4270.2171783,None,None,None,,,,,,,,,,,4242.2521717,4242.2521717,None,,,,,4266.5875943,4266.5875943,4266.5875943,c,2.116904199999283,4242.2521717,4242.2521717,4261.8653705,4266.5875943,0,001,2024-06-11_13h39.16.200,robot_sternberg_sign,2022.2.5,60.11045897940956,
"['R_Torso_Z_For', 'R_Head_Y_For', 'R_Head_X_Back', 'L_Head_Y_For', 'R_Torso_X_Back', 'L_Arm_X_Back']",False,R_Torso_X_For,6,robot,4,False,True,"['robot_stimuli\\R_Torso_Z_For.mp4', 'robot_stimuli\\R_Head_Y_For.mp4', 'robot_stimuli\\R_Head_X_Back.mp4', 'robot_stimuli\\L_Head_Y_For.mp4', 'robot_stimuli\\R_Torso_X_Back.mp4', 'robot_stimuli\\L_Arm_X_Back.mp4']",robot_stimuli\R_Torso_X_For.mp4,0,,,,,,,,,,,,,0,109,109,109,,,,,,,,,,,,,,,,,4293.5628564,4294.6540441,,,,,,,,,4301.657794,4308.6075529,4301.657794,4308.6075529,4301.657794,4308.6075529,4301.657794,4308.6075529,42.808641975308646,4.109125799999674,space,,,6.9024466000001325,,,,,,,,4270.2171783,4270.2171783,None,,,,,4294.6540441,4294.6540441,4294.6540441,c,6.938059799999849,4270.2171783,4270.2171783,4289.9211841,4294.6540441,0,001,2024-06-11_13h39.16.200,robot_sternberg_sign,2022.2.5,60.11045897940956,
"['R_Base_Z_Back', 'R_Torso_Y_For']",False,L_Head_Z_For,2,robot,4,True,False,"['robot_stimuli\\R_Base_Z_Back.mp4', 'robot_stimuli\\R_Torso_Y_For.mp4']",robot_stimuli\L_Head_Z_For.mp4,0,,,,,,,,,,,,,0,110,110,110,,,,,,,,,,,,,,,,,4327.2001741,4328.291544,,,,,,,,,4331.940003,4331.940003,4331.940003,4331.940003,4331.940003,4331.940003,4331.940003,4331.940003,None,None,None,,,,,,,,,,,4308.6075529,4308.6075529,space,10.233661299999824,,,,4328.291544,4328.291544,4328.291544,n,2.613220700000113,,,4323.5594925000005,4328.291544,0,001,2024-06-11_13h39.16.200,robot_sternberg_sign,2022.2.5,60.11045897940956,
"['R_Head_X_Back', 'L_Head_X_For']",True,R_Head_X_Back,2,robot,4,False,False,"['robot_stimuli\\R_Head_X_Back.mp4', 'robot_stimuli\\L_Head_X_For.mp4']",robot_stimuli\R_Head_X_Back.mp4,0,,,,,,,,,,,,,0,111,111,111,,,,,,,,,,,,,,,,,4340.3137991,4341.4039656,,,,,,,,,4345.0341655,4345.0341655,4345.0341655,4345.0341655,4345.0341655,4345.0341655,4345.0341655,4345.0341655,None,None,None,,,,,,,,,,,4331.940003,4331.940003,None,,,,,4341.4039656,4341.4039656,4341.4039656,c,2.6448217999996473,4331.940003,4331.940003,4336.7396421,4341.4039656,0,001,2024-06-11_13h39.16.200,robot_sternberg_sign,2022.2.5,60.11045897940956,
"['L_Base_Y_For', 'L_Head_Z_Back']",False,L_Base_Z_For,2,robot,4,False,False,"['robot_stimuli\\L_Base_Y_For.mp4', 'robot_stimuli\\L_Head_Z_Back.mp4']",robot_stimuli\L_Base_Z_For.mp4,0,,,,,,,,,,,,,0,112,112,112,,,,,,,,,,,,,,,,,4353.3600158,4354.4393835,,,,,,,,,4358.0892347,4358.0892347,4358.0892347,4358.0892347,4358.0892347,4358.0892347,4358.0892347,4358.0892347,None,None,None,,,,,,,,,,,4345.0341655,4345.0341655,None,,,,,4354.4393835,4354.4393835,4354.4393835,n,2.6727397999994196,4345.0341655,4345.0341655,4349.7299963000005,4354.4393835,0,001,2024-06-11_13h39.16.200,robot_sternberg_sign,2022.2.5,60.11045897940956,
"['L_Torso_Z_Back', 'R_Arm_Z_For']",False,R_Head_Y_For,2,robot,4,False,False,"['robot_stimuli\\L_Torso_Z_Back.mp4', 'robot_stimuli\\R_Arm_Z_For.mp4']",robot_stimuli\R_Head_Y_For.mp4,0,,,,,,,,,,,,,0,113,113,113,,,,,,,,,,,,,,,,,4366.3990399,4367.4880674,,,,,,,,,4373.1040237,4373.1040237,4373.1040237,4373.1040237,4373.1040237,4373.1040237,4373.1040237,4373.1040237,None,None,None,,,,,,,,,,,4358.0892347,4358.0892347,None,,,,,4367.4880674,4367.4880674,4367.4880674,n,5.576609199999496,4358.0892347,4358.0892347,4362.7590915,4367.4880674,0,001,2024-06-11_13h39.16.200,robot_sternberg_sign,2022.2.5,60.11045897940956,
"['R_Head_X_Back', 'L_Arm_X_For']",True,R_Head_X_Back,2,robot,4,False,False,"['robot_stimuli\\R_Head_X_Back.mp4', 'robot_stimuli\\L_Arm_X_For.mp4']",robot_stimuli\R_Head_X_Back.mp4,0,,,,,,,,,,,,,0,114,114,114,,,,,,,,,,,,,,,,,4381.5452644,4374.1852112,,,,,,,,,4386.288104,4386.288104,4386.288104,4386.288104,4386.288104,4386.288104,4386.288104,4386.288104,None,None,None,,,,,,,,,,,4373.1040237,4373.1040237,None,,,,,4382.6386095,4382.6386095,4382.6386095,c,2.985479999999427,4373.1040237,4373.1040237,4377.9068716,4382.6386095,0,001,2024-06-11_13h39.16.200,robot_sternberg_sign,2022.2.5,60.11045897940956,
"['R_Arm_Z_For', 'L_Head_Y_Back']",False,L_Arm_Z_Back,2,robot,4,False,False,"['robot_stimuli\\R_Arm_Z_For.mp4', 'robot_stimuli\\L_Head_Y_Back.mp4']",robot_stimuli\L_Arm_Z_Back.mp4,0,,,,,,,,,,,,,0,115,115,115,,,,,,,,,,,,,,,,,4394.7176002,4395.8079435,,,,,,,,,4399.4576045,4399.4576045,4399.4576045,4399.4576045,4399.4576045,4399.4576045,4399.4576045,4399.4576045,None,None,None,,,,,,,,,,,4386.288104,4386.288104,None,,,,,4395.8079435,4395.8079435,4395.8079435,n,1.7528613000004611,4386.288104,4386.288104,4391.0875885000005,4395.8079435,0,001,2024-06-11_13h39.16.200,robot_sternberg_sign,2022.2.5,60.11045897940956,
"['R_Head_Z_For', 'L_Base_Z_Back']",False,L_Head_Y_For,2,robot,4,False,False,"['robot_stimuli\\R_Head_Z_For.mp4', 'robot_stimuli\\L_Base_Z_Back.mp4']",robot_stimuli\L_Head_Y_For.mp4,0,,,,,,,,,,,,,0,116,116,116,,,,,,,,,,,,,,,,,4407.8829626,4408.9734709,,,,,,,,,4412.6228605,4412.6228605,4412.6228605,4412.6228605,4412.6228605,4412.6228605,4412.6228605,4412.6228605,None,None,None,,,,,,,,,,,4399.4576045,4399.4576045,None,,,,,4408.9734709,4408.9734709,4408.9734709,n,3.4433575000003316,4399.4576045,4399.4576045,4404.2538444,4408.9734709,0,001,2024-06-11_13h39.16.200,robot_sternberg_sign,2022.2.5,60.11045897940956,
"['R_Base_X_For', 'R_Head_X_Back']",True,R_Base_X_For,2,robot,4,False,False,"['robot_stimuli\\R_Base_X_For.mp4', 'robot_stimuli\\R_Head_X_Back.mp4']",robot_stimuli\R_Base_X_For.mp4,0,,,,,,,,,,,,,0,117,117,117,,,,,,,,,,,,,,,,,4420.9451663,4413.7023291000005,,,,,,,,,4425.5915792,4425.5915792,4425.5915792,4425.5915792,4425.5915792,4425.5915792,4425.5915792,4425.5915792,None,None,None,,,,,,,,,,,4412.6228605,4412.6228605,None,,,,,4422.0425135000005,4422.0425135000005,4422.0425135000005,c,3.3819343000005233,4412.6228605,4412.6228605,4417.3165633,4422.0425135000005,0,001,2024-06-11_13h39.16.200,robot_sternberg_sign,2022.2.5,60.11045897940956,
