sequence,is_true,target,condition,stimuli,block,is_block_beginning,is_block_ending,sequence_fnames,target_fname,subject,retraining.thisRepN,retraining.thisTrialN,retraining.thisN,retraining.thisIndex,training.thisRepN,training.thisTrialN,training.thisN,training.thisIndex,training_sequence_loop.thisRepN,training_sequence_loop.thisTrialN,training_sequence_loop.thisN,training_sequence_loop.thisIndex,trials.thisRepN,trials.thisTrialN,trials.thisN,trials.thisIndex,sequence_loop.thisRepN,sequence_loop.thisTrialN,sequence_loop.thisN,sequence_loop.thisIndex,langage_text.started,langage_key.started,langage_key.keys,langage_key.rt,intro_text.started,intro_key.started,intro_key.keys,intro_key.rt,training_intro_text.started,training_intro_key.started,training_intro_key.keys,training_intro_key.rt,polygon.started,polygon.stopped,training_presentation_letter.started,training_presentation_letter.stopped,training_recall_letter.started,training_recall_key.started,training_recall_question.started,training_recall_answer.started,training_recall_key.keys,training_recall_key.rt,RSME_labels.started,RSME_labels.stopped,RSME_ticks.started,RSME_ticks.stopped,RSME_text.started,RSME_text.stopped,RSME_key.started,RSME_key.stopped,RSME_ticks.response,RSME_ticks.rt,RSME_key.keys,training_intro_text.stopped,training_intro_key.stopped,RSME_key.rt,training_presentation_movie.started,training_recall_movie.started,experiment_beginning_text.started,experiment_beginning_keys.started,experiment_beginning_key.started,experiment_beginning_key.keys,experiment_beginning_key.rt,block_intro_text.started,block_intro_key.started,block_intro_key.keys,block_intro_key.rt,presentation_movie.started,recall_movie.started,recall_key.started,recall_question.started,recall_answer.started,recall_key.keys,recall_key.rt,block_intro_text.stopped,block_intro_key.stopped,presentation_letter.started,presentation_letter.stopped,recall_letter.started,participant,session,date,expName,psychopyVersion,frameRate,
,,,,,,,,,,,,,,,,,,,,,,,,,,,,,,,10.636856099998113,10.636856099998113,e,229.17125970000052,,,,,,,,,,,,,,,,,,,,,,,,,,,,,,,,,,,,,,,,,,,,,,,,,,,,,,,,1,001,2024-06-04_10h00.32.163,robot_sternberg_sign,2022.2.5,59.930732062682694,
,,,,,,,,,,,,,,,,,,,,,,,,,,,,,,,,,,,239.85780939999677,239.85780939999677,space,16.510727800006862,,,,,,,,,,,,,,,,,,,,,,,,,,,,,,,,,,,,,,,,,,,,,,,,,,,,1,001,2024-06-04_10h00.32.163,robot_sternberg_sign,2022.2.5,59.930732062682694,
"['F', 'W']",False,Q,2,letter,2,True,False,"['robot_stimuli\\\\filler.mp4', 'robot_stimuli\\\\filler.mp4']",robot_stimuli\\filler.mp4,1,0,0,0,0,0,0,0,0,,,,,,,,,,,,,,,,,,,,,256.40441299999657,256.40441299999657,space,6.628704299990204,268.5096526999987,269.59109909999825,266.4930699999968,268.5096526999987,269.59109909999825,269.59109909999825,269.59109909999825,269.59109909999825,n,1.3053721000032965,271.01789790000475,271.01789790000475,271.01789790000475,271.01789790000475,271.01789790000475,271.01789790000475,271.01789790000475,271.01789790000475,None,None,None,,,,,,,,,,,,,,,,,,,,,,,,,,,1,001,2024-06-04_10h00.32.163,robot_sternberg_sign,2022.2.5,59.930732062682694,
"['Z', 'T']",True,Z,2,letter,2,False,False,"['robot_stimuli\\\\filler.mp4', 'robot_stimuli\\\\filler.mp4']",robot_stimuli\\filler.mp4,1,0,0,0,0,0,1,1,1,,,,,,,,,,,,,,,,,,,,,271.01789790000475,271.01789790000475,None,,276.61307540000416,272.098132900006,274.39855529999477,276.61307540000416,277.69188650000433,277.69188650000433,277.69188650000433,277.69188650000433,c,1.0205941000021994,278.9182826000033,278.9182826000033,278.9182826000033,278.9182826000033,278.9182826000033,278.9182826000033,278.9182826000033,278.9182826000033,None,None,None,271.01789790000475,271.01789790000475,,,,,,,,,,,,,,,,,,,,,,,,,1,001,2024-06-04_10h00.32.163,robot_sternberg_sign,2022.2.5,59.930732062682694,
"['S', 'Z']",True,Z,2,letter,2,False,True,"['robot_stimuli\\\\filler.mp4', 'robot_stimuli\\\\filler.mp4']",robot_stimuli\\filler.mp4,1,0,0,0,0,0,2,2,2,,,,,,,,,,,,,,,,,,,,,278.9182826000033,278.9182826000033,None,,284.3140504000039,285.3935676999972,282.0953787000035,284.3140504000039,285.3935676999972,285.3935676999972,285.3935676999972,285.3935676999972,c,0.9829490000120131,286.4765991000022,290.1769469999999,286.4765991000022,290.1769469999999,286.4765991000022,290.1769469999999,286.4765991000022,290.1769469999999,10.40123456790123,2.762495000002673,space,278.9182826000033,278.9182826000033,3.6435474999889266,,,,,,,,,,,,,,,,,,,,,,,,1,001,2024-06-04_10h00.32.163,robot_sternberg_sign,2022.2.5,59.930732062682694,
"['K', 'P', 'F', 'Q']",True,P,4,letter,2,True,False,"['robot_stimuli\\\\filler.mp4', 'robot_stimuli\\\\filler.mp4', 'robot_stimuli\\\\filler.mp4', 'robot_stimuli\\\\filler.mp4']",robot_stimuli\\filler.mp4,1,0,0,0,0,0,3,3,3,,,,,,,,,,,,,,,,,,,,,290.1769469999999,290.1769469999999,space,1.2875607000023592,301.100053999995,302.17994760000147,299.0756884000002,301.100053999995,302.17994760000147,302.17994760000147,302.17994760000147,302.17994760000147,c,1.0763011000090046,303.4078251000028,303.4078251000028,303.4078251000028,303.4078251000028,303.4078251000028,303.4078251000028,303.4078251000028,303.4078251000028,None,None,None,,,,,,,,,,,,,,,,,,,,,,,,,,,1,001,2024-06-04_10h00.32.163,robot_sternberg_sign,2022.2.5,59.930732062682694,
"['J', 'S', 'X', 'Q']",False,R,4,letter,2,False,False,"['robot_stimuli\\\\filler.mp4', 'robot_stimuli\\\\filler.mp4', 'robot_stimuli\\\\filler.mp4', 'robot_stimuli\\\\filler.mp4']",robot_stimuli\\filler.mp4,1,0,0,0,0,0,4,4,4,,,,,,,,,,,,,,,,,,,,,303.4078251000028,303.4078251000028,None,,313.0064856999961,314.0781619000045,310.98616620000394,313.0064856999961,314.0781619000045,314.0781619000045,314.0781619000045,314.0781619000045,n,1.155873800002155,315.3121189999947,315.3121189999947,315.3121189999947,315.3121189999947,315.3121189999947,315.3121189999947,315.3121189999947,315.3121189999947,None,None,None,303.4078251000028,303.4078251000028,,,,,,,,,,,,,,,,,,,,,,,,,1,001,2024-06-04_10h00.32.163,robot_sternberg_sign,2022.2.5,59.930732062682694,
"['C', 'F', 'S', 'N']",True,C,4,letter,2,False,True,"['robot_stimuli\\\\filler.mp4', 'robot_stimuli\\\\filler.mp4', 'robot_stimuli\\\\filler.mp4', 'robot_stimuli\\\\filler.mp4']",robot_stimuli\\filler.mp4,1,0,0,0,0,0,5,5,5,,,,,,,,,,,,,,,,,,,,,315.3121189999947,315.3121189999947,None,,324.9317402000015,326.0091257000022,322.90403819999483,324.9317402000015,326.0091257000022,326.0091257000022,326.0091257000022,326.0091257000022,c,0.687627599996631,326.86878639999486,331.04587990000437,326.86878639999486,331.04587990000437,326.86878639999486,331.04587990000437,326.86878639999486,331.04587990000437,14.876543209876539,2.503742900007637,space,315.3121189999947,315.3121189999947,4.123989600004279,,,,,,,,,,,,,,,,,,,,,,,,1,001,2024-06-04_10h00.32.163,robot_sternberg_sign,2022.2.5,59.930732062682694,
"['B', 'N', 'G', 'J', 'F', 'V']",True,N,6,letter,2,True,False,"['robot_stimuli\\\\filler.mp4', 'robot_stimuli\\\\filler.mp4', 'robot_stimuli\\\\filler.mp4', 'robot_stimuli\\\\filler.mp4', 'robot_stimuli\\\\filler.mp4', 'robot_stimuli\\\\filler.mp4']",robot_stimuli\\filler.mp4,1,0,0,0,0,0,6,6,6,,,,,,,,,,,,,,,,,,,,,331.04587990000437,331.04587990000437,space,1.9860059000056935,346.8587578000006,347.9245336000022,344.8423630000034,346.8587578000006,347.9245336000022,347.9245336000022,347.9245336000022,347.9245336000022,c,0.7321475000062492,348.7550818000018,348.7550818000018,348.7550818000018,348.7550818000018,348.7550818000018,348.7550818000018,348.7550818000018,348.7550818000018,None,None,None,,,,,,,,,,,,,,,,,,,,,,,,,,,1,001,2024-06-04_10h00.32.163,robot_sternberg_sign,2022.2.5,59.930732062682694,
"['T', 'K', 'J', 'V', 'Z', 'Q']",False,R,6,letter,2,False,False,"['robot_stimuli\\\\filler.mp4', 'robot_stimuli\\\\filler.mp4', 'robot_stimuli\\\\filler.mp4', 'robot_stimuli\\\\filler.mp4', 'robot_stimuli\\\\filler.mp4', 'robot_stimuli\\\\filler.mp4']",robot_stimuli\\filler.mp4,1,0,0,0,0,0,7,7,7,,,,,,,,,,,,,,,,,,,,,348.7550818000018,348.7550818000018,None,,362.93779480000376,364.0078487999999,360.7168735000014,362.93779480000376,364.0078487999999,364.0078487999999,364.0078487999999,364.0078487999999,n,0.6328771999978926,364.8320160000003,364.8320160000003,364.8320160000003,364.8320160000003,364.8320160000003,364.8320160000003,364.8320160000003,364.8320160000003,None,None,None,348.7550818000018,348.7550818000018,,,,,,,,,,,,,,,,,,,,,,,,,1,001,2024-06-04_10h00.32.163,robot_sternberg_sign,2022.2.5,59.930732062682694,
"['Q', 'G', 'M', 'V', 'R', 'F']",True,M,6,letter,2,False,True,"['robot_stimuli\\\\filler.mp4', 'robot_stimuli\\\\filler.mp4', 'robot_stimuli\\\\filler.mp4', 'robot_stimuli\\\\filler.mp4', 'robot_stimuli\\\\filler.mp4', 'robot_stimuli\\\\filler.mp4']",robot_stimuli\\filler.mp4,1,0,0,0,0,0,8,8,8,,,,,,,,,,,,,,,,,,,,,364.8320160000003,364.8320160000003,None,,378.9918944999954,380.06141120000393,376.97437999999966,378.9918944999954,380.06141120000393,380.06141120000393,380.06141120000393,380.06141120000393,c,1.2996962000033818,381.51409300000523,385.52858460000425,381.51409300000523,385.52858460000425,381.51409300000523,385.52858460000425,381.51409300000523,385.52858460000425,21.2037037037037,2.9103486000094563,space,364.8320160000003,364.8320160000003,3.9664576000068337,,,,,,,,,,,,,,,,,,,,,,,,1,001,2024-06-04_10h00.32.163,robot_sternberg_sign,2022.2.5,59.930732062682694,
"['R_Base_X_Back', 'L_Torso_Y_Back']",False,R_Arm_X_For,2,robot,1,True,False,"['robot_stimuli\\R_Base_X_Back.mp4', 'robot_stimuli\\L_Torso_Y_Back.mp4']",robot_stimuli\R_Arm_X_For.mp4,1,0,0,0,0,0,9,9,9,,,,,,,,,,,,,,,,,,,,,385.52858460000425,385.52858460000425,space,1.0401145999931032,394.9126344999968,387.68858260000707,,,,396.017122499994,396.017122499994,396.017122499994,n,3.5509685999859357,399.6577779000072,399.6577779000072,399.6577779000072,399.6577779000072,399.6577779000072,399.6577779000072,399.6577779000072,399.6577779000072,None,None,None,,,,391.41312460000336,396.017122499994,,,,,,,,,,,,,,,,,,,,,,1,001,2024-06-04_10h00.32.163,robot_sternberg_sign,2022.2.5,59.930732062682694,
"['L_Head_X_Back', 'L_Head_Y_For']",True,L_Head_Y_For,2,robot,1,False,False,"['robot_stimuli\\L_Head_X_Back.mp4', 'robot_stimuli\\L_Head_Y_For.mp4']",robot_stimuli\L_Head_Y_For.mp4,1,0,0,0,0,0,10,10,10,,,,,,,,,,,,,,,,,,,,,399.6577779000072,399.6577779000072,None,,408.1150214000081,409.20959149999544,,,,409.20959149999544,409.20959149999544,409.20959149999544,c,1.7588380000088364,412.8587986000057,412.8587986000057,412.8587986000057,412.8587986000057,412.8587986000057,412.8587986000057,412.8587986000057,412.8587986000057,None,None,None,399.6577779000072,399.6577779000072,,404.4767548999953,409.20959149999544,,,,,,,,,,,,,,,,,,,,,,1,001,2024-06-04_10h00.32.163,robot_sternberg_sign,2022.2.5,59.930732062682694,
"['L_Base_X_Back', 'L_Torso_X_For']",True,L_Base_X_Back,2,robot,1,False,True,"['robot_stimuli\\L_Base_X_Back.mp4', 'robot_stimuli\\L_Torso_X_For.mp4']",robot_stimuli\L_Base_X_Back.mp4,1,0,0,0,0,0,11,11,11,,,,,,,,,,,,,,,,,,,,,412.8587986000057,412.8587986000057,None,,421.2774746000068,422.3545979000046,,,,422.3545979000046,422.3545979000046,422.3545979000046,c,2.16704590000154,425.99199809999845,428.9589899999992,425.99199809999845,428.9589899999992,425.99199809999845,428.9589899999992,425.99199809999845,428.9589899999992,14.876543209876539,2.134623999998439,space,412.8587986000057,412.8587986000057,2.904272999992827,417.64767669999856,422.3545979000046,,,,,,,,,,,,,,,,,,,,,,1,001,2024-06-04_10h00.32.163,robot_sternberg_sign,2022.2.5,59.930732062682694,
"['L_Torso_Y_Back', 'L_Torso_Z_For', 'R_Head_X_For', 'L_Head_Z_For']",True,L_Torso_Y_Back,4,robot,1,True,False,"['robot_stimuli\\L_Torso_Y_Back.mp4', 'robot_stimuli\\L_Torso_Z_For.mp4', 'robot_stimuli\\R_Head_X_For.mp4', 'robot_stimuli\\L_Head_Z_For.mp4']",robot_stimuli\L_Torso_Y_Back.mp4,1,0,0,0,0,0,12,12,12,,,,,,,,,,,,,,,,,,,,,428.9589899999992,428.9589899999992,space,0.5789158999978099,445.3184570000012,446.40984419999586,,,,446.40984419999586,446.40984419999586,446.40984419999586,c,2.4080681999912485,449.92927779999445,449.92927779999445,449.92927779999445,449.92927779999445,449.92927779999445,449.92927779999445,449.92927779999445,449.92927779999445,None,None,None,,,,441.68717930000275,446.40984419999586,,,,,,,,,,,,,,,,,,,,,,1,001,2024-06-04_10h00.32.163,robot_sternberg_sign,2022.2.5,59.930732062682694,
"['R_Torso_X_Back', 'L_Arm_Z_For', 'R_Torso_Y_For', 'R_Base_Y_Back']",True,R_Torso_X_Back,4,robot,1,False,False,"['robot_stimuli\\R_Torso_X_Back.mp4', 'robot_stimuli\\L_Arm_Z_For.mp4', 'robot_stimuli\\R_Torso_Y_For.mp4', 'robot_stimuli\\R_Base_Y_Back.mp4']",robot_stimuli\R_Torso_X_Back.mp4,1,0,0,0,0,0,13,13,13,,,,,,,,,,,,,,,,,,,,,449.92927779999445,449.92927779999445,None,,465.84450609999476,466.9240565000073,,,,466.9240565000073,466.9240565000073,466.9240565000073,c,2.2204655000095954,470.5749872000015,470.5749872000015,470.5749872000015,470.5749872000015,470.5749872000015,470.5749872000015,470.5749872000015,470.5749872000015,None,None,None,449.92927779999445,449.92927779999445,,462.2134691999963,466.9240565000073,,,,,,,,,,,,,,,,,,,,,,1,001,2024-06-04_10h00.32.163,robot_sternberg_sign,2022.2.5,59.930732062682694,
"['L_Head_X_Back', 'L_Base_Y_Back', 'R_Base_Y_For', 'R_Torso_X_For']",False,L_Head_Y_For,4,robot,1,False,True,"['robot_stimuli\\L_Head_X_Back.mp4', 'robot_stimuli\\L_Base_Y_Back.mp4', 'robot_stimuli\\R_Base_Y_For.mp4', 'robot_stimuli\\R_Torso_X_For.mp4']",robot_stimuli\L_Head_Y_For.mp4,1,0,0,0,0,0,14,14,14,,,,,,,,,,,,,,,,,,,,,470.5749872000015,470.5749872000015,None,,486.39512889999605,471.651866900007,,,,487.4882975000073,487.4882975000073,487.4882975000073,n,1.5132114000007277,491.15897920000134,496.35801840000204,491.15897920000134,496.35801840000204,491.15897920000134,496.35801840000204,491.15897920000134,496.35801840000204,15.956790123456784,4.424826499991468,space,470.5749872000015,470.5749872000015,5.137349299999187,482.76391599999624,487.4882975000073,,,,,,,,,,,,,,,,,,,,,,1,001,2024-06-04_10h00.32.163,robot_sternberg_sign,2022.2.5,59.930732062682694,
"['R_Head_X_For', 'R_Arm_X_For', 'L_Base_X_For', 'R_Head_Z_Back', 'R_Arm_Y_For', 'R_Torso_X_For']",True,R_Head_X_For,6,robot,1,True,False,"['robot_stimuli\\R_Head_X_For.mp4', 'robot_stimuli\\R_Arm_X_For.mp4', 'robot_stimuli\\L_Base_X_For.mp4', 'robot_stimuli\\R_Head_Z_Back.mp4', 'robot_stimuli\\R_Arm_Y_For.mp4', 'robot_stimuli\\R_Torso_X_For.mp4']",robot_stimuli\R_Head_X_For.mp4,1,0,0,0,0,0,15,15,15,,,,,,,,,,,,,,,,,,,,,496.35801840000204,496.35801840000204,space,0.9234938000008697,520.4652159999969,521.5561750000052,,,,521.5561750000052,521.5561750000052,521.5561750000052,c,2.349359599989839,525.2059507999948,525.2059507999948,525.2059507999948,525.2059507999948,525.2059507999948,525.2059507999948,525.2059507999948,525.2059507999948,None,None,None,,,,516.8233271000063,521.5561750000052,,,,,,,,,,,,,,,,,,,,,,1,001,2024-06-04_10h00.32.163,robot_sternberg_sign,2022.2.5,59.930732062682694,
"['L_Torso_Y_Back', 'L_Head_X_For', 'L_Base_Y_For', 'R_Head_Y_For', 'R_Arm_X_For', 'R_Torso_Z_Back']",False,R_Torso_Z_For,6,robot,1,False,False,"['robot_stimuli\\L_Torso_Y_Back.mp4', 'robot_stimuli\\L_Head_X_For.mp4', 'robot_stimuli\\L_Base_Y_For.mp4', 'robot_stimuli\\R_Head_Y_For.mp4', 'robot_stimuli\\R_Arm_X_For.mp4', 'robot_stimuli\\R_Torso_Z_Back.mp4']",robot_stimuli\R_Torso_Z_For.mp4,1,0,0,0,0,0,16,16,16,,,,,,,,,,,,,,,,,,,,,525.2059507999948,525.2059507999948,None,,548.2295990999992,526.2855529999943,,,,549.3273627000017,549.3273627000017,549.3273627000017,n,2.1218384000094375,552.9770556000003,552.9770556000003,552.9770556000003,552.9770556000003,552.9770556000003,552.9770556000003,552.9770556000003,552.9770556000003,None,None,None,525.2059507999948,525.2059507999948,,544.5980559000018,549.3273627000017,,,,,,,,,,,,,,,,,,,,,,1,001,2024-06-04_10h00.32.163,robot_sternberg_sign,2022.2.5,59.930732062682694,
"['L_Base_Y_Back', 'L_Torso_X_For', 'R_Torso_Y_Back', 'R_Arm_X_Back', 'R_Torso_Y_For', 'L_Head_X_Back']",True,L_Base_Y_Back,6,robot,1,False,True,"['robot_stimuli\\L_Base_Y_Back.mp4', 'robot_stimuli\\L_Torso_X_For.mp4', 'robot_stimuli\\R_Torso_Y_Back.mp4', 'robot_stimuli\\R_Arm_X_Back.mp4', 'robot_stimuli\\R_Torso_Y_For.mp4', 'robot_stimuli\\L_Head_X_Back.mp4']",robot_stimuli\L_Base_Y_Back.mp4,1,0,0,0,0,0,17,17,17,,,,,,,,,,,,,,,,,,,,,552.9770556000003,552.9770556000003,None,,576.2303484000004,554.0528313999966,,,,577.321334399996,577.321334399996,577.321334399996,n,4.136402699994505,581.5171150999959,585.132511799995,581.5171150999959,585.132511799995,581.5171150999959,585.132511799995,581.5171150999959,585.132511799995,31.851851851851844,2.427433500008192,space,552.9770556000003,552.9770556000003,3.5714680999954,572.5884440999944,577.321334399996,,,,,,,,,,,,,,,,,,,,,,1,001,2024-06-04_10h00.32.163,robot_sternberg_sign,2022.2.5,59.930732062682694,
,,,,,,,,,,,0,0,0,0,,,,,,,,,,,,,,,,,,,,,,,,,,,,,,,,,,,,,,,,,,,,,,,,,,,,,,,585.132511799995,585.132511799995,585.132511799995,c,29.10082940000575,,,,,,,,,,,,,,,,,1,001,2024-06-04_10h00.32.163,robot_sternberg_sign,2022.2.5,59.930732062682694,
"['L_Arm_Y_For', 'L_Arm_X_Back']",True,L_Arm_Y_For,2,robot,1,True,False,"['robot_stimuli\\L_Arm_Y_For.mp4', 'robot_stimuli\\L_Arm_X_Back.mp4']",robot_stimuli\L_Arm_Y_For.mp4,1,,,,,,,,,,,,,0,0,0,0,,,,,,,,,,,,,,,,,625.6118698000064,618.2594806999987,,,,,,,,,630.3449488000042,630.3449488000042,630.3449488000042,630.3449488000042,630.3449488000042,630.3449488000042,630.3449488000042,630.3449488000042,None,None,None,,,,,,,,,,,614.2765615999961,614.2765615999961,space,2.8774226999958046,621.9910485,626.7046887000033,626.7046887000033,626.7046887000033,626.7046887000033,c,2.1366621000051964,,,,,,1,001,2024-06-04_10h00.32.163,robot_sternberg_sign,2022.2.5,59.930732062682694,
"['L_Torso_X_For', 'L_Arm_Y_For']",False,L_Torso_Y_Back,2,robot,1,False,False,"['robot_stimuli\\L_Torso_X_For.mp4', 'robot_stimuli\\L_Arm_Y_For.mp4']",robot_stimuli\L_Torso_Y_Back.mp4,1,,,,,,,,,,,,,0,1,1,1,,,,,,,,,,,,,,,,,638.784713999994,639.871879600003,,,,,,,,,643.3771430000052,643.3771430000052,643.3771430000052,643.3771430000052,643.3771430000052,643.3771430000052,643.3771430000052,643.3771430000052,None,None,None,,,,,,,,,,,630.3449488000042,630.3449488000042,None,,635.1423463999963,639.871879600003,639.871879600003,639.871879600003,639.871879600003,n,1.9855882999981986,630.3449488000042,630.3449488000042,,,,1,001,2024-06-04_10h00.32.163,robot_sternberg_sign,2022.2.5,59.930732062682694,
"['L_Head_Z_For', 'R_Torso_X_Back']",True,L_Head_Z_For,2,robot,1,False,False,"['robot_stimuli\\L_Head_Z_For.mp4', 'robot_stimuli\\R_Torso_X_Back.mp4']",robot_stimuli\L_Head_Z_For.mp4,1,,,,,,,,,,,,,0,2,2,2,,,,,,,,,,,,,,,,,651.7953070000076,644.4523075000034,,,,,,,,,656.5409343000065,656.5409343000065,656.5409343000065,656.5409343000065,656.5409343000065,656.5409343000065,656.5409343000065,656.5409343000065,None,None,None,,,,,,,,,,,643.3771430000052,643.3771430000052,None,,648.1674075000046,652.8910831999965,652.8910831999965,652.8910831999965,652.8910831999965,c,3.1503643000032753,643.3771430000052,643.3771430000052,,,,1,001,2024-06-04_10h00.32.163,robot_sternberg_sign,2022.2.5,59.930732062682694,
"['L_Head_X_Back', 'R_Base_Z_Back']",False,L_Base_X_Back,2,robot,1,False,False,"['robot_stimuli\\L_Head_X_Back.mp4', 'robot_stimuli\\R_Base_Z_Back.mp4']",robot_stimuli\L_Base_X_Back.mp4,1,,,,,,,,,,,,,0,3,3,3,,,,,,,,,,,,,,,,,664.8807510000042,657.6261039999954,,,,,,,,,669.5858166999969,669.5858166999969,669.5858166999969,669.5858166999969,669.5858166999969,669.5858166999969,669.5858166999969,669.5858166999969,None,None,None,,,,,,,,,,,656.5409343000065,656.5409343000065,None,,661.3558155000064,665.9896865000046,665.9896865000046,665.9896865000046,665.9896865000046,n,3.180604499997571,656.5409343000065,656.5409343000065,,,,1,001,2024-06-04_10h00.32.163,robot_sternberg_sign,2022.2.5,59.930732062682694,
"['R_Arm_Y_Back', 'R_Arm_Z_For']",True,R_Arm_Z_For,2,robot,1,False,False,"['robot_stimuli\\R_Arm_Y_Back.mp4', 'robot_stimuli\\R_Arm_Z_For.mp4']",robot_stimuli\R_Arm_Z_For.mp4,1,,,,,,,,,,,,,0,4,4,4,,,,,,,,,,,,,,,,,678.033174199998,679.1211839000025,,,,,,,,,682.7616582000046,682.7616582000046,682.7616582000046,682.7616582000046,682.7616582000046,682.7616582000046,682.7616582000046,682.7616582000046,None,None,None,,,,,,,,,,,669.5858166999969,669.5858166999969,None,,674.3919129999995,679.1211839000025,679.1211839000025,679.1211839000025,679.1211839000025,c,2.1440486000064993,669.5858166999969,669.5858166999969,,,,1,001,2024-06-04_10h00.32.163,robot_sternberg_sign,2022.2.5,59.930732062682694,
"['R_Arm_Y_For', 'R_Arm_Y_Back']",False,R_Base_Y_For,2,robot,1,False,False,"['robot_stimuli\\R_Arm_Y_For.mp4', 'robot_stimuli\\R_Arm_Y_Back.mp4']",robot_stimuli\R_Base_Y_For.mp4,1,,,,,,,,,,,,,0,5,5,5,,,,,,,,,,,,,,,,,691.069514200004,692.156109100004,,,,,,,,,695.8103571999964,695.8103571999964,695.8103571999964,695.8103571999964,695.8103571999964,695.8103571999964,695.8103571999964,695.8103571999964,None,None,None,,,,,,,,,,,682.7616582000046,682.7616582000046,None,,687.440168000001,692.156109100004,692.156109100004,692.156109100004,692.156109100004,n,1.6052584999997634,682.7616582000046,682.7616582000046,,,,1,001,2024-06-04_10h00.32.163,robot_sternberg_sign,2022.2.5,59.930732062682694,
"['R_Head_X_For', 'R_Torso_Z_Back']",False,R_Head_Y_Back,2,robot,1,False,False,"['robot_stimuli\\R_Head_X_For.mp4', 'robot_stimuli\\R_Torso_Z_Back.mp4']",robot_stimuli\R_Head_Y_Back.mp4,1,,,,,,,,,,,,,0,6,6,6,,,,,,,,,,,,,,,,,704.2669576000044,705.3557340999978,,,,,,,,,708.9947500999988,708.9947500999988,708.9947500999988,708.9947500999988,708.9947500999988,708.9947500999988,708.9947500999988,708.9947500999988,None,None,None,,,,,,,,,,,695.8103571999964,695.8103571999964,None,,700.6281043000054,705.3557340999978,705.3557340999978,705.3557340999978,705.3557340999978,n,1.5967545000021346,695.8103571999964,695.8103571999964,,,,1,001,2024-06-04_10h00.32.163,robot_sternberg_sign,2022.2.5,59.930732062682694,
"['R_Arm_X_Back', 'R_Head_Z_Back']",True,R_Arm_X_Back,2,robot,1,False,False,"['robot_stimuli\\R_Arm_X_Back.mp4', 'robot_stimuli\\R_Head_Z_Back.mp4']",robot_stimuli\R_Arm_X_Back.mp4,1,,,,,,,,,,,,,0,7,7,7,,,,,,,,,,,,,,,,,717.4317134000012,718.5261782000016,,,,,,,,,723.5535780000064,723.5535780000064,723.5535780000064,723.5535780000064,723.5535780000064,723.5535780000064,723.5535780000064,723.5535780000064,None,None,None,,,,,,,,,,,708.9947500999988,708.9947500999988,None,,713.7916519999999,718.5261782000016,718.5261782000016,718.5261782000016,718.5261782000016,n,4.996129100007238,708.9947500999988,708.9947500999988,,,,1,001,2024-06-04_10h00.32.163,robot_sternberg_sign,2022.2.5,59.930732062682694,
"['R_Head_X_For', 'R_Arm_Y_For']",False,L_Torso_X_Back,2,robot,1,False,False,"['robot_stimuli\\R_Head_X_For.mp4', 'robot_stimuli\\R_Arm_Y_For.mp4']",robot_stimuli\L_Torso_X_Back.mp4,1,,,,,,,,,,,,,0,8,8,8,,,,,,,,,,,,,,,,,731.8648375000048,732.9594041999953,,,,,,,,,736.607410800003,736.607410800003,736.607410800003,736.607410800003,736.607410800003,736.607410800003,736.607410800003,736.607410800003,None,None,None,,,,,,,,,,,723.5535780000064,723.5535780000064,None,,728.3581057999982,732.9594041999953,732.9594041999953,732.9594041999953,732.9594041999953,n,1.9049126999889268,723.5535780000064,723.5535780000064,,,,1,001,2024-06-04_10h00.32.163,robot_sternberg_sign,2022.2.5,59.930732062682694,
"['L_Arm_X_Back', 'R_Arm_X_For']",True,R_Arm_X_For,2,robot,1,False,True,"['robot_stimuli\\L_Arm_X_Back.mp4', 'robot_stimuli\\R_Arm_X_For.mp4']",robot_stimuli\R_Arm_X_For.mp4,1,,,,,,,,,,,,,0,9,9,9,,,,,,,,,,,,,,,,,745.0340383000002,746.1215662000031,,,,,,,,,749.7943809999997,785.961676299994,749.7943809999997,785.961676299994,749.7943809999997,785.961676299994,749.7943809999997,785.961676299994,24.753086419753085,12.844752400007565,space,,,36.10278570000082,,,,,,,,736.607410800003,736.607410800003,None,,741.4039729000069,746.1215662000031,746.1215662000031,746.1215662000031,746.1215662000031,c,2.351858699999866,736.607410800003,736.607410800003,,,,1,001,2024-06-04_10h00.32.163,robot_sternberg_sign,2022.2.5,59.930732062682694,
"['R_Torso_X_Back', 'L_Base_Y_Back', 'L_Arm_Y_For', 'R_Head_Y_For']",True,R_Torso_X_Back,4,robot,1,True,False,"['robot_stimuli\\R_Torso_X_Back.mp4', 'robot_stimuli\\L_Base_Y_Back.mp4', 'robot_stimuli\\L_Arm_Y_For.mp4', 'robot_stimuli\\R_Head_Y_For.mp4']",robot_stimuli\R_Torso_X_Back.mp4,1,,,,,,,,,,,,,0,10,10,10,,,,,,,,,,,,,,,,,802.6350323999941,803.724000999995,,,,,,,,,807.3723438000015,807.3723438000015,807.3723438000015,807.3723438000015,807.3723438000015,807.3723438000015,807.3723438000015,807.3723438000015,None,None,None,,,,,,,,,,,785.961676299994,785.961676299994,space,0.8074930000002496,799.0031867000071,803.724000999995,803.724000999995,803.724000999995,803.724000999995,c,2.717439900006866,,,,,,1,001,2024-06-04_10h00.32.163,robot_sternberg_sign,2022.2.5,59.930732062682694,
"['R_Base_Z_Back', 'L_Arm_X_Back', 'L_Head_Z_Back', 'R_Base_Y_For']",False,L_Base_Y_For,4,robot,1,False,False,"['robot_stimuli\\R_Base_Z_Back.mp4', 'robot_stimuli\\L_Arm_X_Back.mp4', 'robot_stimuli\\L_Head_Z_Back.mp4', 'robot_stimuli\\R_Base_Y_For.mp4']",robot_stimuli\L_Base_Y_For.mp4,1,,,,,,,,,,,,,0,11,11,11,,,,,,,,,,,,,,,,,823.1672503000009,824.2545208999945,,,,,,,,,830.673279900002,830.673279900002,830.673279900002,830.673279900002,830.673279900002,830.673279900002,830.673279900002,830.673279900002,None,None,None,,,,,,,,,,,807.3723438000015,807.3723438000015,None,,819.5247827999992,824.2545208999945,824.2545208999945,824.2545208999945,824.2545208999945,c,6.386012200004188,807.3723438000015,807.3723438000015,,,,1,001,2024-06-04_10h00.32.163,robot_sternberg_sign,2022.2.5,59.930732062682694,
"['L_Base_Z_For', 'L_Torso_Y_Back', 'L_Arm_Y_For', 'R_Head_X_Back']",False,L_Base_X_Back,4,robot,1,False,False,"['robot_stimuli\\L_Base_Z_For.mp4', 'robot_stimuli\\L_Torso_Y_Back.mp4', 'robot_stimuli\\L_Arm_Y_For.mp4', 'robot_stimuli\\R_Head_X_Back.mp4']",robot_stimuli\L_Base_X_Back.mp4,1,,,,,,,,,,,,,0,12,12,12,,,,,,,,,,,,,,,,,846.4194975999999,847.5075054000044,,,,,,,,,860.6790376999998,860.6790376999998,860.6790376999998,860.6790376999998,860.6790376999998,860.6790376999998,860.6790376999998,860.6790376999998,None,None,None,,,,,,,,,,,830.673279900002,830.673279900002,None,,842.7889840999997,847.5075054000044,847.5075054000044,847.5075054000044,847.5075054000044,n,13.12505339999916,830.673279900002,830.673279900002,,,,1,001,2024-06-04_10h00.32.163,robot_sternberg_sign,2022.2.5,59.930732062682694,
"['R_Torso_Z_Back', 'R_Base_X_For', 'L_Head_Z_For', 'R_Torso_Y_Back']",True,R_Torso_Z_Back,4,robot,1,False,False,"['robot_stimuli\\R_Torso_Z_Back.mp4', 'robot_stimuli\\R_Base_X_For.mp4', 'robot_stimuli\\L_Head_Z_For.mp4', 'robot_stimuli\\R_Torso_Y_Back.mp4']",robot_stimuli\R_Torso_Z_Back.mp4,1,,,,,,,,,,,,,0,13,13,13,,,,,,,,,,,,,,,,,876.4826420000027,877.5730355999985,,,,,,,,,881.2242126000056,881.2242126000056,881.2242126000056,881.2242126000056,881.2242126000056,881.2242126000056,881.2242126000056,881.2242126000056,None,None,None,,,,,,,,,,,860.6790376999998,860.6790376999998,None,,872.8423904999945,877.5730355999985,877.5730355999985,877.5730355999985,877.5730355999985,c,3.124577800001134,860.6790376999998,860.6790376999998,,,,1,001,2024-06-04_10h00.32.163,robot_sternberg_sign,2022.2.5,59.930732062682694,
"['R_Arm_Z_Back', 'R_Head_Y_For', 'L_Arm_Y_Back', 'L_Base_Y_Back']",True,L_Arm_Y_Back,4,robot,1,False,False,"['robot_stimuli\\R_Arm_Z_Back.mp4', 'robot_stimuli\\R_Head_Y_For.mp4', 'robot_stimuli\\L_Arm_Y_Back.mp4', 'robot_stimuli\\L_Base_Y_Back.mp4']",robot_stimuli\L_Arm_Y_Back.mp4,1,,,,,,,,,,,,,0,14,14,14,,,,,,,,,,,,,,,,,897.0471461999987,882.3032796000043,,,,,,,,,902.1272664999997,902.1272664999997,902.1272664999997,902.1272664999997,902.1272664999997,902.1272664999997,902.1272664999997,902.1272664999997,None,None,None,,,,,,,,,,,881.2242126000056,881.2242126000056,None,,893.4730639000045,898.1394870000076,898.1394870000076,898.1394870000076,898.1394870000076,c,3.941558599995915,881.2242126000056,881.2242126000056,,,,1,001,2024-06-04_10h00.32.163,robot_sternberg_sign,2022.2.5,59.930732062682694,
"['L_Base_X_For', 'L_Arm_Y_For', 'L_Base_X_Back', 'L_Arm_Z_Back']",True,L_Arm_Y_For,4,robot,1,False,False,"['robot_stimuli\\L_Base_X_For.mp4', 'robot_stimuli\\L_Arm_Y_For.mp4', 'robot_stimuli\\L_Base_X_Back.mp4', 'robot_stimuli\\L_Arm_Z_Back.mp4']",robot_stimuli\L_Arm_Y_For.mp4,1,,,,,,,,,,,,,0,15,15,15,,,,,,,,,,,,,,,,,917.9156245000049,919.0082484000013,,,,,,,,,936.0372602999996,936.0372602999996,936.0372602999996,936.0372602999996,936.0372602999996,936.0372602999996,936.0372602999996,936.0372602999996,None,None,None,,,,,,,,,,,902.1272664999997,902.1272664999997,None,,914.2737047999981,919.0082484000013,919.0082484000013,919.0082484000013,919.0082484000013,n,16.993101100000786,902.1272664999997,902.1272664999997,,,,1,001,2024-06-04_10h00.32.163,robot_sternberg_sign,2022.2.5,59.930732062682694,
"['L_Torso_Y_Back', 'L_Arm_X_For', 'L_Torso_Y_For', 'L_Head_X_For']",False,R_Base_Z_For,4,robot,1,False,False,"['robot_stimuli\\L_Torso_Y_Back.mp4', 'robot_stimuli\\L_Arm_X_For.mp4', 'robot_stimuli\\L_Torso_Y_For.mp4', 'robot_stimuli\\L_Head_X_For.mp4']",robot_stimuli\R_Base_Z_For.mp4,1,,,,,,,,,,,,,0,16,16,16,,,,,,,,,,,,,,,,,951.7278287999943,952.8066665999941,,,,,,,,,956.4457037999964,956.4457037999964,956.4457037999964,956.4457037999964,956.4457037999964,956.4457037999964,956.4457037999964,956.4457037999964,None,None,None,,,,,,,,,,,936.0372602999996,936.0372602999996,None,,948.1726748000074,952.8066665999941,952.8066665999941,952.8066665999941,952.8066665999941,n,1.547024400002556,936.0372602999996,936.0372602999996,,,,1,001,2024-06-04_10h00.32.163,robot_sternberg_sign,2022.2.5,59.930732062682694,
"['R_Base_Z_Back', 'R_Arm_Z_Back', 'L_Arm_Y_For', 'R_Head_X_Back']",False,L_Arm_Z_For,4,robot,1,False,False,"['robot_stimuli\\R_Base_Z_Back.mp4', 'robot_stimuli\\R_Arm_Z_Back.mp4', 'robot_stimuli\\L_Arm_Y_For.mp4', 'robot_stimuli\\R_Head_X_Back.mp4']",robot_stimuli\L_Arm_Z_For.mp4,1,,,,,,,,,,,,,0,17,17,17,,,,,,,,,,,,,,,,,972.2012798000069,973.2989956999954,,,,,,,,,983.3624313000037,983.3624313000037,983.3624313000037,983.3624313000037,983.3624313000037,983.3624313000037,983.3624313000037,983.3624313000037,None,None,None,,,,,,,,,,,956.4457037999964,956.4457037999964,None,,968.5685225000052,973.2989956999954,973.2989956999954,973.2989956999954,973.2989956999954,n,10.022217399993679,956.4457037999964,956.4457037999964,,,,1,001,2024-06-04_10h00.32.163,robot_sternberg_sign,2022.2.5,59.930732062682694,
"['L_Torso_Z_For', 'R_Head_Z_For', 'R_Base_X_Back', 'L_Arm_X_Back']",True,R_Head_Z_For,4,robot,1,False,False,"['robot_stimuli\\L_Torso_Z_For.mp4', 'robot_stimuli\\R_Head_Z_For.mp4', 'robot_stimuli\\R_Base_X_Back.mp4', 'robot_stimuli\\L_Arm_X_Back.mp4']",robot_stimuli\R_Head_Z_For.mp4,1,,,,,,,,,,,,,0,18,18,18,,,,,,,,,,,,,,,,,999.2683484000008,1000.3553437000082,,,,,,,,,1011.4735531000042,1011.4735531000042,1011.4735531000042,1011.4735531000042,1011.4735531000042,1011.4735531000042,1011.4735531000042,1011.4735531000042,None,None,None,,,,,,,,,,,983.3624313000037,983.3624313000037,None,,995.6265351000038,1000.3553437000082,1000.3553437000082,1000.3553437000082,1000.3553437000082,c,11.077897099996335,983.3624313000037,983.3624313000037,,,,1,001,2024-06-04_10h00.32.163,robot_sternberg_sign,2022.2.5,59.930732062682694,
"['R_Arm_Y_For', 'L_Arm_Y_For', 'R_Base_Z_For', 'L_Arm_X_Back']",False,L_Torso_Z_For,4,robot,1,False,True,"['robot_stimuli\\R_Arm_Y_For.mp4', 'robot_stimuli\\L_Arm_Y_For.mp4', 'robot_stimuli\\R_Base_Z_For.mp4', 'robot_stimuli\\L_Arm_X_Back.mp4']",robot_stimuli\L_Torso_Z_For.mp4,1,,,,,,,,,,,,,0,19,19,19,,,,,,,,,,,,,,,,,1027.246849999996,1012.5580484999955,,,,,,,,,1056.3208149999991,1067.5576201000076,1056.3208149999991,1067.5576201000076,1056.3208149999991,1067.5576201000076,1056.3208149999991,1067.5576201000076,32.932098765432094,3.6991225999954622,space,,,11.169159699988086,,,,,,,,1011.4735531000042,1011.4735531000042,None,,1023.6069362999988,1028.3424842999957,1028.3424842999957,1028.3424842999957,1028.3424842999957,n,27.906368199997814,1011.4735531000042,1011.4735531000042,,,,1,001,2024-06-04_10h00.32.163,robot_sternberg_sign,2022.2.5,59.930732062682694,
"['L_Head_Y_For', 'R_Head_X_Back', 'L_Head_Y_Back', 'R_Head_Z_For', 'R_Head_Y_For', 'R_Arm_X_For']",True,L_Head_Y_For,6,robot,1,True,False,"['robot_stimuli\\L_Head_Y_For.mp4', 'robot_stimuli\\R_Head_X_Back.mp4', 'robot_stimuli\\L_Head_Y_Back.mp4', 'robot_stimuli\\R_Head_Z_For.mp4', 'robot_stimuli\\R_Head_Y_For.mp4', 'robot_stimuli\\R_Arm_X_For.mp4']",robot_stimuli\L_Head_Y_For.mp4,1,,,,,,,,,,,,,0,20,20,20,,,,,,,,,,,,,,,,,1092.667956899997,1093.7590222,,,,,,,,,1097.4086666999938,1097.4086666999938,1097.4086666999938,1097.4086666999938,1097.4086666999938,1097.4086666999938,1097.4086666999938,1097.4086666999938,None,None,None,,,,,,,,,,,1067.5576201000076,1067.5576201000076,space,1.7968475000088802,1089.0390875000012,1093.7590222,1093.7590222,1093.7590222,1093.7590222,c,2.418449100005091,,,,,,1,001,2024-06-04_10h00.32.163,robot_sternberg_sign,2022.2.5,59.930732062682694,
"['L_Torso_X_Back', 'L_Base_Z_For', 'L_Arm_Z_For', 'R_Arm_X_For', 'R_Torso_X_For', 'L_Head_Z_Back']",False,L_Head_Y_Back,6,robot,1,False,False,"['robot_stimuli\\L_Torso_X_Back.mp4', 'robot_stimuli\\L_Base_Z_For.mp4', 'robot_stimuli\\L_Arm_Z_For.mp4', 'robot_stimuli\\R_Arm_X_For.mp4', 'robot_stimuli\\R_Torso_X_For.mp4', 'robot_stimuli\\L_Head_Z_Back.mp4']",robot_stimuli\L_Head_Y_Back.mp4,1,,,,,,,,,,,,,0,21,21,21,,,,,,,,,,,,,,,,,1120.7156555999973,1121.8056080999959,,,,,,,,,1125.4443713000073,1125.4443713000073,1125.4443713000073,1125.4443713000073,1125.4443713000073,1125.4443713000073,1125.4443713000073,1125.4443713000073,None,None,None,,,,,,,,,,,1097.4086666999938,1097.4086666999938,None,,1117.074537099994,1121.8056080999959,1121.8056080999959,1121.8056080999959,1121.8056080999959,n,2.8365349999949103,1097.4086666999938,1097.4086666999938,,,,1,001,2024-06-04_10h00.32.163,robot_sternberg_sign,2022.2.5,59.930732062682694,
"['R_Base_X_Back', 'R_Base_X_For', 'R_Arm_Y_Back', 'L_Base_Y_For', 'L_Torso_X_Back', 'R_Torso_Z_For']",False,R_Arm_Y_For,6,robot,1,False,False,"['robot_stimuli\\R_Base_X_Back.mp4', 'robot_stimuli\\R_Base_X_For.mp4', 'robot_stimuli\\R_Arm_Y_Back.mp4', 'robot_stimuli\\L_Base_Y_For.mp4', 'robot_stimuli\\L_Torso_X_Back.mp4', 'robot_stimuli\\R_Torso_Z_For.mp4']",robot_stimuli\R_Arm_Y_For.mp4,1,,,,,,,,,,,,,0,22,22,22,,,,,,,,,,,,,,,,,1148.5641044999938,1126.519565900002,,,,,,,,,1153.1782383999962,1153.1782383999962,1153.1782383999962,1153.1782383999962,1153.1782383999962,1153.1782383999962,1153.1782383999962,1153.1782383999962,None,None,None,,,,,,,,,,,1125.4443713000073,1125.4443713000073,None,,1144.9336431999982,1149.660777099998,1149.660777099998,1149.660777099998,1149.660777099998,n,2.133413500007009,1125.4443713000073,1125.4443713000073,,,,1,001,2024-06-04_10h00.32.163,robot_sternberg_sign,2022.2.5,59.930732062682694,
"['R_Arm_Z_For', 'L_Head_Z_Back', 'L_Arm_Y_For', 'L_Arm_Y_Back', 'L_Arm_X_For', 'R_Torso_Y_For']",True,R_Torso_Y_For,6,robot,1,False,False,"['robot_stimuli\\R_Arm_Z_For.mp4', 'robot_stimuli\\L_Head_Z_Back.mp4', 'robot_stimuli\\L_Arm_Y_For.mp4', 'robot_stimuli\\L_Arm_Y_Back.mp4', 'robot_stimuli\\L_Arm_X_For.mp4', 'robot_stimuli\\R_Torso_Y_For.mp4']",robot_stimuli\R_Torso_Y_For.mp4,1,,,,,,,,,,,,,0,23,23,23,,,,,,,,,,,,,,,,,1176.515864800007,1177.6072045000037,,,,,,,,,1181.2456739000045,1181.2456739000045,1181.2456739000045,1181.2456739000045,1181.2456739000045,1181.2456739000045,1181.2456739000045,1181.2456739000045,None,None,None,,,,,,,,,,,1153.1782383999962,1153.1782383999962,None,,1172.874546200008,1177.6072045000037,1177.6072045000037,1177.6072045000037,1177.6072045000037,c,2.530866799992509,1153.1782383999962,1153.1782383999962,,,,1,001,2024-06-04_10h00.32.163,robot_sternberg_sign,2022.2.5,59.930732062682694,
"['R_Torso_Z_Back', 'R_Head_Y_For', 'L_Head_X_For', 'L_Arm_X_For', 'R_Arm_Y_For', 'R_Head_Z_For']",True,R_Head_Z_For,6,robot,1,False,False,"['robot_stimuli\\R_Torso_Z_Back.mp4', 'robot_stimuli\\R_Head_Y_For.mp4', 'robot_stimuli\\L_Head_X_For.mp4', 'robot_stimuli\\L_Arm_X_For.mp4', 'robot_stimuli\\R_Arm_Y_For.mp4', 'robot_stimuli\\R_Head_Z_For.mp4']",robot_stimuli\R_Head_Z_For.mp4,1,,,,,,,,,,,,,0,24,24,24,,,,,,,,,,,,,,,,,1204.369598499994,1205.4733945000044,,,,,,,,,1212.128441199995,1212.128441199995,1212.128441199995,1212.128441199995,1212.128441199995,1212.128441199995,1212.128441199995,1212.128441199995,None,None,None,,,,,,,,,,,1181.2456739000045,1181.2456739000045,None,,1200.7347878,1205.4733945000044,1205.4733945000044,1205.4733945000044,1205.4733945000044,c,6.608153399996809,1181.2456739000045,1181.2456739000045,,,,1,001,2024-06-04_10h00.32.163,robot_sternberg_sign,2022.2.5,59.930732062682694,
"['R_Head_Z_Back', 'L_Head_Y_For', 'R_Head_X_For', 'L_Torso_Z_For', 'L_Head_Z_Back', 'R_Torso_Z_Back']",False,L_Arm_Z_Back,6,robot,1,False,False,"['robot_stimuli\\R_Head_Z_Back.mp4', 'robot_stimuli\\L_Head_Y_For.mp4', 'robot_stimuli\\R_Head_X_For.mp4', 'robot_stimuli\\L_Torso_Z_For.mp4', 'robot_stimuli\\L_Head_Z_Back.mp4', 'robot_stimuli\\R_Torso_Z_Back.mp4']",robot_stimuli\L_Arm_Z_Back.mp4,1,,,,,,,,,,,,,0,25,25,25,,,,,,,,,,,,,,,,,1235.4368602000031,1236.5237343000044,,,,,,,,,1257.9729970000044,1257.9729970000044,1257.9729970000044,1257.9729970000044,1257.9729970000044,1257.9729970000044,1257.9729970000044,1257.9729970000044,None,None,None,,,,,,,,,,,1212.128441199995,1212.128441199995,None,,1231.8058974000014,1236.5237343000044,1236.5237343000044,1236.5237343000044,1236.5237343000044,n,21.422418100002687,1212.128441199995,1212.128441199995,,,,1,001,2024-06-04_10h00.32.163,robot_sternberg_sign,2022.2.5,59.930732062682694,
"['R_Torso_Z_Back', 'R_Head_Z_For', 'L_Arm_Z_For', 'R_Arm_Y_For', 'R_Base_Z_For', 'L_Arm_X_For']",True,R_Head_Z_For,6,robot,1,False,False,"['robot_stimuli\\R_Torso_Z_Back.mp4', 'robot_stimuli\\R_Head_Z_For.mp4', 'robot_stimuli\\L_Arm_Z_For.mp4', 'robot_stimuli\\R_Arm_Y_For.mp4', 'robot_stimuli\\R_Base_Z_For.mp4', 'robot_stimuli\\L_Arm_X_For.mp4']",robot_stimuli\R_Head_Z_For.mp4,1,,,,,,,,,,,,,0,26,26,26,,,,,,,,,,,,,,,,,1281.1664326000027,1282.257079300005,,,,,,,,,1286.7869245000038,1286.7869245000038,1286.7869245000038,1286.7869245000038,1286.7869245000038,1286.7869245000038,1286.7869245000038,1286.7869245000038,None,None,None,,,,,,,,,,,1257.9729970000044,1257.9729970000044,None,,1277.535497799996,1282.257079300005,1282.257079300005,1282.257079300005,1282.257079300005,n,4.504372199997306,1257.9729970000044,1257.9729970000044,,,,1,001,2024-06-04_10h00.32.163,robot_sternberg_sign,2022.2.5,59.930732062682694,
"['L_Arm_X_For', 'R_Torso_Z_Back', 'R_Head_Z_For', 'R_Torso_X_For', 'R_Base_Y_Back', 'R_Base_Y_For']",False,L_Head_Y_Back,6,robot,1,False,False,"['robot_stimuli\\L_Arm_X_For.mp4', 'robot_stimuli\\R_Torso_Z_Back.mp4', 'robot_stimuli\\R_Head_Z_For.mp4', 'robot_stimuli\\R_Torso_X_For.mp4', 'robot_stimuli\\R_Base_Y_Back.mp4', 'robot_stimuli\\R_Base_Y_For.mp4']",robot_stimuli\L_Head_Y_Back.mp4,1,,,,,,,,,,,,,0,27,27,27,,,,,,,,,,,,,,,,,1310.1507079000003,1311.2563117999962,,,,,,,,,1340.0433972000028,1340.0433972000028,1340.0433972000028,1340.0433972000028,1340.0433972000028,1340.0433972000028,1340.0433972000028,1340.0433972000028,None,None,None,,,,,,,,,,,1286.7869245000038,1286.7869245000038,None,,1306.506820399998,1311.2563117999962,1311.2563117999962,1311.2563117999962,1311.2563117999962,n,28.74604349999572,1286.7869245000038,1286.7869245000038,,,,1,001,2024-06-04_10h00.32.163,robot_sternberg_sign,2022.2.5,59.930732062682694,
"['L_Head_X_Back', 'L_Base_X_For', 'R_Head_Y_Back', 'L_Torso_X_For', 'R_Base_Z_Back', 'R_Base_X_For']",False,L_Torso_Z_Back,6,robot,1,False,False,"['robot_stimuli\\L_Head_X_Back.mp4', 'robot_stimuli\\L_Base_X_For.mp4', 'robot_stimuli\\R_Head_Y_Back.mp4', 'robot_stimuli\\L_Torso_X_For.mp4', 'robot_stimuli\\R_Base_Z_Back.mp4', 'robot_stimuli\\R_Base_X_For.mp4']",robot_stimuli\L_Torso_Z_Back.mp4,1,,,,,,,,,,,,,0,28,28,28,,,,,,,,,,,,,,,,,1363.0818025000044,1341.1204847000045,,,,,,,,,1367.6712824999995,1367.6712824999995,1367.6712824999995,1367.6712824999995,1367.6712824999995,1367.6712824999995,1367.6712824999995,1367.6712824999995,None,None,None,,,,,,,,,,,1340.0433972000028,1340.0433972000028,None,,1359.5534623999993,1364.1737751000037,1364.1737751000037,1364.1737751000037,1364.1737751000037,n,3.1951338999933796,1340.0433972000028,1340.0433972000028,,,,1,001,2024-06-04_10h00.32.163,robot_sternberg_sign,2022.2.5,59.930732062682694,
"['R_Arm_Z_Back', 'L_Torso_X_For', 'R_Torso_Z_Back', 'L_Arm_Y_Back', 'R_Arm_Y_Back', 'R_Base_X_Back']",True,R_Torso_Z_Back,6,robot,1,False,True,"['robot_stimuli\\R_Arm_Z_Back.mp4', 'robot_stimuli\\L_Torso_X_For.mp4', 'robot_stimuli\\R_Torso_Z_Back.mp4', 'robot_stimuli\\L_Arm_Y_Back.mp4', 'robot_stimuli\\R_Arm_Y_Back.mp4', 'robot_stimuli\\R_Base_X_Back.mp4']",robot_stimuli\R_Torso_Z_Back.mp4,1,,,,,,,,,,,,,0,29,29,29,,,,,,,,,,,,,,,,,1391.0033277000039,1392.0898042000044,,,,,,,,,1395.7639712999953,1399.924180800008,1395.7639712999953,1399.924180800008,1395.7639712999953,1399.924180800008,1395.7639712999953,1399.924180800008,40.339506172839506,2.8613761000015074,space,,,4.093253799990634,,,,,,,,1367.6712824999995,1367.6712824999995,None,,1387.3714053000003,1392.0898042000044,1392.0898042000044,1392.0898042000044,1392.0898042000044,n,3.440365100002964,1367.6712824999995,1367.6712824999995,,,,1,001,2024-06-04_10h00.32.163,robot_sternberg_sign,2022.2.5,59.930732062682694,
"['F', 'P', 'X', 'Z']",True,F,4,letter,2,True,False,"['robot_stimuli\\\\filler.mp4', 'robot_stimuli\\\\filler.mp4', 'robot_stimuli\\\\filler.mp4', 'robot_stimuli\\\\filler.mp4']",robot_stimuli\\filler.mp4,1,,,,,,,,,,,,,0,30,30,30,,,,,,,,,,,,,,,,,1514.9136065000057,1506.0366214999958,,,,,,,,,1516.8145603000012,1516.8145603000012,1516.8145603000012,1516.8145603000012,1516.8145603000012,1516.8145603000012,1516.8145603000012,1516.8145603000012,None,None,None,,,,,,,,,,,1399.924180800008,1399.924180800008,space,105.03073600000062,,,1515.9847554000007,1515.9847554000007,1515.9847554000007,c,0.5924961999990046,,,1512.7041067999962,1514.9136065000057,1515.9847554000007,1,001,2024-06-04_10h00.32.163,robot_sternberg_sign,2022.2.5,59.930732062682694,
"['R', 'P', 'F', 'G']",False,Z,4,letter,2,False,False,"['robot_stimuli\\\\filler.mp4', 'robot_stimuli\\\\filler.mp4', 'robot_stimuli\\\\filler.mp4', 'robot_stimuli\\\\filler.mp4']",robot_stimuli\\filler.mp4,1,,,,,,,,,,,,,0,31,31,31,,,,,,,,,,,,,,,,,1526.5656629000005,,,,,,,,,,1530.4669233000022,1530.4669233000022,1530.4669233000022,1530.4669233000022,1530.4669233000022,1530.4669233000022,1530.4669233000022,1530.4669233000022,None,None,None,,,,,,,,,,,1516.8145603000012,1516.8145603000012,None,,,,1527.6322256999993,1527.6322256999993,1527.6322256999993,n,2.6818502999958582,1516.8145603000012,1516.8145603000012,1524.3544137999997,1526.5656629000005,1527.6322256999993,1,001,2024-06-04_10h00.32.163,robot_sternberg_sign,2022.2.5,59.930732062682694,
"['R', 'K', 'F', 'X']",False,G,4,letter,2,False,False,"['robot_stimuli\\\\filler.mp4', 'robot_stimuli\\\\filler.mp4', 'robot_stimuli\\\\filler.mp4', 'robot_stimuli\\\\filler.mp4']",robot_stimuli\\filler.mp4,1,,,,,,,,,,,,,0,32,32,32,,,,,,,,,,,,,,,,,1540.4196473000047,1541.486785400004,,,,,,,,,1543.3115429000027,1543.3115429000027,1543.3115429000027,1543.3115429000027,1543.3115429000027,1543.3115429000027,1543.3115429000027,1543.3115429000027,None,None,None,,,,,,,,,,,1530.4669233000022,1530.4669233000022,None,,,,1541.486785400004,1541.486785400004,1541.486785400004,n,1.6356155999965267,1530.4669233000022,1530.4669233000022,1538.409585500005,1540.4196473000047,1541.486785400004,1,001,2024-06-04_10h00.32.163,robot_sternberg_sign,2022.2.5,59.930732062682694,
"['W', 'V', 'P', 'G']",False,Z,4,letter,2,False,False,"['robot_stimuli\\\\filler.mp4', 'robot_stimuli\\\\filler.mp4', 'robot_stimuli\\\\filler.mp4', 'robot_stimuli\\\\filler.mp4']",robot_stimuli\\filler.mp4,1,,,,,,,,,,,,,0,33,33,33,,,,,,,,,,,,,,,,,1553.0905005999957,1554.1567068000004,,,,,,,,,1555.379130900008,1555.379130900008,1555.379130900008,1555.379130900008,1555.379130900008,1555.379130900008,1555.379130900008,1555.379130900008,None,None,None,,,,,,,,,,,1543.3115429000027,1543.3115429000027,None,,,,1554.1567068000004,1554.1567068000004,1554.1567068000004,n,1.0774927000020398,1543.3115429000027,1543.3115429000027,1550.8727111000044,1553.0905005999957,1554.1567068000004,1,001,2024-06-04_10h00.32.163,robot_sternberg_sign,2022.2.5,59.930732062682694,
"['R', 'L', 'H', 'J']",False,C,4,letter,2,False,False,"['robot_stimuli\\\\filler.mp4', 'robot_stimuli\\\\filler.mp4', 'robot_stimuli\\\\filler.mp4', 'robot_stimuli\\\\filler.mp4']",robot_stimuli\\filler.mp4,1,,,,,,,,,,,,,0,34,34,34,,,,,,,,,,,,,,,,,1565.1225227999967,1566.182639599996,,,,,,,,,1580.646146900006,1580.646146900006,1580.646146900006,1580.646146900006,1580.646146900006,1580.646146900006,1580.646146900006,1580.646146900006,None,None,None,,,,,,,,,,,1555.379130900008,1555.379130900008,None,,,,1566.182639599996,1566.182639599996,1566.182639599996,n,14.267974200003664,1555.379130900008,1555.379130900008,1562.916074599998,1565.1225227999967,1566.182639599996,1,001,2024-06-04_10h00.32.163,robot_sternberg_sign,2022.2.5,59.930732062682694,
"['M', 'D', 'C', 'R']",False,F,4,letter,2,False,False,"['robot_stimuli\\\\filler.mp4', 'robot_stimuli\\\\filler.mp4', 'robot_stimuli\\\\filler.mp4', 'robot_stimuli\\\\filler.mp4']",robot_stimuli\\filler.mp4,1,,,,,,,,,,,,,0,35,35,35,,,,,,,,,,,,,,,,,1590.7765721000032,1591.8333792000049,,,,,,,,,1618.5251099000016,1618.5251099000016,1618.5251099000016,1618.5251099000016,1618.5251099000016,1618.5251099000016,1618.5251099000016,1618.5251099000016,None,None,None,,,,,,,,,,,1580.646146900006,1580.646146900006,None,,,,1591.8333792000049,1591.8333792000049,1591.8333792000049,n,26.51987969999027,1580.646146900006,1580.646146900006,1588.5668237000064,1590.7765721000032,1591.8333792000049,1,001,2024-06-04_10h00.32.163,robot_sternberg_sign,2022.2.5,59.930732062682694,
"['T', 'G', 'M', 'W']",True,W,4,letter,2,False,False,"['robot_stimuli\\\\filler.mp4', 'robot_stimuli\\\\filler.mp4', 'robot_stimuli\\\\filler.mp4', 'robot_stimuli\\\\filler.mp4']",robot_stimuli\\filler.mp4,1,,,,,,,,,,,,,0,36,36,36,,,,,,,,,,,,,,,,,1628.267029900002,1629.3376051999949,,,,,,,,,1630.7667146000022,1630.7667146000022,1630.7667146000022,1630.7667146000022,1630.7667146000022,1630.7667146000022,1630.7667146000022,1630.7667146000022,None,None,None,,,,,,,,,,,1618.5251099000016,1618.5251099000016,None,,,,1629.3376051999949,1629.3376051999949,1629.3376051999949,c,1.273348899994744,1618.5251099000016,1618.5251099000016,1626.0542196000024,1628.267029900002,1629.3376051999949,1,001,2024-06-04_10h00.32.163,robot_sternberg_sign,2022.2.5,59.930732062682694,
"['R', 'Q', 'G', 'F']",True,G,4,letter,2,False,False,"['robot_stimuli\\\\filler.mp4', 'robot_stimuli\\\\filler.mp4', 'robot_stimuli\\\\filler.mp4', 'robot_stimuli\\\\filler.mp4']",robot_stimuli\\filler.mp4,1,,,,,,,,,,,,,0,37,37,37,,,,,,,,,,,,,,,,,1640.7264140000043,1641.7842032000044,,,,,,,,,1642.6111050000036,1642.6111050000036,1642.6111050000036,1642.6111050000036,1642.6111050000036,1642.6111050000036,1642.6111050000036,1642.6111050000036,None,None,None,,,,,,,,,,,1630.7667146000022,1630.7667146000022,None,,,,1641.7842032000044,1641.7842032000044,1641.7842032000044,c,0.7063466999970842,1630.7667146000022,1630.7667146000022,1638.7099961000058,1640.7264140000043,1641.7842032000044,1,001,2024-06-04_10h00.32.163,robot_sternberg_sign,2022.2.5,59.930732062682694,
"['H', 'M', 'T', 'V']",True,M,4,letter,2,False,False,"['robot_stimuli\\\\filler.mp4', 'robot_stimuli\\\\filler.mp4', 'robot_stimuli\\\\filler.mp4', 'robot_stimuli\\\\filler.mp4']",robot_stimuli\\filler.mp4,1,,,,,,,,,,,,,0,38,38,38,,,,,,,,,,,,,,,,,1652.548435699995,1643.668168899996,,,,,,,,,1654.646560699999,1654.646560699999,1654.646560699999,1654.646560699999,1654.646560699999,1654.646560699999,1654.646560699999,1654.646560699999,None,None,None,,,,,,,,,,,1642.6111050000036,1642.6111050000036,None,,,,1653.6163341000065,1653.6163341000065,1653.6163341000065,c,0.9140047999972012,1642.6111050000036,1642.6111050000036,1650.3370403000008,1652.548435699995,1653.6163341000065,1,001,2024-06-04_10h00.32.163,robot_sternberg_sign,2022.2.5,59.930732062682694,
"['P', 'N', 'M', 'V']",True,V,4,letter,2,False,True,"['robot_stimuli\\\\filler.mp4', 'robot_stimuli\\\\filler.mp4', 'robot_stimuli\\\\filler.mp4', 'robot_stimuli\\\\filler.mp4']",robot_stimuli\\filler.mp4,1,,,,,,,,,,,,,0,39,39,39,,,,,,,,,,,,,,,,,1664.3851510999957,1665.4528935999988,,,,,,,,,1666.5108313999954,1746.766757400008,1666.5108313999954,1746.766757400008,1666.5108313999954,1746.766757400008,1666.5108313999954,1746.766757400008,23.364197530864192,2.1110416000010446,space,,,80.20251550000103,,,,,,,,1654.646560699999,1654.646560699999,None,,,,1665.4528935999988,1665.4528935999988,1665.4528935999988,c,0.9260269000078551,1654.646560699999,1654.646560699999,1662.1661336999969,1664.3851510999957,1665.4528935999988,1,001,2024-06-04_10h00.32.163,robot_sternberg_sign,2022.2.5,59.930732062682694,
"['H', 'N', 'G', 'R', 'V', 'X']",True,N,6,letter,2,True,False,"['robot_stimuli\\\\filler.mp4', 'robot_stimuli\\\\filler.mp4', 'robot_stimuli\\\\filler.mp4', 'robot_stimuli\\\\filler.mp4', 'robot_stimuli\\\\filler.mp4', 'robot_stimuli\\\\filler.mp4']",robot_stimuli\\filler.mp4,1,,,,,,,,,,,,,0,40,40,40,,,,,,,,,,,,,,,,,1767.5214238000044,1768.5842943000025,,,,,,,,,1769.8083581999963,1769.8083581999963,1769.8083581999963,1769.8083581999963,1769.8083581999963,1769.8083581999963,1769.8083581999963,1769.8083581999963,None,None,None,,,,,,,,,,,1746.766757400008,1746.766757400008,space,6.219066599995131,,,1768.5842943000025,1768.5842943000025,1768.5842943000025,c,1.1305888000060804,,,1765.3017802999966,1767.5214238000044,1768.5842943000025,1,001,2024-06-04_10h00.32.163,robot_sternberg_sign,2022.2.5,59.930732062682694,
"['V', 'M', 'Z', 'W', 'L', 'X']",True,M,6,letter,2,False,False,"['robot_stimuli\\\\filler.mp4', 'robot_stimuli\\\\filler.mp4', 'robot_stimuli\\\\filler.mp4', 'robot_stimuli\\\\filler.mp4', 'robot_stimuli\\\\filler.mp4', 'robot_stimuli\\\\filler.mp4']",robot_stimuli\\filler.mp4,1,,,,,,,,,,,,,0,41,41,41,,,,,,,,,,,,,,,,,1783.933722700007,1785.003753900004,,,,,,,,,1787.0355655000021,1787.0355655000021,1787.0355655000021,1787.0355655000021,1787.0355655000021,1787.0355655000021,1787.0355655000021,1787.0355655000021,None,None,None,,,,,,,,,,,1769.8083581999963,1769.8083581999963,None,,,,1785.003753900004,1785.003753900004,1785.003753900004,c,1.799477199994726,1769.8083581999963,1769.8083581999963,1781.7146665000037,1783.933722700007,1785.003753900004,1,001,2024-06-04_10h00.32.163,robot_sternberg_sign,2022.2.5,59.930732062682694,
"['N', 'B', 'C', 'L', 'Q', 'P']",False,X,6,letter,2,False,False,"['robot_stimuli\\\\filler.mp4', 'robot_stimuli\\\\filler.mp4', 'robot_stimuli\\\\filler.mp4', 'robot_stimuli\\\\filler.mp4', 'robot_stimuli\\\\filler.mp4', 'robot_stimuli\\\\filler.mp4']",robot_stimuli\\filler.mp4,1,,,,,,,,,,,,,0,42,42,42,,,,,,,,,,,,,,,,,1801.5672900000063,1802.6337653999944,,,,,,,,,1803.865580400001,1803.865580400001,1803.865580400001,1803.865580400001,1803.865580400001,1803.865580400001,1803.865580400001,1803.865580400001,None,None,None,,,,,,,,,,,1787.0355655000021,1787.0355655000021,None,,,,1802.6337653999944,1802.6337653999944,1802.6337653999944,n,1.136951799999224,1787.0355655000021,1787.0355655000021,1799.3511902000027,1801.5672900000063,1802.6337653999944,1,001,2024-06-04_10h00.32.163,robot_sternberg_sign,2022.2.5,59.930732062682694,
"['F', 'D', 'J', 'X', 'T', 'N']",False,Z,6,letter,2,False,False,"['robot_stimuli\\\\filler.mp4', 'robot_stimuli\\\\filler.mp4', 'robot_stimuli\\\\filler.mp4', 'robot_stimuli\\\\filler.mp4', 'robot_stimuli\\\\filler.mp4', 'robot_stimuli\\\\filler.mp4']",robot_stimuli\\filler.mp4,1,,,,,,,,,,,,,0,43,43,43,,,,,,,,,,,,,,,,,1817.9968523999996,1819.0665076000005,,,,,,,,,1821.2908951999998,1821.2908951999998,1821.2908951999998,1821.2908951999998,1821.2908951999998,1821.2908951999998,1821.2908951999998,1821.2908951999998,None,None,None,,,,,,,,,,,1803.865580400001,1803.865580400001,None,,,,1819.0665076000005,1819.0665076000005,1819.0665076000005,n,2.0642232000100194,1803.865580400001,1803.865580400001,1815.782186299999,1817.9968523999996,1819.0665076000005,1,001,2024-06-04_10h00.32.163,robot_sternberg_sign,2022.2.5,59.930732062682694,
"['F', 'X', 'P', 'S', 'Q', 'C']",True,X,6,letter,2,False,False,"['robot_stimuli\\\\filler.mp4', 'robot_stimuli\\\\filler.mp4', 'robot_stimuli\\\\filler.mp4', 'robot_stimuli\\\\filler.mp4', 'robot_stimuli\\\\filler.mp4', 'robot_stimuli\\\\filler.mp4']",robot_stimuli\\filler.mp4,1,,,,,,,,,,,,,0,44,44,44,,,,,,,,,,,,,,,,,1835.6212934000068,1836.684135100004,,,,,,,,,1856.3566449000064,1856.3566449000064,1856.3566449000064,1856.3566449000064,1856.3566449000064,1856.3566449000064,1856.3566449000064,1856.3566449000064,None,None,None,,,,,,,,,,,1821.2908951999998,1821.2908951999998,None,,,,1836.684135100004,1836.684135100004,1836.684135100004,n,19.48661870000069,1821.2908951999998,1821.2908951999998,1833.6080146000022,1835.6212934000068,1836.684135100004,1,001,2024-06-04_10h00.32.163,robot_sternberg_sign,2022.2.5,59.930732062682694,
"['X', 'G', 'B', 'F', 'K', 'N']",True,F,6,letter,2,False,False,"['robot_stimuli\\\\filler.mp4', 'robot_stimuli\\\\filler.mp4', 'robot_stimuli\\\\filler.mp4', 'robot_stimuli\\\\filler.mp4', 'robot_stimuli\\\\filler.mp4', 'robot_stimuli\\\\filler.mp4']",robot_stimuli\\filler.mp4,1,,,,,,,,,,,,,0,45,45,45,,,,,,,,,,,,,,,,,1870.8825355000008,1857.4225185999967,,,,,,,,,1888.4173018000001,1888.4173018000001,1888.4173018000001,1888.4173018000001,1888.4173018000001,1888.4173018000001,1888.4173018000001,1888.4173018000001,None,None,None,,,,,,,,,,,1856.3566449000064,1856.3566449000064,None,,,,1871.9489349000069,1871.9489349000069,1871.9489349000069,c,16.40459710000141,1856.3566449000064,1856.3566449000064,1868.668886600004,1870.8825355000008,1871.9489349000069,1,001,2024-06-04_10h00.32.163,robot_sternberg_sign,2022.2.5,59.930732062682694,
"['K', 'G', 'F', 'R', 'L', 'S']",False,X,6,letter,2,False,False,"['robot_stimuli\\\\filler.mp4', 'robot_stimuli\\\\filler.mp4', 'robot_stimuli\\\\filler.mp4', 'robot_stimuli\\\\filler.mp4', 'robot_stimuli\\\\filler.mp4', 'robot_stimuli\\\\filler.mp4']",robot_stimuli\\filler.mp4,1,,,,,,,,,,,,,0,46,46,46,,,,,,,,,,,,,,,,,1902.3479021999956,1903.403130000006,,,,,,,,,1920.677523499995,1920.677523499995,1920.677523499995,1920.677523499995,1920.677523499995,1920.677523499995,1920.677523499995,1920.677523499995,None,None,None,,,,,,,,,,,1888.4173018000001,1888.4173018000001,None,,,,1903.403130000006,1903.403130000006,1903.403130000006,n,17.207339999993565,1888.4173018000001,1888.4173018000001,1900.3252348999958,1902.3479021999956,1903.403130000006,1,001,2024-06-04_10h00.32.163,robot_sternberg_sign,2022.2.5,59.930732062682694,
"['K', 'N', 'B', 'V', 'Q', 'L']",True,B,6,letter,2,False,False,"['robot_stimuli\\\\filler.mp4', 'robot_stimuli\\\\filler.mp4', 'robot_stimuli\\\\filler.mp4', 'robot_stimuli\\\\filler.mp4', 'robot_stimuli\\\\filler.mp4', 'robot_stimuli\\\\filler.mp4']",robot_stimuli\\filler.mp4,1,,,,,,,,,,,,,0,47,47,47,,,,,,,,,,,,,,,,,1934.7989850000013,1921.7340320999938,,,,,,,,,1937.2967743000045,1937.2967743000045,1937.2967743000045,1937.2967743000045,1937.2967743000045,1937.2967743000045,1937.2967743000045,1937.2967743000045,None,None,None,,,,,,,,,,,1920.677523499995,1920.677523499995,None,,,,1935.866786700004,1935.866786700004,1935.866786700004,c,1.1832592999999179,1920.677523499995,1920.677523499995,1932.5812301999977,1934.7989850000013,1935.866786700004,1,001,2024-06-04_10h00.32.163,robot_sternberg_sign,2022.2.5,59.930732062682694,
"['G', 'M', 'X', 'F', 'L', 'Q']",False,S,6,letter,2,False,False,"['robot_stimuli\\\\filler.mp4', 'robot_stimuli\\\\filler.mp4', 'robot_stimuli\\\\filler.mp4', 'robot_stimuli\\\\filler.mp4', 'robot_stimuli\\\\filler.mp4', 'robot_stimuli\\\\filler.mp4']",robot_stimuli\\filler.mp4,1,,,,,,,,,,,,,0,48,48,48,,,,,,,,,,,,,,,,,1951.3912566000072,1952.4520340000017,,,,,,,,,1971.7269394000032,1971.7269394000032,1971.7269394000032,1971.7269394000032,1971.7269394000032,1971.7269394000032,1971.7269394000032,1971.7269394000032,None,None,None,,,,,,,,,,,1937.2967743000045,1937.2967743000045,None,,,,1952.4520340000017,1952.4520340000017,1952.4520340000017,n,19.15734689999954,1937.2967743000045,1937.2967743000045,1949.3757690000057,1951.3912566000072,1952.4520340000017,1,001,2024-06-04_10h00.32.163,robot_sternberg_sign,2022.2.5,59.930732062682694,
"['C', 'S', 'W', 'G', 'B', 'V']",False,Q,6,letter,2,False,True,"['robot_stimuli\\\\filler.mp4', 'robot_stimuli\\\\filler.mp4', 'robot_stimuli\\\\filler.mp4', 'robot_stimuli\\\\filler.mp4', 'robot_stimuli\\\\filler.mp4', 'robot_stimuli\\\\filler.mp4']",robot_stimuli\\filler.mp4,1,,,,,,,,,,,,,0,49,49,49,,,,,,,,,,,,,,,,,1985.8604717999988,1986.9163664999942,,,,,,,,,1987.9804376999964,1991.552375500003,1987.9804376999964,1991.552375500003,1987.9804376999964,1991.552375500003,1987.9804376999964,1991.552375500003,41.57407407407407,3.02711690000433,space,,,3.5251965999923414,,,,,,,,1971.7269394000032,1971.7269394000032,None,,,,1986.9163664999942,1986.9163664999942,1986.9163664999942,n,0.8296930000069551,1971.7269394000032,1971.7269394000032,1983.845144699997,1985.8604717999988,1986.9163664999942,1,001,2024-06-04_10h00.32.163,robot_sternberg_sign,2022.2.5,59.930732062682694,
"['V', 'W']",True,V,2,letter,2,True,False,"['robot_stimuli\\\\filler.mp4', 'robot_stimuli\\\\filler.mp4']",robot_stimuli\\filler.mp4,1,,,,,,,,,,,,,0,50,50,50,,,,,,,,,,,,,,,,,1998.2374336000066,1999.3034325000044,,,,,,,,,2000.3243511000037,2000.3243511000037,2000.3243511000037,2000.3243511000037,2000.3243511000037,2000.3243511000037,2000.3243511000037,2000.3243511000037,None,None,None,,,,,,,,,,,1991.552375500003,1991.552375500003,space,1.098534999997355,,,1999.3034325000044,1999.3034325000044,1999.3034325000044,c,0.9061334999860264,,,1996.0337052999967,1998.2374336000066,1999.3034325000044,1,001,2024-06-04_10h00.32.163,robot_sternberg_sign,2022.2.5,59.930732062682694,
"['G', 'Z']",False,R,2,letter,2,False,False,"['robot_stimuli\\\\filler.mp4', 'robot_stimuli\\\\filler.mp4']",robot_stimuli\\filler.mp4,1,,,,,,,,,,,,,0,51,51,51,,,,,,,,,,,,,,,,,2005.690966299997,2006.7518419999979,,,,,,,,,2007.9814115000045,2007.9814115000045,2007.9814115000045,2007.9814115000045,2007.9814115000045,2007.9814115000045,2007.9814115000045,2007.9814115000045,None,None,None,,,,,,,,,,,2000.3243511000037,2000.3243511000037,None,,,,2006.7518419999979,2006.7518419999979,2006.7518419999979,n,1.1231211999984225,2000.3243511000037,2000.3243511000037,2003.6794272999978,2005.690966299997,2006.7518419999979,1,001,2024-06-04_10h00.32.163,robot_sternberg_sign,2022.2.5,59.930732062682694,
"['S', 'F']",False,Q,2,letter,2,False,False,"['robot_stimuli\\\\filler.mp4', 'robot_stimuli\\\\filler.mp4']",robot_stimuli\\filler.mp4,1,,,,,,,,,,,,,0,52,52,52,,,,,,,,,,,,,,,,,2013.5489859999943,,,,,,,,,,2015.841216700006,2015.841216700006,2015.841216700006,2015.841216700006,2015.841216700006,2015.841216700006,2015.841216700006,2015.841216700006,None,None,None,,,,,,,,,,,2007.9814115000045,2007.9814115000045,None,,,,2014.6188898999972,2014.6188898999972,2014.6188898999972,n,1.1585468999983277,2007.9814115000045,2007.9814115000045,2011.3366057999956,2013.5489859999943,2014.6188898999972,1,001,2024-06-04_10h00.32.163,robot_sternberg_sign,2022.2.5,59.930732062682694,
"['F', 'C']",False,J,2,letter,2,False,False,"['robot_stimuli\\\\filler.mp4', 'robot_stimuli\\\\filler.mp4']",robot_stimuli\\filler.mp4,1,,,,,,,,,,,,,0,53,53,53,,,,,,,,,,,,,,,,,2021.2104529000062,2022.2695926000015,,,,,,,,,2028.7147866000014,2028.7147866000014,2028.7147866000014,2028.7147866000014,2028.7147866000014,2028.7147866000014,2028.7147866000014,2028.7147866000014,None,None,None,,,,,,,,,,,2015.841216700006,2015.841216700006,None,,,,2022.2695926000015,2022.2695926000015,2022.2695926000015,n,6.3250228999968385,2015.841216700006,2015.841216700006,2019.1926583000022,2021.2104529000062,2022.2695926000015,1,001,2024-06-04_10h00.32.163,robot_sternberg_sign,2022.2.5,59.930732062682694,
"['X', 'Q']",True,Q,2,letter,2,False,False,"['robot_stimuli\\\\filler.mp4', 'robot_stimuli\\\\filler.mp4']",robot_stimuli\\filler.mp4,1,,,,,,,,,,,,,0,54,54,54,,,,,,,,,,,,,,,,,2034.0985791999992,,,,,,,,,,2052.441277200007,2052.441277200007,2052.441277200007,2052.441277200007,2052.441277200007,2052.441277200007,2052.441277200007,2052.441277200007,None,None,None,,,,,,,,,,,2028.7147866000014,2028.7147866000014,None,,,,2035.1689492000005,2035.1689492000005,2035.1689492000005,c,17.07458929999848,2028.7147866000014,2028.7147866000014,2032.080379299994,2034.0985791999992,2035.1689492000005,1,001,2024-06-04_10h00.32.163,robot_sternberg_sign,2022.2.5,59.930732062682694,
"['W', 'D']",False,Q,2,letter,2,False,False,"['robot_stimuli\\\\filler.mp4', 'robot_stimuli\\\\filler.mp4']",robot_stimuli\\filler.mp4,1,,,,,,,,,,,,,0,55,55,55,,,,,,,,,,,,,,,,,2057.8128994,2058.8818616000062,,,,,,,,,2060.7096141000075,2060.7096141000075,2060.7096141000075,2060.7096141000075,2060.7096141000075,2060.7096141000075,2060.7096141000075,2060.7096141000075,None,None,None,,,,,,,,,,,2052.441277200007,2052.441277200007,None,,,,2058.8818616000062,2058.8818616000062,2058.8818616000062,n,1.7766336999920895,2052.441277200007,2052.441277200007,2055.798025600001,2057.8128994,2058.8818616000062,1,001,2024-06-04_10h00.32.163,robot_sternberg_sign,2022.2.5,59.930732062682694,
"['D', 'F']",True,D,2,letter,2,False,False,"['robot_stimuli\\\\filler.mp4', 'robot_stimuli\\\\filler.mp4']",robot_stimuli\\filler.mp4,1,,,,,,,,,,,,,0,56,56,56,,,,,,,,,,,,,,,,,2066.0758667000046,2067.135518199997,,,,,,,,,2073.975539799998,2073.975539799998,2073.975539799998,2073.975539799998,2073.975539799998,2073.975539799998,2073.975539799998,2073.975539799998,None,None,None,,,,,,,,,,,2060.7096141000075,2060.7096141000075,None,,,,2067.135518199997,2067.135518199997,2067.135518199997,c,6.771725199985667,2060.7096141000075,2060.7096141000075,2064.0617178999964,2066.0758667000046,2067.135518199997,1,001,2024-06-04_10h00.32.163,robot_sternberg_sign,2022.2.5,59.930732062682694,
"['R', 'V']",True,V,2,letter,2,False,False,"['robot_stimuli\\\\filler.mp4', 'robot_stimuli\\\\filler.mp4']",robot_stimuli\\filler.mp4,1,,,,,,,,,,,,,0,57,57,57,,,,,,,,,,,,,,,,,2079.5387592000043,2080.6102110000065,,,,,,,,,2083.6343979999947,2083.6343979999947,2083.6343979999947,2083.6343979999947,2083.6343979999947,2083.6343979999947,2083.6343979999947,2083.6343979999947,None,None,None,,,,,,,,,,,2073.975539799998,2073.975539799998,None,,,,2080.6102110000065,2080.6102110000065,2080.6102110000065,c,2.8882617999915965,2073.975539799998,2073.975539799998,2077.3264799000026,2079.5387592000043,2080.6102110000065,1,001,2024-06-04_10h00.32.163,robot_sternberg_sign,2022.2.5,59.930732062682694,
"['P', 'D']",True,D,2,letter,2,False,False,"['robot_stimuli\\\\filler.mp4', 'robot_stimuli\\\\filler.mp4']",robot_stimuli\\filler.mp4,1,,,,,,,,,,,,,0,58,58,58,,,,,,,,,,,,,,,,,2089.004619200001,2090.067722199994,,,,,,,,,2093.9006999999983,2093.9006999999983,2093.9006999999983,2093.9006999999983,2093.9006999999983,2093.9006999999983,2093.9006999999983,2093.9006999999983,None,None,None,,,,,,,,,,,2083.6343979999947,2083.6343979999947,None,,,,2090.067722199994,2090.067722199994,2090.067722199994,c,3.7020441999920877,2083.6343979999947,2083.6343979999947,2086.9958344000042,2089.004619200001,2090.067722199994,1,001,2024-06-04_10h00.32.163,robot_sternberg_sign,2022.2.5,59.930732062682694,
"['B', 'D']",False,J,2,letter,2,False,True,"['robot_stimuli\\\\filler.mp4', 'robot_stimuli\\\\filler.mp4']",robot_stimuli\\filler.mp4,1,,,,,,,,,,,,,0,59,59,59,,,,,,,,,,,,,,,,,2099.4790966,2100.5349130999966,,,,,,,,,2113.2233963000035,2119.903120899995,2113.2233963000035,2119.903120899995,2113.2233963000035,2119.903120899995,2113.2233963000035,2119.903120899995,15.802469135802468,5.4261765999981435,space,,,6.618748900000355,,,,,,,,2093.9006999999983,2093.9006999999983,None,,,,2100.5349130999966,2100.5349130999966,2100.5349130999966,n,12.588140999985626,2093.9006999999983,2093.9006999999983,2097.2682839000045,2099.4790966,2100.5349130999966,1,001,2024-06-04_10h00.32.163,robot_sternberg_sign,2022.2.5,59.930732062682694,
"['R_Head_Z_Back', 'L_Arm_Z_For', 'L_Torso_Z_Back', 'R_Base_Y_Back']",True,R_Head_Z_Back,4,robot,3,True,False,"['robot_stimuli\\R_Head_Z_Back.mp4', 'robot_stimuli\\L_Arm_Z_For.mp4', 'robot_stimuli\\L_Torso_Z_Back.mp4', 'robot_stimuli\\R_Base_Y_Back.mp4']",robot_stimuli\R_Head_Z_Back.mp4,1,,,,,,,,,,,,,0,60,60,60,,,,,,,,,,,,,,,,,2137.5549656000076,2138.6609196000063,,,,,,,,,2142.3101451999974,2142.3101451999974,2142.3101451999974,2142.3101451999974,2142.3101451999974,2142.3101451999974,2142.3101451999974,2142.3101451999974,None,None,None,,,,,,,,,,,2119.903120899995,2119.903120899995,space,1.875792500009993,2133.922492700003,2138.6609196000063,2138.6609196000063,2138.6609196000063,2138.6609196000063,c,2.5568096999923,,,,,,1,001,2024-06-04_10h00.32.163,robot_sternberg_sign,2022.2.5,59.930732062682694,
"['R_Arm_Y_For', 'L_Base_Y_For', 'L_Base_Y_Back', 'R_Arm_Z_Back']",False,L_Arm_Z_For,4,robot,3,False,False,"['robot_stimuli\\R_Arm_Y_For.mp4', 'robot_stimuli\\L_Base_Y_For.mp4', 'robot_stimuli\\L_Base_Y_Back.mp4', 'robot_stimuli\\R_Arm_Z_Back.mp4']",robot_stimuli\L_Arm_Z_For.mp4,1,,,,,,,,,,,,,0,61,61,61,,,,,,,,,,,,,,,,,2157.8971807000053,2158.9763367999985,,,,,,,,,2162.6152607999975,2162.6152607999975,2162.6152607999975,2162.6152607999975,2162.6152607999975,2162.6152607999975,2162.6152607999975,2162.6152607999975,None,None,None,,,,,,,,,,,2142.3101451999974,2142.3101451999974,None,,2154.274614199996,2158.9763367999985,2158.9763367999985,2158.9763367999985,2158.9763367999985,n,2.5698161000036635,2142.3101451999974,2142.3101451999974,,,,1,001,2024-06-04_10h00.32.163,robot_sternberg_sign,2022.2.5,59.930732062682694,
"['R_Base_X_Back', 'R_Arm_Y_Back', 'L_Base_Y_Back', 'R_Torso_X_Back']",True,R_Arm_Y_Back,4,robot,3,False,False,"['robot_stimuli\\R_Base_X_Back.mp4', 'robot_stimuli\\R_Arm_Y_Back.mp4', 'robot_stimuli\\L_Base_Y_Back.mp4', 'robot_stimuli\\R_Torso_X_Back.mp4']",robot_stimuli\R_Arm_Y_Back.mp4,1,,,,,,,,,,,,,0,62,62,62,,,,,,,,,,,,,,,,,2178.4187037999945,2179.509784199996,,,,,,,,,2183.1635768999986,2183.1635768999986,2183.1635768999986,2183.1635768999986,2183.1635768999986,2183.1635768999986,2183.1635768999986,2183.1635768999986,None,None,None,,,,,,,,,,,2162.6152607999975,2162.6152607999975,None,,2174.788020100008,2179.509784199996,2179.509784199996,2179.509784199996,2179.509784199996,c,3.0367967000056524,2162.6152607999975,2162.6152607999975,,,,1,001,2024-06-04_10h00.32.163,robot_sternberg_sign,2022.2.5,59.930732062682694,
"['L_Head_Y_Back', 'L_Base_Z_Back', 'R_Head_X_Back', 'R_Torso_X_For']",True,R_Head_X_Back,4,robot,3,False,False,"['robot_stimuli\\L_Head_Y_Back.mp4', 'robot_stimuli\\L_Base_Z_Back.mp4', 'robot_stimuli\\R_Head_X_Back.mp4', 'robot_stimuli\\R_Torso_X_For.mp4']",robot_stimuli\R_Head_X_Back.mp4,1,,,,,,,,,,,,,0,63,63,63,,,,,,,,,,,,,,,,,2199.068076399999,2200.1606498000037,,,,,,,,,2203.8101603999967,2203.8101603999967,2203.8101603999967,2203.8101603999967,2203.8101603999967,2203.8101603999967,2203.8101603999967,2203.8101603999967,None,None,None,,,,,,,,,,,2183.1635768999986,2183.1635768999986,None,,2195.437709699996,2200.1606498000037,2200.1606498000037,2200.1606498000037,2200.1606498000037,c,2.0496618000033777,2183.1635768999986,2183.1635768999986,,,,1,001,2024-06-04_10h00.32.163,robot_sternberg_sign,2022.2.5,59.930732062682694,
"['R_Arm_Y_Back', 'R_Base_X_For', 'R_Torso_Z_For', 'R_Arm_Z_For']",False,L_Head_X_For,4,robot,3,False,False,"['robot_stimuli\\R_Arm_Y_Back.mp4', 'robot_stimuli\\R_Base_X_For.mp4', 'robot_stimuli\\R_Torso_Z_For.mp4', 'robot_stimuli\\R_Arm_Z_For.mp4']",robot_stimuli\L_Head_X_For.mp4,1,,,,,,,,,,,,,0,64,64,64,,,,,,,,,,,,,,,,,2219.6204183999944,2220.711659000008,,,,,,,,,2224.2958111000044,2224.2958111000044,2224.2958111000044,2224.2958111000044,2224.2958111000044,2224.2958111000044,2224.2958111000044,2224.2958111000044,None,None,None,,,,,,,,,,,2203.8101603999967,2203.8101603999967,None,,2215.9899232000025,2220.711659000008,2220.711659000008,2220.711659000008,2220.711659000008,n,1.8503201999992598,2203.8101603999967,2203.8101603999967,,,,1,001,2024-06-04_10h00.32.163,robot_sternberg_sign,2022.2.5,59.930732062682694,
"['L_Arm_Y_Back', 'L_Torso_X_Back', 'R_Head_Z_Back', 'L_Head_Z_Back']",True,L_Torso_X_Back,4,robot,3,False,False,"['robot_stimuli\\L_Arm_Y_Back.mp4', 'robot_stimuli\\L_Torso_X_Back.mp4', 'robot_stimuli\\R_Head_Z_Back.mp4', 'robot_stimuli\\L_Head_Z_Back.mp4']",robot_stimuli\L_Torso_X_Back.mp4,1,,,,,,,,,,,,,0,65,65,65,,,,,,,,,,,,,,,,,2240.1708091000037,2241.259234600002,,,,,,,,,2245.6939091999957,2245.6939091999957,2245.6939091999957,2245.6939091999957,2245.6939091999957,2245.6939091999957,2245.6939091999957,2245.6939091999957,None,None,None,,,,,,,,,,,2224.2958111000044,2224.2958111000044,None,,2236.538482200005,2241.259234600002,2241.259234600002,2241.259234600002,2241.259234600002,c,4.4000393000023905,2224.2958111000044,2224.2958111000044,,,,1,001,2024-06-04_10h00.32.163,robot_sternberg_sign,2022.2.5,59.930732062682694,
"['R_Torso_X_For', 'R_Base_X_Back', 'R_Base_Z_Back', 'L_Torso_X_Back']",True,R_Base_Z_Back,4,robot,3,False,False,"['robot_stimuli\\R_Torso_X_For.mp4', 'robot_stimuli\\R_Base_X_Back.mp4', 'robot_stimuli\\R_Base_Z_Back.mp4', 'robot_stimuli\\L_Torso_X_Back.mp4']",robot_stimuli\R_Base_Z_Back.mp4,1,,,,,,,,,,,,,0,66,66,66,,,,,,,,,,,,,,,,,2261.486418500004,2262.5777813000022,,,,,,,,,2266.129556,2266.129556,2266.129556,2266.129556,2266.129556,2266.129556,2266.129556,2266.129556,None,None,None,,,,,,,,,,,2245.6939091999957,2245.6939091999957,None,,2257.843764499994,2262.5777813000022,2262.5777813000022,2262.5777813000022,2262.5777813000022,c,3.104651700006798,2245.6939091999957,2245.6939091999957,,,,1,001,2024-06-04_10h00.32.163,robot_sternberg_sign,2022.2.5,59.930732062682694,
"['R_Arm_X_For', 'L_Torso_Z_For', 'L_Base_X_Back', 'L_Arm_X_Back']",False,R_Head_Z_Back,4,robot,3,False,False,"['robot_stimuli\\R_Arm_X_For.mp4', 'robot_stimuli\\L_Torso_Z_For.mp4', 'robot_stimuli\\L_Base_X_Back.mp4', 'robot_stimuli\\L_Arm_X_Back.mp4']",robot_stimuli\R_Head_Z_Back.mp4,1,,,,,,,,,,,,,0,67,67,67,,,,,,,,,,,,,,,,,2281.9687014999945,2283.059019799999,,,,,,,,,2339.140840399996,2339.140840399996,2339.140840399996,2339.140840399996,2339.140840399996,2339.140840399996,2339.140840399996,2339.140840399996,None,None,None,,,,,,,,,,,2266.129556,2266.129556,None,,2278.3364946000074,2283.059019799999,2283.059019799999,2283.059019799999,2283.059019799999,n,56.05632050000713,2266.129556,2266.129556,,,,1,001,2024-06-04_10h00.32.163,robot_sternberg_sign,2022.2.5,59.930732062682694,
"['L_Base_X_For', 'R_Head_Z_For', 'L_Base_Z_Back', 'R_Base_Y_Back']",False,R_Base_Y_For,4,robot,3,False,False,"['robot_stimuli\\L_Base_X_For.mp4', 'robot_stimuli\\R_Head_Z_For.mp4', 'robot_stimuli\\L_Base_Z_Back.mp4', 'robot_stimuli\\R_Base_Y_Back.mp4']",robot_stimuli\R_Base_Y_For.mp4,1,,,,,,,,,,,,,0,68,68,68,,,,,,,,,,,,,,,,,2354.967436200008,2340.2241888999997,,,,,,,,,2359.7093128999986,2359.7093128999986,2359.7093128999986,2359.7093128999986,2359.7093128999986,2359.7093128999986,2359.7093128999986,2359.7093128999986,None,None,None,,,,,,,,,,,2339.140840399996,2339.140840399996,None,,2351.3257625999977,2356.060444600007,2356.060444600007,2356.060444600007,2356.060444600007,n,2.75869600000442,2339.140840399996,2339.140840399996,,,,1,001,2024-06-04_10h00.32.163,robot_sternberg_sign,2022.2.5,59.930732062682694,
"['L_Base_X_For', 'L_Base_X_Back', 'L_Torso_Y_For', 'R_Base_X_For']",False,R_Torso_Y_For,4,robot,3,False,True,"['robot_stimuli\\L_Base_X_For.mp4', 'robot_stimuli\\L_Base_X_Back.mp4', 'robot_stimuli\\L_Torso_Y_For.mp4', 'robot_stimuli\\R_Base_X_For.mp4']",robot_stimuli\R_Torso_Y_For.mp4,1,,,,,,,,,,,,,0,69,69,69,,,,,,,,,,,,,,,,,2375.4019703999948,2376.494498500004,,,,,,,,,2380.175386700008,2383.632693499996,2380.175386700008,2383.632693499996,2380.175386700008,2383.632693499996,2380.175386700008,2383.632693499996,22.74691358024691,1.841265700000804,space,,,3.411198300003889,,,,,,,,2359.7093128999986,2359.7093128999986,None,,2371.8730686000054,2376.494498500004,2376.494498500004,2376.494498500004,2376.494498500004,n,2.523244700001669,2359.7093128999986,2359.7093128999986,,,,1,001,2024-06-04_10h00.32.163,robot_sternberg_sign,2022.2.5,59.930732062682694,
"['L_Arm_Z_For', 'R_Torso_X_For', 'R_Head_Y_Back', 'L_Head_X_Back', 'L_Arm_X_Back', 'R_Torso_Z_Back']",True,R_Torso_Z_Back,6,robot,3,True,False,"['robot_stimuli\\L_Arm_Z_For.mp4', 'robot_stimuli\\R_Torso_X_For.mp4', 'robot_stimuli\\R_Head_Y_Back.mp4', 'robot_stimuli\\L_Head_X_Back.mp4', 'robot_stimuli\\L_Arm_X_Back.mp4', 'robot_stimuli\\R_Torso_Z_Back.mp4']",robot_stimuli\R_Torso_Z_Back.mp4,1,,,,,,,,,,,,,0,70,70,70,,,,,,,,,,,,,,,,,2493.0052097000007,2494.094228300004,,,,,,,,,2497.742614200004,2497.742614200004,2497.742614200004,2497.742614200004,2497.742614200004,2497.742614200004,2497.742614200004,2497.742614200004,None,None,None,,,,,,,,,,,2383.632693499996,2383.632693499996,space,85.92955020000227,2489.372774999996,2494.094228300004,2494.094228300004,2494.094228300004,2494.094228300004,c,2.723955900000874,,,,,,1,001,2024-06-04_10h00.32.163,robot_sternberg_sign,2022.2.5,59.930732062682694,
"['R_Torso_X_For', 'R_Base_Z_For', 'R_Torso_Y_Back', 'R_Torso_X_Back', 'L_Torso_Y_Back', 'L_Torso_Z_For']",True,R_Torso_Y_Back,6,robot,3,False,False,"['robot_stimuli\\R_Torso_X_For.mp4', 'robot_stimuli\\R_Base_Z_For.mp4', 'robot_stimuli\\R_Torso_Y_Back.mp4', 'robot_stimuli\\R_Torso_X_Back.mp4', 'robot_stimuli\\L_Torso_Y_Back.mp4', 'robot_stimuli\\L_Torso_Z_For.mp4']",robot_stimuli\R_Torso_Y_Back.mp4,1,,,,,,,,,,,,,0,71,71,71,,,,,,,,,,,,,,,,,2520.9220001000067,2522.0132548999973,,,,,,,,,2525.6633985999943,2525.6633985999943,2525.6633985999943,2525.6633985999943,2525.6633985999943,2525.6633985999943,2525.6633985999943,2525.6633985999943,None,None,None,,,,,,,,,,,2497.742614200004,2497.742614200004,None,,2517.2909749999963,2522.0132548999973,2522.0132548999973,2522.0132548999973,2522.0132548999973,c,3.1169285999931162,2497.742614200004,2497.742614200004,,,,1,001,2024-06-04_10h00.32.163,robot_sternberg_sign,2022.2.5,59.930732062682694,
"['R_Base_X_For', 'R_Torso_Y_For', 'L_Torso_Z_Back', 'R_Head_Y_Back', 'L_Base_Z_For', 'L_Base_X_Back']",False,R_Base_X_Back,6,robot,3,False,False,"['robot_stimuli\\R_Base_X_For.mp4', 'robot_stimuli\\R_Torso_Y_For.mp4', 'robot_stimuli\\L_Torso_Z_Back.mp4', 'robot_stimuli\\R_Head_Y_Back.mp4', 'robot_stimuli\\L_Base_Z_For.mp4', 'robot_stimuli\\L_Base_X_Back.mp4']",robot_stimuli\R_Base_X_Back.mp4,1,,,,,,,,,,,,,0,72,72,72,,,,,,,,,,,,,,,,,2548.719111700004,2549.809526500001,,,,,,,,,2553.4500183000055,2553.4500183000055,2553.4500183000055,2553.4500183000055,2553.4500183000055,2553.4500183000055,2553.4500183000055,2553.4500183000055,None,None,None,,,,,,,,,,,2525.6633985999943,2525.6633985999943,None,,2545.111578199998,2549.809526500001,2549.809526500001,2549.809526500001,2549.809526500001,n,3.5133362999913516,2525.6633985999943,2525.6633985999943,,,,1,001,2024-06-04_10h00.32.163,robot_sternberg_sign,2022.2.5,59.930732062682694,
"['L_Base_Z_Back', 'R_Base_X_For', 'R_Head_Z_For', 'L_Torso_Z_For', 'R_Head_X_Back', 'R_Head_Y_For']",False,L_Torso_Y_For,6,robot,3,False,False,"['robot_stimuli\\L_Base_Z_Back.mp4', 'robot_stimuli\\R_Base_X_For.mp4', 'robot_stimuli\\R_Head_Z_For.mp4', 'robot_stimuli\\L_Torso_Z_For.mp4', 'robot_stimuli\\R_Head_X_Back.mp4', 'robot_stimuli\\R_Head_Y_For.mp4']",robot_stimuli\L_Torso_Y_For.mp4,1,,,,,,,,,,,,,0,73,73,73,,,,,,,,,,,,,,,,,2576.687203900001,2577.7792947999988,,,,,,,,,2581.4263985,2581.4263985,2581.4263985,2581.4263985,2581.4263985,2581.4263985,2581.4263985,2581.4263985,None,None,None,,,,,,,,,,,2553.4500183000055,2553.4500183000055,None,,2573.056312600005,2577.7792947999988,2577.7792947999988,2577.7792947999988,2577.7792947999988,n,3.3440133999974933,2553.4500183000055,2553.4500183000055,,,,1,001,2024-06-04_10h00.32.163,robot_sternberg_sign,2022.2.5,59.930732062682694,
"['R_Torso_X_Back', 'R_Torso_Z_Back', 'L_Arm_X_For', 'L_Torso_Z_Back', 'R_Base_Y_For', 'L_Arm_X_Back']",True,R_Torso_Z_Back,6,robot,3,False,False,"['robot_stimuli\\R_Torso_X_Back.mp4', 'robot_stimuli\\R_Torso_Z_Back.mp4', 'robot_stimuli\\L_Arm_X_For.mp4', 'robot_stimuli\\L_Torso_Z_Back.mp4', 'robot_stimuli\\R_Base_Y_For.mp4', 'robot_stimuli\\L_Arm_X_Back.mp4']",robot_stimuli\R_Torso_Z_Back.mp4,1,,,,,,,,,,,,,0,74,74,74,,,,,,,,,,,,,,,,,2604.619567200003,2605.7102223999973,,,,,,,,,2720.3272490999952,2720.3272490999952,2720.3272490999952,2720.3272490999952,2720.3272490999952,2720.3272490999952,2720.3272490999952,2720.3272490999952,None,None,None,,,,,,,,,,,2581.4263985,2581.4263985,None,,2600.9762745000044,2605.7102223999973,2605.7102223999973,2605.7102223999973,2605.7102223999973,c,114.58138639999379,2581.4263985,2581.4263985,,,,1,001,2024-06-04_10h00.32.163,robot_sternberg_sign,2022.2.5,59.930732062682694,
"['L_Torso_X_For', 'L_Torso_Z_For', 'L_Base_Z_Back', 'L_Base_Y_Back', 'L_Arm_Z_For', 'R_Head_Z_For']",False,R_Arm_Y_For,6,robot,3,False,False,"['robot_stimuli\\L_Torso_X_For.mp4', 'robot_stimuli\\L_Torso_Z_For.mp4', 'robot_stimuli\\L_Base_Z_Back.mp4', 'robot_stimuli\\L_Base_Y_Back.mp4', 'robot_stimuli\\L_Arm_Z_For.mp4', 'robot_stimuli\\R_Head_Z_For.mp4']",robot_stimuli\R_Arm_Y_For.mp4,1,,,,,,,,,,,,,0,75,75,75,,,,,,,,,,,,,,,,,2743.5887354000006,2744.6767170999956,,,,,,,,,2749.225937700001,2749.225937700001,2749.225937700001,2749.225937700001,2749.225937700001,2749.225937700001,2749.225937700001,2749.225937700001,None,None,None,,,,,,,,,,,2720.3272490999952,2720.3272490999952,None,,2739.9565736000077,2744.6767170999956,2744.6767170999956,2744.6767170999956,2744.6767170999956,n,4.519057799989241,2720.3272490999952,2720.3272490999952,,,,1,001,2024-06-04_10h00.32.163,robot_sternberg_sign,2022.2.5,59.930732062682694,
"['L_Head_Z_Back', 'R_Head_Z_Back', 'L_Torso_Y_Back', 'R_Arm_X_For', 'R_Torso_Z_Back', 'L_Torso_Y_For']",True,R_Arm_X_For,6,robot,3,False,False,"['robot_stimuli\\L_Head_Z_Back.mp4', 'robot_stimuli\\R_Head_Z_Back.mp4', 'robot_stimuli\\L_Torso_Y_Back.mp4', 'robot_stimuli\\R_Arm_X_For.mp4', 'robot_stimuli\\R_Torso_Z_Back.mp4', 'robot_stimuli\\L_Torso_Y_For.mp4']",robot_stimuli\R_Arm_X_For.mp4,1,,,,,,,,,,,,,0,76,76,76,,,,,,,,,,,,,,,,,2772.421230000007,2773.510745199994,,,,,,,,,2831.323640500006,2831.323640500006,2831.323640500006,2831.323640500006,2831.323640500006,2831.323640500006,2831.323640500006,2831.323640500006,None,None,None,,,,,,,,,,,2749.225937700001,2749.225937700001,None,,2768.791519000006,2773.510745199994,2773.510745199994,2773.510745199994,2773.510745199994,n,57.78819170000497,2749.225937700001,2749.225937700001,,,,1,001,2024-06-04_10h00.32.163,robot_sternberg_sign,2022.2.5,59.930732062682694,
"['R_Arm_Y_Back', 'L_Torso_Z_For', 'L_Torso_Z_Back', 'R_Arm_Z_Back', 'L_Torso_Y_Back', 'R_Head_Y_For']",True,R_Arm_Y_Back,6,robot,3,False,False,"['robot_stimuli\\R_Arm_Y_Back.mp4', 'robot_stimuli\\L_Torso_Z_For.mp4', 'robot_stimuli\\L_Torso_Z_Back.mp4', 'robot_stimuli\\R_Arm_Z_Back.mp4', 'robot_stimuli\\L_Torso_Y_Back.mp4', 'robot_stimuli\\R_Head_Y_For.mp4']",robot_stimuli\R_Arm_Y_Back.mp4,1,,,,,,,,,,,,,0,77,77,77,,,,,,,,,,,,,,,,,2854.3652541000047,2855.4436042000016,,,,,,,,,2859.080694300006,2859.080694300006,2859.080694300006,2859.080694300006,2859.080694300006,2859.080694300006,2859.080694300006,2859.080694300006,None,None,None,,,,,,,,,,,2831.323640500006,2831.323640500006,None,,2850.7433410999947,2855.4436042000016,2855.4436042000016,2855.4436042000016,2855.4436042000016,n,2.9682331000076374,2831.323640500006,2831.323640500006,,,,1,001,2024-06-04_10h00.32.163,robot_sternberg_sign,2022.2.5,59.930732062682694,
"['L_Base_X_For', 'R_Base_Y_For', 'L_Head_Z_Back', 'L_Head_Y_For', 'R_Base_Z_For', 'R_Arm_X_Back']",False,R_Head_Z_Back,6,robot,3,False,False,"['robot_stimuli\\L_Base_X_For.mp4', 'robot_stimuli\\R_Base_Y_For.mp4', 'robot_stimuli\\L_Head_Z_Back.mp4', 'robot_stimuli\\L_Head_Y_For.mp4', 'robot_stimuli\\R_Base_Z_For.mp4', 'robot_stimuli\\R_Arm_X_Back.mp4']",robot_stimuli\R_Head_Z_Back.mp4,1,,,,,,,,,,,,,0,78,78,78,,,,,,,,,,,,,,,,,2882.315340500005,2883.3957840000076,,,,,,,,,2887.0419119,2887.0419119,2887.0419119,2887.0419119,2887.0419119,2887.0419119,2887.0419119,2887.0419119,None,None,None,,,,,,,,,,,2859.080694300006,2859.080694300006,None,,2878.684420599995,2883.3957840000076,2883.3957840000076,2883.3957840000076,2883.3957840000076,n,2.8638719000009587,2859.080694300006,2859.080694300006,,,,1,001,2024-06-04_10h00.32.163,robot_sternberg_sign,2022.2.5,59.930732062682694,
"['R_Arm_Z_Back', 'R_Base_X_For', 'L_Torso_Z_Back', 'R_Torso_X_Back', 'L_Head_X_Back', 'L_Arm_X_For']",False,L_Arm_Y_For,6,robot,3,False,True,"['robot_stimuli\\R_Arm_Z_Back.mp4', 'robot_stimuli\\R_Base_X_For.mp4', 'robot_stimuli\\L_Torso_Z_Back.mp4', 'robot_stimuli\\R_Torso_X_Back.mp4', 'robot_stimuli\\L_Head_X_Back.mp4', 'robot_stimuli\\L_Arm_X_For.mp4']",robot_stimuli\L_Arm_Y_For.mp4,1,,,,,,,,,,,,,0,79,79,79,,,,,,,,,,,,,,,,,2910.1365168000048,2911.2328100000013,,,,,,,,,2914.9171625000017,2919.4899851999944,2914.9171625000017,2919.4899851999944,2914.9171625000017,2919.4899851999944,2914.9171625000017,2919.4899851999944,45.123456790123456,3.486667299992405,space,,,4.509381600000779,,,,,,,,2887.0419119,2887.0419119,None,,2906.5079387000005,2911.2328100000013,2911.2328100000013,2911.2328100000013,2911.2328100000013,n,2.130734999998822,2887.0419119,2887.0419119,,,,1,001,2024-06-04_10h00.32.163,robot_sternberg_sign,2022.2.5,59.930732062682694,
"['L_Base_Y_For', 'L_Torso_X_Back']",True,L_Torso_X_Back,2,robot,3,True,False,"['robot_stimuli\\L_Base_Y_For.mp4', 'robot_stimuli\\L_Torso_X_Back.mp4']",robot_stimuli\L_Torso_X_Back.mp4,1,,,,,,,,,,,,,0,80,80,80,,,,,,,,,,,,,,,,,2928.7485361,2929.8263875999983,,,,,,,,,2933.469022899997,2933.469022899997,2933.469022899997,2933.469022899997,2933.469022899997,2933.469022899997,2933.469022899997,2933.469022899997,None,None,None,,,,,,,,,,,2919.4899851999944,2919.4899851999944,space,0.8974470999964979,2925.118946100003,2929.8263875999983,2929.8263875999983,2929.8263875999983,2929.8263875999983,c,2.7519446999940556,,,,,,1,001,2024-06-04_10h00.32.163,robot_sternberg_sign,2022.2.5,59.930732062682694,
"['R_Base_X_For', 'R_Arm_Y_For']",True,R_Arm_Y_For,2,robot,3,False,False,"['robot_stimuli\\R_Base_X_For.mp4', 'robot_stimuli\\R_Arm_Y_For.mp4']",robot_stimuli\R_Arm_Y_For.mp4,1,,,,,,,,,,,,,0,81,81,81,,,,,,,,,,,,,,,,,2941.707108799994,2942.7983295000013,,,,,,,,,2971.2739629999996,2971.2739629999996,2971.2739629999996,2971.2739629999996,2971.2739629999996,2971.2739629999996,2971.2739629999996,2971.2739629999996,None,None,None,,,,,,,,,,,2933.469022899997,2933.469022899997,None,,2938.211586499994,2942.7983295000013,2942.7983295000013,2942.7983295000013,2942.7983295000013,c,28.444603299998562,2933.469022899997,2933.469022899997,,,,1,001,2024-06-04_10h00.32.163,robot_sternberg_sign,2022.2.5,59.930732062682694,
"['R_Arm_Z_For', 'R_Base_Z_For']",False,L_Head_Z_For,2,robot,3,False,False,"['robot_stimuli\\R_Arm_Z_For.mp4', 'robot_stimuli\\R_Base_Z_For.mp4']",robot_stimuli\L_Head_Z_For.mp4,1,,,,,,,,,,,,,0,82,82,82,,,,,,,,,,,,,,,,,2979.7202117999987,2980.814129999999,,,,,,,,,3023.1286083000014,3023.1286083000014,3023.1286083000014,3023.1286083000014,3023.1286083000014,3023.1286083000014,3023.1286083000014,3023.1286083000014,None,None,None,,,,,,,,,,,2971.2739629999996,2971.2739629999996,None,,2976.0912867000006,2980.814129999999,2980.814129999999,2980.814129999999,2980.814129999999,n,42.28522299999895,2971.2739629999996,2971.2739629999996,,,,1,001,2024-06-04_10h00.32.163,robot_sternberg_sign,2022.2.5,59.930732062682694,
"['L_Base_Z_For', 'R_Torso_Y_Back']",False,L_Head_X_Back,2,robot,3,False,False,"['robot_stimuli\\L_Base_Z_For.mp4', 'robot_stimuli\\R_Torso_Y_Back.mp4']",robot_stimuli\L_Head_X_Back.mp4,1,,,,,,,,,,,,,0,83,83,83,,,,,,,,,,,,,,,,,3031.5725153999956,3032.662313699999,,,,,,,,,3037.185110599996,3037.185110599996,3037.185110599996,3037.185110599996,3037.185110599996,3037.185110599996,3037.185110599996,3037.185110599996,None,None,None,,,,,,,,,,,3023.1286083000014,3023.1286083000014,None,,3027.943579800005,3032.662313699999,3032.662313699999,3032.662313699999,3032.662313699999,n,4.485848700001952,3023.1286083000014,3023.1286083000014,,,,1,001,2024-06-04_10h00.32.163,robot_sternberg_sign,2022.2.5,59.930732062682694,
"['L_Head_Y_Back', 'L_Arm_X_Back']",False,L_Head_Z_For,2,robot,3,False,False,"['robot_stimuli\\L_Head_Y_Back.mp4', 'robot_stimuli\\L_Arm_X_Back.mp4']",robot_stimuli\L_Head_Z_For.mp4,1,,,,,,,,,,,,,0,84,84,84,,,,,,,,,,,,,,,,,3045.6338569000072,,,,,,,,,,3075.579077100003,3075.579077100003,3075.579077100003,3075.579077100003,3075.579077100003,3075.579077100003,3075.579077100003,3075.579077100003,None,None,None,,,,,,,,,,,3037.185110599996,3037.185110599996,None,,3042.0109701000038,3046.7267585999944,3046.7267585999944,3046.7267585999944,3046.7267585999944,c,28.812706299999263,3037.185110599996,3037.185110599996,,,,1,001,2024-06-04_10h00.32.163,robot_sternberg_sign,2022.2.5,59.930732062682694,
"['R_Base_Y_Back', 'R_Head_Y_Back']",False,L_Arm_X_For,2,robot,3,False,False,"['robot_stimuli\\R_Base_Y_Back.mp4', 'robot_stimuli\\R_Head_Y_Back.mp4']",robot_stimuli\L_Arm_X_For.mp4,1,,,,,,,,,,,,,0,85,85,85,,,,,,,,,,,,,,,,,3084.000456499998,3076.6562214000005,,,,,,,,,3088.7485808000056,3088.7485808000056,3088.7485808000056,3088.7485808000056,3088.7485808000056,3088.7485808000056,3088.7485808000056,3088.7485808000056,None,None,None,,,,,,,,,,,3075.579077100003,3075.579077100003,None,,3080.3728123000037,3085.0968217000045,3085.0968217000045,3085.0968217000045,3085.0968217000045,n,2.570689300002414,3075.579077100003,3075.579077100003,,,,1,001,2024-06-04_10h00.32.163,robot_sternberg_sign,2022.2.5,59.930732062682694,
"['L_Head_Y_Back', 'L_Head_Y_For']",True,L_Head_Y_For,2,robot,3,False,False,"['robot_stimuli\\L_Head_Y_Back.mp4', 'robot_stimuli\\L_Head_Y_For.mp4']",robot_stimuli\L_Head_Y_For.mp4,1,,,,,,,,,,,,,0,86,86,86,,,,,,,,,,,,,,,,,3097.1867429999984,3098.2781953999947,,,,,,,,,3101.933533500007,3101.933533500007,3101.933533500007,3101.933533500007,3101.933533500007,3101.933533500007,3101.933533500007,3101.933533500007,None,None,None,,,,,,,,,,,3088.7485808000056,3088.7485808000056,None,,3093.5508680000057,3098.2781953999947,3098.2781953999947,3098.2781953999947,3098.2781953999947,c,1.9094112999882782,3088.7485808000056,3088.7485808000056,,,,1,001,2024-06-04_10h00.32.163,robot_sternberg_sign,2022.2.5,59.930732062682694,
"['L_Head_X_For', 'L_Arm_Z_Back']",True,L_Arm_Z_Back,2,robot,3,False,False,"['robot_stimuli\\L_Head_X_For.mp4', 'robot_stimuli\\L_Arm_Z_Back.mp4']",robot_stimuli\L_Arm_Z_Back.mp4,1,,,,,,,,,,,,,0,87,87,87,,,,,,,,,,,,,,,,,3110.319340899994,3111.4123129000072,,,,,,,,,3115.068073000002,3115.068073000002,3115.068073000002,3115.068073000002,3115.068073000002,3115.068073000002,3115.068073000002,3115.068073000002,None,None,None,,,,,,,,,,,3101.933533500007,3101.933533500007,None,,3106.6937055000017,3111.4123129000072,3111.4123129000072,3111.4123129000072,3111.4123129000072,c,1.823681599998963,3101.933533500007,3101.933533500007,,,,1,001,2024-06-04_10h00.32.163,robot_sternberg_sign,2022.2.5,59.930732062682694,
"['L_Head_Z_Back', 'R_Base_X_Back']",True,R_Base_X_Back,2,robot,3,False,False,"['robot_stimuli\\L_Head_Z_Back.mp4', 'robot_stimuli\\R_Base_X_Back.mp4']",robot_stimuli\R_Base_X_Back.mp4,1,,,,,,,,,,,,,0,88,88,88,,,,,,,,,,,,,,,,,3123.5213094000064,3124.6196710000077,,,,,,,,,3128.259179300003,3128.259179300003,3128.259179300003,3128.259179300003,3128.259179300003,3128.259179300003,3128.259179300003,3128.259179300003,None,None,None,,,,,,,,,,,3115.068073000002,3115.068073000002,None,,3119.895729099997,3124.6196710000077,3124.6196710000077,3124.6196710000077,3124.6196710000077,c,3.102909599998384,3115.068073000002,3115.068073000002,,,,1,001,2024-06-04_10h00.32.163,robot_sternberg_sign,2022.2.5,59.930732062682694,
"['R_Arm_Y_Back', 'R_Torso_Z_For']",False,R_Head_Y_For,2,robot,3,False,True,"['robot_stimuli\\R_Arm_Y_Back.mp4', 'robot_stimuli\\R_Torso_Z_For.mp4']",robot_stimuli\R_Head_Y_For.mp4,1,,,,,,,,,,,,,0,89,89,89,,,,,,,,,,,,,,,,,3136.701573700004,3129.344999599998,,,,,,,,,3141.467629100007,3144.387555299996,3141.467629100007,3144.387555299996,3141.467629100007,3144.387555299996,3141.467629100007,3144.387555299996,14.104938271604933,2.3760181999969063,space,,,2.8553329999995185,,,,,,,,3128.259179300003,3128.259179300003,None,,3133.0757518000028,3137.793966099998,3137.793966099998,3137.793966099998,3137.793966099998,n,1.4331439999950817,3128.259179300003,3128.259179300003,,,,1,001,2024-06-04_10h00.32.163,robot_sternberg_sign,2022.2.5,59.930732062682694,
"['V', 'P']",False,B,2,letter,4,True,False,"['robot_stimuli\\\\filler.mp4', 'robot_stimuli\\\\filler.mp4']",robot_stimuli\\filler.mp4,1,,,,,,,,,,,,,0,90,90,90,,,,,,,,,,,,,,,,,3149.994437100002,3151.055879199994,,,,,,,,,3152.683242900006,3152.683242900006,3152.683242900006,3152.683242900006,3152.683242900006,3152.683242900006,3152.683242900006,3152.683242900006,None,None,None,,,,,,,,,,,3144.387555299996,3144.387555299996,space,0.4167122999933781,,,3151.055879199994,3151.055879199994,3151.055879199994,n,1.5716680999903474,,,3147.9792489999963,3149.994437100002,3151.055879199994,1,001,2024-06-04_10h00.32.163,robot_sternberg_sign,2022.2.5,59.930732062682694,
"['P', 'L']",False,X,2,letter,4,False,False,"['robot_stimuli\\\\filler.mp4', 'robot_stimuli\\\\filler.mp4']",robot_stimuli\\filler.mp4,1,,,,,,,,,,,,,0,91,91,91,,,,,,,,,,,,,,,,,3158.0530293000047,3159.1211277999973,,,,,,,,,3160.749320200004,3160.749320200004,3160.749320200004,3160.749320200004,3160.749320200004,3160.749320200004,3160.749320200004,3160.749320200004,None,None,None,,,,,,,,,,,3152.683242900006,3152.683242900006,None,,,,3159.1211277999973,3159.1211277999973,3159.1211277999973,n,1.4974076999933459,3152.683242900006,3152.683242900006,3155.8381813000015,3158.0530293000047,3159.1211277999973,1,001,2024-06-04_10h00.32.163,robot_sternberg_sign,2022.2.5,59.930732062682694,
"['J', 'D']",False,T,2,letter,4,False,False,"['robot_stimuli\\\\filler.mp4', 'robot_stimuli\\\\filler.mp4']",robot_stimuli\\filler.mp4,1,,,,,,,,,,,,,0,92,92,92,,,,,,,,,,,,,,,,,3165.912202499996,3166.9770526000066,,,,,,,,,3167.5993295999942,3167.5993295999942,3167.5993295999942,3167.5993295999942,3167.5993295999942,3167.5993295999942,3167.5993295999942,3167.5993295999942,None,None,None,,,,,,,,,,,3160.749320200004,3160.749320200004,None,,,,3166.9770526000066,3166.9770526000066,3166.9770526000066,n,0.5789915000059409,3160.749320200004,3160.749320200004,3163.8910264000006,3165.912202499996,3166.9770526000066,1,001,2024-06-04_10h00.32.163,robot_sternberg_sign,2022.2.5,59.930732062682694,
"['F', 'Q']",True,F,2,letter,4,False,False,"['robot_stimuli\\\\filler.mp4', 'robot_stimuli\\\\filler.mp4']",robot_stimuli\\filler.mp4,1,,,,,,,,,,,,,0,93,93,93,,,,,,,,,,,,,,,,,3172.954221100008,3174.0217925000034,,,,,,,,,3175.045052900008,3175.045052900008,3175.045052900008,3175.045052900008,3175.045052900008,3175.045052900008,3175.045052900008,3175.045052900008,None,None,None,,,,,,,,,,,3167.5993295999942,3167.5993295999942,None,,,,3174.0217925000034,3174.0217925000034,3174.0217925000034,c,0.8775956999888876,3167.5993295999942,3167.5993295999942,3170.937306100008,3172.954221100008,3174.0217925000034,1,001,2024-06-04_10h00.32.163,robot_sternberg_sign,2022.2.5,59.930732062682694,
"['V', 'K']",False,C,2,letter,4,False,False,"['robot_stimuli\\\\filler.mp4', 'robot_stimuli\\\\filler.mp4']",robot_stimuli\\filler.mp4,1,,,,,,,,,,,,,0,94,94,94,,,,,,,,,,,,,,,,,3180.415030400007,3181.4711183000036,,,,,,,,,3182.4993178000004,3182.4993178000004,3182.4993178000004,3182.4993178000004,3182.4993178000004,3182.4993178000004,3182.4993178000004,3182.4993178000004,None,None,None,,,,,,,,,,,3175.045052900008,3175.045052900008,None,,,,3181.4711183000036,3181.4711183000036,3181.4711183000036,n,0.9003361999930348,3175.045052900008,3175.045052900008,3178.3988221000036,3180.415030400007,3181.4711183000036,1,001,2024-06-04_10h00.32.163,robot_sternberg_sign,2022.2.5,59.930732062682694,
"['G', 'Z']",True,Z,2,letter,4,False,False,"['robot_stimuli\\\\filler.mp4', 'robot_stimuli\\\\filler.mp4']",robot_stimuli\\filler.mp4,1,,,,,,,,,,,,,0,95,95,95,,,,,,,,,,,,,,,,,3187.855784500003,3188.9204089999985,,,,,,,,,3230.0657503999973,3230.0657503999973,3230.0657503999973,3230.0657503999973,3230.0657503999973,3230.0657503999973,3230.0657503999973,3230.0657503999973,None,None,None,,,,,,,,,,,3182.4993178000004,3182.4993178000004,None,,,,3188.9204089999985,3188.9204089999985,3188.9204089999985,c,41.05839209999249,3182.4993178000004,3182.4993178000004,3185.844959299997,3187.855784500003,3188.9204089999985,1,001,2024-06-04_10h00.32.163,robot_sternberg_sign,2022.2.5,59.930732062682694,
"['V', 'R']",True,V,2,letter,4,False,False,"['robot_stimuli\\\\filler.mp4', 'robot_stimuli\\\\filler.mp4']",robot_stimuli\\filler.mp4,1,,,,,,,,,,,,,0,96,96,96,,,,,,,,,,,,,,,,,3235.2300996999984,3236.287532100003,,,,,,,,,3245.539678400004,3245.539678400004,3245.539678400004,3245.539678400004,3245.539678400004,3245.539678400004,3245.539678400004,3245.539678400004,None,None,None,,,,,,,,,,,3230.0657503999973,3230.0657503999973,None,,,,3236.287532100003,3236.287532100003,3236.287532100003,c,9.187917600007495,3230.0657503999973,3230.0657503999973,3233.2157229000004,3235.2300996999984,3236.287532100003,1,001,2024-06-04_10h00.32.163,robot_sternberg_sign,2022.2.5,59.930732062682694,
"['R', 'G']",True,G,2,letter,4,False,False,"['robot_stimuli\\\\filler.mp4', 'robot_stimuli\\\\filler.mp4']",robot_stimuli\\filler.mp4,1,,,,,,,,,,,,,0,97,97,97,,,,,,,,,,,,,,,,,3250.9105029000057,3251.971163800001,,,,,,,,,3256.612353999997,3256.612353999997,3256.612353999997,3256.612353999997,3256.612353999997,3256.612353999997,3256.612353999997,3256.612353999997,None,None,None,,,,,,,,,,,3245.539678400004,3245.539678400004,None,,,,3251.971163800001,3251.971163800001,3251.971163800001,c,4.488484699992114,3245.539678400004,3245.539678400004,3248.898470800006,3250.9105029000057,3251.971163800001,1,001,2024-06-04_10h00.32.163,robot_sternberg_sign,2022.2.5,59.930732062682694,
"['B', 'L']",True,L,2,letter,4,False,False,"['robot_stimuli\\\\filler.mp4', 'robot_stimuli\\\\filler.mp4']",robot_stimuli\\filler.mp4,1,,,,,,,,,,,,,0,98,98,98,,,,,,,,,,,,,,,,,3262.2006021999987,3257.6712226999953,,,,,,,,,3265.5174642000056,3265.5174642000056,3265.5174642000056,3265.5174642000056,3265.5174642000056,3265.5174642000056,3265.5174642000056,3265.5174642000056,None,None,None,,,,,,,,,,,3256.612353999997,3256.612353999997,None,,,,3263.2811343000067,3263.2811343000067,3263.2811343000067,c,2.1702473999903305,3256.612353999997,3256.612353999997,3259.9848442000075,3262.2006021999987,3263.2811343000067,1,001,2024-06-04_10h00.32.163,robot_sternberg_sign,2022.2.5,59.930732062682694,
"['G', 'L']",False,K,2,letter,4,False,True,"['robot_stimuli\\\\filler.mp4', 'robot_stimuli\\\\filler.mp4']",robot_stimuli\\filler.mp4,1,,,,,,,,,,,,,0,99,99,99,,,,,,,,,,,,,,,,,3271.101630899997,,,,,,,,,,3275.6364556000044,3277.468012700003,3275.6364556000044,3277.468012700003,3275.6364556000044,3277.468012700003,3275.6364556000044,3277.468012700003,10.246913580246913,1.4087989999970887,space,,,1.7744624999904772,,,,,,,,3265.5174642000056,3265.5174642000056,None,,,,3272.1709571999963,3272.1709571999963,3272.1709571999963,n,3.36865140000009,3265.5174642000056,3265.5174642000056,3268.8960585000023,3271.101630899997,3272.1709571999963,1,001,2024-06-04_10h00.32.163,robot_sternberg_sign,2022.2.5,59.930732062682694,
"['Q', 'M', 'S', 'G', 'Z', 'P']",False,W,6,letter,4,True,False,"['robot_stimuli\\\\filler.mp4', 'robot_stimuli\\\\filler.mp4', 'robot_stimuli\\\\filler.mp4', 'robot_stimuli\\\\filler.mp4', 'robot_stimuli\\\\filler.mp4', 'robot_stimuli\\\\filler.mp4']",robot_stimuli\\filler.mp4,1,,,,,,,,,,,,,0,100,100,100,,,,,,,,,,,,,,,,,3331.2695767999976,3318.2218390000053,,,,,,,,,3333.9591227000055,3333.9591227000055,3333.9591227000055,3333.9591227000055,3333.9591227000055,3333.9591227000055,3333.9591227000055,3333.9591227000055,None,None,None,,,,,,,,,,,3277.468012700003,3277.468012700003,space,39.67068839998683,,,3332.337498000008,3332.337498000008,3332.337498000008,n,1.4100895000010496,,,3329.051232500002,3331.2695767999976,3332.337498000008,1,001,2024-06-04_10h00.32.163,robot_sternberg_sign,2022.2.5,59.930732062682694,
"['F', 'C', 'V', 'T', 'J', 'B']",False,S,6,letter,4,False,False,"['robot_stimuli\\\\filler.mp4', 'robot_stimuli\\\\filler.mp4', 'robot_stimuli\\\\filler.mp4', 'robot_stimuli\\\\filler.mp4', 'robot_stimuli\\\\filler.mp4', 'robot_stimuli\\\\filler.mp4']",robot_stimuli\\filler.mp4,1,,,,,,,,,,,,,0,101,101,101,,,,,,,,,,,,,,,,,3347.882916100003,3348.9398668000067,,,,,,,,,3350.365529600007,3350.365529600007,3350.365529600007,3350.365529600007,3350.365529600007,3350.365529600007,3350.365529600007,3350.365529600007,None,None,None,,,,,,,,,,,3333.9591227000055,3333.9591227000055,None,,,,3348.9398668000067,3348.9398668000067,3348.9398668000067,n,1.2157786000025226,3333.9591227000055,3333.9591227000055,3345.864857599998,3347.882916100003,3348.9398668000067,1,001,2024-06-04_10h00.32.163,robot_sternberg_sign,2022.2.5,59.930732062682694,
"['G', 'J', 'M', 'C', 'K', 'F']",True,F,6,letter,4,False,False,"['robot_stimuli\\\\filler.mp4', 'robot_stimuli\\\\filler.mp4', 'robot_stimuli\\\\filler.mp4', 'robot_stimuli\\\\filler.mp4', 'robot_stimuli\\\\filler.mp4', 'robot_stimuli\\\\filler.mp4']",robot_stimuli\\filler.mp4,1,,,,,,,,,,,,,0,102,102,102,,,,,,,,,,,,,,,,,3364.691572800002,3365.754273300001,,,,,,,,,3367.176058500001,3367.176058500001,3367.176058500001,3367.176058500001,3367.176058500001,3367.176058500001,3367.176058500001,3367.176058500001,None,None,None,,,,,,,,,,,3350.365529600007,3350.365529600007,None,,,,3365.754273300001,3365.754273300001,3365.754273300001,c,1.2970243000017945,3350.365529600007,3350.365529600007,3362.4761202999944,3364.691572800002,3365.754273300001,1,001,2024-06-04_10h00.32.163,robot_sternberg_sign,2022.2.5,59.930732062682694,
"['G', 'B', 'V', 'Z', 'C', 'D']",False,J,6,letter,4,False,False,"['robot_stimuli\\\\filler.mp4', 'robot_stimuli\\\\filler.mp4', 'robot_stimuli\\\\filler.mp4', 'robot_stimuli\\\\filler.mp4', 'robot_stimuli\\\\filler.mp4', 'robot_stimuli\\\\filler.mp4']",robot_stimuli\\filler.mp4,1,,,,,,,,,,,,,0,103,103,103,,,,,,,,,,,,,,,,,3381.0991182,3382.1623863999994,,,,,,,,,3383.9821213999967,3383.9821213999967,3383.9821213999967,3383.9821213999967,3383.9821213999967,3383.9821213999967,3383.9821213999967,3383.9821213999967,None,None,None,,,,,,,,,,,3367.176058500001,3367.176058500001,None,,,,3382.1623863999994,3382.1623863999994,3382.1623863999994,n,1.6407611000031466,3367.176058500001,3367.176058500001,3378.8875179000024,3381.0991182,3382.1623863999994,1,001,2024-06-04_10h00.32.163,robot_sternberg_sign,2022.2.5,59.930732062682694,
"['S', 'N', 'K', 'G', 'F', 'Q']",True,K,6,letter,4,False,False,"['robot_stimuli\\\\filler.mp4', 'robot_stimuli\\\\filler.mp4', 'robot_stimuli\\\\filler.mp4', 'robot_stimuli\\\\filler.mp4', 'robot_stimuli\\\\filler.mp4', 'robot_stimuli\\\\filler.mp4']",robot_stimuli\\filler.mp4,1,,,,,,,,,,,,,0,104,104,104,,,,,,,,,,,,,,,,,3397.715066100005,3398.771435600007,,,,,,,,,3399.7959254000016,3399.7959254000016,3399.7959254000016,3399.7959254000016,3399.7959254000016,3399.7959254000016,3399.7959254000016,3399.7959254000016,None,None,None,,,,,,,,,,,3383.9821213999967,3383.9821213999967,None,,,,3398.771435600007,3398.771435600007,3398.771435600007,c,0.8874019000068074,3383.9821213999967,3383.9821213999967,3395.698874499998,3397.715066100005,3398.771435600007,1,001,2024-06-04_10h00.32.163,robot_sternberg_sign,2022.2.5,59.930732062682694,
