sequence,is_true,target,condition,stimuli,block,is_block_beginning,is_block_ending,sequence_fnames,target_fname,subject,retraining.thisRepN,retraining.thisTrialN,retraining.thisN,retraining.thisIndex,training.thisRepN,training.thisTrialN,training.thisN,training.thisIndex,training_sequence_loop.thisRepN,training_sequence_loop.thisTrialN,training_sequence_loop.thisN,training_sequence_loop.thisIndex,trials.thisRepN,trials.thisTrialN,trials.thisN,trials.thisIndex,sequence_loop.thisRepN,sequence_loop.thisTrialN,sequence_loop.thisN,sequence_loop.thisIndex,langage_text.started,langage_key.started,langage_key.keys,langage_key.rt,intro_text.started,intro_key.started,intro_key.keys,intro_key.rt,training_intro_text.started,training_intro_key.started,training_intro_key.keys,training_intro_key.rt,polygon.started,polygon.stopped,training_presentation_letter.started,training_presentation_letter.stopped,training_recall_letter.started,training_recall_key.started,training_recall_question.started,training_recall_answer.started,training_recall_key.keys,training_recall_key.rt,RSME_labels.started,RSME_labels.stopped,RSME_ticks.started,RSME_ticks.stopped,RSME_text.started,RSME_text.stopped,RSME_key.started,RSME_key.stopped,RSME_ticks.response,RSME_ticks.rt,RSME_key.keys,training_intro_text.stopped,training_intro_key.stopped,RSME_key.rt,training_presentation_movie.started,training_recall_movie.started,experiment_beginning_text.started,experiment_beginning_keys.started,experiment_beginning_key.started,experiment_beginning_key.keys,experiment_beginning_key.rt,block_intro_text.started,block_intro_key.started,block_intro_key.keys,block_intro_key.rt,presentation_letter.started,presentation_letter.stopped,recall_letter.started,recall_key.started,recall_question.started,recall_answer.started,recall_key.keys,recall_key.rt,block_intro_text.stopped,block_intro_key.stopped,presentation_movie.started,recall_movie.started,participant,session,date,expName,psychopyVersion,frameRate,
,,,,,,,,,,,,,,,,,,,,,,,,,,,,,,,80.09225759998662,80.09225759998662,f,90.48033740004757,,,,,,,,,,,,,,,,,,,,,,,,,,,,,,,,,,,,,,,,,,,,,,,,,,,,,,,,14,001,2024-07-09_16h10.21.482,robot_sternberg_sign,2022.2.5,60.01475164046647,
,,,,,,,,,,,,,,,,,,,,,,,,,,,,,,,,,,,170.62635929998942,170.62635929998942,space,82.01071519998368,,,,,,,,,,,,,,,,,,,,,,,,,,,,,,,,,,,,,,,,,,,,,,,,,,,,14,001,2024-07-09_16h10.21.482,robot_sternberg_sign,2022.2.5,60.01475164046647,
"['B', 'G']",True,G,2,letter,1,True,False,"['robot_stimuli\\\\filler.mp4', 'robot_stimuli\\\\filler.mp4']",robot_stimuli\\filler.mp4,14,0,0,0,0,0,0,0,0,,,,,,,,,,,,,,,,,,,,,252.67293900001096,252.67293900001096,space,28.685276800009888,287.02212979999604,288.1181574999937,285.00659250002354,287.02212979999604,288.1181574999937,288.1181574999937,288.1181574999937,288.1181574999937,c,2.343591300013941,290.6345654000179,290.6345654000179,290.6345654000179,290.6345654000179,290.6345654000179,290.6345654000179,290.6345654000179,290.6345654000179,None,None,None,,,,,,,,,,,,,,,,,,,,,,,,,,,14,001,2024-07-09_16h10.21.482,robot_sternberg_sign,2022.2.5,60.01475164046647,
"['F', 'W']",True,W,2,letter,1,False,False,"['robot_stimuli\\\\filler.mp4', 'robot_stimuli\\\\filler.mp4']",robot_stimuli\\filler.mp4,14,0,0,0,0,0,1,1,1,,,,,,,,,,,,,,,,,,,,,290.6345654000179,290.6345654000179,None,,296.02502160001313,297.09255459997803,293.8128161000204,296.02502160001313,297.09255459997803,297.09255459997803,297.09255459997803,297.09255459997803,c,2.4252539000008255,299.7291107000201,299.7291107000201,299.7291107000201,299.7291107000201,299.7291107000201,299.7291107000201,299.7291107000201,299.7291107000201,None,None,None,290.6345654000179,290.6345654000179,,,,,,,,,,,,,,,,,,,,,,,,,14,001,2024-07-09_16h10.21.482,robot_sternberg_sign,2022.2.5,60.01475164046647,
"['C', 'T']",False,F,2,letter,1,False,True,"['robot_stimuli\\\\filler.mp4', 'robot_stimuli\\\\filler.mp4']",robot_stimuli\\filler.mp4,14,0,0,0,0,0,2,2,2,,,,,,,,,,,,,,,,,,,,,299.7291107000201,299.7291107000201,None,,305.13392900000326,306.2077038999996,302.91387530002976,305.13392900000326,306.2077038999996,306.2077038999996,306.2077038999996,306.2077038999996,c,1.4939756999956444,307.89143239997793,317.8775932000135,307.89143239997793,317.8775932000135,307.89143239997793,317.8775932000135,307.89143239997793,317.8775932000135,4.228395061728393,9.259777700004634,space,299.7291107000201,299.7291107000201,9.93771700002253,,,,,,,,,,,,,,,,,,,,,,,,14,001,2024-07-09_16h10.21.482,robot_sternberg_sign,2022.2.5,60.01475164046647,
"['F', 'M', 'J', 'Q']",True,F,4,letter,1,True,False,"['robot_stimuli\\\\filler.mp4', 'robot_stimuli\\\\filler.mp4', 'robot_stimuli\\\\filler.mp4', 'robot_stimuli\\\\filler.mp4']",robot_stimuli\\filler.mp4,14,0,0,0,0,0,3,3,3,,,,,,,,,,,,,,,,,,,,,317.8775932000135,317.8775932000135,space,5.688307799980976,333.3843449000269,334.4573414999759,331.1643623000127,333.3843449000269,334.4573414999759,334.4573414999759,334.4573414999759,334.4573414999759,c,1.4450093999621458,336.0913914000266,336.0913914000266,336.0913914000266,336.0913914000266,336.0913914000266,336.0913914000266,336.0913914000266,336.0913914000266,None,None,None,,,,,,,,,,,,,,,,,,,,,,,,,,,14,001,2024-07-09_16h10.21.482,robot_sternberg_sign,2022.2.5,60.01475164046647,
"['B', 'C', 'S', 'Q']",True,C,4,letter,1,False,False,"['robot_stimuli\\\\filler.mp4', 'robot_stimuli\\\\filler.mp4', 'robot_stimuli\\\\filler.mp4', 'robot_stimuli\\\\filler.mp4']",robot_stimuli\\filler.mp4,14,0,0,0,0,0,4,4,4,,,,,,,,,,,,,,,,,,,,,336.0913914000266,336.0913914000266,None,,345.8878857999807,346.95867560000625,343.6639005999896,345.8878857999807,346.95867560000625,346.95867560000625,346.95867560000625,346.95867560000625,c,1.5033814999624155,348.5887171999784,348.5887171999784,348.5887171999784,348.5887171999784,348.5887171999784,348.5887171999784,348.5887171999784,348.5887171999784,None,None,None,336.0913914000266,336.0913914000266,,,,,,,,,,,,,,,,,,,,,,,,,14,001,2024-07-09_16h10.21.482,robot_sternberg_sign,2022.2.5,60.01475164046647,
"['L', 'T', 'C', 'H']",False,S,4,letter,1,False,True,"['robot_stimuli\\\\filler.mp4', 'robot_stimuli\\\\filler.mp4', 'robot_stimuli\\\\filler.mp4', 'robot_stimuli\\\\filler.mp4']",robot_stimuli\\filler.mp4,14,0,0,0,0,0,5,5,5,,,,,,,,,,,,,,,,,,,,,348.5887171999784,348.5887171999784,None,,357.9726549999905,359.04093010001816,355.9552030999912,357.9726549999905,359.04093010001816,359.04093010001816,359.04093010001816,359.04093010001816,n,2.4855337999761105,361.70902150002075,366.8130368000129,361.70902150002075,366.8130368000129,361.70902150002075,366.8130368000129,361.70902150002075,366.8130368000129,4.382716049382701,3.71563629998127,space,348.5887171999784,348.5887171999784,5.031938100000843,,,,,,,,,,,,,,,,,,,,,,,,14,001,2024-07-09_16h10.21.482,robot_sternberg_sign,2022.2.5,60.01475164046647,
"['C', 'Q', 'H', 'W', 'D', 'P']",True,H,6,letter,1,True,False,"['robot_stimuli\\\\filler.mp4', 'robot_stimuli\\\\filler.mp4', 'robot_stimuli\\\\filler.mp4', 'robot_stimuli\\\\filler.mp4', 'robot_stimuli\\\\filler.mp4', 'robot_stimuli\\\\filler.mp4']",robot_stimuli\\filler.mp4,14,0,0,0,0,0,6,6,6,,,,,,,,,,,,,,,,,,,,,366.8130368000129,366.8130368000129,space,2.407647199986968,383.20486529998016,384.268405299983,381.18985090003116,383.20486529998016,384.268405299983,384.268405299983,384.268405299983,384.268405299983,c,1.2095917999977246,385.6933993999846,385.6933993999846,385.6933993999846,385.6933993999846,385.6933993999846,385.6933993999846,385.6933993999846,385.6933993999846,None,None,None,,,,,,,,,,,,,,,,,,,,,,,,,,,14,001,2024-07-09_16h10.21.482,robot_sternberg_sign,2022.2.5,60.01475164046647,
"['C', 'Z', 'L', 'P', 'B', 'N']",True,L,6,letter,1,False,False,"['robot_stimuli\\\\filler.mp4', 'robot_stimuli\\\\filler.mp4', 'robot_stimuli\\\\filler.mp4', 'robot_stimuli\\\\filler.mp4', 'robot_stimuli\\\\filler.mp4', 'robot_stimuli\\\\filler.mp4']",robot_stimuli\\filler.mp4,14,0,0,0,0,0,7,7,7,,,,,,,,,,,,,,,,,,,,,385.6933993999846,385.6933993999846,None,,399.6456289999769,386.7504980000085,397.4288262000191,399.6456289999769,400.71929709997494,400.71929709997494,400.71929709997494,400.71929709997494,c,1.254536799970083,402.1507485000184,402.1507485000184,402.1507485000184,402.1507485000184,402.1507485000184,402.1507485000184,402.1507485000184,402.1507485000184,None,None,None,385.6933993999846,385.6933993999846,,,,,,,,,,,,,,,,,,,,,,,,,14,001,2024-07-09_16h10.21.482,robot_sternberg_sign,2022.2.5,60.01475164046647,
"['M', 'H', 'J', 'Z', 'N', 'T']",False,L,6,letter,1,False,True,"['robot_stimuli\\\\filler.mp4', 'robot_stimuli\\\\filler.mp4', 'robot_stimuli\\\\filler.mp4', 'robot_stimuli\\\\filler.mp4', 'robot_stimuli\\\\filler.mp4', 'robot_stimuli\\\\filler.mp4']",robot_stimuli\\filler.mp4,14,0,0,0,0,0,8,8,8,,,,,,,,,,,,,,,,,,,,,402.1507485000184,402.1507485000184,None,,415.90954550000606,416.97146550001344,413.8944077999913,415.90954550000606,416.97146550001344,416.97146550001344,416.97146550001344,416.97146550001344,n,2.163014799996745,419.23453760001576,423.17585280002095,419.23453760001576,423.17585280002095,419.23453760001576,423.17585280002095,419.23453760001576,423.17585280002095,16.41975308641975,3.021673999959603,space,402.1507485000184,402.1507485000184,3.8900562999770045,,,,,,,,,,,,,,,,,,,,,,,,14,001,2024-07-09_16h10.21.482,robot_sternberg_sign,2022.2.5,60.01475164046647,
"['R_Arm_X_Back', 'L_Base_Z_Back']",True,R_Arm_X_Back,2,robot,2,True,False,"['robot_stimuli\\R_Arm_X_Back.mp4', 'robot_stimuli\\L_Base_Z_Back.mp4']",robot_stimuli\R_Arm_X_Back.mp4,14,0,0,0,0,0,9,9,9,,,,,,,,,,,,,,,,,,,,,423.17585280002095,423.17585280002095,space,3.6701128999702632,435.34921960002976,436.448441000015,,,,436.448441000015,436.448441000015,436.448441000015,c,4.997628300043289,441.4893752000062,441.4893752000062,441.4893752000062,441.4893752000062,441.4893752000062,441.4893752000062,441.4893752000062,441.4893752000062,None,None,None,,,,431.7083109000232,436.448441000015,,,,,,,,,,,,,,,,,,,,,,14,001,2024-07-09_16h10.21.482,robot_sternberg_sign,2022.2.5,60.01475164046647,
"['L_Base_Y_Back', 'R_Arm_X_For']",False,L_Torso_Y_For,2,robot,2,False,False,"['robot_stimuli\\L_Base_Y_Back.mp4', 'robot_stimuli\\R_Arm_X_For.mp4']",robot_stimuli\L_Torso_Y_For.mp4,14,0,0,0,0,0,10,10,10,,,,,,,,,,,,,,,,,,,,,441.4893752000062,441.4893752000062,None,,449.88498209998943,450.98587859998224,,,,450.98587859998224,450.98587859998224,450.98587859998224,n,3.907386899983976,454.92423519998556,454.92423519998556,454.92423519998556,454.92423519998556,454.92423519998556,454.92423519998556,454.92423519998556,454.92423519998556,None,None,None,441.4893752000062,441.4893752000062,,446.25283449998824,450.98587859998224,,,,,,,,,,,,,,,,,,,,,,14,001,2024-07-09_16h10.21.482,robot_sternberg_sign,2022.2.5,60.01475164046647,
"['R_Base_Y_Back', 'L_Head_Z_Back']",True,L_Head_Z_Back,2,robot,2,False,True,"['robot_stimuli\\R_Base_Y_Back.mp4', 'robot_stimuli\\L_Head_Z_Back.mp4']",robot_stimuli\L_Head_Z_Back.mp4,14,0,0,0,0,0,11,11,11,,,,,,,,,,,,,,,,,,,,,454.92423519998556,454.92423519998556,None,,463.3856673000264,464.48703249997925,,,,464.48703249997925,464.48703249997925,464.48703249997925,n,1.9506760999793187,468.1569253000198,473.1665366999805,468.1569253000198,473.1665366999805,468.1569253000198,473.1665366999805,468.1569253000198,473.1665366999805,23.05555555555555,2.8624543000478297,space,454.92423519998556,454.92423519998556,4.959800899960101,459.74228310002945,464.48703249997925,,,,,,,,,,,,,,,,,,,,,,14,001,2024-07-09_16h10.21.482,robot_sternberg_sign,2022.2.5,60.01475164046647,
"['L_Base_Y_For', 'R_Arm_Y_For', 'R_Head_Z_For', 'L_Arm_Z_Back']",True,R_Arm_Y_For,4,robot,2,True,False,"['robot_stimuli\\L_Base_Y_For.mp4', 'robot_stimuli\\R_Arm_Y_For.mp4', 'robot_stimuli\\R_Head_Z_For.mp4', 'robot_stimuli\\L_Arm_Z_Back.mp4']",robot_stimuli\R_Arm_Y_For.mp4,14,0,0,0,0,0,12,12,12,,,,,,,,,,,,,,,,,,,,,473.1665366999805,473.1665366999805,space,2.639374599966686,491.5178174999892,492.62352820002707,,,,492.62352820002707,492.62352820002707,492.62352820002707,c,4.590067100012675,497.25367190002,497.25367190002,497.25367190002,497.25367190002,497.25367190002,497.25367190002,497.25367190002,497.25367190002,None,None,None,,,,487.88280309998663,492.62352820002707,,,,,,,,,,,,,,,,,,,,,,14,001,2024-07-09_16h10.21.482,robot_sternberg_sign,2022.2.5,60.01475164046647,
"['L_Head_Z_For', 'R_Head_Z_Back', 'R_Arm_Z_Back', 'L_Arm_X_For']",False,L_Torso_Y_Back,4,robot,2,False,False,"['robot_stimuli\\L_Head_Z_For.mp4', 'robot_stimuli\\R_Head_Z_Back.mp4', 'robot_stimuli\\R_Arm_Z_Back.mp4', 'robot_stimuli\\L_Arm_X_For.mp4']",robot_stimuli\L_Torso_Y_Back.mp4,14,0,0,0,0,0,13,13,13,,,,,,,,,,,,,,,,,,,,,497.25367190002,497.25367190002,None,,513.1518428000272,514.2392558000283,,,,514.2392558000283,514.2392558000283,514.2392558000283,n,3.381227800040506,517.7556432000129,517.7556432000129,517.7556432000129,517.7556432000129,517.7556432000129,517.7556432000129,517.7556432000129,517.7556432000129,None,None,None,497.25367190002,497.25367190002,,509.52038619999075,514.2392558000283,,,,,,,,,,,,,,,,,,,,,,14,001,2024-07-09_16h10.21.482,robot_sternberg_sign,2022.2.5,60.01475164046647,
"['R_Torso_Y_For', 'R_Base_X_For', 'L_Arm_Z_For', 'L_Arm_Z_Back']",True,L_Arm_Z_For,4,robot,2,False,True,"['robot_stimuli\\R_Torso_Y_For.mp4', 'robot_stimuli\\R_Base_X_For.mp4', 'robot_stimuli\\L_Arm_Z_For.mp4', 'robot_stimuli\\L_Arm_Z_Back.mp4']",robot_stimuli\L_Arm_Z_For.mp4,14,0,0,0,0,0,14,14,14,,,,,,,,,,,,,,,,,,,,,517.7556432000129,517.7556432000129,None,,533.5290070999763,518.8370482000173,,,,534.6219361000112,534.6219361000112,534.6219361000112,c,4.696122299996205,539.3839213000028,544.7588354999898,539.3839213000028,544.7588354999898,539.3839213000028,544.7588354999898,539.3839213000028,544.7588354999898,22.74691358024691,3.0329962999676354,space,517.7556432000129,517.7556432000129,5.333317700016778,529.8957116000238,534.6219361000112,,,,,,,,,,,,,,,,,,,,,,14,001,2024-07-09_16h10.21.482,robot_sternberg_sign,2022.2.5,60.01475164046647,
"['R_Head_X_Back', 'L_Arm_Z_For', 'R_Head_X_For', 'L_Torso_Y_Back', 'R_Head_Y_For', 'R_Torso_Y_For']",True,R_Head_Y_For,6,robot,2,True,False,"['robot_stimuli\\R_Head_X_Back.mp4', 'robot_stimuli\\L_Arm_Z_For.mp4', 'robot_stimuli\\R_Head_X_For.mp4', 'robot_stimuli\\L_Torso_Y_Back.mp4', 'robot_stimuli\\R_Head_Y_For.mp4', 'robot_stimuli\\R_Torso_Y_For.mp4']",robot_stimuli\R_Head_Y_For.mp4,14,0,0,0,0,0,15,15,15,,,,,,,,,,,,,,,,,,,,,544.7588354999898,544.7588354999898,space,2.438526699959766,570.4352765000076,571.5223243000219,,,,571.5223243000219,571.5223243000219,571.5223243000219,c,3.8985274000442587,575.4616154999821,575.4616154999821,575.4616154999821,575.4616154999821,575.4616154999821,575.4616154999821,575.4616154999821,575.4616154999821,None,None,None,,,,566.8031050999998,571.5223243000219,,,,,,,,,,,,,,,,,,,,,,14,001,2024-07-09_16h10.21.482,robot_sternberg_sign,2022.2.5,60.01475164046647,
"['L_Base_Y_Back', 'L_Arm_Z_For', 'R_Torso_X_For', 'R_Torso_Y_For', 'R_Arm_Y_Back', 'L_Head_Z_Back']",True,L_Base_Y_Back,6,robot,2,False,False,"['robot_stimuli\\L_Base_Y_Back.mp4', 'robot_stimuli\\L_Arm_Z_For.mp4', 'robot_stimuli\\R_Torso_X_For.mp4', 'robot_stimuli\\R_Torso_Y_For.mp4', 'robot_stimuli\\R_Arm_Y_Back.mp4', 'robot_stimuli\\L_Head_Z_Back.mp4']",robot_stimuli\L_Base_Y_Back.mp4,14,0,0,0,0,0,16,16,16,,,,,,,,,,,,,,,,,,,,,575.4616154999821,575.4616154999821,None,,598.6987337000319,599.7901264000102,,,,599.7901264000102,599.7901264000102,599.7901264000102,n,3.1672575999982655,603.372904399992,603.372904399992,603.372904399992,603.372904399992,603.372904399992,603.372904399992,603.372904399992,603.372904399992,None,None,None,575.4616154999821,575.4616154999821,,595.0669358000159,599.7901264000102,,,,,,,,,,,,,,,,,,,,,,14,001,2024-07-09_16h10.21.482,robot_sternberg_sign,2022.2.5,60.01475164046647,
"['R_Torso_Z_Back', 'L_Base_X_For', 'R_Base_X_Back', 'L_Head_X_Back', 'R_Arm_X_Back', 'R_Base_Y_For']",False,L_Arm_Z_Back,6,robot,2,False,True,"['robot_stimuli\\R_Torso_Z_Back.mp4', 'robot_stimuli\\L_Base_X_For.mp4', 'robot_stimuli\\R_Base_X_Back.mp4', 'robot_stimuli\\L_Head_X_Back.mp4', 'robot_stimuli\\R_Arm_X_Back.mp4', 'robot_stimuli\\R_Base_Y_For.mp4']",robot_stimuli\L_Arm_Z_Back.mp4,14,0,0,0,0,0,17,17,17,,,,,,,,,,,,,,,,,,,,,603.372904399992,603.372904399992,None,,626.6139766999986,604.451722799975,,,,627.7086068000062,627.7086068000062,627.7086068000062,n,2.968278900021687,631.3870688999887,634.6060470999801,631.3870688999887,634.6060470999801,631.3870688999887,634.6060470999801,631.3870688999887,634.6060470999801,25.67901234567901,2.410244600032456,space,603.372904399992,603.372904399992,3.1777466000057757,622.982952099992,627.7086068000062,,,,,,,,,,,,,,,,,,,,,,14,001,2024-07-09_16h10.21.482,robot_sternberg_sign,2022.2.5,60.01475164046647,
,,,,,,,,,,,0,0,0,0,,,,,,,,,,,,,,,,,,,,,,,,,,,,,,,,,,,,,,,,,,,,,,,,,,,,,,,634.6060470999801,634.6060470999801,634.6060470999801,c,3.240530399954878,,,,,,,,,,,,,,,,,14,001,2024-07-09_16h10.21.482,robot_sternberg_sign,2022.2.5,60.01475164046647,
"['S', 'H', 'K', 'D', 'N', 'Z']",True,D,6,letter,1,True,False,"['robot_stimuli\\\\filler.mp4', 'robot_stimuli\\\\filler.mp4', 'robot_stimuli\\\\filler.mp4', 'robot_stimuli\\\\filler.mp4', 'robot_stimuli\\\\filler.mp4', 'robot_stimuli\\\\filler.mp4']",robot_stimuli\\filler.mp4,14,,,,,,,,,,,,,0,0,0,0,,,,,,,,,,,,,,,,,657.290818599984,658.3715128999902,,,,,,,,,660.1767107999767,660.1767107999767,660.1767107999767,660.1767107999767,660.1767107999767,660.1767107999767,660.1767107999767,660.1767107999767,None,None,None,,,,,,,,,,,637.8924546000198,637.8924546000198,space,4.874119599990081,655.278419499984,657.290818599984,658.3715128999902,658.3715128999902,658.3715128999902,658.3715128999902,c,1.665291499986779,,,,,14,001,2024-07-09_16h10.21.482,robot_sternberg_sign,2022.2.5,60.01475164046647,
"['C', 'F', 'Q', 'W', 'R', 'K']",False,J,6,letter,1,False,False,"['robot_stimuli\\\\filler.mp4', 'robot_stimuli\\\\filler.mp4', 'robot_stimuli\\\\filler.mp4', 'robot_stimuli\\\\filler.mp4', 'robot_stimuli\\\\filler.mp4', 'robot_stimuli\\\\filler.mp4']",robot_stimuli\\filler.mp4,14,,,,,,,,,,,,,0,1,1,1,,,,,,,,,,,,,,,,,674.4960552999983,661.2313520000316,,,,,,,,,676.7921529000159,676.7921529000159,676.7921529000159,676.7921529000159,676.7921529000159,676.7921529000159,676.7921529000159,676.7921529000159,None,None,None,,,,,,,,,,,660.1767107999767,660.1767107999767,None,,672.2833431999898,674.4960552999983,675.5684434000286,675.5684434000286,675.5684434000286,675.5684434000286,n,1.0442898999899626,660.1767107999767,660.1767107999767,,,14,001,2024-07-09_16h10.21.482,robot_sternberg_sign,2022.2.5,60.01475164046647,
"['F', 'X', 'J', 'Z', 'G', 'P']",False,V,6,letter,1,False,False,"['robot_stimuli\\\\filler.mp4', 'robot_stimuli\\\\filler.mp4', 'robot_stimuli\\\\filler.mp4', 'robot_stimuli\\\\filler.mp4', 'robot_stimuli\\\\filler.mp4', 'robot_stimuli\\\\filler.mp4']",robot_stimuli\\filler.mp4,14,,,,,,,,,,,,,0,2,2,2,,,,,,,,,,,,,,,,,691.1075183000066,692.1658702000277,,,,,,,,,693.7975867000059,693.7975867000059,693.7975867000059,693.7975867000059,693.7975867000059,693.7975867000059,693.7975867000059,693.7975867000059,None,None,None,,,,,,,,,,,676.7921529000159,676.7921529000159,None,,689.0899590000045,691.1075183000066,692.1658702000277,692.1658702000277,692.1658702000277,692.1658702000277,n,1.5445469999685884,676.7921529000159,676.7921529000159,,,14,001,2024-07-09_16h10.21.482,robot_sternberg_sign,2022.2.5,60.01475164046647,
"['C', 'J', 'L', 'W', 'S', 'M']",False,F,6,letter,1,False,False,"['robot_stimuli\\\\filler.mp4', 'robot_stimuli\\\\filler.mp4', 'robot_stimuli\\\\filler.mp4', 'robot_stimuli\\\\filler.mp4', 'robot_stimuli\\\\filler.mp4', 'robot_stimuli\\\\filler.mp4']",robot_stimuli\\filler.mp4,14,,,,,,,,,,,,,0,3,3,3,,,,,,,,,,,,,,,,,707.7342767000082,708.7996900000144,,,,,,,,,711.224950200005,711.224950200005,711.224950200005,711.224950200005,711.224950200005,711.224950200005,711.224950200005,711.224950200005,None,None,None,,,,,,,,,,,693.7975867000059,693.7975867000059,None,,705.5147532999981,707.7342767000082,708.7996900000144,708.7996900000144,708.7996900000144,708.7996900000144,n,2.2542629999807104,693.7975867000059,693.7975867000059,,,14,001,2024-07-09_16h10.21.482,robot_sternberg_sign,2022.2.5,60.01475164046647,
"['Q', 'L', 'S', 'N', 'Z', 'M']",True,L,6,letter,1,False,False,"['robot_stimuli\\\\filler.mp4', 'robot_stimuli\\\\filler.mp4', 'robot_stimuli\\\\filler.mp4', 'robot_stimuli\\\\filler.mp4', 'robot_stimuli\\\\filler.mp4', 'robot_stimuli\\\\filler.mp4']",robot_stimuli\\filler.mp4,14,,,,,,,,,,,,,0,4,4,4,,,,,,,,,,,,,,,,,725.5671608999837,726.631035999977,,,,,,,,,728.660702800029,728.660702800029,728.660702800029,728.660702800029,728.660702800029,728.660702800029,728.660702800029,728.660702800029,None,None,None,,,,,,,,,,,711.224950200005,711.224950200005,None,,723.5544935999787,725.5671608999837,726.631035999977,726.631035999977,726.631035999977,726.631035999977,c,1.9511917000054382,711.224950200005,711.224950200005,,,14,001,2024-07-09_16h10.21.482,robot_sternberg_sign,2022.2.5,60.01475164046647,
"['K', 'X', 'L', 'S', 'P', 'Q']",True,L,6,letter,1,False,False,"['robot_stimuli\\\\filler.mp4', 'robot_stimuli\\\\filler.mp4', 'robot_stimuli\\\\filler.mp4', 'robot_stimuli\\\\filler.mp4', 'robot_stimuli\\\\filler.mp4', 'robot_stimuli\\\\filler.mp4']",robot_stimuli\\filler.mp4,14,,,,,,,,,,,,,0,5,5,5,,,,,,,,,,,,,,,,,742.584327300021,743.6472350999829,,,,,,,,,746.2822582999943,746.2822582999943,746.2822582999943,746.2822582999943,746.2822582999943,746.2822582999943,746.2822582999943,746.2822582999943,None,None,None,,,,,,,,,,,728.660702800029,728.660702800029,None,,740.368062500027,742.584327300021,743.6472350999829,743.6472350999829,743.6472350999829,743.6472350999829,c,2.517447499965783,728.660702800029,728.660702800029,,,14,001,2024-07-09_16h10.21.482,robot_sternberg_sign,2022.2.5,60.01475164046647,
"['X', 'D', 'Z', 'S', 'L', 'V']",False,P,6,letter,1,False,False,"['robot_stimuli\\\\filler.mp4', 'robot_stimuli\\\\filler.mp4', 'robot_stimuli\\\\filler.mp4', 'robot_stimuli\\\\filler.mp4', 'robot_stimuli\\\\filler.mp4', 'robot_stimuli\\\\filler.mp4']",robot_stimuli\\filler.mp4,14,,,,,,,,,,,,,0,6,6,6,,,,,,,,,,,,,,,,,760.8212888999842,761.884722399991,,,,,,,,,764.1111031000037,764.1111031000037,764.1111031000037,764.1111031000037,764.1111031000037,764.1111031000037,764.1111031000037,764.1111031000037,None,None,None,,,,,,,,,,,746.2822582999943,746.2822582999943,None,,758.6004016000079,760.8212888999842,761.884722399991,761.884722399991,761.884722399991,761.884722399991,n,2.096032799978275,746.2822582999943,746.2822582999943,,,14,001,2024-07-09_16h10.21.482,robot_sternberg_sign,2022.2.5,60.01475164046647,
"['V', 'H', 'N', 'L', 'S', 'R']",True,N,6,letter,1,False,False,"['robot_stimuli\\\\filler.mp4', 'robot_stimuli\\\\filler.mp4', 'robot_stimuli\\\\filler.mp4', 'robot_stimuli\\\\filler.mp4', 'robot_stimuli\\\\filler.mp4', 'robot_stimuli\\\\filler.mp4']",robot_stimuli\\filler.mp4,14,,,,,,,,,,,,,0,7,7,7,,,,,,,,,,,,,,,,,778.2291629000101,765.1620594999986,,,,,,,,,781.5272058999981,781.5272058999981,781.5272058999981,781.5272058999981,781.5272058999981,781.5272058999981,781.5272058999981,781.5272058999981,None,None,None,,,,,,,,,,,764.1111031000037,764.1111031000037,None,,776.2118750999798,778.2291629000101,779.2998047000146,779.2998047000146,779.2998047000146,779.2998047000146,c,2.1382343999575824,764.1111031000037,764.1111031000037,,,14,001,2024-07-09_16h10.21.482,robot_sternberg_sign,2022.2.5,60.01475164046647,
"['B', 'F', 'T', 'S', 'Q', 'N']",True,F,6,letter,1,False,False,"['robot_stimuli\\\\filler.mp4', 'robot_stimuli\\\\filler.mp4', 'robot_stimuli\\\\filler.mp4', 'robot_stimuli\\\\filler.mp4', 'robot_stimuli\\\\filler.mp4', 'robot_stimuli\\\\filler.mp4']",robot_stimuli\\filler.mp4,14,,,,,,,,,,,,,0,8,8,8,,,,,,,,,,,,,,,,,795.8361995000159,796.9008434999851,,,,,,,,,799.1290294000064,799.1290294000064,799.1290294000064,799.1290294000064,799.1290294000064,799.1290294000064,799.1290294000064,799.1290294000064,None,None,None,,,,,,,,,,,781.5272058999981,781.5272058999981,None,,793.8186018000124,795.8361995000159,796.9008434999851,796.9008434999851,796.9008434999851,796.9008434999851,c,2.024462900008075,781.5272058999981,781.5272058999981,,,14,001,2024-07-09_16h10.21.482,robot_sternberg_sign,2022.2.5,60.01475164046647,
"['P', 'B', 'K', 'T', 'V', 'Z']",False,Q,6,letter,1,False,True,"['robot_stimuli\\\\filler.mp4', 'robot_stimuli\\\\filler.mp4', 'robot_stimuli\\\\filler.mp4', 'robot_stimuli\\\\filler.mp4', 'robot_stimuli\\\\filler.mp4', 'robot_stimuli\\\\filler.mp4']",robot_stimuli\\filler.mp4,14,,,,,,,,,,,,,0,9,9,9,,,,,,,,,,,,,,,,,813.462022199994,814.5151278999983,,,,,,,,,816.1670178999775,820.8661263000104,816.1670178999775,820.8661263000104,816.1670178999775,820.8661263000104,816.1670178999775,820.8661263000104,15.339506172839505,3.5645344000076875,space,,,4.645962500013411,,,,,,,,799.1290294000064,799.1290294000064,None,,811.2487499000272,813.462022199994,814.5151278999983,814.5151278999983,814.5151278999983,814.5151278999983,n,1.433597799972631,799.1290294000064,799.1290294000064,,,14,001,2024-07-09_16h10.21.482,robot_sternberg_sign,2022.2.5,60.01475164046647,
"['Q', 'D', 'W', 'V']",False,B,4,letter,1,True,False,"['robot_stimuli\\\\filler.mp4', 'robot_stimuli\\\\filler.mp4', 'robot_stimuli\\\\filler.mp4', 'robot_stimuli\\\\filler.mp4']",robot_stimuli\\filler.mp4,14,,,,,,,,,,,,,0,10,10,10,,,,,,,,,,,,,,,,,834.2707900999812,835.3318473999971,,,,,,,,,837.358108400018,837.358108400018,837.358108400018,837.358108400018,837.358108400018,837.358108400018,837.358108400018,837.358108400018,None,None,None,,,,,,,,,,,820.8661263000104,820.8661263000104,space,3.8599228999810293,832.0540562000242,834.2707900999812,835.3318473999971,835.3318473999971,835.3318473999971,835.3318473999971,n,1.880861299985554,,,,,14,001,2024-07-09_16h10.21.482,robot_sternberg_sign,2022.2.5,60.01475164046647,
"['Z', 'W', 'G', 'L']",False,F,4,letter,1,False,False,"['robot_stimuli\\\\filler.mp4', 'robot_stimuli\\\\filler.mp4', 'robot_stimuli\\\\filler.mp4', 'robot_stimuli\\\\filler.mp4']",robot_stimuli\\filler.mp4,14,,,,,,,,,,,,,0,11,11,11,,,,,,,,,,,,,,,,,847.0853851999855,848.1506884000264,,,,,,,,,850.1764175000135,850.1764175000135,850.1764175000135,850.1764175000135,850.1764175000135,850.1764175000135,850.1764175000135,850.1764175000135,None,None,None,,,,,,,,,,,837.358108400018,837.358108400018,None,,845.0741609000252,847.0853851999855,848.1506884000264,848.1506884000264,848.1506884000264,848.1506884000264,n,1.9426300000050105,837.358108400018,837.358108400018,,,14,001,2024-07-09_16h10.21.482,robot_sternberg_sign,2022.2.5,60.01475164046647,
"['J', 'T', 'Z', 'N']",True,J,4,letter,1,False,False,"['robot_stimuli\\\\filler.mp4', 'robot_stimuli\\\\filler.mp4', 'robot_stimuli\\\\filler.mp4', 'robot_stimuli\\\\filler.mp4']",robot_stimuli\\filler.mp4,14,,,,,,,,,,,,,0,12,12,12,,,,,,,,,,,,,,,,,860.1347607999924,861.1982855999959,,,,,,,,,862.8298713000258,862.8298713000258,862.8298713000258,862.8298713000258,862.8298713000258,862.8298713000258,862.8298713000258,862.8298713000258,None,None,None,,,,,,,,,,,850.1764175000135,850.1764175000135,None,,858.1255228000227,860.1347607999924,861.1982855999959,861.1982855999959,861.1982855999959,861.1982855999959,c,1.4074620000319555,850.1764175000135,850.1764175000135,,,14,001,2024-07-09_16h10.21.482,robot_sternberg_sign,2022.2.5,60.01475164046647,
"['N', 'S', 'G', 'T']",True,T,4,letter,1,False,False,"['robot_stimuli\\\\filler.mp4', 'robot_stimuli\\\\filler.mp4', 'robot_stimuli\\\\filler.mp4', 'robot_stimuli\\\\filler.mp4']",robot_stimuli\\filler.mp4,14,,,,,,,,,,,,,0,13,13,13,,,,,,,,,,,,,,,,,872.3896581000299,873.451981500024,,,,,,,,,875.6745519000106,875.6745519000106,875.6745519000106,875.6745519000106,875.6745519000106,875.6745519000106,875.6745519000106,875.6745519000106,None,None,None,,,,,,,,,,,862.8298713000258,862.8298713000258,None,,870.3776714000269,872.3896581000299,873.451981500024,873.451981500024,873.451981500024,873.451981500024,c,2.0345991000067443,862.8298713000258,862.8298713000258,,,14,001,2024-07-09_16h10.21.482,robot_sternberg_sign,2022.2.5,60.01475164046647,
"['Q', 'R', 'L', 'C']",True,R,4,letter,1,False,False,"['robot_stimuli\\\\filler.mp4', 'robot_stimuli\\\\filler.mp4', 'robot_stimuli\\\\filler.mp4', 'robot_stimuli\\\\filler.mp4']",robot_stimuli\\filler.mp4,14,,,,,,,,,,,,,0,14,14,14,,,,,,,,,,,,,,,,,885.408659400011,886.4681752999895,,,,,,,,,888.4922967000166,888.4922967000166,888.4922967000166,888.4922967000166,888.4922967000166,888.4922967000166,888.4922967000166,888.4922967000166,None,None,None,,,,,,,,,,,875.6745519000106,875.6745519000106,None,,883.3941311999806,885.408659400011,886.4681752999895,886.4681752999895,886.4681752999895,886.4681752999895,c,1.8580367999966256,875.6745519000106,875.6745519000106,,,14,001,2024-07-09_16h10.21.482,robot_sternberg_sign,2022.2.5,60.01475164046647,
"['X', 'P', 'T', 'M']",False,F,4,letter,1,False,False,"['robot_stimuli\\\\filler.mp4', 'robot_stimuli\\\\filler.mp4', 'robot_stimuli\\\\filler.mp4', 'robot_stimuli\\\\filler.mp4']",robot_stimuli\\filler.mp4,14,,,,,,,,,,,,,0,15,15,15,,,,,,,,,,,,,,,,,898.2408553999849,899.2971205000067,,,,,,,,,900.7215338000096,900.7215338000096,900.7215338000096,900.7215338000096,900.7215338000096,900.7215338000096,900.7215338000096,900.7215338000096,None,None,None,,,,,,,,,,,888.4922967000166,888.4922967000166,None,,896.2262132000178,898.2408553999849,899.2971205000067,899.2971205000067,899.2971205000067,899.2971205000067,n,1.3005041000433266,888.4922967000166,888.4922967000166,,,14,001,2024-07-09_16h10.21.482,robot_sternberg_sign,2022.2.5,60.01475164046647,
"['W', 'R', 'X', 'F']",False,K,4,letter,1,False,False,"['robot_stimuli\\\\filler.mp4', 'robot_stimuli\\\\filler.mp4', 'robot_stimuli\\\\filler.mp4', 'robot_stimuli\\\\filler.mp4']",robot_stimuli\\filler.mp4,14,,,,,,,,,,,,,0,16,16,16,,,,,,,,,,,,,,,,,910.4598411999759,911.5149634000263,,,,,,,,,913.7464715000242,913.7464715000242,913.7464715000242,913.7464715000242,913.7464715000242,913.7464715000242,913.7464715000242,913.7464715000242,None,None,None,,,,,,,,,,,900.7215338000096,900.7215338000096,None,,908.4397666000295,910.4598411999759,911.5149634000263,911.5149634000263,911.5149634000263,911.5149634000263,n,2.0031835999689065,900.7215338000096,900.7215338000096,,,14,001,2024-07-09_16h10.21.482,robot_sternberg_sign,2022.2.5,60.01475164046647,
"['H', 'B', 'L', 'K']",True,L,4,letter,1,False,False,"['robot_stimuli\\\\filler.mp4', 'robot_stimuli\\\\filler.mp4', 'robot_stimuli\\\\filler.mp4', 'robot_stimuli\\\\filler.mp4']",robot_stimuli\\filler.mp4,14,,,,,,,,,,,,,0,17,17,17,,,,,,,,,,,,,,,,,923.2896403999766,924.3515818000305,,,,,,,,,926.1758170999819,926.1758170999819,926.1758170999819,926.1758170999819,926.1758170999819,926.1758170999819,926.1758170999819,926.1758170999819,None,None,None,,,,,,,,,,,913.7464715000242,913.7464715000242,None,,921.2711328000296,923.2896403999766,924.3515818000305,924.3515818000305,924.3515818000305,924.3515818000305,c,1.6777694000047632,913.7464715000242,913.7464715000242,,,14,001,2024-07-09_16h10.21.482,robot_sternberg_sign,2022.2.5,60.01475164046647,
"['V', 'W', 'P', 'J']",False,S,4,letter,1,False,False,"['robot_stimuli\\\\filler.mp4', 'robot_stimuli\\\\filler.mp4', 'robot_stimuli\\\\filler.mp4', 'robot_stimuli\\\\filler.mp4']",robot_stimuli\\filler.mp4,14,,,,,,,,,,,,,0,18,18,18,,,,,,,,,,,,,,,,,935.7077162999776,936.7650147000095,,,,,,,,,937.9887499000179,937.9887499000179,937.9887499000179,937.9887499000179,937.9887499000179,937.9887499000179,937.9887499000179,937.9887499000179,None,None,None,,,,,,,,,,,926.1758170999819,926.1758170999819,None,,933.6903070000117,935.7077162999776,936.7650147000095,936.7650147000095,936.7650147000095,936.7650147000095,n,1.1291595999500714,926.1758170999819,926.1758170999819,,,14,001,2024-07-09_16h10.21.482,robot_sternberg_sign,2022.2.5,60.01475164046647,
"['T', 'H', 'P', 'L']",True,P,4,letter,1,False,True,"['robot_stimuli\\\\filler.mp4', 'robot_stimuli\\\\filler.mp4', 'robot_stimuli\\\\filler.mp4', 'robot_stimuli\\\\filler.mp4']",robot_stimuli\\filler.mp4,14,,,,,,,,,,,,,0,19,19,19,,,,,,,,,,,,,,,,,947.9235478999908,948.9824551999918,,,,,,,,,951.6402693000273,956.292374200013,951.6402693000273,956.292374200013,951.6402693000273,956.292374200013,951.6402693000273,956.292374200013,15.18518518518518,3.5882626000093296,space,,,4.58884979999857,,,,,,,,937.9887499000179,937.9887499000179,None,,945.9050099999877,947.9235478999908,948.9824551999918,948.9824551999918,948.9824551999918,948.9824551999918,c,2.5830916999839246,937.9887499000179,937.9887499000179,,,14,001,2024-07-09_16h10.21.482,robot_sternberg_sign,2022.2.5,60.01475164046647,
"['S', 'P']",True,P,2,letter,1,True,False,"['robot_stimuli\\\\filler.mp4', 'robot_stimuli\\\\filler.mp4']",robot_stimuli\\filler.mp4,14,,,,,,,,,,,,,0,20,20,20,,,,,,,,,,,,,,,,,963.6686572000035,964.7312322999933,,,,,,,,,967.3583431000006,967.3583431000006,967.3583431000006,967.3583431000006,967.3583431000006,967.3583431000006,967.3583431000006,967.3583431000006,None,None,None,,,,,,,,,,,956.292374200013,956.292374200013,space,1.7935676000197418,961.4581523999805,963.6686572000035,964.7312322999933,964.7312322999933,964.7312322999933,964.7312322999933,c,2.5789665000047535,,,,,14,001,2024-07-09_16h10.21.482,robot_sternberg_sign,2022.2.5,60.01475164046647,
"['G', 'T']",True,T,2,letter,1,False,False,"['robot_stimuli\\\\filler.mp4', 'robot_stimuli\\\\filler.mp4']",robot_stimuli\\filler.mp4,14,,,,,,,,,,,,,0,21,21,21,,,,,,,,,,,,,,,,,972.9219469000236,973.9826879000175,,,,,,,,,978.0188818000024,978.0188818000024,978.0188818000024,978.0188818000024,978.0188818000024,978.0188818000024,978.0188818000024,978.0188818000024,None,None,None,,,,,,,,,,,967.3583431000006,967.3583431000006,None,,970.7174750000122,972.9219469000236,973.9826879000175,973.9826879000175,973.9826879000175,973.9826879000175,n,3.902032700018026,967.3583431000006,967.3583431000006,,,14,001,2024-07-09_16h10.21.482,robot_sternberg_sign,2022.2.5,60.01475164046647,
"['X', 'H']",False,V,2,letter,1,False,False,"['robot_stimuli\\\\filler.mp4', 'robot_stimuli\\\\filler.mp4']",robot_stimuli\\filler.mp4,14,,,,,,,,,,,,,0,22,22,22,,,,,,,,,,,,,,,,,983.3909341000253,984.4490465000272,,,,,,,,,986.2786389000248,986.2786389000248,986.2786389000248,986.2786389000248,986.2786389000248,986.2786389000248,986.2786389000248,986.2786389000248,None,None,None,,,,,,,,,,,978.0188818000024,978.0188818000024,None,,981.377561500005,983.3909341000253,984.4490465000272,984.4490465000272,984.4490465000272,984.4490465000272,n,1.7172589999972843,978.0188818000024,978.0188818000024,,,14,001,2024-07-09_16h10.21.482,robot_sternberg_sign,2022.2.5,60.01475164046647,
"['X', 'J']",True,J,2,letter,1,False,False,"['robot_stimuli\\\\filler.mp4', 'robot_stimuli\\\\filler.mp4']",robot_stimuli\\filler.mp4,14,,,,,,,,,,,,,0,23,23,23,,,,,,,,,,,,,,,,,991.6475730999955,987.333500800014,,,,,,,,,994.1481146999868,994.1481146999868,994.1481146999868,994.1481146999868,994.1481146999868,994.1481146999868,994.1481146999868,994.1481146999868,None,None,None,,,,,,,,,,,986.2786389000248,986.2786389000248,None,,989.4305650999886,991.6475730999955,992.7247930000303,992.7247930000303,992.7247930000303,992.7247930000303,c,1.3280595000251196,986.2786389000248,986.2786389000248,,,14,001,2024-07-09_16h10.21.482,robot_sternberg_sign,2022.2.5,60.01475164046647,
"['M', 'D']",True,D,2,letter,1,False,False,"['robot_stimuli\\\\filler.mp4', 'robot_stimuli\\\\filler.mp4']",robot_stimuli\\filler.mp4,14,,,,,,,,,,,,,0,24,24,24,,,,,,,,,,,,,,,,,999.5255415000138,1000.58498590003,,,,,,,,,1002.0038119999808,1002.0038119999808,1002.0038119999808,1002.0038119999808,1002.0038119999808,1002.0038119999808,1002.0038119999808,1002.0038119999808,None,None,None,,,,,,,,,,,994.1481146999868,994.1481146999868,None,,997.5098966999794,999.5255415000138,1000.58498590003,1000.58498590003,1000.58498590003,1000.58498590003,c,1.2676673000096343,994.1481146999868,994.1481146999868,,,14,001,2024-07-09_16h10.21.482,robot_sternberg_sign,2022.2.5,60.01475164046647,
"['G', 'P']",True,G,2,letter,1,False,False,"['robot_stimuli\\\\filler.mp4', 'robot_stimuli\\\\filler.mp4']",robot_stimuli\\filler.mp4,14,,,,,,,,,,,,,0,25,25,25,,,,,,,,,,,,,,,,,1007.1631006000098,1003.0653379000141,,,,,,,,,1009.4534377999953,1009.4534377999953,1009.4534377999953,1009.4534377999953,1009.4534377999953,1009.4534377999953,1009.4534377999953,1009.4534377999953,None,None,None,,,,,,,,,,,1002.0038119999808,1002.0038119999808,None,,1005.1544779000105,1007.1631006000098,1008.2314859000035,1008.2314859000035,1008.2314859000035,1008.2314859000035,c,1.0064624999649823,1002.0038119999808,1002.0038119999808,,,14,001,2024-07-09_16h10.21.482,robot_sternberg_sign,2022.2.5,60.01475164046647,
"['K', 'Q']",False,B,2,letter,1,False,False,"['robot_stimuli\\\\filler.mp4', 'robot_stimuli\\\\filler.mp4']",robot_stimuli\\filler.mp4,14,,,,,,,,,,,,,0,26,26,26,,,,,,,,,,,,,,,,,1014.8296647000243,1010.5151864999789,,,,,,,,,1017.7267964999774,1017.7267964999774,1017.7267964999774,1017.7267964999774,1017.7267964999774,1017.7267964999774,1017.7267964999774,1017.7267964999774,None,None,None,,,,,,,,,,,1009.4534377999953,1009.4534377999953,None,,1012.8113210999873,1014.8296647000243,1015.8991366000264,1015.8991366000264,1015.8991366000264,1015.8991366000264,n,1.6975899999961257,1009.4534377999953,1009.4534377999953,,,14,001,2024-07-09_16h10.21.482,robot_sternberg_sign,2022.2.5,60.01475164046647,
"['J', 'G']",False,W,2,letter,1,False,False,"['robot_stimuli\\\\filler.mp4', 'robot_stimuli\\\\filler.mp4']",robot_stimuli\\filler.mp4,14,,,,,,,,,,,,,0,27,27,27,,,,,,,,,,,,,,,,,1022.902244500001,1023.9645104000228,,,,,,,,,1026.1936789000174,1026.1936789000174,1026.1936789000174,1026.1936789000174,1026.1936789000174,1026.1936789000174,1026.1936789000174,1026.1936789000174,None,None,None,,,,,,,,,,,1017.7267964999774,1017.7267964999774,None,,1020.8833889000234,1022.902244500001,1023.9645104000228,1023.9645104000228,1023.9645104000228,1023.9645104000228,n,2.0968369000474922,1017.7267964999774,1017.7267964999774,,,14,001,2024-07-09_16h10.21.482,robot_sternberg_sign,2022.2.5,60.01475164046647,
"['R', 'M']",False,P,2,letter,1,False,False,"['robot_stimuli\\\\filler.mp4', 'robot_stimuli\\\\filler.mp4']",robot_stimuli\\filler.mp4,14,,,,,,,,,,,,,0,28,28,28,,,,,,,,,,,,,,,,,1031.7492227000184,1032.8164733999874,,,,,,,,,1034.4465930000297,1034.4465930000297,1034.4465930000297,1034.4465930000297,1034.4465930000297,1034.4465930000297,1034.4465930000297,1034.4465930000297,None,None,None,,,,,,,,,,,1026.1936789000174,1026.1936789000174,None,,1029.5478153000004,1031.7492227000184,1032.8164733999874,1032.8164733999874,1032.8164733999874,1032.8164733999874,n,1.534179700014647,1026.1936789000174,1026.1936789000174,,,14,001,2024-07-09_16h10.21.482,robot_sternberg_sign,2022.2.5,60.01475164046647,
"['Q', 'C']",False,M,2,letter,1,False,True,"['robot_stimuli\\\\filler.mp4', 'robot_stimuli\\\\filler.mp4']",robot_stimuli\\filler.mp4,14,,,,,,,,,,,,,0,29,29,29,,,,,,,,,,,,,,,,,1040.018239500001,1041.0812302000122,,,,,,,,,1042.1327961999923,1046.415930600022,1042.1327961999923,1046.415930600022,1042.1327961999923,1046.415930600022,1042.1327961999923,1046.415930600022,5.30864197530864,3.614680099999532,space,,,4.232312300009653,,,,,,,,1034.4465930000297,1034.4465930000297,None,,1037.8032629999798,1040.018239500001,1041.0812302000122,1041.0812302000122,1041.0812302000122,1041.0812302000122,n,0.9320191000006162,1034.4465930000297,1034.4465930000297,,,14,001,2024-07-09_16h10.21.482,robot_sternberg_sign,2022.2.5,60.01475164046647,
"['L_Head_Z_Back', 'L_Torso_Z_For', 'L_Base_Y_Back', 'L_Base_X_Back']",False,R_Arm_X_For,4,robot,2,True,False,"['robot_stimuli\\L_Head_Z_Back.mp4', 'robot_stimuli\\L_Torso_Z_For.mp4', 'robot_stimuli\\L_Base_Y_Back.mp4', 'robot_stimuli\\L_Base_X_Back.mp4']",robot_stimuli\R_Arm_X_For.mp4,14,,,,,,,,,,,,,0,30,30,30,,,,,,,,,,,,,,,,,1065.4364577999804,1066.5194453999866,,,,,,,,,1070.1521597999963,1070.1521597999963,1070.1521597999963,1070.1521597999963,1070.1521597999963,1070.1521597999963,1070.1521597999963,1070.1521597999963,None,None,None,,,,,,,,,,,1046.415930600022,1046.415930600022,space,3.206464499991853,,,,1066.5194453999866,1066.5194453999866,1066.5194453999866,n,2.998083799961023,,,1061.8375902000116,1066.5194453999866,14,001,2024-07-09_16h10.21.482,robot_sternberg_sign,2022.2.5,60.01475164046647,
"['L_Base_Y_Back', 'R_Base_X_For', 'L_Head_X_Back', 'R_Torso_Z_For']",True,L_Head_X_Back,4,robot,2,False,False,"['robot_stimuli\\L_Base_Y_Back.mp4', 'robot_stimuli\\R_Base_X_For.mp4', 'robot_stimuli\\L_Head_X_Back.mp4', 'robot_stimuli\\R_Torso_Z_For.mp4']",robot_stimuli\L_Head_X_Back.mp4,14,,,,,,,,,,,,,0,31,31,31,,,,,,,,,,,,,,,,,1085.9020652000327,1086.9911131000263,,,,,,,,,1090.6388616000186,1090.6388616000186,1090.6388616000186,1090.6388616000186,1090.6388616000186,1090.6388616000186,1090.6388616000186,1090.6388616000186,None,None,None,,,,,,,,,,,1070.1521597999963,1070.1521597999963,None,,,,,1086.9911131000263,1086.9911131000263,1086.9911131000263,c,2.869759500026703,1070.1521597999963,1070.1521597999963,1082.2696538000018,1086.9911131000263,14,001,2024-07-09_16h10.21.482,robot_sternberg_sign,2022.2.5,60.01475164046647,
"['R_Torso_Z_For', 'R_Head_Y_For', 'R_Head_Z_For', 'L_Arm_Y_Back']",False,L_Base_X_Back,4,robot,2,False,False,"['robot_stimuli\\R_Torso_Z_For.mp4', 'robot_stimuli\\R_Head_Y_For.mp4', 'robot_stimuli\\R_Head_Z_For.mp4', 'robot_stimuli\\L_Arm_Y_Back.mp4']",robot_stimuli\L_Base_X_Back.mp4,14,,,,,,,,,,,,,0,32,32,32,,,,,,,,,,,,,,,,,1106.5655178999878,1107.6566296999808,,,,,,,,,1113.5713312000153,1113.5713312000153,1113.5713312000153,1113.5713312000153,1113.5713312000153,1113.5713312000153,1113.5713312000153,1113.5713312000153,None,None,None,,,,,,,,,,,1090.6388616000186,1090.6388616000186,None,,,,,1107.6566296999808,1107.6566296999808,1107.6566296999808,n,5.884868799999822,1090.6388616000186,1090.6388616000186,1102.922247999988,1107.6566296999808,14,001,2024-07-09_16h10.21.482,robot_sternberg_sign,2022.2.5,60.01475164046647,
"['R_Base_Z_Back', 'L_Torso_Z_Back', 'R_Torso_Y_Back', 'L_Base_Z_Back']",False,R_Arm_X_Back,4,robot,2,False,False,"['robot_stimuli\\R_Base_Z_Back.mp4', 'robot_stimuli\\L_Torso_Z_Back.mp4', 'robot_stimuli\\R_Torso_Y_Back.mp4', 'robot_stimuli\\L_Base_Z_Back.mp4']",robot_stimuli\R_Arm_X_Back.mp4,14,,,,,,,,,,,,,0,33,33,33,,,,,,,,,,,,,,,,,1129.1951204999932,1130.2697420999757,,,,,,,,,1133.9104359999765,1133.9104359999765,1133.9104359999765,1133.9104359999765,1133.9104359999765,1133.9104359999765,1133.9104359999765,1133.9104359999765,None,None,None,,,,,,,,,,,1113.5713312000153,1113.5713312000153,None,,,,,1130.2697420999757,1130.2697420999757,1130.2697420999757,n,2.279189500026405,1113.5713312000153,1113.5713312000153,1125.572526199976,1130.2697420999757,14,001,2024-07-09_16h10.21.482,robot_sternberg_sign,2022.2.5,60.01475164046647,
"['L_Base_X_For', 'R_Base_X_For', 'R_Torso_Z_Back', 'R_Torso_X_Back']",False,R_Head_Y_Back,4,robot,2,False,False,"['robot_stimuli\\L_Base_X_For.mp4', 'robot_stimuli\\R_Base_X_For.mp4', 'robot_stimuli\\R_Torso_Z_Back.mp4', 'robot_stimuli\\R_Torso_X_Back.mp4']",robot_stimuli\R_Head_Y_Back.mp4,14,,,,,,,,,,,,,0,34,34,34,,,,,,,,,,,,,,,,,1149.6315995000186,1150.7204308999935,,,,,,,,,1154.3613026000094,1154.3613026000094,1154.3613026000094,1154.3613026000094,1154.3613026000094,1154.3613026000094,1154.3613026000094,1154.3613026000094,None,None,None,,,,,,,,,,,1133.9104359999765,1133.9104359999765,None,,,,,1150.7204308999935,1150.7204308999935,1150.7204308999935,n,2.324864999973215,1133.9104359999765,1133.9104359999765,1145.9898834999767,1150.7204308999935,14,001,2024-07-09_16h10.21.482,robot_sternberg_sign,2022.2.5,60.01475164046647,
"['R_Arm_X_For', 'L_Arm_Y_Back', 'R_Base_X_For', 'R_Torso_X_For']",True,L_Arm_Y_Back,4,robot,2,False,False,"['robot_stimuli\\R_Arm_X_For.mp4', 'robot_stimuli\\L_Arm_Y_Back.mp4', 'robot_stimuli\\R_Base_X_For.mp4', 'robot_stimuli\\R_Torso_X_For.mp4']",robot_stimuli\L_Arm_Y_Back.mp4,14,,,,,,,,,,,,,0,35,35,35,,,,,,,,,,,,,,,,,1170.133737199998,1171.2227995999856,,,,,,,,,1174.8560322999838,1174.8560322999838,1174.8560322999838,1174.8560322999838,1174.8560322999838,1174.8560322999838,1174.8560322999838,1174.8560322999838,None,None,None,,,,,,,,,,,1154.3613026000094,1154.3613026000094,None,,,,,1171.2227995999856,1171.2227995999856,1171.2227995999856,n,1.567456700024195,1154.3613026000094,1154.3613026000094,1166.487276400032,1171.2227995999856,14,001,2024-07-09_16h10.21.482,robot_sternberg_sign,2022.2.5,60.01475164046647,
"['R_Arm_X_For', 'R_Torso_X_For', 'R_Base_X_For', 'L_Arm_Y_For']",True,R_Torso_X_For,4,robot,2,False,False,"['robot_stimuli\\R_Arm_X_For.mp4', 'robot_stimuli\\R_Torso_X_For.mp4', 'robot_stimuli\\R_Base_X_For.mp4', 'robot_stimuli\\L_Arm_Y_For.mp4']",robot_stimuli\R_Torso_X_For.mp4,14,,,,,,,,,,,,,0,36,36,36,,,,,,,,,,,,,,,,,1190.6684402999817,1191.7586496000295,,,,,,,,,1206.5449118000106,1206.5449118000106,1206.5449118000106,1206.5449118000106,1206.5449118000106,1206.5449118000106,1206.5449118000106,1206.5449118000106,None,None,None,,,,,,,,,,,1174.8560322999838,1174.8560322999838,None,,,,,1191.7586496000295,1191.7586496000295,1191.7586496000295,n,14.751323600008618,1174.8560322999838,1174.8560322999838,1187.0331680999952,1191.7586496000295,14,001,2024-07-09_16h10.21.482,robot_sternberg_sign,2022.2.5,60.01475164046647,
"['L_Arm_Z_For', 'L_Head_X_For', 'L_Head_Y_Back', 'R_Base_X_Back']",True,L_Arm_Z_For,4,robot,2,False,False,"['robot_stimuli\\L_Arm_Z_For.mp4', 'robot_stimuli\\L_Head_X_For.mp4', 'robot_stimuli\\L_Head_Y_Back.mp4', 'robot_stimuli\\R_Base_X_Back.mp4']",robot_stimuli\L_Arm_Z_For.mp4,14,,,,,,,,,,,,,0,37,37,37,,,,,,,,,,,,,,,,,1222.3470065000001,1207.6183613000321,,,,,,,,,1228.0803132000146,1228.0803132000146,1228.0803132000146,1228.0803132000146,1228.0803132000146,1228.0803132000146,1228.0803132000146,1228.0803132000146,None,None,None,,,,,,,,,,,1206.5449118000106,1206.5449118000106,None,,,,,1223.4397873000125,1223.4397873000125,1223.4397873000125,c,4.606473699968774,1206.5449118000106,1206.5449118000106,1218.716002799978,1223.4397873000125,14,001,2024-07-09_16h10.21.482,robot_sternberg_sign,2022.2.5,60.01475164046647,
"['R_Torso_Z_Back', 'R_Head_Y_Back', 'R_Base_Y_For', 'R_Arm_X_Back']",False,L_Head_Y_Back,4,robot,2,False,False,"['robot_stimuli\\R_Torso_Z_Back.mp4', 'robot_stimuli\\R_Head_Y_Back.mp4', 'robot_stimuli\\R_Base_Y_For.mp4', 'robot_stimuli\\R_Arm_X_Back.mp4']",robot_stimuli\L_Head_Y_Back.mp4,14,,,,,,,,,,,,,0,38,38,38,,,,,,,,,,,,,,,,,1243.9981977000134,,,,,,,,,,1248.727587500005,1248.727587500005,1248.727587500005,1248.727587500005,1248.727587500005,1248.727587500005,1248.727587500005,1248.727587500005,None,None,None,,,,,,,,,,,1228.0803132000146,1228.0803132000146,None,,,,,1245.0904938000022,1245.0904938000022,1245.0904938000022,n,2.667298300017137,1228.0803132000146,1228.0803132000146,1240.3580759000033,1245.0904938000022,14,001,2024-07-09_16h10.21.482,robot_sternberg_sign,2022.2.5,60.01475164046647,
"['L_Torso_X_Back', 'L_Head_Z_For', 'R_Base_X_Back', 'L_Torso_Z_Back']",True,L_Torso_X_Back,4,robot,2,False,True,"['robot_stimuli\\L_Torso_X_Back.mp4', 'robot_stimuli\\L_Head_Z_For.mp4', 'robot_stimuli\\R_Base_X_Back.mp4', 'robot_stimuli\\L_Torso_Z_Back.mp4']",robot_stimuli\L_Torso_X_Back.mp4,14,,,,,,,,,,,,,0,39,39,39,,,,,,,,,,,,,,,,,1264.4808850000263,1249.7994225000148,,,,,,,,,1269.578330599994,1275.5959226000123,1269.578330599994,1275.5959226000123,1269.578330599994,1275.5959226000123,1269.578330599994,1275.5959226000123,29.999999999999993,4.823841399978846,space,,,5.954678000009153,,,,,,,,1248.727587500005,1248.727587500005,None,,,,,1265.5735836999957,1265.5735836999957,1265.5735836999957,n,3.9360971999703906,1248.727587500005,1248.727587500005,1260.9735380000202,1265.5735836999957,14,001,2024-07-09_16h10.21.482,robot_sternberg_sign,2022.2.5,60.01475164046647,
"['L_Torso_X_Back', 'R_Base_Z_For']",False,R_Torso_X_For,2,robot,2,True,False,"['robot_stimuli\\L_Torso_X_Back.mp4', 'robot_stimuli\\R_Base_Z_For.mp4']",robot_stimuli\R_Torso_X_For.mp4,14,,,,,,,,,,,,,0,40,40,40,,,,,,,,,,,,,,,,,1294.8156928999815,1295.9076951000025,,,,,,,,,1299.5449565000017,1299.5449565000017,1299.5449565000017,1299.5449565000017,1299.5449565000017,1299.5449565000017,1299.5449565000017,1299.5449565000017,None,None,None,,,,,,,,,,,1275.5959226000123,1275.5959226000123,space,10.754593099991325,,,,1295.9076951000025,1295.9076951000025,1295.9076951000025,n,3.4578819000162184,,,1291.1771033999976,1295.9076951000025,14,001,2024-07-09_16h10.21.482,robot_sternberg_sign,2022.2.5,60.01475164046647,
"['L_Head_Y_For', 'L_Head_X_Back']",True,L_Head_X_Back,2,robot,2,False,False,"['robot_stimuli\\L_Head_Y_For.mp4', 'robot_stimuli\\L_Head_X_Back.mp4']",robot_stimuli\L_Head_X_Back.mp4,14,,,,,,,,,,,,,0,41,41,41,,,,,,,,,,,,,,,,,1307.9705215999857,1309.0597226999816,,,,,,,,,1314.204562400002,1314.204562400002,1314.204562400002,1314.204562400002,1314.204562400002,1314.204562400002,1314.204562400002,1314.204562400002,None,None,None,,,,,,,,,,,1299.5449565000017,1299.5449565000017,None,,,,,1309.0597226999816,1309.0597226999816,1309.0597226999816,c,5.115093000000343,1299.5449565000017,1299.5449565000017,1304.340759899991,1309.0597226999816,14,001,2024-07-09_16h10.21.482,robot_sternberg_sign,2022.2.5,60.01475164046647,
"['R_Base_Z_For', 'R_Base_X_For']",False,L_Base_Z_Back,2,robot,2,False,False,"['robot_stimuli\\R_Base_Z_For.mp4', 'robot_stimuli\\R_Base_X_For.mp4']",robot_stimuli\L_Base_Z_Back.mp4,14,,,,,,,,,,,,,0,42,42,42,,,,,,,,,,,,,,,,,1322.5519878999912,1323.641202699975,,,,,,,,,1327.2927566000144,1327.2927566000144,1327.2927566000144,1327.2927566000144,1327.2927566000144,1327.2927566000144,1327.2927566000144,1327.2927566000144,None,None,None,,,,,,,,,,,1314.204562400002,1314.204562400002,None,,,,,1323.641202699975,1323.641202699975,1323.641202699975,n,3.052107999974396,1314.204562400002,1314.204562400002,1319.0123410000233,1323.641202699975,14,001,2024-07-09_16h10.21.482,robot_sternberg_sign,2022.2.5,60.01475164046647,
"['L_Head_Z_For', 'R_Base_Z_For']",True,R_Base_Z_For,2,robot,2,False,False,"['robot_stimuli\\L_Head_Z_For.mp4', 'robot_stimuli\\R_Base_Z_For.mp4']",robot_stimuli\R_Base_Z_For.mp4,14,,,,,,,,,,,,,0,43,43,43,,,,,,,,,,,,,,,,,1335.7186362000066,1336.8086863000062,,,,,,,,,1345.7940390000003,1345.7940390000003,1345.7940390000003,1345.7940390000003,1345.7940390000003,1345.7940390000003,1345.7940390000003,1345.7940390000003,None,None,None,,,,,,,,,,,1327.2927566000144,1327.2927566000144,None,,,,,1336.8086863000062,1336.8086863000062,1336.8086863000062,n,8.948786999972071,1327.2927566000144,1327.2927566000144,1332.0863145000185,1336.8086863000062,14,001,2024-07-09_16h10.21.482,robot_sternberg_sign,2022.2.5,60.01475164046647,
"['L_Base_X_For', 'R_Head_Z_For']",True,L_Base_X_For,2,robot,2,False,False,"['robot_stimuli\\L_Base_X_For.mp4', 'robot_stimuli\\R_Head_Z_For.mp4']",robot_stimuli\L_Base_X_For.mp4,14,,,,,,,,,,,,,0,44,44,44,,,,,,,,,,,,,,,,,1354.1620122999884,1355.2415666999877,,,,,,,,,1358.8214052999974,1358.8214052999974,1358.8214052999974,1358.8214052999974,1358.8214052999974,1358.8214052999974,1358.8214052999974,1358.8214052999974,None,None,None,,,,,,,,,,,1345.7940390000003,1345.7940390000003,None,,,,,1355.2415666999877,1355.2415666999877,1355.2415666999877,c,2.8599174999981187,1345.7940390000003,1345.7940390000003,1350.542334400001,1355.2415666999877,14,001,2024-07-09_16h10.21.482,robot_sternberg_sign,2022.2.5,60.01475164046647,
"['R_Base_X_Back', 'R_Head_X_Back']",True,R_Base_X_Back,2,robot,2,False,False,"['robot_stimuli\\R_Base_X_Back.mp4', 'robot_stimuli\\R_Head_X_Back.mp4']",robot_stimuli\R_Base_X_Back.mp4,14,,,,,,,,,,,,,0,45,45,45,,,,,,,,,,,,,,,,,1367.2508174999966,1368.3398639999796,,,,,,,,,1371.981791600003,1371.981791600003,1371.981791600003,1371.981791600003,1371.981791600003,1371.981791600003,1371.981791600003,1371.981791600003,None,None,None,,,,,,,,,,,1358.8214052999974,1358.8214052999974,None,,,,,1368.3398639999796,1368.3398639999796,1368.3398639999796,n,3.1060165999806486,1358.8214052999974,1358.8214052999974,1363.6216721999808,1368.3398639999796,14,001,2024-07-09_16h10.21.482,robot_sternberg_sign,2022.2.5,60.01475164046647,
"['R_Torso_Y_Back', 'R_Base_X_For']",True,R_Base_X_For,2,robot,2,False,False,"['robot_stimuli\\R_Torso_Y_Back.mp4', 'robot_stimuli\\R_Base_X_For.mp4']",robot_stimuli\R_Base_X_For.mp4,14,,,,,,,,,,,,,0,46,46,46,,,,,,,,,,,,,,,,,1380.3314506000024,,,,,,,,,,1384.974965900008,1384.974965900008,1384.974965900008,1384.974965900008,1384.974965900008,1384.974965900008,1384.974965900008,1384.974965900008,None,None,None,,,,,,,,,,,1371.981791600003,1371.981791600003,None,,,,,1381.4238327000057,1381.4238327000057,1381.4238327000057,c,2.870022599992808,1371.981791600003,1371.981791600003,1376.792590899975,1381.4238327000057,14,001,2024-07-09_16h10.21.482,robot_sternberg_sign,2022.2.5,60.01475164046647,
"['R_Head_Z_Back', 'R_Base_Y_For']",False,R_Head_X_Back,2,robot,2,False,False,"['robot_stimuli\\R_Head_Z_Back.mp4', 'robot_stimuli\\R_Base_Y_For.mp4']",robot_stimuli\R_Head_X_Back.mp4,14,,,,,,,,,,,,,0,47,47,47,,,,,,,,,,,,,,,,,1393.415778100025,1394.5076498999842,,,,,,,,,1398.155292099982,1398.155292099982,1398.155292099982,1398.155292099982,1398.155292099982,1398.155292099982,1398.155292099982,1398.155292099982,None,None,None,,,,,,,,,,,1384.974965900008,1384.974965900008,None,,,,,1394.5076498999842,1394.5076498999842,1394.5076498999842,n,3.0190849999780767,1384.974965900008,1384.974965900008,1389.776049499982,1394.5076498999842,14,001,2024-07-09_16h10.21.482,robot_sternberg_sign,2022.2.5,60.01475164046647,
"['R_Head_Z_For', 'L_Torso_Y_For']",False,R_Head_X_For,2,robot,2,False,False,"['robot_stimuli\\R_Head_Z_For.mp4', 'robot_stimuli\\L_Torso_Y_For.mp4']",robot_stimuli\R_Head_X_For.mp4,14,,,,,,,,,,,,,0,48,48,48,,,,,,,,,,,,,,,,,1406.5787715999759,1407.6561704999767,,,,,,,,,1411.2848723999923,1411.2848723999923,1411.2848723999923,1411.2848723999923,1411.2848723999923,1411.2848723999923,1411.2848723999923,1411.2848723999923,None,None,None,,,,,,,,,,,1398.155292099982,1398.155292099982,None,,,,,1407.6561704999767,1407.6561704999767,1407.6561704999767,n,3.4538811999955215,1398.155292099982,1398.155292099982,1402.958570000017,1407.6561704999767,14,001,2024-07-09_16h10.21.482,robot_sternberg_sign,2022.2.5,60.01475164046647,
"['L_Arm_X_Back', 'L_Head_X_For']",False,R_Torso_Z_For,2,robot,2,False,True,"['robot_stimuli\\L_Arm_X_Back.mp4', 'robot_stimuli\\L_Head_X_For.mp4']",robot_stimuli\R_Torso_Z_For.mp4,14,,,,,,,,,,,,,0,49,49,49,,,,,,,,,,,,,,,,,1419.6529143999796,1420.7403369999956,,,,,,,,,1424.4222051000106,1431.9486609000014,1424.4222051000106,1431.9486609000014,1424.4222051000106,1431.9486609000014,1424.4222051000106,1431.9486609000014,20.740740740740733,6.823327999969479,space,,,7.463229299988598,,,,,,,,1411.2848723999923,1411.2848723999923,None,,,,,1420.7403369999956,1420.7403369999956,1420.7403369999956,n,2.66537259996403,1411.2848723999923,1411.2848723999923,1416.0900372000178,1420.7403369999956,14,001,2024-07-09_16h10.21.482,robot_sternberg_sign,2022.2.5,60.01475164046647,
"['L_Head_Z_For', 'R_Arm_X_Back', 'L_Base_Y_Back', 'L_Base_X_Back', 'L_Head_Y_Back', 'R_Base_Z_For']",False,L_Torso_X_For,6,robot,2,True,False,"['robot_stimuli\\L_Head_Z_For.mp4', 'robot_stimuli\\R_Arm_X_Back.mp4', 'robot_stimuli\\L_Base_Y_Back.mp4', 'robot_stimuli\\L_Base_X_Back.mp4', 'robot_stimuli\\L_Head_Y_Back.mp4', 'robot_stimuli\\R_Base_Z_For.mp4']",robot_stimuli\L_Torso_X_For.mp4,14,,,,,,,,,,,,,0,50,50,50,,,,,,,,,,,,,,,,,1457.9352844000096,1459.0234376000008,,,,,,,,,1462.9578705999884,1462.9578705999884,1462.9578705999884,1462.9578705999884,1462.9578705999884,1462.9578705999884,1462.9578705999884,1462.9578705999884,None,None,None,,,,,,,,,,,1431.9486609000014,1431.9486609000014,space,2.720958999998402,,,,1459.0234376000008,1459.0234376000008,1459.0234376000008,n,3.8943663999671116,,,1454.2993222000077,1459.0234376000008,14,001,2024-07-09_16h10.21.482,robot_sternberg_sign,2022.2.5,60.01475164046647,
"['R_Head_X_For', 'R_Torso_Z_For', 'L_Arm_X_Back', 'R_Head_Z_For', 'L_Base_Z_Back', 'R_Head_Y_For']",False,L_Torso_Y_Back,6,robot,2,False,False,"['robot_stimuli\\R_Head_X_For.mp4', 'robot_stimuli\\R_Torso_Z_For.mp4', 'robot_stimuli\\L_Arm_X_Back.mp4', 'robot_stimuli\\R_Head_Z_For.mp4', 'robot_stimuli\\L_Base_Z_Back.mp4', 'robot_stimuli\\R_Head_Y_For.mp4']",robot_stimuli\L_Torso_Y_Back.mp4,14,,,,,,,,,,,,,0,51,51,51,,,,,,,,,,,,,,,,,1486.3360991000081,1487.4248573000077,,,,,,,,,1492.7700664000004,1492.7700664000004,1492.7700664000004,1492.7700664000004,1492.7700664000004,1492.7700664000004,1492.7700664000004,1492.7700664000004,None,None,None,,,,,,,,,,,1462.9578705999884,1462.9578705999884,None,,,,,1487.4248573000077,1487.4248573000077,1487.4248573000077,n,5.3173386999988,1462.9578705999884,1462.9578705999884,1482.704978200025,1487.4248573000077,14,001,2024-07-09_16h10.21.482,robot_sternberg_sign,2022.2.5,60.01475164046647,
"['L_Torso_Y_Back', 'L_Arm_Y_Back', 'R_Torso_Y_For', 'L_Head_Z_Back', 'R_Head_Z_For', 'R_Arm_X_Back']",False,R_Torso_X_Back,6,robot,2,False,False,"['robot_stimuli\\L_Torso_Y_Back.mp4', 'robot_stimuli\\L_Arm_Y_Back.mp4', 'robot_stimuli\\R_Torso_Y_For.mp4', 'robot_stimuli\\L_Head_Z_Back.mp4', 'robot_stimuli\\R_Head_Z_For.mp4', 'robot_stimuli\\R_Arm_X_Back.mp4']",robot_stimuli\R_Torso_X_Back.mp4,14,,,,,,,,,,,,,0,52,52,52,,,,,,,,,,,,,,,,,1515.96494049998,1493.8491226999904,,,,,,,,,1520.7706935000024,1520.7706935000024,1520.7706935000024,1520.7706935000024,1520.7706935000024,1520.7706935000024,1520.7706935000024,1520.7706935000024,None,None,None,,,,,,,,,,,1492.7700664000004,1492.7700664000004,None,,,,,1517.056248400011,1517.056248400011,1517.056248400011,n,3.6784769000369124,1492.7700664000004,1492.7700664000004,1512.3268401999958,1517.056248400011,14,001,2024-07-09_16h10.21.482,robot_sternberg_sign,2022.2.5,60.01475164046647,
"['R_Base_Y_For', 'L_Head_Y_For', 'L_Arm_Z_Back', 'L_Base_X_Back', 'L_Base_Y_For', 'L_Arm_Z_For']",False,L_Torso_X_For,6,robot,2,False,False,"['robot_stimuli\\R_Base_Y_For.mp4', 'robot_stimuli\\L_Head_Y_For.mp4', 'robot_stimuli\\L_Arm_Z_Back.mp4', 'robot_stimuli\\L_Base_X_Back.mp4', 'robot_stimuli\\L_Base_Y_For.mp4', 'robot_stimuli\\L_Arm_Z_For.mp4']",robot_stimuli\L_Torso_X_For.mp4,14,,,,,,,,,,,,,0,53,53,53,,,,,,,,,,,,,,,,,1543.9361718000146,1545.0236681000097,,,,,,,,,1550.8220862000016,1550.8220862000016,1550.8220862000016,1550.8220862000016,1550.8220862000016,1550.8220862000016,1550.8220862000016,1550.8220862000016,None,None,None,,,,,,,,,,,1520.7706935000024,1520.7706935000024,None,,,,,1545.0236681000097,1545.0236681000097,1545.0236681000097,n,5.758455700008199,1520.7706935000024,1520.7706935000024,1540.305539700028,1545.0236681000097,14,001,2024-07-09_16h10.21.482,robot_sternberg_sign,2022.2.5,60.01475164046647,
"['L_Arm_Z_For', 'L_Torso_Z_Back', 'R_Torso_Z_Back', 'L_Base_Y_Back', 'R_Head_Z_Back', 'R_Head_X_Back']",True,R_Head_Z_Back,6,robot,2,False,False,"['robot_stimuli\\L_Arm_Z_For.mp4', 'robot_stimuli\\L_Torso_Z_Back.mp4', 'robot_stimuli\\R_Torso_Z_Back.mp4', 'robot_stimuli\\L_Base_Y_Back.mp4', 'robot_stimuli\\R_Head_Z_Back.mp4', 'robot_stimuli\\R_Head_X_Back.mp4']",robot_stimuli\R_Head_Z_Back.mp4,14,,,,,,,,,,,,,0,54,54,54,,,,,,,,,,,,,,,,,1573.952747000032,1575.040333300014,,,,,,,,,1578.679002400022,1578.679002400022,1578.679002400022,1578.679002400022,1578.679002400022,1578.679002400022,1578.679002400022,1578.679002400022,None,None,None,,,,,,,,,,,1550.8220862000016,1550.8220862000016,None,,,,,1575.040333300014,1575.040333300014,1575.040333300014,c,2.917523199983407,1550.8220862000016,1550.8220862000016,1570.323148800002,1575.040333300014,14,001,2024-07-09_16h10.21.482,robot_sternberg_sign,2022.2.5,60.01475164046647,
"['R_Arm_Z_For', 'R_Base_X_For', 'L_Head_X_Back', 'L_Arm_X_For', 'R_Base_Y_Back', 'L_Head_Z_For']",False,L_Base_X_Back,6,robot,2,False,False,"['robot_stimuli\\R_Arm_Z_For.mp4', 'robot_stimuli\\R_Base_X_For.mp4', 'robot_stimuli\\L_Head_X_Back.mp4', 'robot_stimuli\\L_Arm_X_For.mp4', 'robot_stimuli\\R_Base_Y_Back.mp4', 'robot_stimuli\\L_Head_Z_For.mp4']",robot_stimuli\L_Base_X_Back.mp4,14,,,,,,,,,,,,,0,55,55,55,,,,,,,,,,,,,,,,,1601.914090199978,1579.7537279999815,,,,,,,,,1606.824512000021,1606.824512000021,1606.824512000021,1606.824512000021,1606.824512000021,1606.824512000021,1606.824512000021,1606.824512000021,None,None,None,,,,,,,,,,,1578.679002400022,1578.679002400022,None,,,,,1603.007669500017,1603.007669500017,1603.007669500017,n,3.7812685999670066,1578.679002400022,1578.679002400022,1598.2740672000218,1603.007669500017,14,001,2024-07-09_16h10.21.482,robot_sternberg_sign,2022.2.5,60.01475164046647,
"['R_Torso_X_For', 'R_Base_Y_For', 'R_Arm_Y_For', 'R_Base_Y_Back', 'L_Base_Z_For', 'L_Base_Z_Back']",True,R_Arm_Y_For,6,robot,2,False,False,"['robot_stimuli\\R_Torso_X_For.mp4', 'robot_stimuli\\R_Base_Y_For.mp4', 'robot_stimuli\\R_Arm_Y_For.mp4', 'robot_stimuli\\R_Base_Y_Back.mp4', 'robot_stimuli\\L_Base_Z_For.mp4', 'robot_stimuli\\L_Base_Z_Back.mp4']",robot_stimuli\R_Arm_Y_For.mp4,14,,,,,,,,,,,,,0,56,56,56,,,,,,,,,,,,,,,,,1630.0169604999828,1631.111545599997,,,,,,,,,1634.9544460999896,1634.9544460999896,1634.9544460999896,1634.9544460999896,1634.9544460999896,1634.9544460999896,1634.9544460999896,1634.9544460999896,None,None,None,,,,,,,,,,,1606.824512000021,1606.824512000021,None,,,,,1631.111545599997,1631.111545599997,1631.111545599997,c,3.815071099961642,1606.824512000021,1606.824512000021,1626.386817199993,1631.111545599997,14,001,2024-07-09_16h10.21.482,robot_sternberg_sign,2022.2.5,60.01475164046647,
"['R_Head_X_Back', 'L_Arm_Y_For', 'L_Head_X_Back', 'R_Head_Y_For', 'L_Base_X_Back', 'R_Base_Z_Back']",True,L_Head_X_Back,6,robot,2,False,False,"['robot_stimuli\\R_Head_X_Back.mp4', 'robot_stimuli\\L_Arm_Y_For.mp4', 'robot_stimuli\\L_Head_X_Back.mp4', 'robot_stimuli\\R_Head_Y_For.mp4', 'robot_stimuli\\L_Base_X_Back.mp4', 'robot_stimuli\\R_Base_Z_Back.mp4']",robot_stimuli\L_Head_X_Back.mp4,14,,,,,,,,,,,,,0,57,57,57,,,,,,,,,,,,,,,,,1658.1526227000286,1659.239519900002,,,,,,,,,1664.1425027999794,1664.1425027999794,1664.1425027999794,1664.1425027999794,1664.1425027999794,1664.1425027999794,1664.1425027999794,1664.1425027999794,None,None,None,,,,,,,,,,,1634.9544460999896,1634.9544460999896,None,,,,,1659.239519900002,1659.239519900002,1659.239519900002,n,4.8710619999910705,1634.9544460999896,1634.9544460999896,1654.616391299991,1659.239519900002,14,001,2024-07-09_16h10.21.482,robot_sternberg_sign,2022.2.5,60.01475164046647,
"['R_Torso_X_For', 'R_Torso_Y_Back', 'R_Base_Z_Back', 'R_Base_Y_Back', 'L_Torso_Z_For', 'R_Arm_Z_For']",True,R_Arm_Z_For,6,robot,2,False,False,"['robot_stimuli\\R_Torso_X_For.mp4', 'robot_stimuli\\R_Torso_Y_Back.mp4', 'robot_stimuli\\R_Base_Z_Back.mp4', 'robot_stimuli\\R_Base_Y_Back.mp4', 'robot_stimuli\\L_Torso_Z_For.mp4', 'robot_stimuli\\R_Arm_Z_For.mp4']",robot_stimuli\R_Arm_Z_For.mp4,14,,,,,,,,,,,,,0,58,58,58,,,,,,,,,,,,,,,,,1687.4248071999755,1688.5180496000103,,,,,,,,,1692.1606392000103,1692.1606392000103,1692.1606392000103,1692.1606392000103,1692.1606392000103,1692.1606392000103,1692.1606392000103,1692.1606392000103,None,None,None,,,,,,,,,,,1664.1425027999794,1664.1425027999794,None,,,,,1688.5180496000103,1688.5180496000103,1688.5180496000103,c,3.040288199961651,1664.1425027999794,1664.1425027999794,1683.7897953999927,1688.5180496000103,14,001,2024-07-09_16h10.21.482,robot_sternberg_sign,2022.2.5,60.01475164046647,
"['R_Torso_X_For', 'L_Torso_Z_Back', 'L_Torso_X_Back', 'R_Base_Y_For', 'R_Arm_Z_Back', 'L_Arm_Z_Back']",True,L_Torso_X_Back,6,robot,2,False,True,"['robot_stimuli\\R_Torso_X_For.mp4', 'robot_stimuli\\L_Torso_Z_Back.mp4', 'robot_stimuli\\L_Torso_X_Back.mp4', 'robot_stimuli\\R_Base_Y_For.mp4', 'robot_stimuli\\R_Arm_Z_Back.mp4', 'robot_stimuli\\L_Arm_Z_Back.mp4']",robot_stimuli\L_Torso_X_Back.mp4,14,,,,,,,,,,,,,0,59,59,59,,,,,,,,,,,,,,,,,1715.3686793000088,1716.4653964000172,,,,,,,,,1720.1371936000069,1727.244253700017,1720.1371936000069,1727.244253700017,1720.1371936000069,1727.244253700017,1720.1371936000069,1727.244253700017,34.629629629629626,5.957733399991412,space,,,7.044002200011164,,,,,,,,1692.1606392000103,1692.1606392000103,None,,,,,1716.4653964000172,1716.4653964000172,1716.4653964000172,c,3.5805523000308312,1692.1606392000103,1692.1606392000103,1711.7335354000097,1716.4653964000172,14,001,2024-07-09_16h10.21.482,robot_sternberg_sign,2022.2.5,60.01475164046647,
"['K', 'B', 'D', 'V', 'N', 'M']",True,M,6,letter,3,True,False,"['robot_stimuli\\\\filler.mp4', 'robot_stimuli\\\\filler.mp4', 'robot_stimuli\\\\filler.mp4', 'robot_stimuli\\\\filler.mp4', 'robot_stimuli\\\\filler.mp4', 'robot_stimuli\\\\filler.mp4']",robot_stimuli\\filler.mp4,14,,,,,,,,,,,,,0,60,60,60,,,,,,,,,,,,,,,,,1744.025055199978,1745.0827504000044,,,,,,,,,1746.909689799999,1746.909689799999,1746.909689799999,1746.909689799999,1746.909689799999,1746.909689799999,1746.909689799999,1746.909689799999,None,None,None,,,,,,,,,,,1727.244253700017,1727.244253700017,space,3.066649399988819,1742.00254950003,1744.025055199978,1745.0827504000044,1745.0827504000044,1745.0827504000044,1745.0827504000044,c,1.6197426000144333,,,,,14,001,2024-07-09_16h10.21.482,robot_sternberg_sign,2022.2.5,60.01475164046647,
"['P', 'N', 'Q', 'S', 'J', 'V']",False,K,6,letter,3,False,False,"['robot_stimuli\\\\filler.mp4', 'robot_stimuli\\\\filler.mp4', 'robot_stimuli\\\\filler.mp4', 'robot_stimuli\\\\filler.mp4', 'robot_stimuli\\\\filler.mp4', 'robot_stimuli\\\\filler.mp4']",robot_stimuli\\filler.mp4,14,,,,,,,,,,,,,0,61,61,61,,,,,,,,,,,,,,,,,1760.626699400018,1761.6868789999862,,,,,,,,,1763.5109365999815,1763.5109365999815,1763.5109365999815,1763.5109365999815,1763.5109365999815,1763.5109365999815,1763.5109365999815,1763.5109365999815,None,None,None,,,,,,,,,,,1746.909689799999,1746.909689799999,None,,1758.6045175000327,1760.626699400018,1761.6868789999862,1761.6868789999862,1761.6868789999862,1761.6868789999862,n,1.6234695999883115,1746.909689799999,1746.909689799999,,,14,001,2024-07-09_16h10.21.482,robot_sternberg_sign,2022.2.5,60.01475164046647,
"['P', 'H', 'G', 'F', 'Q', 'S']",False,W,6,letter,3,False,False,"['robot_stimuli\\\\filler.mp4', 'robot_stimuli\\\\filler.mp4', 'robot_stimuli\\\\filler.mp4', 'robot_stimuli\\\\filler.mp4', 'robot_stimuli\\\\filler.mp4', 'robot_stimuli\\\\filler.mp4']",robot_stimuli\\filler.mp4,14,,,,,,,,,,,,,0,62,62,62,,,,,,,,,,,,,,,,,1777.405094799993,1778.4670576999779,,,,,,,,,1780.098202800029,1780.098202800029,1780.098202800029,1780.098202800029,1780.098202800029,1780.098202800029,1780.098202800029,1780.098202800029,None,None,None,,,,,,,,,,,1763.5109365999815,1763.5109365999815,None,,1775.3892590000178,1777.405094799993,1778.4670576999779,1778.4670576999779,1778.4670576999779,1778.4670576999779,n,1.4839745999779552,1763.5109365999815,1763.5109365999815,,,14,001,2024-07-09_16h10.21.482,robot_sternberg_sign,2022.2.5,60.01475164046647,
"['F', 'J', 'M', 'V', 'D', 'Z']",True,M,6,letter,3,False,False,"['robot_stimuli\\\\filler.mp4', 'robot_stimuli\\\\filler.mp4', 'robot_stimuli\\\\filler.mp4', 'robot_stimuli\\\\filler.mp4', 'robot_stimuli\\\\filler.mp4', 'robot_stimuli\\\\filler.mp4']",robot_stimuli\\filler.mp4,14,,,,,,,,,,,,,0,63,63,63,,,,,,,,,,,,,,,,,1794.2065851999796,1795.267147000006,,,,,,,,,1797.4926735999761,1797.4926735999761,1797.4926735999761,1797.4926735999761,1797.4926735999761,1797.4926735999761,1797.4926735999761,1797.4926735999761,None,None,None,,,,,,,,,,,1780.098202800029,1780.098202800029,None,,1792.184233499982,1794.2065851999796,1795.267147000006,1795.267147000006,1795.267147000006,1795.267147000006,n,2.0180177000002004,1780.098202800029,1780.098202800029,,,14,001,2024-07-09_16h10.21.482,robot_sternberg_sign,2022.2.5,60.01475164046647,
"['C', 'S', 'X', 'G', 'D', 'J']",False,K,6,letter,3,False,False,"['robot_stimuli\\\\filler.mp4', 'robot_stimuli\\\\filler.mp4', 'robot_stimuli\\\\filler.mp4', 'robot_stimuli\\\\filler.mp4', 'robot_stimuli\\\\filler.mp4', 'robot_stimuli\\\\filler.mp4']",robot_stimuli\\filler.mp4,14,,,,,,,,,,,,,0,64,64,64,,,,,,,,,,,,,,,,,1812.0028063000063,1813.0671062999754,,,,,,,,,1815.095832400024,1815.095832400024,1815.095832400024,1815.095832400024,1815.095832400024,1815.095832400024,1815.095832400024,1815.095832400024,None,None,None,,,,,,,,,,,1797.4926735999761,1797.4926735999761,None,,1809.786885300011,1812.0028063000063,1813.0671062999754,1813.0671062999754,1813.0671062999754,1813.0671062999754,n,1.9143089999561198,1797.4926735999761,1797.4926735999761,,,14,001,2024-07-09_16h10.21.482,robot_sternberg_sign,2022.2.5,60.01475164046647,
"['C', 'S', 'L', 'P', 'X', 'M']",False,Z,6,letter,3,False,False,"['robot_stimuli\\\\filler.mp4', 'robot_stimuli\\\\filler.mp4', 'robot_stimuli\\\\filler.mp4', 'robot_stimuli\\\\filler.mp4', 'robot_stimuli\\\\filler.mp4', 'robot_stimuli\\\\filler.mp4']",robot_stimuli\\filler.mp4,14,,,,,,,,,,,,,0,65,65,65,,,,,,,,,,,,,,,,,1829.2115569000016,1830.2670510000316,,,,,,,,,1831.6899766999995,1831.6899766999995,1831.6899766999995,1831.6899766999995,1831.6899766999995,1831.6899766999995,1831.6899766999995,1831.6899766999995,None,None,None,,,,,,,,,,,1815.095832400024,1815.095832400024,None,,1827.0022574000177,1829.2115569000016,1830.2670510000316,1830.2670510000316,1830.2670510000316,1830.2670510000316,n,1.3381818999769166,1815.095832400024,1815.095832400024,,,14,001,2024-07-09_16h10.21.482,robot_sternberg_sign,2022.2.5,60.01475164046647,
"['Z', 'N', 'M', 'B', 'K', 'R']",True,N,6,letter,3,False,False,"['robot_stimuli\\\\filler.mp4', 'robot_stimuli\\\\filler.mp4', 'robot_stimuli\\\\filler.mp4', 'robot_stimuli\\\\filler.mp4', 'robot_stimuli\\\\filler.mp4', 'robot_stimuli\\\\filler.mp4']",robot_stimuli\\filler.mp4,14,,,,,,,,,,,,,0,66,66,66,,,,,,,,,,,,,,,,,1846.1882883000071,1847.2520835999749,,,,,,,,,1851.4882737000007,1851.4882737000007,1851.4882737000007,1851.4882737000007,1851.4882737000007,1851.4882737000007,1851.4882737000007,1851.4882737000007,None,None,None,,,,,,,,,,,1831.6899766999995,1831.6899766999995,None,,1844.1748093999922,1846.1882883000071,1847.2520835999749,1847.2520835999749,1847.2520835999749,1847.2520835999749,c,4.154632099962328,1831.6899766999995,1831.6899766999995,,,14,001,2024-07-09_16h10.21.482,robot_sternberg_sign,2022.2.5,60.01475164046647,
"['J', 'C', 'B', 'H', 'R', 'S']",False,N,6,letter,3,False,False,"['robot_stimuli\\\\filler.mp4', 'robot_stimuli\\\\filler.mp4', 'robot_stimuli\\\\filler.mp4', 'robot_stimuli\\\\filler.mp4', 'robot_stimuli\\\\filler.mp4', 'robot_stimuli\\\\filler.mp4']",robot_stimuli\\filler.mp4,14,,,,,,,,,,,,,0,67,67,67,,,,,,,,,,,,,,,,,1865.6035448000184,1866.6661769999773,,,,,,,,,1868.2925992999808,1868.2925992999808,1868.2925992999808,1868.2925992999808,1868.2925992999808,1868.2925992999808,1868.2925992999808,1868.2925992999808,None,None,None,,,,,,,,,,,1851.4882737000007,1851.4882737000007,None,,1863.594730700017,1865.6035448000184,1866.6661769999773,1866.6661769999773,1866.6661769999773,1866.6661769999773,n,1.532050799985882,1851.4882737000007,1851.4882737000007,,,14,001,2024-07-09_16h10.21.482,robot_sternberg_sign,2022.2.5,60.01475164046647,
"['J', 'S', 'H', 'W', 'K', 'N']",True,K,6,letter,3,False,False,"['robot_stimuli\\\\filler.mp4', 'robot_stimuli\\\\filler.mp4', 'robot_stimuli\\\\filler.mp4', 'robot_stimuli\\\\filler.mp4', 'robot_stimuli\\\\filler.mp4', 'robot_stimuli\\\\filler.mp4']",robot_stimuli\\filler.mp4,14,,,,,,,,,,,,,0,68,68,68,,,,,,,,,,,,,,,,,1882.3978094999911,1869.3489170999965,,,,,,,,,1886.2962468999904,1886.2962468999904,1886.2962468999904,1886.2962468999904,1886.2962468999904,1886.2962468999904,1886.2962468999904,1886.2962468999904,None,None,None,,,,,,,,,,,1868.2925992999808,1868.2925992999808,None,,1880.3751470000134,1882.3978094999911,1883.4667321000015,1883.4667321000015,1883.4667321000015,1883.4667321000015,c,2.6439478000393137,1868.2925992999808,1868.2925992999808,,,14,001,2024-07-09_16h10.21.482,robot_sternberg_sign,2022.2.5,60.01475164046647,
"['L', 'N', 'G', 'T', 'F', 'J']",True,N,6,letter,3,False,True,"['robot_stimuli\\\\filler.mp4', 'robot_stimuli\\\\filler.mp4', 'robot_stimuli\\\\filler.mp4', 'robot_stimuli\\\\filler.mp4', 'robot_stimuli\\\\filler.mp4', 'robot_stimuli\\\\filler.mp4']",robot_stimuli\\filler.mp4,14,,,,,,,,,,,,,0,69,69,69,,,,,,,,,,,,,,,,,1899.9973781000008,1887.3506206999882,,,,,,,,,1902.9316262999782,1907.3385020000278,1902.9316262999782,1907.3385020000278,1902.9316262999782,1907.3385020000278,1902.9316262999782,1907.3385020000278,17.03703703703703,3.2850613999762572,space,,,4.363233099982608,,,,,,,,1886.2962468999904,1886.2962468999904,None,,1897.980986999988,1899.9973781000008,1901.0680540000321,1901.0680540000321,1901.0680540000321,1901.0680540000321,c,1.586564700002782,1886.2962468999904,1886.2962468999904,,,14,001,2024-07-09_16h10.21.482,robot_sternberg_sign,2022.2.5,60.01475164046647,
"['K', 'B']",False,H,2,letter,3,True,False,"['robot_stimuli\\\\filler.mp4', 'robot_stimuli\\\\filler.mp4']",robot_stimuli\\filler.mp4,14,,,,,,,,,,,,,0,70,70,70,,,,,,,,,,,,,,,,,1915.2786671000067,1916.3365176999941,,,,,,,,,1917.560789900017,1917.560789900017,1917.560789900017,1917.560789900017,1917.560789900017,1917.560789900017,1917.560789900017,1917.560789900017,None,None,None,,,,,,,,,,,1907.3385020000278,1907.3385020000278,space,2.7483778999885544,1913.2557456999784,1915.2786671000067,1916.3365176999941,1916.3365176999941,1916.3365176999941,1916.3365176999941,n,1.149806900008116,,,,,14,001,2024-07-09_16h10.21.482,robot_sternberg_sign,2022.2.5,60.01475164046647,
"['C', 'S']",True,C,2,letter,3,False,False,"['robot_stimuli\\\\filler.mp4', 'robot_stimuli\\\\filler.mp4']",robot_stimuli\\filler.mp4,14,,,,,,,,,,,,,0,71,71,71,,,,,,,,,,,,,,,,,1923.117577500001,1924.1855310000246,,,,,,,,,1925.6059110999922,1925.6059110999922,1925.6059110999922,1925.6059110999922,1925.6059110999922,1925.6059110999922,1925.6059110999922,1925.6059110999922,None,None,None,,,,,,,,,,,1917.560789900017,1917.560789900017,None,,1920.9001052000094,1923.117577500001,1924.1855310000246,1924.1855310000246,1924.1855310000246,1924.1855310000246,c,1.1957581999595277,1917.560789900017,1917.560789900017,,,14,001,2024-07-09_16h10.21.482,robot_sternberg_sign,2022.2.5,60.01475164046647,
"['C', 'H']",False,T,2,letter,3,False,False,"['robot_stimuli\\\\filler.mp4', 'robot_stimuli\\\\filler.mp4']",robot_stimuli\\filler.mp4,14,,,,,,,,,,,,,0,72,72,72,,,,,,,,,,,,,,,,,1930.7700560999801,1931.835048399982,,,,,,,,,1933.8589217999834,1933.8589217999834,1933.8589217999834,1933.8589217999834,1933.8589217999834,1933.8589217999834,1933.8589217999834,1933.8589217999834,None,None,None,,,,,,,,,,,1925.6059110999922,1925.6059110999922,None,,1928.7535321000032,1930.7700560999801,1931.835048399982,1931.835048399982,1931.835048399982,1931.835048399982,n,1.8591852000099607,1925.6059110999922,1925.6059110999922,,,14,001,2024-07-09_16h10.21.482,robot_sternberg_sign,2022.2.5,60.01475164046647,
"['G', 'T']",False,M,2,letter,3,False,False,"['robot_stimuli\\\\filler.mp4', 'robot_stimuli\\\\filler.mp4']",robot_stimuli\\filler.mp4,14,,,,,,,,,,,,,0,73,73,73,,,,,,,,,,,,,,,,,1939.228962299996,1940.2847970000003,,,,,,,,,1941.9096868999768,1941.9096868999768,1941.9096868999768,1941.9096868999768,1941.9096868999768,1941.9096868999768,1941.9096868999768,1941.9096868999768,None,None,None,,,,,,,,,,,1933.8589217999834,1933.8589217999834,None,,1937.213374199986,1939.228962299996,1940.2847970000003,1940.2847970000003,1940.2847970000003,1940.2847970000003,n,1.544407500012312,1933.8589217999834,1933.8589217999834,,,14,001,2024-07-09_16h10.21.482,robot_sternberg_sign,2022.2.5,60.01475164046647,
"['K', 'H']",True,H,2,letter,3,False,False,"['robot_stimuli\\\\filler.mp4', 'robot_stimuli\\\\filler.mp4']",robot_stimuli\\filler.mp4,14,,,,,,,,,,,,,0,74,74,74,,,,,,,,,,,,,,,,,1947.2712032999843,1948.3333304999978,,,,,,,,,1950.763015799981,1950.763015799981,1950.763015799981,1950.763015799981,1950.763015799981,1950.763015799981,1950.763015799981,1950.763015799981,None,None,None,,,,,,,,,,,1941.9096868999768,1941.9096868999768,None,,1945.252767099999,1947.2712032999843,1948.3333304999978,1948.3333304999978,1948.3333304999978,1948.3333304999978,c,2.3694819000083953,1941.9096868999768,1941.9096868999768,,,14,001,2024-07-09_16h10.21.482,robot_sternberg_sign,2022.2.5,60.01475164046647,
"['T', 'B']",True,B,2,letter,3,False,False,"['robot_stimuli\\\\filler.mp4', 'robot_stimuli\\\\filler.mp4']",robot_stimuli\\filler.mp4,14,,,,,,,,,,,,,0,75,75,75,,,,,,,,,,,,,,,,,1956.3268263000064,1957.386840399995,,,,,,,,,1959.2199453000212,1959.2199453000212,1959.2199453000212,1959.2199453000212,1959.2199453000212,1959.2199453000212,1959.2199453000212,1959.2199453000212,None,None,None,,,,,,,,,,,1950.763015799981,1950.763015799981,None,,1954.116534300032,1956.3268263000064,1957.386840399995,1957.386840399995,1957.386840399995,1957.386840399995,c,1.7628933999803849,1950.763015799981,1950.763015799981,,,14,001,2024-07-09_16h10.21.482,robot_sternberg_sign,2022.2.5,60.01475164046647,
"['Q', 'W']",False,G,2,letter,3,False,False,"['robot_stimuli\\\\filler.mp4', 'robot_stimuli\\\\filler.mp4']",robot_stimuli\\filler.mp4,14,,,,,,,,,,,,,0,76,76,76,,,,,,,,,,,,,,,,,1964.6039695999934,1965.6674957000068,,,,,,,,,1967.2899938999908,1967.2899938999908,1967.2899938999908,1967.2899938999908,1967.2899938999908,1967.2899938999908,1967.2899938999908,1967.2899938999908,None,None,None,,,,,,,,,,,1959.2199453000212,1959.2199453000212,None,,1962.388530199998,1964.6039695999934,1965.6674957000068,1965.6674957000068,1965.6674957000068,1965.6674957000068,n,1.4266274000401609,1959.2199453000212,1959.2199453000212,,,14,001,2024-07-09_16h10.21.482,robot_sternberg_sign,2022.2.5,60.01475164046647,
"['S', 'H']",True,H,2,letter,3,False,False,"['robot_stimuli\\\\filler.mp4', 'robot_stimuli\\\\filler.mp4']",robot_stimuli\\filler.mp4,14,,,,,,,,,,,,,0,77,77,77,,,,,,,,,,,,,,,,,1972.6596957999864,1973.717222200008,,,,,,,,,1975.1390215000138,1975.1390215000138,1975.1390215000138,1975.1390215000138,1975.1390215000138,1975.1390215000138,1975.1390215000138,1975.1390215000138,None,None,None,,,,,,,,,,,1967.2899938999908,1967.2899938999908,None,,1970.642985399987,1972.6596957999864,1973.717222200008,1973.717222200008,1973.717222200008,1973.717222200008,c,1.3696673999656923,1967.2899938999908,1967.2899938999908,,,14,001,2024-07-09_16h10.21.482,robot_sternberg_sign,2022.2.5,60.01475164046647,
"['T', 'K']",False,H,2,letter,3,False,False,"['robot_stimuli\\\\filler.mp4', 'robot_stimuli\\\\filler.mp4']",robot_stimuli\\filler.mp4,14,,,,,,,,,,,,,0,78,78,78,,,,,,,,,,,,,,,,,1980.7127254999941,1981.7646650000243,,,,,,,,,1983.3941140000243,1983.3941140000243,1983.3941140000243,1983.3941140000243,1983.3941140000243,1983.3941140000243,1983.3941140000243,1983.3941140000243,None,None,None,,,,,,,,,,,1975.1390215000138,1975.1390215000138,None,,1978.5008791,1980.7127254999941,1981.7646650000243,1981.7646650000243,1981.7646650000243,1981.7646650000243,n,1.4645494999713264,1975.1390215000138,1975.1390215000138,,,14,001,2024-07-09_16h10.21.482,robot_sternberg_sign,2022.2.5,60.01475164046647,
"['G', 'W']",True,G,2,letter,3,False,True,"['robot_stimuli\\\\filler.mp4', 'robot_stimuli\\\\filler.mp4']",robot_stimuli\\filler.mp4,14,,,,,,,,,,,,,0,79,79,79,,,,,,,,,,,,,,,,,1988.5622907999787,1989.6167849000194,,,,,,,,,1993.4798150000279,2002.6350049999892,1993.4798150000279,2002.6350049999892,1993.4798150000279,2002.6350049999892,1993.4798150000279,2002.6350049999892,6.388888888888886,6.9272576999501325,space,,,9.102380900003482,,,,,,,,1983.3941140000243,1983.3941140000243,None,,1986.5472016999847,1988.5622907999787,1989.6167849000194,1989.6167849000194,1989.6167849000194,1989.6167849000194,c,3.669726200052537,1983.3941140000243,1983.3941140000243,,,14,001,2024-07-09_16h10.21.482,robot_sternberg_sign,2022.2.5,60.01475164046647,
"['R', 'M', 'V', 'B']",True,V,4,letter,3,True,False,"['robot_stimuli\\\\filler.mp4', 'robot_stimuli\\\\filler.mp4', 'robot_stimuli\\\\filler.mp4', 'robot_stimuli\\\\filler.mp4']",robot_stimuli\\filler.mp4,14,,,,,,,,,,,,,0,80,80,80,,,,,,,,,,,,,,,,,2013.7260247999802,2014.7857742999913,,,,,,,,,2016.2123554000282,2016.2123554000282,2016.2123554000282,2016.2123554000282,2016.2123554000282,2016.2123554000282,2016.2123554000282,2016.2123554000282,None,None,None,,,,,,,,,,,2002.6350049999892,2002.6350049999892,space,1.5381299000000581,2011.7071274999762,2013.7260247999802,2014.7857742999913,2014.7857742999913,2014.7857742999913,2014.7857742999913,c,1.2367728000390343,,,,,14,001,2024-07-09_16h10.21.482,robot_sternberg_sign,2022.2.5,60.01475164046647,
"['L', 'T', 'Q', 'W']",True,Q,4,letter,3,False,False,"['robot_stimuli\\\\filler.mp4', 'robot_stimuli\\\\filler.mp4', 'robot_stimuli\\\\filler.mp4', 'robot_stimuli\\\\filler.mp4']",robot_stimuli\\filler.mp4,14,,,,,,,,,,,,,0,81,81,81,,,,,,,,,,,,,,,,,2025.9420324999955,2027.0016991000157,,,,,,,,,2028.428110399982,2028.428110399982,2028.428110399982,2028.428110399982,2028.428110399982,2028.428110399982,2028.428110399982,2028.428110399982,None,None,None,,,,,,,,,,,2016.2123554000282,2016.2123554000282,None,,2023.733144800004,2025.9420324999955,2027.0016991000157,2027.0016991000157,2027.0016991000157,2027.0016991000157,c,1.1797785999951884,2016.2123554000282,2016.2123554000282,,,14,001,2024-07-09_16h10.21.482,robot_sternberg_sign,2022.2.5,60.01475164046647,
"['L', 'X', 'H', 'D']",True,H,4,letter,3,False,False,"['robot_stimuli\\\\filler.mp4', 'robot_stimuli\\\\filler.mp4', 'robot_stimuli\\\\filler.mp4', 'robot_stimuli\\\\filler.mp4']",robot_stimuli\\filler.mp4,14,,,,,,,,,,,,,0,82,82,82,,,,,,,,,,,,,,,,,2037.956215400016,2039.0166605000268,,,,,,,,,2040.8429351000232,2040.8429351000232,2040.8429351000232,2040.8429351000232,2040.8429351000232,2040.8429351000232,2040.8429351000232,2040.8429351000232,None,None,None,,,,,,,,,,,2028.428110399982,2028.428110399982,None,,2035.9385685999878,2037.956215400016,2039.0166605000268,2039.0166605000268,2039.0166605000268,2039.0166605000268,c,1.62188440002501,2028.428110399982,2028.428110399982,,,14,001,2024-07-09_16h10.21.482,robot_sternberg_sign,2022.2.5,60.01475164046647,
"['R', 'Z', 'J', 'V']",False,L,4,letter,3,False,False,"['robot_stimuli\\\\filler.mp4', 'robot_stimuli\\\\filler.mp4', 'robot_stimuli\\\\filler.mp4', 'robot_stimuli\\\\filler.mp4']",robot_stimuli\\filler.mp4,14,,,,,,,,,,,,,0,83,83,83,,,,,,,,,,,,,,,,,2050.382748199976,2041.8999883999932,,,,,,,,,2054.0835233000107,2054.0835233000107,2054.0835233000107,2054.0835233000107,2054.0835233000107,2054.0835233000107,2054.0835233000107,2054.0835233000107,None,None,None,,,,,,,,,,,2040.8429351000232,2040.8429351000232,None,,2048.3612138000317,2050.382748199976,2051.451944999979,2051.451944999979,2051.451944999979,2051.451944999979,c,2.4269881999935023,2040.8429351000232,2040.8429351000232,,,14,001,2024-07-09_16h10.21.482,robot_sternberg_sign,2022.2.5,60.01475164046647,
"['M', 'Z', 'J', 'X']",False,S,4,letter,3,False,False,"['robot_stimuli\\\\filler.mp4', 'robot_stimuli\\\\filler.mp4', 'robot_stimuli\\\\filler.mp4', 'robot_stimuli\\\\filler.mp4']",robot_stimuli\\filler.mp4,14,,,,,,,,,,,,,0,84,84,84,,,,,,,,,,,,,,,,,2064.009180699999,2065.067307499994,,,,,,,,,2067.0985287000076,2067.0985287000076,2067.0985287000076,2067.0985287000076,2067.0985287000076,2067.0985287000076,2067.0985287000076,2067.0985287000076,None,None,None,,,,,,,,,,,2054.0835233000107,2054.0835233000107,None,,2061.9962248000083,2064.009180699999,2065.067307499994,2065.067307499994,2065.067307499994,2065.067307499994,n,1.8345758999930695,2054.0835233000107,2054.0835233000107,,,14,001,2024-07-09_16h10.21.482,robot_sternberg_sign,2022.2.5,60.01475164046647,
"['S', 'Z', 'P', 'J']",False,F,4,letter,3,False,False,"['robot_stimuli\\\\filler.mp4', 'robot_stimuli\\\\filler.mp4', 'robot_stimuli\\\\filler.mp4', 'robot_stimuli\\\\filler.mp4']",robot_stimuli\\filler.mp4,14,,,,,,,,,,,,,0,85,85,85,,,,,,,,,,,,,,,,,2076.840904599987,2077.905750099977,,,,,,,,,2079.334013500018,2079.334013500018,2079.334013500018,2079.334013500018,2079.334013500018,2079.334013500018,2079.334013500018,2079.334013500018,None,None,None,,,,,,,,,,,2067.0985287000076,2067.0985287000076,None,,2074.826236199995,2076.840904599987,2077.905750099977,2077.905750099977,2077.905750099977,2077.905750099977,n,1.3245191000169143,2067.0985287000076,2067.0985287000076,,,14,001,2024-07-09_16h10.21.482,robot_sternberg_sign,2022.2.5,60.01475164046647,
"['D', 'S', 'J', 'L']",False,F,4,letter,3,False,False,"['robot_stimuli\\\\filler.mp4', 'robot_stimuli\\\\filler.mp4', 'robot_stimuli\\\\filler.mp4', 'robot_stimuli\\\\filler.mp4']",robot_stimuli\\filler.mp4,14,,,,,,,,,,,,,0,86,86,86,,,,,,,,,,,,,,,,,2089.0763019000296,2090.13413999998,,,,,,,,,2092.363033899979,2092.363033899979,2092.363033899979,2092.363033899979,2092.363033899979,2092.363033899979,2092.363033899979,2092.363033899979,None,None,None,,,,,,,,,,,2079.334013500018,2079.334013500018,None,,2087.0613315000082,2089.0763019000296,2090.13413999998,2090.13413999998,2090.13413999998,2090.13413999998,n,2.0471464000293054,2079.334013500018,2079.334013500018,,,14,001,2024-07-09_16h10.21.482,robot_sternberg_sign,2022.2.5,60.01475164046647,
"['C', 'T', 'P', 'R']",True,R,4,letter,3,False,False,"['robot_stimuli\\\\filler.mp4', 'robot_stimuli\\\\filler.mp4', 'robot_stimuli\\\\filler.mp4', 'robot_stimuli\\\\filler.mp4']",robot_stimuli\\filler.mp4,14,,,,,,,,,,,,,0,87,87,87,,,,,,,,,,,,,,,,,2102.0949317999766,2103.1604045000277,,,,,,,,,2105.796089500014,2105.796089500014,2105.796089500014,2105.796089500014,2105.796089500014,2105.796089500014,2105.796089500014,2105.796089500014,None,None,None,,,,,,,,,,,2092.363033899979,2092.363033899979,None,,2100.080073799996,2102.0949317999766,2103.1604045000277,2103.1604045000277,2103.1604045000277,2103.1604045000277,c,2.566322200000286,2092.363033899979,2092.363033899979,,,14,001,2024-07-09_16h10.21.482,robot_sternberg_sign,2022.2.5,60.01475164046647,
"['W', 'T', 'K', 'B']",True,K,4,letter,3,False,False,"['robot_stimuli\\\\filler.mp4', 'robot_stimuli\\\\filler.mp4', 'robot_stimuli\\\\filler.mp4', 'robot_stimuli\\\\filler.mp4']",robot_stimuli\\filler.mp4,14,,,,,,,,,,,,,0,88,88,88,,,,,,,,,,,,,,,,,2115.531941800029,2106.8512527000275,,,,,,,,,2118.43160359998,2118.43160359998,2118.43160359998,2118.43160359998,2118.43160359998,2118.43160359998,2118.43160359998,2118.43160359998,None,None,None,,,,,,,,,,,2105.796089500014,2105.796089500014,None,,2113.3172427000245,2115.531941800029,2116.601857499976,2116.601857499976,2116.601857499976,2116.601857499976,c,1.7166678999783471,2105.796089500014,2105.796089500014,,,14,001,2024-07-09_16h10.21.482,robot_sternberg_sign,2022.2.5,60.01475164046647,
"['G', 'F', 'J', 'Q']",False,V,4,letter,3,False,True,"['robot_stimuli\\\\filler.mp4', 'robot_stimuli\\\\filler.mp4', 'robot_stimuli\\\\filler.mp4', 'robot_stimuli\\\\filler.mp4']",robot_stimuli\\filler.mp4,14,,,,,,,,,,,,,0,89,89,89,,,,,,,,,,,,,,,,,2128.1938598999986,2129.2540906000067,,,,,,,,,2131.107910600025,2135.8160502000246,2131.107910600025,2135.8160502000246,2131.107910600025,2135.8160502000246,2131.107910600025,2135.8160502000246,16.265432098765427,4.0659521000343375,space,,,4.649848300032318,,,,,,,,2118.43160359998,2118.43160359998,None,,2126.176677500014,2128.1938598999986,2129.2540906000067,2129.2540906000067,2129.2540906000067,2129.2540906000067,n,1.6324194999760948,2118.43160359998,2118.43160359998,,,14,001,2024-07-09_16h10.21.482,robot_sternberg_sign,2022.2.5,60.01475164046647,
"['L_Torso_X_For', 'R_Head_Y_Back']",False,L_Arm_Y_For,2,robot,4,True,False,"['robot_stimuli\\L_Torso_X_For.mp4', 'robot_stimuli\\R_Head_Y_Back.mp4']",robot_stimuli\L_Arm_Y_For.mp4,14,,,,,,,,,,,,,0,90,90,90,,,,,,,,,,,,,,,,,2146.6737807000172,2147.770390700025,,,,,,,,,2151.4041922999895,2151.4041922999895,2151.4041922999895,2151.4041922999895,2151.4041922999895,2151.4041922999895,2151.4041922999895,2151.4041922999895,None,None,None,,,,,,,,,,,2135.8160502000246,2135.8160502000246,space,2.3977820000145584,,,,2147.770390700025,2147.770390700025,2147.770390700025,n,2.476094599987846,,,2143.039801999985,2147.770390700025,14,001,2024-07-09_16h10.21.482,robot_sternberg_sign,2022.2.5,60.01475164046647,
"['R_Torso_Z_For', 'R_Base_Y_For']",True,R_Torso_Z_For,2,robot,4,False,False,"['robot_stimuli\\R_Torso_Z_For.mp4', 'robot_stimuli\\R_Base_Y_For.mp4']",robot_stimuli\R_Torso_Z_For.mp4,14,,,,,,,,,,,,,0,91,91,91,,,,,,,,,,,,,,,,,2159.8418082999997,2160.9356014999794,,,,,,,,,2164.5757653000182,2164.5757653000182,2164.5757653000182,2164.5757653000182,2164.5757653000182,2164.5757653000182,2164.5757653000182,2164.5757653000182,None,None,None,,,,,,,,,,,2151.4041922999895,2151.4041922999895,None,,,,,2160.9356014999794,2160.9356014999794,2160.9356014999794,c,2.719677400018554,2151.4041922999895,2151.4041922999895,2156.2098363999976,2160.9356014999794,14,001,2024-07-09_16h10.21.482,robot_sternberg_sign,2022.2.5,60.01475164046647,
"['L_Arm_X_Back', 'L_Arm_Y_Back']",True,L_Arm_X_Back,2,robot,4,False,False,"['robot_stimuli\\L_Arm_X_Back.mp4', 'robot_stimuli\\L_Arm_Y_Back.mp4']",robot_stimuli\L_Arm_X_Back.mp4,14,,,,,,,,,,,,,0,92,92,92,,,,,,,,,,,,,,,,,2173.0165275000036,2165.6508180000237,,,,,,,,,2178.140362099977,2178.140362099977,2178.140362099977,2178.140362099977,2178.140362099977,2178.140362099977,2178.140362099977,2178.140362099977,None,None,None,,,,,,,,,,,2164.5757653000182,2164.5757653000182,None,,,,,2174.1091171000153,2174.1091171000153,2174.1091171000153,c,3.992278499994427,2164.5757653000182,2164.5757653000182,2169.3759589000256,2174.1091171000153,14,001,2024-07-09_16h10.21.482,robot_sternberg_sign,2022.2.5,60.01475164046647,
"['L_Head_X_Back', 'L_Arm_Z_For']",True,L_Arm_Z_For,2,robot,4,False,False,"['robot_stimuli\\L_Head_X_Back.mp4', 'robot_stimuli\\L_Arm_Z_For.mp4']",robot_stimuli\L_Arm_Z_For.mp4,14,,,,,,,,,,,,,0,93,93,93,,,,,,,,,,,,,,,,,2186.569365400006,2187.6586956999963,,,,,,,,,2191.3070945999934,2191.3070945999934,2191.3070945999934,2191.3070945999934,2191.3070945999934,2191.3070945999934,2191.3070945999934,2191.3070945999934,None,None,None,,,,,,,,,,,2178.140362099977,2178.140362099977,None,,,,,2187.6586956999963,2187.6586956999963,2187.6586956999963,c,3.1806227999622934,2178.140362099977,2178.140362099977,2182.9408041000133,2187.6586956999963,14,001,2024-07-09_16h10.21.482,robot_sternberg_sign,2022.2.5,60.01475164046647,
"['R_Head_Y_Back', 'R_Torso_X_Back']",True,R_Torso_X_Back,2,robot,4,False,False,"['robot_stimuli\\R_Head_Y_Back.mp4', 'robot_stimuli\\R_Torso_X_Back.mp4']",robot_stimuli\R_Torso_X_Back.mp4,14,,,,,,,,,,,,,0,94,94,94,,,,,,,,,,,,,,,,,2199.7361226999783,2200.83074200002,,,,,,,,,2204.4779457999975,2204.4779457999975,2204.4779457999975,2204.4779457999975,2204.4779457999975,2204.4779457999975,2204.4779457999975,2204.4779457999975,None,None,None,,,,,,,,,,,2191.3070945999934,2191.3070945999934,None,,,,,2200.83074200002,2200.83074200002,2200.83074200002,c,3.2319537000148557,2191.3070945999934,2191.3070945999934,2196.107744799985,2200.83074200002,14,001,2024-07-09_16h10.21.482,robot_sternberg_sign,2022.2.5,60.01475164046647,
"['L_Torso_Y_Back', 'L_Head_Y_Back']",False,L_Base_X_Back,2,robot,4,False,False,"['robot_stimuli\\L_Torso_Y_Back.mp4', 'robot_stimuli\\L_Head_Y_Back.mp4']",robot_stimuli\L_Base_X_Back.mp4,14,,,,,,,,,,,,,0,95,95,95,,,,,,,,,,,,,,,,,2212.7634783000103,2213.8398463000194,,,,,,,,,2217.5432738999953,2217.5432738999953,2217.5432738999953,2217.5432738999953,2217.5432738999953,2217.5432738999953,2217.5432738999953,2217.5432738999953,None,None,None,,,,,,,,,,,2204.4779457999975,2204.4779457999975,None,,,,,2213.8398463000194,2213.8398463000194,2213.8398463000194,n,3.6624489000532776,2204.4779457999975,2204.4779457999975,2209.1319290000247,2213.8398463000194,14,001,2024-07-09_16h10.21.482,robot_sternberg_sign,2022.2.5,60.01475164046647,
"['L_Head_Y_Back', 'R_Head_X_For']",False,L_Head_Z_Back,2,robot,4,False,False,"['robot_stimuli\\L_Head_Y_Back.mp4', 'robot_stimuli\\R_Head_X_For.mp4']",robot_stimuli\L_Head_Z_Back.mp4,14,,,,,,,,,,,,,0,96,96,96,,,,,,,,,,,,,,,,,2225.9843112999806,2227.076172799978,,,,,,,,,2230.7879880000255,2230.7879880000255,2230.7879880000255,2230.7879880000255,2230.7879880000255,2230.7879880000255,2230.7879880000255,2230.7879880000255,None,None,None,,,,,,,,,,,2217.5432738999953,2217.5432738999953,None,,,,,2227.076172799978,2227.076172799978,2227.076172799978,n,3.681036999973003,2217.5432738999953,2217.5432738999953,2222.3444609,2227.076172799978,14,001,2024-07-09_16h10.21.482,robot_sternberg_sign,2022.2.5,60.01475164046647,
"['R_Arm_Z_For', 'R_Head_X_For']",False,R_Base_X_Back,2,robot,4,False,False,"['robot_stimuli\\R_Arm_Z_For.mp4', 'robot_stimuli\\R_Head_X_For.mp4']",robot_stimuli\R_Base_X_Back.mp4,14,,,,,,,,,,,,,0,97,97,97,,,,,,,,,,,,,,,,,2239.221275000018,2240.3077096000197,,,,,,,,,2243.9451181999757,2243.9451181999757,2243.9451181999757,2243.9451181999757,2243.9451181999757,2243.9451181999757,2243.9451181999757,2243.9451181999757,None,None,None,,,,,,,,,,,2230.7879880000255,2230.7879880000255,None,,,,,2240.3077096000197,2240.3077096000197,2240.3077096000197,n,2.2508314000442624,2230.7879880000255,2230.7879880000255,2235.590126199997,2240.3077096000197,14,001,2024-07-09_16h10.21.482,robot_sternberg_sign,2022.2.5,60.01475164046647,
"['L_Torso_Z_Back', 'L_Arm_Z_Back']",False,R_Arm_Y_For,2,robot,4,False,False,"['robot_stimuli\\L_Torso_Z_Back.mp4', 'robot_stimuli\\L_Arm_Z_Back.mp4']",robot_stimuli\R_Arm_Y_For.mp4,14,,,,,,,,,,,,,0,98,98,98,,,,,,,,,,,,,,,,,2252.2303671999834,2253.3169197000097,,,,,,,,,2256.8200963999843,2256.8200963999843,2256.8200963999843,2256.8200963999843,2256.8200963999843,2256.8200963999843,2256.8200963999843,2256.8200963999843,None,None,None,,,,,,,,,,,2243.9451181999757,2243.9451181999757,None,,,,,2253.3169197000097,2253.3169197000097,2253.3169197000097,n,2.416459100029897,2243.9451181999757,2243.9451181999757,2248.606787100027,2253.3169197000097,14,001,2024-07-09_16h10.21.482,robot_sternberg_sign,2022.2.5,60.01475164046647,
"['L_Base_X_Back', 'L_Arm_Z_For']",True,L_Arm_Z_For,2,robot,4,False,True,"['robot_stimuli\\L_Base_X_Back.mp4', 'robot_stimuli\\L_Arm_Z_For.mp4']",robot_stimuli\L_Arm_Z_For.mp4,14,,,,,,,,,,,,,0,99,99,99,,,,,,,,,,,,,,,,,2265.2221489999793,2266.3070998999756,,,,,,,,,2269.9765613999916,2274.0243291999795,2269.9765613999916,2274.0243291999795,2269.9765613999916,2274.0243291999795,2269.9765613999916,2274.0243291999795,16.882716049382715,3.2372594999615103,space,,,3.9815498999669217,,,,,,,,2256.8200963999843,2256.8200963999843,None,,,,,2266.3070998999756,2266.3070998999756,2266.3070998999756,c,3.4591306999791414,2256.8200963999843,2256.8200963999843,2261.5915468999883,2266.3070998999756,14,001,2024-07-09_16h10.21.482,robot_sternberg_sign,2022.2.5,60.01475164046647,
"['L_Arm_X_For', 'R_Base_X_Back', 'L_Head_Y_For', 'R_Head_Z_For', 'R_Torso_X_Back', 'L_Torso_Z_Back']",True,R_Torso_X_Back,6,robot,4,True,False,"['robot_stimuli\\L_Arm_X_For.mp4', 'robot_stimuli\\R_Base_X_Back.mp4', 'robot_stimuli\\L_Head_Y_For.mp4', 'robot_stimuli\\R_Head_Z_For.mp4', 'robot_stimuli\\R_Torso_X_Back.mp4', 'robot_stimuli\\L_Torso_Z_Back.mp4']",robot_stimuli\R_Torso_X_Back.mp4,14,,,,,,,,,,,,,0,100,100,100,,,,,,,,,,,,,,,,,2301.636587899993,2302.7243253000197,,,,,,,,,2306.776020899997,2306.776020899997,2306.776020899997,2306.776020899997,2306.776020899997,2306.776020899997,2306.776020899997,2306.776020899997,None,None,None,,,,,,,,,,,2274.0243291999795,2274.0243291999795,space,4.398639599967282,,,,2302.7243253000197,2302.7243253000197,2302.7243253000197,c,4.01821840001503,,,2298.138177099987,2302.7243253000197,14,001,2024-07-09_16h10.21.482,robot_sternberg_sign,2022.2.5,60.01475164046647,
"['L_Head_X_Back', 'L_Head_Y_For', 'R_Torso_Z_For', 'L_Base_X_Back', 'R_Base_X_For', 'L_Arm_Y_For']",False,L_Arm_X_Back,6,robot,4,False,False,"['robot_stimuli\\L_Head_X_Back.mp4', 'robot_stimuli\\L_Head_Y_For.mp4', 'robot_stimuli\\R_Torso_Z_For.mp4', 'robot_stimuli\\L_Base_X_Back.mp4', 'robot_stimuli\\R_Base_X_For.mp4', 'robot_stimuli\\L_Arm_Y_For.mp4']",robot_stimuli\L_Arm_X_Back.mp4,14,,,,,,,,,,,,,0,101,101,101,,,,,,,,,,,,,,,,,2330.00008800003,2307.8557414999814,,,,,,,,,2335.005513800017,2335.005513800017,2335.005513800017,2335.005513800017,2335.005513800017,2335.005513800017,2335.005513800017,2335.005513800017,None,None,None,,,,,,,,,,,2306.776020899997,2306.776020899997,None,,,,,2331.0919840999995,2331.0919840999995,2331.0919840999995,n,3.8749926000018604,2306.776020899997,2306.776020899997,2326.359334399982,2331.0919840999995,14,001,2024-07-09_16h10.21.482,robot_sternberg_sign,2022.2.5,60.01475164046647,
"['R_Head_Z_For', 'R_Arm_X_For', 'R_Head_X_For', 'L_Base_X_Back', 'L_Base_Y_For', 'R_Torso_Z_Back']",False,R_Base_Z_Back,6,robot,4,False,False,"['robot_stimuli\\R_Head_Z_For.mp4', 'robot_stimuli\\R_Arm_X_For.mp4', 'robot_stimuli\\R_Head_X_For.mp4', 'robot_stimuli\\L_Base_X_Back.mp4', 'robot_stimuli\\L_Base_Y_For.mp4', 'robot_stimuli\\R_Torso_Z_Back.mp4']",robot_stimuli\R_Base_Z_Back.mp4,14,,,,,,,,,,,,,0,102,102,102,,,,,,,,,,,,,,,,,2358.1871701999917,2359.274477500003,,,,,,,,,2368.077516500023,2368.077516500023,2368.077516500023,2368.077516500023,2368.077516500023,2368.077516500023,2368.077516500023,2368.077516500023,None,None,None,,,,,,,,,,,2335.005513800017,2335.005513800017,None,,,,,2359.274477500003,2359.274477500003,2359.274477500003,c,8.764076999970712,2335.005513800017,2335.005513800017,2354.5562439999776,2359.274477500003,14,001,2024-07-09_16h10.21.482,robot_sternberg_sign,2022.2.5,60.01475164046647,
"['L_Torso_X_For', 'L_Head_X_Back', 'R_Arm_Y_For', 'R_Head_Z_Back', 'R_Torso_Z_Back', 'L_Base_Z_For']",False,L_Head_Z_Back,6,robot,4,False,False,"['robot_stimuli\\L_Torso_X_For.mp4', 'robot_stimuli\\L_Head_X_Back.mp4', 'robot_stimuli\\R_Arm_Y_For.mp4', 'robot_stimuli\\R_Head_Z_Back.mp4', 'robot_stimuli\\R_Torso_Z_Back.mp4', 'robot_stimuli\\L_Base_Z_For.mp4']",robot_stimuli\L_Head_Z_Back.mp4,14,,,,,,,,,,,,,0,103,103,103,,,,,,,,,,,,,,,,,2391.255188399984,2392.342439400032,,,,,,,,,2395.971060400014,2395.971060400014,2395.971060400014,2395.971060400014,2395.971060400014,2395.971060400014,2395.971060400014,2395.971060400014,None,None,None,,,,,,,,,,,2368.077516500023,2368.077516500023,None,,,,,2392.342439400032,2392.342439400032,2392.342439400032,n,2.91206040000543,2368.077516500023,2368.077516500023,2387.6244862999883,2392.342439400032,14,001,2024-07-09_16h10.21.482,robot_sternberg_sign,2022.2.5,60.01475164046647,
"['R_Torso_Y_For', 'L_Arm_X_For', 'R_Torso_Z_Back', 'L_Arm_Z_Back', 'L_Head_X_Back', 'R_Torso_X_Back']",True,R_Torso_Z_Back,6,robot,4,False,False,"['robot_stimuli\\R_Torso_Y_For.mp4', 'robot_stimuli\\L_Arm_X_For.mp4', 'robot_stimuli\\R_Torso_Z_Back.mp4', 'robot_stimuli\\L_Arm_Z_Back.mp4', 'robot_stimuli\\L_Head_X_Back.mp4', 'robot_stimuli\\R_Torso_X_Back.mp4']",robot_stimuli\R_Torso_Z_Back.mp4,14,,,,,,,,,,,,,0,104,104,104,,,,,,,,,,,,,,,,,2419.299950100016,2397.0563522999873,,,,,,,,,2424.8872556000133,2424.8872556000133,2424.8872556000133,2424.8872556000133,2424.8872556000133,2424.8872556000133,2424.8872556000133,2424.8872556000133,None,None,None,,,,,,,,,,,2395.971060400014,2395.971060400014,None,,,,,2420.3922143999953,2420.3922143999953,2420.3922143999953,c,4.469531400012784,2395.971060400014,2395.971060400014,2415.6678266000235,2420.3922143999953,14,001,2024-07-09_16h10.21.482,robot_sternberg_sign,2022.2.5,60.01475164046647,
