sequence,is_true,target,condition,stimuli,block,is_block_beginning,is_block_ending,sequence_fnames,target_fname,subject,retraining.thisRepN,retraining.thisTrialN,retraining.thisN,retraining.thisIndex,training.thisRepN,training.thisTrialN,training.thisN,training.thisIndex,training_sequence_loop.thisRepN,training_sequence_loop.thisTrialN,training_sequence_loop.thisN,training_sequence_loop.thisIndex,trials.thisRepN,trials.thisTrialN,trials.thisN,trials.thisIndex,sequence_loop.thisRepN,sequence_loop.thisTrialN,sequence_loop.thisN,sequence_loop.thisIndex,langage_text.started,langage_key.started,langage_key.keys,langage_key.rt,intro_text.started,intro_key.started,intro_key.keys,intro_key.rt,training_intro_text.started,training_intro_key.started,training_intro_key.keys,training_intro_key.rt,polygon.started,polygon.stopped,training_presentation_letter.started,training_presentation_letter.stopped,training_recall_letter.started,training_recall_key.started,training_recall_question.started,training_recall_answer.started,training_recall_key.keys,training_recall_key.rt,RSME_labels.started,RSME_labels.stopped,RSME_ticks.started,RSME_ticks.stopped,RSME_text.started,RSME_text.stopped,RSME_key.started,RSME_key.stopped,RSME_ticks.response,RSME_ticks.rt,RSME_key.keys,training_intro_text.stopped,training_intro_key.stopped,RSME_key.rt,training_presentation_movie.started,training_recall_movie.started,experiment_beginning_text.started,experiment_beginning_keys.started,experiment_beginning_key.started,experiment_beginning_key.keys,experiment_beginning_key.rt,block_intro_text.started,block_intro_key.started,block_intro_key.keys,block_intro_key.rt,presentation_letter.started,presentation_letter.stopped,recall_letter.started,recall_key.started,recall_question.started,recall_answer.started,recall_key.keys,recall_key.rt,block_intro_text.stopped,block_intro_key.stopped,presentation_movie.started,recall_movie.started,participant,session,date,expName,psychopyVersion,frameRate,
,,,,,,,,,,,,,,,,,,,,,,,,,,,,,,,12.350603999999294,12.350603999999294,e,20.91461860000345,,,,,,,,,,,,,,,,,,,,,,,,,,,,,,,,,,,,,,,,,,,,,,,,,,,,,,,,18,001,2024-07-30_15h07.21.332,robot_sternberg_sign,2022.2.5,60.08412979825871,
,,,,,,,,,,,,,,,,,,,,,,,,,,,,,,,,,,,33.33154889999787,33.33154889999787,space,17.72669510000196,,,,,,,,,,,,,,,,,,,,,,,,,,,,,,,,,,,,,,,,,,,,,,,,,,,,18,001,2024-07-30_15h07.21.332,robot_sternberg_sign,2022.2.5,60.08412979825871,
"['Q', 'W']",True,W,2,letter,1,True,False,"['robot_stimuli\\\\filler.mp4', 'robot_stimuli\\\\filler.mp4']",robot_stimuli\\filler.mp4,18,0,0,0,0,0,0,0,0,,,,,,,,,,,,,,,,,,,,,51.085312899998826,51.085312899998826,space,3.333197100004327,60.30454819999795,61.39565779999975,58.09899089999817,60.30454819999795,61.39565779999975,61.39565779999975,61.39565779999975,61.39565779999975,c,1.798180700003286,63.41162769999937,63.41162769999937,63.41162769999937,63.41162769999937,63.41162769999937,63.41162769999937,63.41162769999937,63.41162769999937,None,None,None,,,,,,,,,,,,,,,,,,,,,,,,,,,18,001,2024-07-30_15h07.21.332,robot_sternberg_sign,2022.2.5,60.08412979825871,
"['R', 'C']",False,Q,2,letter,1,False,False,"['robot_stimuli\\\\filler.mp4', 'robot_stimuli\\\\filler.mp4']",robot_stimuli\\filler.mp4,18,0,0,0,0,0,1,1,1,,,,,,,,,,,,,,,,,,,,,63.41162769999937,63.41162769999937,None,,68.8104648999979,,66.60239589999765,68.8104648999979,69.88936420000027,69.88936420000027,69.88936420000027,69.88936420000027,n,1.8888053000009677,71.92134140000053,71.92134140000053,71.92134140000053,71.92134140000053,71.92134140000053,71.92134140000053,71.92134140000053,71.92134140000053,None,None,None,63.41162769999937,63.41162769999937,,,,,,,,,,,,,,,,,,,,,,,,,18,001,2024-07-30_15h07.21.332,robot_sternberg_sign,2022.2.5,60.08412979825871,
"['F', 'B']",True,B,2,letter,1,False,True,"['robot_stimuli\\\\filler.mp4', 'robot_stimuli\\\\filler.mp4']",robot_stimuli\\filler.mp4,18,0,0,0,0,0,2,2,2,,,,,,,,,,,,,,,,,,,,,71.92134140000053,71.92134140000053,None,,77.32148199999938,78.38896100000056,75.30445719999989,77.32148199999938,78.38896100000056,78.38896100000056,78.38896100000056,78.38896100000056,c,1.5327477999999246,80.08270479999919,91.49733750000087,80.08270479999919,91.49733750000087,80.08270479999919,91.49733750000087,80.08270479999919,91.49733750000087,2.222222222222217,3.9079253999989305,space,71.92134140000053,71.92134140000053,11.359059700003854,,,,,,,,,,,,,,,,,,,,,,,,18,001,2024-07-30_15h07.21.332,robot_sternberg_sign,2022.2.5,60.08412979825871,
"['T', 'Z', 'Q', 'H']",False,L,4,letter,1,True,False,"['robot_stimuli\\\\filler.mp4', 'robot_stimuli\\\\filler.mp4', 'robot_stimuli\\\\filler.mp4', 'robot_stimuli\\\\filler.mp4']",robot_stimuli\\filler.mp4,18,0,0,0,0,0,3,3,3,,,,,,,,,,,,,,,,,,,,,91.49733750000087,91.49733750000087,space,7.888468200002535,109.38612769999963,110.45935230000032,107.37395009999818,109.38612769999963,110.45935230000032,110.45935230000032,110.45935230000032,110.45935230000032,n,2.0476129000016954,112.687570099999,112.687570099999,112.687570099999,112.687570099999,112.687570099999,112.687570099999,112.687570099999,112.687570099999,None,None,None,,,,,,,,,,,,,,,,,,,,,,,,,,,18,001,2024-07-30_15h07.21.332,robot_sternberg_sign,2022.2.5,60.08412979825871,
"['R', 'H', 'W', 'G']",True,G,4,letter,1,False,False,"['robot_stimuli\\\\filler.mp4', 'robot_stimuli\\\\filler.mp4', 'robot_stimuli\\\\filler.mp4', 'robot_stimuli\\\\filler.mp4']",robot_stimuli\\filler.mp4,18,0,0,0,0,0,4,4,4,,,,,,,,,,,,,,,,,,,,,112.687570099999,112.687570099999,None,,122.28590930000064,123.35715680000067,120.27146319999883,122.28590930000064,123.35715680000067,123.35715680000067,123.35715680000067,123.35715680000067,c,1.525153800001135,124.9880951999985,124.9880951999985,124.9880951999985,124.9880951999985,124.9880951999985,124.9880951999985,124.9880951999985,124.9880951999985,None,None,None,112.687570099999,112.687570099999,,,,,,,,,,,,,,,,,,,,,,,,,18,001,2024-07-30_15h07.21.332,robot_sternberg_sign,2022.2.5,60.08412979825871,
"['Q', 'T', 'W', 'X']",True,W,4,letter,1,False,True,"['robot_stimuli\\\\filler.mp4', 'robot_stimuli\\\\filler.mp4', 'robot_stimuli\\\\filler.mp4', 'robot_stimuli\\\\filler.mp4']",robot_stimuli\\filler.mp4,18,0,0,0,0,0,5,5,5,,,,,,,,,,,,,,,,,,,,,124.9880951999985,124.9880951999985,None,,134.58767559999978,135.65601919999972,132.56840039999952,134.58767559999978,135.65601919999972,135.65601919999972,135.65601919999972,135.65601919999972,c,2.47496350000074,138.3169600000001,144.26092960000096,138.3169600000001,144.26092960000096,138.3169600000001,144.26092960000096,138.3169600000001,144.26092960000096,6.5432098765432105,3.5268234000031953,space,124.9880951999985,124.9880951999985,5.869450700003654,,,,,,,,,,,,,,,,,,,,,,,,18,001,2024-07-30_15h07.21.332,robot_sternberg_sign,2022.2.5,60.08412979825871,
"['W', 'Z', 'X', 'L', 'G', 'F']",True,L,6,letter,1,True,False,"['robot_stimuli\\\\filler.mp4', 'robot_stimuli\\\\filler.mp4', 'robot_stimuli\\\\filler.mp4', 'robot_stimuli\\\\filler.mp4', 'robot_stimuli\\\\filler.mp4', 'robot_stimuli\\\\filler.mp4']",robot_stimuli\\filler.mp4,18,0,0,0,0,0,6,6,6,,,,,,,,,,,,,,,,,,,,,144.26092960000096,144.26092960000096,space,10.189385200003017,168.669393199998,169.73901449999903,166.65747239999837,168.669393199998,169.73901449999903,169.73901449999903,169.73901449999903,169.73901449999903,c,1.453947199999675,171.3612334999998,171.3612334999998,171.3612334999998,171.3612334999998,171.3612334999998,171.3612334999998,171.3612334999998,171.3612334999998,None,None,None,,,,,,,,,,,,,,,,,,,,,,,,,,,18,001,2024-07-30_15h07.21.332,robot_sternberg_sign,2022.2.5,60.08412979825871,
"['H', 'X', 'R', 'F', 'P', 'N']",True,F,6,letter,1,False,False,"['robot_stimuli\\\\filler.mp4', 'robot_stimuli\\\\filler.mp4', 'robot_stimuli\\\\filler.mp4', 'robot_stimuli\\\\filler.mp4', 'robot_stimuli\\\\filler.mp4', 'robot_stimuli\\\\filler.mp4']",robot_stimuli\\filler.mp4,18,0,0,0,0,0,7,7,7,,,,,,,,,,,,,,,,,,,,,171.3612334999998,171.3612334999998,None,,185.7317617999979,186.80008919999818,183.52731969999877,185.7317617999979,186.80008919999818,186.80008919999818,186.80008919999818,186.80008919999818,c,4.881721800000378,191.8355737999991,191.8355737999991,191.8355737999991,191.8355737999991,191.8355737999991,191.8355737999991,191.8355737999991,191.8355737999991,None,None,None,171.3612334999998,171.3612334999998,,,,,,,,,,,,,,,,,,,,,,,,,18,001,2024-07-30_15h07.21.332,robot_sternberg_sign,2022.2.5,60.08412979825871,
"['S', 'V', 'R', 'Q', 'N', 'F']",False,C,6,letter,1,False,True,"['robot_stimuli\\\\filler.mp4', 'robot_stimuli\\\\filler.mp4', 'robot_stimuli\\\\filler.mp4', 'robot_stimuli\\\\filler.mp4', 'robot_stimuli\\\\filler.mp4', 'robot_stimuli\\\\filler.mp4']",robot_stimuli\\filler.mp4,18,0,0,0,0,0,8,8,8,,,,,,,,,,,,,,,,,,,,,191.8355737999991,191.8355737999991,None,,206.39678300000014,207.4755469999982,204.17637289999766,206.39678300000014,207.4755469999982,207.4755469999982,207.4755469999982,207.4755469999982,n,4.950330900002882,212.54345939999985,218.40672629999972,212.54345939999985,218.40672629999972,212.54345939999985,218.40672629999972,212.54345939999985,218.40672629999972,10.09259259259259,4.759685199998785,space,191.8355737999991,191.8355737999991,5.801609600002848,,,,,,,,,,,,,,,,,,,,,,,,18,001,2024-07-30_15h07.21.332,robot_sternberg_sign,2022.2.5,60.08412979825871,
"['L_Torso_Y_Back', 'L_Base_Z_For']",True,L_Torso_Y_Back,2,robot,2,True,False,"['robot_stimuli\\L_Torso_Y_Back.mp4', 'robot_stimuli\\L_Base_Z_For.mp4']",robot_stimuli\L_Torso_Y_Back.mp4,18,0,0,0,0,0,9,9,9,,,,,,,,,,,,,,,,,,,,,218.40672629999972,218.40672629999972,space,1.6758557000030123,228.44880189999822,229.55052649999925,,,,229.55052649999925,229.55052649999925,229.55052649999925,c,5.53176550000353,235.124626599998,235.124626599998,235.124626599998,235.124626599998,235.124626599998,235.124626599998,235.124626599998,235.124626599998,None,None,None,,,,224.80551879999985,229.55052649999925,,,,,,,,,,,,,,,,,,,,,,18,001,2024-07-30_15h07.21.332,robot_sternberg_sign,2022.2.5,60.08412979825871,
"['L_Arm_Z_For', 'L_Head_Z_Back']",False,R_Torso_Z_For,2,robot,2,False,False,"['robot_stimuli\\L_Arm_Z_For.mp4', 'robot_stimuli\\L_Head_Z_Back.mp4']",robot_stimuli\R_Torso_Z_For.mp4,18,0,0,0,0,0,10,10,10,,,,,,,,,,,,,,,,,,,,,235.124626599998,235.124626599998,None,,243.5814563999993,244.6768145999995,,,,244.6768145999995,244.6768145999995,244.6768145999995,n,2.629235399999743,248.3168627999985,248.3168627999985,248.3168627999985,248.3168627999985,248.3168627999985,248.3168627999985,248.3168627999985,248.3168627999985,None,None,None,235.124626599998,235.124626599998,,239.9388515999999,244.6768145999995,,,,,,,,,,,,,,,,,,,,,,18,001,2024-07-30_15h07.21.332,robot_sternberg_sign,2022.2.5,60.08412979825871,
"['R_Base_Z_Back', 'R_Base_Y_Back']",True,R_Base_Y_Back,2,robot,2,False,True,"['robot_stimuli\\R_Base_Z_Back.mp4', 'robot_stimuli\\R_Base_Y_Back.mp4']",robot_stimuli\R_Base_Y_Back.mp4,18,0,0,0,0,0,11,11,11,,,,,,,,,,,,,,,,,,,,,248.3168627999985,248.3168627999985,None,,256.67732550000073,249.40689159999965,,,,257.77063669999916,257.77063669999916,257.77063669999916,c,2.5671895000014047,261.43367419999777,265.5820791999977,261.43367419999777,265.5820791999977,261.43367419999777,265.5820791999977,261.43367419999777,265.5820791999977,17.03703703703703,3.4816979999995965,space,248.3168627999985,248.3168627999985,4.095308100004331,253.04598759999863,257.77063669999916,,,,,,,,,,,,,,,,,,,,,,18,001,2024-07-30_15h07.21.332,robot_sternberg_sign,2022.2.5,60.08412979825871,
"['L_Head_X_Back', 'R_Arm_Y_Back', 'L_Head_Y_Back', 'R_Head_Z_Back']",True,R_Arm_Y_Back,4,robot,2,True,False,"['robot_stimuli\\L_Head_X_Back.mp4', 'robot_stimuli\\R_Arm_Y_Back.mp4', 'robot_stimuli\\L_Head_Y_Back.mp4', 'robot_stimuli\\R_Head_Z_Back.mp4']",robot_stimuli\R_Arm_Y_Back.mp4,18,0,0,0,0,0,12,12,12,,,,,,,,,,,,,,,,,,,,,265.5820791999977,265.5820791999977,space,0.9955396000041219,282.5316009999988,283.6198187000009,,,,283.6198187000009,283.6198187000009,283.6198187000009,c,3.189893500002654,287.25810009999987,287.25810009999987,287.25810009999987,287.25810009999987,287.25810009999987,287.25810009999987,287.25810009999987,287.25810009999987,None,None,None,,,,278.88831299999947,283.6198187000009,,,,,,,,,,,,,,,,,,,,,,18,001,2024-07-30_15h07.21.332,robot_sternberg_sign,2022.2.5,60.08412979825871,
"['L_Arm_Y_For', 'R_Base_Z_For', 'R_Torso_X_For', 'R_Base_Y_Back']",True,L_Arm_Y_For,4,robot,2,False,False,"['robot_stimuli\\L_Arm_Y_For.mp4', 'robot_stimuli\\R_Base_Z_For.mp4', 'robot_stimuli\\R_Torso_X_For.mp4', 'robot_stimuli\\R_Base_Y_Back.mp4']",robot_stimuli\L_Arm_Y_For.mp4,18,0,0,0,0,0,13,13,13,,,,,,,,,,,,,,,,,,,,,287.25810009999987,287.25810009999987,None,,303.1248440999989,304.2063367999981,,,,304.2063367999981,304.2063367999981,304.2063367999981,c,3.4192590000020573,307.85572519999914,307.85572519999914,307.85572519999914,307.85572519999914,307.85572519999914,307.85572519999914,307.85572519999914,307.85572519999914,None,None,None,287.25810009999987,287.25810009999987,,299.50345749999906,304.2063367999981,,,,,,,,,,,,,,,,,,,,,,18,001,2024-07-30_15h07.21.332,robot_sternberg_sign,2022.2.5,60.08412979825871,
"['R_Torso_X_For', 'R_Arm_Y_For', 'R_Torso_X_Back', 'R_Arm_Y_Back']",False,L_Head_Z_For,4,robot,2,False,True,"['robot_stimuli\\R_Torso_X_For.mp4', 'robot_stimuli\\R_Arm_Y_For.mp4', 'robot_stimuli\\R_Torso_X_Back.mp4', 'robot_stimuli\\R_Arm_Y_Back.mp4']",robot_stimuli\L_Head_Z_For.mp4,18,0,0,0,0,0,14,14,14,,,,,,,,,,,,,,,,,,,,,307.85572519999914,307.85572519999914,None,,323.59921589999794,324.6875067000001,,,,324.6875067000001,324.6875067000001,324.6875067000001,n,5.458107800004655,330.214647599998,335.3770220000006,330.214647599998,335.3770220000006,330.214647599998,335.3770220000006,330.214647599998,335.3770220000006,29.999999999999993,3.852760699999635,space,307.85572519999914,307.85572519999914,5.107018500002596,319.9666603000005,324.6875067000001,,,,,,,,,,,,,,,,,,,,,,18,001,2024-07-30_15h07.21.332,robot_sternberg_sign,2022.2.5,60.08412979825871,
"['L_Base_Y_For', 'L_Torso_Z_Back', 'L_Head_Z_Back', 'L_Torso_Y_For', 'R_Arm_Y_Back', 'L_Head_Z_For']",True,L_Head_Z_For,6,robot,2,True,False,"['robot_stimuli\\L_Base_Y_For.mp4', 'robot_stimuli\\L_Torso_Z_Back.mp4', 'robot_stimuli\\L_Head_Z_Back.mp4', 'robot_stimuli\\L_Torso_Y_For.mp4', 'robot_stimuli\\R_Arm_Y_Back.mp4', 'robot_stimuli\\L_Head_Z_For.mp4']",robot_stimuli\L_Head_Z_For.mp4,18,0,0,0,0,0,15,15,15,,,,,,,,,,,,,,,,,,,,,335.3770220000006,335.3770220000006,space,4.089841500004695,362.6249878999988,363.70135630000004,,,,363.70135630000004,363.70135630000004,363.70135630000004,c,2.804990100004943,367.3407251999997,367.3407251999997,367.3407251999997,367.3407251999997,367.3407251999997,367.3407251999997,367.3407251999997,367.3407251999997,None,None,None,,,,359.0028929,363.70135630000004,,,,,,,,,,,,,,,,,,,,,,18,001,2024-07-30_15h07.21.332,robot_sternberg_sign,2022.2.5,60.08412979825871,
"['L_Torso_Z_For', 'L_Arm_X_Back', 'R_Torso_X_For', 'L_Base_Y_For', 'L_Arm_X_For', 'R_Arm_Z_Back']",False,R_Head_X_Back,6,robot,2,False,False,"['robot_stimuli\\L_Torso_Z_For.mp4', 'robot_stimuli\\L_Arm_X_Back.mp4', 'robot_stimuli\\R_Torso_X_For.mp4', 'robot_stimuli\\L_Base_Y_For.mp4', 'robot_stimuli\\L_Arm_X_For.mp4', 'robot_stimuli\\R_Arm_Z_Back.mp4']",robot_stimuli\R_Head_X_Back.mp4,18,0,0,0,0,0,16,16,16,,,,,,,,,,,,,,,,,,,,,367.3407251999997,367.3407251999997,None,,390.5587108,391.63927129999865,,,,391.63927129999865,391.63927129999865,391.63927129999865,n,2.553943700004311,395.2920832999989,395.2920832999989,395.2920832999989,395.2920832999989,395.2920832999989,395.2920832999989,395.2920832999989,395.2920832999989,None,None,None,367.3407251999997,367.3407251999997,,386.93633409999893,391.63927129999865,,,,,,,,,,,,,,,,,,,,,,18,001,2024-07-30_15h07.21.332,robot_sternberg_sign,2022.2.5,60.08412979825871,
"['R_Base_Z_For', 'R_Head_Y_For', 'R_Torso_Z_For', 'L_Head_X_For', 'L_Base_Y_Back', 'L_Arm_Z_Back']",True,L_Base_Y_Back,6,robot,2,False,True,"['robot_stimuli\\R_Base_Z_For.mp4', 'robot_stimuli\\R_Head_Y_For.mp4', 'robot_stimuli\\R_Torso_Z_For.mp4', 'robot_stimuli\\L_Head_X_For.mp4', 'robot_stimuli\\L_Base_Y_Back.mp4', 'robot_stimuli\\L_Arm_Z_Back.mp4']",robot_stimuli\L_Base_Y_Back.mp4,18,0,0,0,0,0,17,17,17,,,,,,,,,,,,,,,,,,,,,395.2920832999989,395.2920832999989,None,,418.4666932,419.5538001999994,,,,419.5538001999994,419.5538001999994,419.5538001999994,n,3.4163767999998527,423.1460686999999,429.77398840000023,423.1460686999999,429.77398840000023,423.1460686999999,429.77398840000023,423.1460686999999,429.77398840000023,43.88888888888889,5.818112600001768,space,395.2920832999989,395.2920832999989,6.560700400004862,414.8361698000008,419.5538001999994,,,,,,,,,,,,,,,,,,,,,,18,001,2024-07-30_15h07.21.332,robot_sternberg_sign,2022.2.5,60.08412979825871,
,,,,,,,,,,,0,0,0,0,,,,,,,,,,,,,,,,,,,,,,,,,,,,,,,,,,,,,,,,,,,,,,,,,,,,,,,429.77398840000023,429.77398840000023,429.77398840000023,c,1.5725212000033935,,,,,,,,,,,,,,,,,18,001,2024-07-30_15h07.21.332,robot_sternberg_sign,2022.2.5,60.08412979825871,
"['K', 'N', 'Z', 'T']",False,R,4,letter,1,True,False,"['robot_stimuli\\\\filler.mp4', 'robot_stimuli\\\\filler.mp4', 'robot_stimuli\\\\filler.mp4', 'robot_stimuli\\\\filler.mp4']",robot_stimuli\\filler.mp4,18,,,,,,,,,,,,,0,0,0,0,,,,,,,,,,,,,,,,,443.5075388000005,444.58807549999983,,,,,,,,,446.1925196000011,446.1925196000011,446.1925196000011,446.1925196000011,446.1925196000011,446.1925196000011,446.1925196000011,446.1925196000011,None,None,None,,,,,,,,,,,431.39156589999766,431.39156589999766,space,1.9467297000010149,441.2974183000006,443.5075388000005,444.58807549999983,444.58807549999983,444.58807549999983,444.58807549999983,n,1.550817500003177,,,,,18,001,2024-07-30_15h07.21.332,robot_sternberg_sign,2022.2.5,60.08412979825871,
"['Q', 'D', 'J', 'F']",False,V,4,letter,1,False,False,"['robot_stimuli\\\\filler.mp4', 'robot_stimuli\\\\filler.mp4', 'robot_stimuli\\\\filler.mp4', 'robot_stimuli\\\\filler.mp4']",robot_stimuli\\filler.mp4,18,,,,,,,,,,,,,0,1,1,1,,,,,,,,,,,,,,,,,456.13291949999984,457.1967325000005,,,,,,,,,459.0228208000008,459.0228208000008,459.0228208000008,459.0228208000008,459.0228208000008,459.0228208000008,459.0228208000008,459.0228208000008,None,None,None,,,,,,,,,,,446.1925196000011,446.1925196000011,None,,454.1183810000002,456.13291949999984,457.1967325000005,457.1967325000005,457.1967325000005,457.1967325000005,n,1.7651711000034993,446.1925196000011,446.1925196000011,,,18,001,2024-07-30_15h07.21.332,robot_sternberg_sign,2022.2.5,60.08412979825871,
"['V', 'M', 'J', 'Q']",True,M,4,letter,1,False,False,"['robot_stimuli\\\\filler.mp4', 'robot_stimuli\\\\filler.mp4', 'robot_stimuli\\\\filler.mp4', 'robot_stimuli\\\\filler.mp4']",robot_stimuli\\filler.mp4,18,,,,,,,,,,,,,0,2,2,2,,,,,,,,,,,,,,,,,469.16183960000126,460.0808986000011,,,,,,,,,471.65068339999925,471.65068339999925,471.65068339999925,471.65068339999925,471.65068339999925,471.65068339999925,471.65068339999925,471.65068339999925,None,None,None,,,,,,,,,,,459.0228208000008,459.0228208000008,None,,466.94711720000123,469.16183960000126,470.22865620000084,470.22865620000084,470.22865620000084,470.22865620000084,c,1.2538115000024845,459.0228208000008,459.0228208000008,,,18,001,2024-07-30_15h07.21.332,robot_sternberg_sign,2022.2.5,60.08412979825871,
"['H', 'W', 'X', 'N']",False,F,4,letter,1,False,False,"['robot_stimuli\\\\filler.mp4', 'robot_stimuli\\\\filler.mp4', 'robot_stimuli\\\\filler.mp4', 'robot_stimuli\\\\filler.mp4']",robot_stimuli\\filler.mp4,18,,,,,,,,,,,,,0,3,3,3,,,,,,,,,,,,,,,,,481.4151858000005,482.47970780000105,,,,,,,,,483.9056849000008,483.9056849000008,483.9056849000008,483.9056849000008,483.9056849000008,483.9056849000008,483.9056849000008,483.9056849000008,None,None,None,,,,,,,,,,,471.65068339999925,471.65068339999925,None,,479.1996134000001,481.4151858000005,482.47970780000105,482.47970780000105,482.47970780000105,482.47970780000105,n,1.2344227000030514,471.65068339999925,471.65068339999925,,,18,001,2024-07-30_15h07.21.332,robot_sternberg_sign,2022.2.5,60.08412979825871,
"['Q', 'S', 'M', 'T']",False,C,4,letter,1,False,False,"['robot_stimuli\\\\filler.mp4', 'robot_stimuli\\\\filler.mp4', 'robot_stimuli\\\\filler.mp4', 'robot_stimuli\\\\filler.mp4']",robot_stimuli\\filler.mp4,18,,,,,,,,,,,,,0,4,4,4,,,,,,,,,,,,,,,,,493.23648239999966,494.30802029999904,,,,,,,,,496.53493739999976,496.53493739999976,496.53493739999976,496.53493739999976,496.53493739999976,496.53493739999976,496.53493739999976,496.53493739999976,None,None,None,,,,,,,,,,,483.9056849000008,483.9056849000008,None,,491.2224666000002,493.23648239999966,494.30802029999904,494.30802029999904,494.30802029999904,494.30802029999904,n,2.0457215000024007,483.9056849000008,483.9056849000008,,,18,001,2024-07-30_15h07.21.332,robot_sternberg_sign,2022.2.5,60.08412979825871,
"['W', 'X', 'L', 'J']",True,J,4,letter,1,False,False,"['robot_stimuli\\\\filler.mp4', 'robot_stimuli\\\\filler.mp4', 'robot_stimuli\\\\filler.mp4', 'robot_stimuli\\\\filler.mp4']",robot_stimuli\\filler.mp4,18,,,,,,,,,,,,,0,5,5,5,,,,,,,,,,,,,,,,,506.69373220000125,497.5959584000011,,,,,,,,,509.40085499999986,509.40085499999986,509.40085499999986,509.40085499999986,509.40085499999986,509.40085499999986,509.40085499999986,509.40085499999986,None,None,None,,,,,,,,,,,496.53493739999976,496.53493739999976,None,,504.48093119999976,506.69373220000125,507.77235949999886,507.77235949999886,507.77235949999886,507.77235949999886,c,1.4212385999999242,496.53493739999976,496.53493739999976,,,18,001,2024-07-30_15h07.21.332,robot_sternberg_sign,2022.2.5,60.08412979825871,
"['C', 'W', 'N', 'X']",False,L,4,letter,1,False,False,"['robot_stimuli\\\\filler.mp4', 'robot_stimuli\\\\filler.mp4', 'robot_stimuli\\\\filler.mp4', 'robot_stimuli\\\\filler.mp4']",robot_stimuli\\filler.mp4,18,,,,,,,,,,,,,0,6,6,6,,,,,,,,,,,,,,,,,518.932716299998,519.9954150000012,,,,,,,,,521.4188725999993,521.4188725999993,521.4188725999993,521.4188725999993,521.4188725999993,521.4188725999993,521.4188725999993,521.4188725999993,None,None,None,,,,,,,,,,,509.40085499999986,509.40085499999986,None,,516.9203357999977,518.932716299998,519.9954150000012,519.9954150000012,519.9954150000012,519.9954150000012,n,1.2788194000022486,509.40085499999986,509.40085499999986,,,18,001,2024-07-30_15h07.21.332,robot_sternberg_sign,2022.2.5,60.08412979825871,
"['X', 'Q', 'T', 'H']",True,T,4,letter,1,False,False,"['robot_stimuli\\\\filler.mp4', 'robot_stimuli\\\\filler.mp4', 'robot_stimuli\\\\filler.mp4', 'robot_stimuli\\\\filler.mp4']",robot_stimuli\\filler.mp4,18,,,,,,,,,,,,,0,7,7,7,,,,,,,,,,,,,,,,,531.1573649999991,532.2175356999978,,,,,,,,,533.6370067999997,533.6370067999997,533.6370067999997,533.6370067999997,533.6370067999997,533.6370067999997,533.6370067999997,533.6370067999997,None,None,None,,,,,,,,,,,521.4188725999993,521.4188725999993,None,,528.9433114999993,531.1573649999991,532.2175356999978,532.2175356999978,532.2175356999978,532.2175356999978,c,1.2954435000028752,521.4188725999993,521.4188725999993,,,18,001,2024-07-30_15h07.21.332,robot_sternberg_sign,2022.2.5,60.08412979825871,
"['C', 'K', 'F', 'P']",True,F,4,letter,1,False,False,"['robot_stimuli\\\\filler.mp4', 'robot_stimuli\\\\filler.mp4', 'robot_stimuli\\\\filler.mp4', 'robot_stimuli\\\\filler.mp4']",robot_stimuli\\filler.mp4,18,,,,,,,,,,,,,0,8,8,8,,,,,,,,,,,,,,,,,543.5783432999997,534.6988894999995,,,,,,,,,546.272965199998,546.272965199998,546.272965199998,546.272965199998,546.272965199998,546.272965199998,546.272965199998,546.272965199998,None,None,None,,,,,,,,,,,533.6370067999997,533.6370067999997,None,,541.369889499998,543.5783432999997,544.6459267999999,544.6459267999999,544.6459267999999,544.6459267999999,c,1.5244344000020646,533.6370067999997,533.6370067999997,,,18,001,2024-07-30_15h07.21.332,robot_sternberg_sign,2022.2.5,60.08412979825871,
"['F', 'J', 'P', 'Z']",True,J,4,letter,1,False,True,"['robot_stimuli\\\\filler.mp4', 'robot_stimuli\\\\filler.mp4', 'robot_stimuli\\\\filler.mp4', 'robot_stimuli\\\\filler.mp4']",robot_stimuli\\filler.mp4,18,,,,,,,,,,,,,0,9,9,9,,,,,,,,,,,,,,,,,556.2164026999999,557.2805650999981,,,,,,,,,558.9336894000007,562.4736678000008,558.9336894000007,562.4736678000008,558.9336894000007,562.4736678000008,558.9336894000007,562.4736678000008,9.938271604938265,2.7577968999976292,space,,,3.4991922000008344,,,,,,,,546.272965199998,546.272965199998,None,,553.994780099998,556.2164026999999,557.2805650999981,557.2805650999981,557.2805650999981,557.2805650999981,c,1.4575990000012098,546.272965199998,546.272965199998,,,18,001,2024-07-30_15h07.21.332,robot_sternberg_sign,2022.2.5,60.08412979825871,
"['X', 'N', 'H', 'M', 'K', 'B']",False,J,6,letter,1,True,False,"['robot_stimuli\\\\filler.mp4', 'robot_stimuli\\\\filler.mp4', 'robot_stimuli\\\\filler.mp4', 'robot_stimuli\\\\filler.mp4', 'robot_stimuli\\\\filler.mp4', 'robot_stimuli\\\\filler.mp4']",robot_stimuli\\filler.mp4,18,,,,,,,,,,,,,0,10,10,10,,,,,,,,,,,,,,,,,577.0163094999989,578.0779659,,,,,,,,,579.7126366999983,579.7126366999983,579.7126366999983,579.7126366999983,579.7126366999983,579.7126366999983,579.7126366999983,579.7126366999983,None,None,None,,,,,,,,,,,562.4736678000008,562.4736678000008,space,0.7912778000027174,575.0086220000012,577.0163094999989,578.0779659,578.0779659,578.0779659,578.0779659,n,1.5323439000021608,,,,,18,001,2024-07-30_15h07.21.332,robot_sternberg_sign,2022.2.5,60.08412979825871,
"['H', 'P', 'F', 'D', 'M', 'L']",False,Q,6,letter,1,False,False,"['robot_stimuli\\\\filler.mp4', 'robot_stimuli\\\\filler.mp4', 'robot_stimuli\\\\filler.mp4', 'robot_stimuli\\\\filler.mp4', 'robot_stimuli\\\\filler.mp4', 'robot_stimuli\\\\filler.mp4']",robot_stimuli\\filler.mp4,18,,,,,,,,,,,,,0,11,11,11,,,,,,,,,,,,,,,,,594.0255324999998,595.0778678999995,,,,,,,,,596.9104203999996,596.9104203999996,596.9104203999996,596.9104203999996,596.9104203999996,596.9104203999996,596.9104203999996,596.9104203999996,None,None,None,,,,,,,,,,,579.7126366999983,579.7126366999983,None,,591.814084499998,594.0255324999998,595.0778678999995,595.0778678999995,595.0778678999995,595.0778678999995,n,1.7231825000017125,579.7126366999983,579.7126366999983,,,18,001,2024-07-30_15h07.21.332,robot_sternberg_sign,2022.2.5,60.08412979825871,
"['T', 'R', 'W', 'B', 'L', 'G']",True,T,6,letter,1,False,False,"['robot_stimuli\\\\filler.mp4', 'robot_stimuli\\\\filler.mp4', 'robot_stimuli\\\\filler.mp4', 'robot_stimuli\\\\filler.mp4', 'robot_stimuli\\\\filler.mp4', 'robot_stimuli\\\\filler.mp4']",robot_stimuli\\filler.mp4,18,,,,,,,,,,,,,0,12,12,12,,,,,,,,,,,,,,,,,610.6375146999999,611.6994640999983,,,,,,,,,613.5198143999987,613.5198143999987,613.5198143999987,613.5198143999987,613.5198143999987,613.5198143999987,613.5198143999987,613.5198143999987,None,None,None,,,,,,,,,,,596.9104203999996,596.9104203999996,None,,608.6243332999984,610.6375146999999,611.6994640999983,611.6994640999983,611.6994640999983,611.6994640999983,c,1.6135309999990568,596.9104203999996,596.9104203999996,,,18,001,2024-07-30_15h07.21.332,robot_sternberg_sign,2022.2.5,60.08412979825871,
"['T', 'R', 'M', 'F', 'V', 'W']",True,F,6,letter,1,False,False,"['robot_stimuli\\\\filler.mp4', 'robot_stimuli\\\\filler.mp4', 'robot_stimuli\\\\filler.mp4', 'robot_stimuli\\\\filler.mp4', 'robot_stimuli\\\\filler.mp4', 'robot_stimuli\\\\filler.mp4']",robot_stimuli\\filler.mp4,18,,,,,,,,,,,,,0,13,13,13,,,,,,,,,,,,,,,,,627.8627229999984,628.9297086000006,,,,,,,,,630.9595054999991,630.9595054999991,630.9595054999991,630.9595054999991,630.9595054999991,630.9595054999991,630.9595054999991,630.9595054999991,None,None,None,,,,,,,,,,,613.5198143999987,613.5198143999987,None,,625.8526763000009,627.8627229999984,628.9297086000006,628.9297086000006,628.9297086000006,628.9297086000006,n,1.9039724000031129,613.5198143999987,613.5198143999987,,,18,001,2024-07-30_15h07.21.332,robot_sternberg_sign,2022.2.5,60.08412979825871,
"['X', 'M', 'L', 'F', 'T', 'C']",False,S,6,letter,1,False,False,"['robot_stimuli\\\\filler.mp4', 'robot_stimuli\\\\filler.mp4', 'robot_stimuli\\\\filler.mp4', 'robot_stimuli\\\\filler.mp4', 'robot_stimuli\\\\filler.mp4', 'robot_stimuli\\\\filler.mp4']",robot_stimuli\\filler.mp4,18,,,,,,,,,,,,,0,14,14,14,,,,,,,,,,,,,,,,,645.4721667999984,646.530802199999,,,,,,,,,649.1628089000005,649.1628089000005,649.1628089000005,649.1628089000005,649.1628089000005,649.1628089000005,649.1628089000005,649.1628089000005,None,None,None,,,,,,,,,,,630.9595054999991,630.9595054999991,None,,643.4527979999984,645.4721667999984,646.530802199999,646.530802199999,646.530802199999,646.530802199999,n,2.4554858000010427,630.9595054999991,630.9595054999991,,,18,001,2024-07-30_15h07.21.332,robot_sternberg_sign,2022.2.5,60.08412979825871,
"['Q', 'N', 'R', 'F', 'H', 'P']",False,S,6,letter,1,False,False,"['robot_stimuli\\\\filler.mp4', 'robot_stimuli\\\\filler.mp4', 'robot_stimuli\\\\filler.mp4', 'robot_stimuli\\\\filler.mp4', 'robot_stimuli\\\\filler.mp4', 'robot_stimuli\\\\filler.mp4']",robot_stimuli\\filler.mp4,18,,,,,,,,,,,,,0,15,15,15,,,,,,,,,,,,,,,,,663.3013621999999,664.375864900001,,,,,,,,,665.996888499998,665.996888499998,665.996888499998,665.996888499998,665.996888499998,665.996888499998,665.996888499998,665.996888499998,None,None,None,,,,,,,,,,,649.1628089000005,649.1628089000005,None,,661.079195899998,663.3013621999999,664.375864900001,664.375864900001,664.375864900001,664.375864900001,n,1.5144431000044278,649.1628089000005,649.1628089000005,,,18,001,2024-07-30_15h07.21.332,robot_sternberg_sign,2022.2.5,60.08412979825871,
"['H', 'M', 'S', 'N', 'L', 'R']",True,M,6,letter,1,False,False,"['robot_stimuli\\\\filler.mp4', 'robot_stimuli\\\\filler.mp4', 'robot_stimuli\\\\filler.mp4', 'robot_stimuli\\\\filler.mp4', 'robot_stimuli\\\\filler.mp4', 'robot_stimuli\\\\filler.mp4']",robot_stimuli\\filler.mp4,18,,,,,,,,,,,,,0,16,16,16,,,,,,,,,,,,,,,,,680.3319033000007,681.3960947999985,,,,,,,,,683.2281346999989,683.2281346999989,683.2281346999989,683.2281346999989,683.2281346999989,683.2281346999989,683.2281346999989,683.2281346999989,None,None,None,,,,,,,,,,,665.996888499998,665.996888499998,None,,678.1164927999998,680.3319033000007,681.3960947999985,681.3960947999985,681.3960947999985,681.3960947999985,c,1.5891493000017363,665.996888499998,665.996888499998,,,18,001,2024-07-30_15h07.21.332,robot_sternberg_sign,2022.2.5,60.08412979825871,
"['M', 'C', 'P', 'H', 'T', 'G']",True,C,6,letter,1,False,False,"['robot_stimuli\\\\filler.mp4', 'robot_stimuli\\\\filler.mp4', 'robot_stimuli\\\\filler.mp4', 'robot_stimuli\\\\filler.mp4', 'robot_stimuli\\\\filler.mp4', 'robot_stimuli\\\\filler.mp4']",robot_stimuli\\filler.mp4,18,,,,,,,,,,,,,0,17,17,17,,,,,,,,,,,,,,,,,697.1660583000012,698.2332410999988,,,,,,,,,699.8579624000013,699.8579624000013,699.8579624000013,699.8579624000013,699.8579624000013,699.8579624000013,699.8579624000013,699.8579624000013,None,None,None,,,,,,,,,,,683.2281346999989,683.2281346999989,None,,694.9449166999984,697.1660583000012,698.2332410999988,698.2332410999988,698.2332410999988,698.2332410999988,c,1.457013500003086,683.2281346999989,683.2281346999989,,,18,001,2024-07-30_15h07.21.332,robot_sternberg_sign,2022.2.5,60.08412979825871,
"['W', 'P', 'K', 'C', 'S', 'L']",True,C,6,letter,1,False,False,"['robot_stimuli\\\\filler.mp4', 'robot_stimuli\\\\filler.mp4', 'robot_stimuli\\\\filler.mp4', 'robot_stimuli\\\\filler.mp4', 'robot_stimuli\\\\filler.mp4', 'robot_stimuli\\\\filler.mp4']",robot_stimuli\\filler.mp4,18,,,,,,,,,,,,,0,18,18,18,,,,,,,,,,,,,,,,,713.7648941999978,714.8296246999998,,,,,,,,,716.2543732000013,716.2543732000013,716.2543732000013,716.2543732000013,716.2543732000013,716.2543732000013,716.2543732000013,716.2543732000013,None,None,None,,,,,,,,,,,699.8579624000013,699.8579624000013,None,,711.7511845000008,713.7648941999978,714.8296246999998,714.8296246999998,714.8296246999998,714.8296246999998,c,1.1887754000017594,699.8579624000013,699.8579624000013,,,18,001,2024-07-30_15h07.21.332,robot_sternberg_sign,2022.2.5,60.08412979825871,
"['X', 'L', 'K', 'N', 'M', 'R']",False,S,6,letter,1,False,True,"['robot_stimuli\\\\filler.mp4', 'robot_stimuli\\\\filler.mp4', 'robot_stimuli\\\\filler.mp4', 'robot_stimuli\\\\filler.mp4', 'robot_stimuli\\\\filler.mp4', 'robot_stimuli\\\\filler.mp4']",robot_stimuli\\filler.mp4,18,,,,,,,,,,,,,0,19,19,19,,,,,,,,,,,,,,,,,730.1780532999983,717.3137404000008,,,,,,,,,732.8978266999984,737.2664328999999,732.8978266999984,737.2664328999999,732.8978266999984,737.2664328999999,732.8978266999984,737.2664328999999,35.401234567901234,3.762451799997507,space,,,4.3033182000035595,,,,,,,,716.2543732000013,716.2543732000013,None,,727.9654117999999,730.1780532999983,731.2487995999982,731.2487995999982,731.2487995999982,731.2487995999982,n,1.4580134000025282,716.2543732000013,716.2543732000013,,,18,001,2024-07-30_15h07.21.332,robot_sternberg_sign,2022.2.5,60.08412979825871,
"['T', 'K']",False,Q,2,letter,1,True,False,"['robot_stimuli\\\\filler.mp4', 'robot_stimuli\\\\filler.mp4']",robot_stimuli\\filler.mp4,18,,,,,,,,,,,,,0,20,20,20,,,,,,,,,,,,,,,,,744.2388318999983,745.2971259000005,,,,,,,,,746.7223161000002,746.7223161000002,746.7223161000002,746.7223161000002,746.7223161000002,746.7223161000002,746.7223161000002,746.7223161000002,None,None,None,,,,,,,,,,,737.2664328999999,737.2664328999999,space,1.584038100001635,742.2248581999993,744.2388318999983,745.2971259000005,745.2971259000005,745.2971259000005,745.2971259000005,n,1.2095748000028834,,,,,18,001,2024-07-30_15h07.21.332,robot_sternberg_sign,2022.2.5,60.08412979825871,
"['H', 'V']",True,H,2,letter,1,False,False,"['robot_stimuli\\\\filler.mp4', 'robot_stimuli\\\\filler.mp4']",robot_stimuli\\filler.mp4,18,,,,,,,,,,,,,0,21,21,21,,,,,,,,,,,,,,,,,751.8853240999997,752.9571179999984,,,,,,,,,753.9801851999982,753.9801851999982,753.9801851999982,753.9801851999982,753.9801851999982,753.9801851999982,753.9801851999982,753.9801851999982,None,None,None,,,,,,,,,,,746.7223161000002,746.7223161000002,None,,749.8689057999982,751.8853240999997,752.9571179999984,752.9571179999984,752.9571179999984,752.9571179999984,c,0.8600578000041423,746.7223161000002,746.7223161000002,,,18,001,2024-07-30_15h07.21.332,robot_sternberg_sign,2022.2.5,60.08412979825871,
"['Q', 'P']",False,L,2,letter,1,False,False,"['robot_stimuli\\\\filler.mp4', 'robot_stimuli\\\\filler.mp4']",robot_stimuli\\filler.mp4,18,,,,,,,,,,,,,0,22,22,22,,,,,,,,,,,,,,,,,759.5519157999988,760.6129497000002,,,,,,,,,761.6431094,761.6431094,761.6431094,761.6431094,761.6431094,761.6431094,761.6431094,761.6431094,None,None,None,,,,,,,,,,,753.9801851999982,753.9801851999982,None,,757.3362644000008,759.5519157999988,760.6129497000002,760.6129497000002,760.6129497000002,760.6129497000002,n,0.8768510000045353,753.9801851999982,753.9801851999982,,,18,001,2024-07-30_15h07.21.332,robot_sternberg_sign,2022.2.5,60.08412979825871,
"['Z', 'K']",True,Z,2,letter,1,False,False,"['robot_stimuli\\\\filler.mp4', 'robot_stimuli\\\\filler.mp4']",robot_stimuli\\filler.mp4,18,,,,,,,,,,,,,0,23,23,23,,,,,,,,,,,,,,,,,767.1922435999986,768.2477316000004,,,,,,,,,769.4728137999991,769.4728137999991,769.4728137999991,769.4728137999991,769.4728137999991,769.4728137999991,769.4728137999991,769.4728137999991,None,None,None,,,,,,,,,,,761.6431094,761.6431094,None,,764.9830713999982,767.1922435999986,768.2477316000004,768.2477316000004,768.2477316000004,768.2477316000004,c,1.033402600001864,761.6431094,761.6431094,,,18,001,2024-07-30_15h07.21.332,robot_sternberg_sign,2022.2.5,60.08412979825871,
"['X', 'L']",True,L,2,letter,1,False,False,"['robot_stimuli\\\\filler.mp4', 'robot_stimuli\\\\filler.mp4']",robot_stimuli\\filler.mp4,18,,,,,,,,,,,,,0,24,24,24,,,,,,,,,,,,,,,,,774.8273590999997,770.5306213000003,,,,,,,,,777.5200328999999,777.5200328999999,777.5200328999999,777.5200328999999,777.5200328999999,777.5200328999999,777.5200328999999,777.5200328999999,None,None,None,,,,,,,,,,,769.4728137999991,769.4728137999991,None,,772.6231722000011,774.8273590999997,775.8956938999982,775.8956938999982,775.8956938999982,775.8956938999982,c,1.498365499999636,769.4728137999991,769.4728137999991,,,18,001,2024-07-30_15h07.21.332,robot_sternberg_sign,2022.2.5,60.08412979825871,
"['C', 'D']",False,L,2,letter,1,False,False,"['robot_stimuli\\\\filler.mp4', 'robot_stimuli\\\\filler.mp4']",robot_stimuli\\filler.mp4,18,,,,,,,,,,,,,0,25,25,25,,,,,,,,,,,,,,,,,782.8792380999985,783.9445429999978,,,,,,,,,785.5687952000007,785.5687952000007,785.5687952000007,785.5687952000007,785.5687952000007,785.5687952000007,785.5687952000007,785.5687952000007,None,None,None,,,,,,,,,,,777.5200328999999,777.5200328999999,None,,780.8718654000004,782.8792380999985,783.9445429999978,783.9445429999978,783.9445429999978,783.9445429999978,n,1.5375090000015916,777.5200328999999,777.5200328999999,,,18,001,2024-07-30_15h07.21.332,robot_sternberg_sign,2022.2.5,60.08412979825871,
"['W', 'H']",False,J,2,letter,1,False,False,"['robot_stimuli\\\\filler.mp4', 'robot_stimuli\\\\filler.mp4']",robot_stimuli\\filler.mp4,18,,,,,,,,,,,,,0,26,26,26,,,,,,,,,,,,,,,,,791.1363195000013,792.1953627000003,,,,,,,,,794.2250725000013,794.2250725000013,794.2250725000013,794.2250725000013,794.2250725000013,794.2250725000013,794.2250725000013,794.2250725000013,None,None,None,,,,,,,,,,,785.5687952000007,785.5687952000007,None,,788.927399199998,791.1363195000013,792.1953627000003,792.1953627000003,792.1953627000003,792.1953627000003,n,1.9031668000025093,785.5687952000007,785.5687952000007,,,18,001,2024-07-30_15h07.21.332,robot_sternberg_sign,2022.2.5,60.08412979825871,
"['F', 'T']",True,T,2,letter,1,False,False,"['robot_stimuli\\\\filler.mp4', 'robot_stimuli\\\\filler.mp4']",robot_stimuli\\filler.mp4,18,,,,,,,,,,,,,0,27,27,27,,,,,,,,,,,,,,,,,799.5761559999992,800.6333526999988,,,,,,,,,802.0525675999997,802.0525675999997,802.0525675999997,802.0525675999997,802.0525675999997,802.0525675999997,802.0525675999997,802.0525675999997,None,None,None,,,,,,,,,,,794.2250725000013,794.2250725000013,None,,797.3706777000007,799.5761559999992,800.6333526999988,800.6333526999988,800.6333526999988,800.6333526999988,c,1.1765666000028432,794.2250725000013,794.2250725000013,,,18,001,2024-07-30_15h07.21.332,robot_sternberg_sign,2022.2.5,60.08412979825871,
"['Z', 'W']",True,W,2,letter,1,False,False,"['robot_stimuli\\\\filler.mp4', 'robot_stimuli\\\\filler.mp4']",robot_stimuli\\filler.mp4,18,,,,,,,,,,,,,0,28,28,28,,,,,,,,,,,,,,,,,807.6291840000013,808.6965177999991,,,,,,,,,809.9175848999985,809.9175848999985,809.9175848999985,809.9175848999985,809.9175848999985,809.9175848999985,809.9175848999985,809.9175848999985,None,None,None,,,,,,,,,,,802.0525675999997,802.0525675999997,None,,805.4130521000006,807.6291840000013,808.6965177999991,808.6965177999991,808.6965177999991,808.6965177999991,c,1.0571110000018962,802.0525675999997,802.0525675999997,,,18,001,2024-07-30_15h07.21.332,robot_sternberg_sign,2022.2.5,60.08412979825871,
"['F', 'J']",False,X,2,letter,1,False,True,"['robot_stimuli\\\\filler.mp4', 'robot_stimuli\\\\filler.mp4']",robot_stimuli\\filler.mp4,18,,,,,,,,,,,,,0,29,29,29,,,,,,,,,,,,,,,,,815.4821539000004,816.5469257000004,,,,,,,,,817.6040420999998,821.1210171999992,817.6040420999998,821.1210171999992,817.6040420999998,821.1210171999992,817.6040420999998,821.1210171999992,4.228395061728393,2.830207300001348,space,,,3.4610676000047533,,,,,,,,809.9175848999985,809.9175848999985,None,,813.2647890999979,815.4821539000004,816.5469257000004,816.5469257000004,816.5469257000004,816.5469257000004,n,0.8072882000051322,809.9175848999985,809.9175848999985,,,18,001,2024-07-30_15h07.21.332,robot_sternberg_sign,2022.2.5,60.08412979825871,
"['R_Base_X_Back', 'R_Base_Y_Back']",False,L_Arm_Z_For,2,robot,2,True,False,"['robot_stimuli\\R_Base_X_Back.mp4', 'robot_stimuli\\R_Base_Y_Back.mp4']",robot_stimuli\L_Arm_Z_For.mp4,18,,,,,,,,,,,,,0,30,30,30,,,,,,,,,,,,,,,,,832.5330800999982,833.6212350999995,,,,,,,,,837.251787199999,837.251787199999,837.251787199999,837.251787199999,837.251787199999,837.251787199999,837.251787199999,837.251787199999,None,None,None,,,,,,,,,,,821.1210171999992,821.1210171999992,space,2.913568000003579,,,,833.6212350999995,833.6212350999995,833.6212350999995,n,2.7011915000039153,,,828.8926510999991,833.6212350999995,18,001,2024-07-30_15h07.21.332,robot_sternberg_sign,2022.2.5,60.08412979825871,
"['L_Base_Y_Back', 'R_Base_Z_For']",True,L_Base_Y_Back,2,robot,2,False,False,"['robot_stimuli\\L_Base_Y_Back.mp4', 'robot_stimuli\\R_Base_Z_For.mp4']",robot_stimuli\L_Base_Y_Back.mp4,18,,,,,,,,,,,,,0,31,31,31,,,,,,,,,,,,,,,,,845.6290139999983,846.7205928000003,,,,,,,,,850.2824526000004,850.2824526000004,850.2824526000004,850.2824526000004,850.2824526000004,850.2824526000004,850.2824526000004,850.2824526000004,None,None,None,,,,,,,,,,,837.251787199999,837.251787199999,None,,,,,846.7205928000003,846.7205928000003,846.7205928000003,c,2.6404557000023487,837.251787199999,837.251787199999,841.9896230999984,846.7205928000003,18,001,2024-07-30_15h07.21.332,robot_sternberg_sign,2022.2.5,60.08412979825871,
"['L_Arm_Z_Back', 'L_Head_Y_Back']",False,L_Torso_X_Back,2,robot,2,False,False,"['robot_stimuli\\L_Arm_Z_Back.mp4', 'robot_stimuli\\L_Head_Y_Back.mp4']",robot_stimuli\L_Torso_X_Back.mp4,18,,,,,,,,,,,,,0,32,32,32,,,,,,,,,,,,,,,,,858.708716000001,859.7883994000003,,,,,,,,,863.4159854999998,863.4159854999998,863.4159854999998,863.4159854999998,863.4159854999998,863.4159854999998,863.4159854999998,863.4159854999998,None,None,None,,,,,,,,,,,850.2824526000004,850.2824526000004,None,,,,,859.7883994000003,859.7883994000003,859.7883994000003,n,3.03751110000303,850.2824526000004,850.2824526000004,855.0877256999993,859.7883994000003,18,001,2024-07-30_15h07.21.332,robot_sternberg_sign,2022.2.5,60.08412979825871,
"['R_Head_Y_For', 'L_Base_Y_Back']",True,R_Head_Y_For,2,robot,2,False,False,"['robot_stimuli\\R_Head_Y_For.mp4', 'robot_stimuli\\L_Base_Y_Back.mp4']",robot_stimuli\R_Head_Y_For.mp4,18,,,,,,,,,,,,,0,33,33,33,,,,,,,,,,,,,,,,,871.7978889000005,872.8885456999997,,,,,,,,,876.537597999999,876.537597999999,876.537597999999,876.537597999999,876.537597999999,876.537597999999,876.537597999999,876.537597999999,None,None,None,,,,,,,,,,,863.4159854999998,863.4159854999998,None,,,,,872.8885456999997,872.8885456999997,872.8885456999997,c,2.480396800001472,863.4159854999998,863.4159854999998,868.2228398999978,872.8885456999997,18,001,2024-07-30_15h07.21.332,robot_sternberg_sign,2022.2.5,60.08412979825871,
"['R_Base_Y_Back', 'R_Base_Z_Back']",False,R_Arm_X_For,2,robot,2,False,False,"['robot_stimuli\\R_Base_Y_Back.mp4', 'robot_stimuli\\R_Base_Z_Back.mp4']",robot_stimuli\R_Arm_X_For.mp4,18,,,,,,,,,,,,,0,34,34,34,,,,,,,,,,,,,,,,,884.866401299998,885.9528988999991,,,,,,,,,889.5931061999981,889.5931061999981,889.5931061999981,889.5931061999981,889.5931061999981,889.5931061999981,889.5931061999981,889.5931061999981,None,None,None,,,,,,,,,,,876.537597999999,876.537597999999,None,,,,,885.9528988999991,885.9528988999991,885.9528988999991,n,2.913830200002849,876.537597999999,876.537597999999,881.3375038999984,885.9528988999991,18,001,2024-07-30_15h07.21.332,robot_sternberg_sign,2022.2.5,60.08412979825871,
"['L_Torso_Y_For', 'R_Head_Y_Back']",True,L_Torso_Y_For,2,robot,2,False,False,"['robot_stimuli\\L_Torso_Y_For.mp4', 'robot_stimuli\\R_Head_Y_Back.mp4']",robot_stimuli\L_Torso_Y_For.mp4,18,,,,,,,,,,,,,0,35,35,35,,,,,,,,,,,,,,,,,898.0309503999997,899.1241840000002,,,,,,,,,902.7738989999998,902.7738989999998,902.7738989999998,902.7738989999998,902.7738989999998,902.7738989999998,902.7738989999998,902.7738989999998,None,None,None,,,,,,,,,,,889.5931061999981,889.5931061999981,None,,,,,899.1241840000002,899.1241840000002,899.1241840000002,c,2.581498499999725,889.5931061999981,889.5931061999981,894.3910518000012,899.1241840000002,18,001,2024-07-30_15h07.21.332,robot_sternberg_sign,2022.2.5,60.08412979825871,
"['L_Torso_Z_For', 'R_Arm_Z_Back']",False,R_Base_Y_For,2,robot,2,False,False,"['robot_stimuli\\L_Torso_Z_For.mp4', 'robot_stimuli\\R_Arm_Z_Back.mp4']",robot_stimuli\R_Base_Y_For.mp4,18,,,,,,,,,,,,,0,36,36,36,,,,,,,,,,,,,,,,,911.2133859999994,912.307458700001,,,,,,,,,916.4585082999984,916.4585082999984,916.4585082999984,916.4585082999984,916.4585082999984,916.4585082999984,916.4585082999984,916.4585082999984,None,None,None,,,,,,,,,,,902.7738989999998,902.7738989999998,None,,,,,912.307458700001,912.307458700001,912.307458700001,n,4.110548100001324,902.7738989999998,902.7738989999998,907.5730681999994,912.307458700001,18,001,2024-07-30_15h07.21.332,robot_sternberg_sign,2022.2.5,60.08412979825871,
"['L_Torso_Y_For', 'R_Base_Z_Back']",True,R_Base_Z_Back,2,robot,2,False,False,"['robot_stimuli\\L_Torso_Y_For.mp4', 'robot_stimuli\\R_Base_Z_Back.mp4']",robot_stimuli\R_Base_Z_Back.mp4,18,,,,,,,,,,,,,0,37,37,37,,,,,,,,,,,,,,,,,924.8000141000011,925.9039439000007,,,,,,,,,929.4463527000007,929.4463527000007,929.4463527000007,929.4463527000007,929.4463527000007,929.4463527000007,929.4463527000007,929.4463527000007,None,None,None,,,,,,,,,,,916.4585082999984,916.4585082999984,None,,,,,925.9039439000007,925.9039439000007,925.9039439000007,c,2.041366300003574,916.4585082999984,916.4585082999984,921.2565986000009,925.9039439000007,18,001,2024-07-30_15h07.21.332,robot_sternberg_sign,2022.2.5,60.08412979825871,
"['L_Torso_Y_Back', 'R_Base_Y_For']",True,L_Torso_Y_Back,2,robot,2,False,False,"['robot_stimuli\\L_Torso_Y_Back.mp4', 'robot_stimuli\\R_Base_Y_For.mp4']",robot_stimuli\L_Torso_Y_Back.mp4,18,,,,,,,,,,,,,0,38,38,38,,,,,,,,,,,,,,,,,937.7657725999998,938.8536280000008,,,,,,,,,942.3596966000005,942.3596966000005,942.3596966000005,942.3596966000005,942.3596966000005,942.3596966000005,942.3596966000005,942.3596966000005,None,None,None,,,,,,,,,,,929.4463527000007,929.4463527000007,None,,,,,938.8536280000008,938.8536280000008,938.8536280000008,c,2.1718559000037203,929.4463527000007,929.4463527000007,934.1371844999994,938.8536280000008,18,001,2024-07-30_15h07.21.332,robot_sternberg_sign,2022.2.5,60.08412979825871,
"['R_Torso_Y_Back', 'L_Arm_Y_Back']",False,R_Base_Y_For,2,robot,2,False,True,"['robot_stimuli\\R_Torso_Y_Back.mp4', 'robot_stimuli\\L_Arm_Y_Back.mp4']",robot_stimuli\R_Base_Y_For.mp4,18,,,,,,,,,,,,,0,39,39,39,,,,,,,,,,,,,,,,,950.7985664999978,951.9101998000006,,,,,,,,,956.2156025000004,959.5487778999995,956.2156025000004,959.5487778999995,956.2156025000004,959.5487778999995,956.2156025000004,959.5487778999995,19.96913580246913,2.821345200001815,space,,,3.273188700000901,,,,,,,,942.3596966000005,942.3596966000005,None,,,,,951.9101998000006,951.9101998000006,951.9101998000006,n,4.244564000004175,942.3596966000005,942.3596966000005,947.1567942000001,951.9101998000006,18,001,2024-07-30_15h07.21.332,robot_sternberg_sign,2022.2.5,60.08412979825871,
"['L_Arm_X_Back', 'R_Head_Z_Back', 'L_Head_X_Back', 'R_Base_Y_For', 'R_Arm_Z_For', 'R_Head_Y_Back']",True,R_Arm_Z_For,6,robot,2,True,False,"['robot_stimuli\\L_Arm_X_Back.mp4', 'robot_stimuli\\R_Head_Z_Back.mp4', 'robot_stimuli\\L_Head_X_Back.mp4', 'robot_stimuli\\R_Base_Y_For.mp4', 'robot_stimuli\\R_Arm_Z_For.mp4', 'robot_stimuli\\R_Head_Y_Back.mp4']",robot_stimuli\R_Arm_Z_For.mp4,18,,,,,,,,,,,,,0,40,40,40,,,,,,,,,,,,,,,,,984.1781881999996,961.9342914999979,,,,,,,,,988.900861099999,988.900861099999,988.900861099999,988.900861099999,988.900861099999,988.900861099999,988.900861099999,988.900861099999,None,None,None,,,,,,,,,,,959.5487778999995,959.5487778999995,space,1.2921928000032494,,,,985.2712150000007,985.2712150000007,985.2712150000007,n,3.58603050000238,,,980.5483829000004,985.2712150000007,18,001,2024-07-30_15h07.21.332,robot_sternberg_sign,2022.2.5,60.08412979825871,
"['R_Base_Y_Back', 'L_Torso_Y_For', 'L_Base_Z_Back', 'L_Head_Z_For', 'R_Torso_Y_Back', 'L_Base_Y_For']",False,L_Arm_Y_Back,6,robot,2,False,False,"['robot_stimuli\\R_Base_Y_Back.mp4', 'robot_stimuli\\L_Torso_Y_For.mp4', 'robot_stimuli\\L_Base_Z_Back.mp4', 'robot_stimuli\\L_Head_Z_For.mp4', 'robot_stimuli\\R_Torso_Y_Back.mp4', 'robot_stimuli\\L_Base_Y_For.mp4']",robot_stimuli\L_Arm_Y_Back.mp4,18,,,,,,,,,,,,,0,41,41,41,,,,,,,,,,,,,,,,,1012.1783529999993,989.9854556999999,,,,,,,,,1016.9225220000008,1016.9225220000008,1016.9225220000008,1016.9225220000008,1016.9225220000008,1016.9225220000008,1016.9225220000008,1016.9225220000008,None,None,None,,,,,,,,,,,988.900861099999,988.900861099999,None,,,,,1013.2724603999995,1013.2724603999995,1013.2724603999995,n,2.5854729000020598,988.900861099999,988.900861099999,1008.6383483999998,1013.2724603999995,18,001,2024-07-30_15h07.21.332,robot_sternberg_sign,2022.2.5,60.08412979825871,
"['L_Base_Y_Back', 'L_Head_X_For', 'R_Head_Y_For', 'L_Arm_Y_For', 'R_Torso_X_For', 'L_Torso_Y_For']",True,L_Head_X_For,6,robot,2,False,False,"['robot_stimuli\\L_Base_Y_Back.mp4', 'robot_stimuli\\L_Head_X_For.mp4', 'robot_stimuli\\R_Head_Y_For.mp4', 'robot_stimuli\\L_Arm_Y_For.mp4', 'robot_stimuli\\R_Torso_X_For.mp4', 'robot_stimuli\\L_Torso_Y_For.mp4']",robot_stimuli\L_Head_X_For.mp4,18,,,,,,,,,,,,,0,42,42,42,,,,,,,,,,,,,,,,,1040.100050000001,1041.1875438999996,,,,,,,,,1046.5733325,1046.5733325,1046.5733325,1046.5733325,1046.5733325,1046.5733325,1046.5733325,1046.5733325,None,None,None,,,,,,,,,,,1016.9225220000008,1016.9225220000008,None,,,,,1041.1875438999996,1041.1875438999996,1041.1875438999996,c,5.341969400004018,1016.9225220000008,1016.9225220000008,1036.4708499999979,1041.1875438999996,18,001,2024-07-30_15h07.21.332,robot_sternberg_sign,2022.2.5,60.08412979825871,
"['L_Torso_Y_For', 'L_Torso_Z_Back', 'R_Head_X_For', 'L_Head_Y_Back', 'R_Torso_Y_Back', 'L_Base_Y_Back']",True,R_Torso_Y_Back,6,robot,2,False,False,"['robot_stimuli\\L_Torso_Y_For.mp4', 'robot_stimuli\\L_Torso_Z_Back.mp4', 'robot_stimuli\\R_Head_X_For.mp4', 'robot_stimuli\\L_Head_Y_Back.mp4', 'robot_stimuli\\R_Torso_Y_Back.mp4', 'robot_stimuli\\L_Base_Y_Back.mp4']",robot_stimuli\R_Torso_Y_Back.mp4,18,,,,,,,,,,,,,0,43,43,43,,,,,,,,,,,,,,,,,1069.717813700001,1070.8029967000002,,,,,,,,,1076.720304800001,1076.720304800001,1076.720304800001,1076.720304800001,1076.720304800001,1076.720304800001,1076.720304800001,1076.720304800001,None,None,None,,,,,,,,,,,1046.5733325,1046.5733325,None,,,,,1070.8029967000002,1070.8029967000002,1070.8029967000002,n,5.887323000002652,1046.5733325,1046.5733325,1066.153029699999,1070.8029967000002,18,001,2024-07-30_15h07.21.332,robot_sternberg_sign,2022.2.5,60.08412979825871,
"['L_Arm_Z_Back', 'L_Arm_X_Back', 'R_Torso_Z_Back', 'R_Arm_Y_For', 'R_Torso_X_Back', 'L_Torso_Z_Back']",True,L_Torso_Z_Back,6,robot,2,False,False,"['robot_stimuli\\L_Arm_Z_Back.mp4', 'robot_stimuli\\L_Arm_X_Back.mp4', 'robot_stimuli\\R_Torso_Z_Back.mp4', 'robot_stimuli\\R_Arm_Y_For.mp4', 'robot_stimuli\\R_Torso_X_Back.mp4', 'robot_stimuli\\L_Torso_Z_Back.mp4']",robot_stimuli\L_Torso_Z_Back.mp4,18,,,,,,,,,,,,,0,44,44,44,,,,,,,,,,,,,,,,,1099.7990721999995,1100.887705000001,,,,,,,,,1106.8925990999996,1106.8925990999996,1106.8925990999996,1106.8925990999996,1106.8925990999996,1106.8925990999996,1106.8925990999996,1106.8925990999996,None,None,None,,,,,,,,,,,1076.720304800001,1076.720304800001,None,,,,,1100.887705000001,1100.887705000001,1100.887705000001,n,5.9705444000028365,1076.720304800001,1076.720304800001,1096.3024036999996,1100.887705000001,18,001,2024-07-30_15h07.21.332,robot_sternberg_sign,2022.2.5,60.08412979825871,
"['L_Arm_X_For', 'L_Head_Y_Back', 'L_Torso_X_For', 'R_Base_Y_For', 'R_Arm_Z_Back', 'R_Base_Y_Back']",False,R_Arm_Y_Back,6,robot,2,False,False,"['robot_stimuli\\L_Arm_X_For.mp4', 'robot_stimuli\\L_Head_Y_Back.mp4', 'robot_stimuli\\L_Torso_X_For.mp4', 'robot_stimuli\\R_Base_Y_For.mp4', 'robot_stimuli\\R_Arm_Z_Back.mp4', 'robot_stimuli\\R_Base_Y_Back.mp4']",robot_stimuli\R_Arm_Y_Back.mp4,18,,,,,,,,,,,,,0,45,45,45,,,,,,,,,,,,,,,,,1130.2996811999983,1131.4011116000001,,,,,,,,,1135.3584827999985,1135.3584827999985,1135.3584827999985,1135.3584827999985,1135.3584827999985,1135.3584827999985,1135.3584827999985,1135.3584827999985,None,None,None,,,,,,,,,,,1106.8925990999996,1106.8925990999996,None,,,,,1131.4011116000001,1131.4011116000001,1131.4011116000001,n,3.9133330000040587,1106.8925990999996,1106.8925990999996,1126.6540294000006,1131.4011116000001,18,001,2024-07-30_15h07.21.332,robot_sternberg_sign,2022.2.5,60.08412979825871,
"['R_Torso_X_For', 'L_Arm_X_For', 'L_Head_Z_Back', 'L_Head_X_For', 'R_Arm_X_Back', 'L_Base_Z_For']",True,R_Arm_X_Back,6,robot,2,False,False,"['robot_stimuli\\R_Torso_X_For.mp4', 'robot_stimuli\\L_Arm_X_For.mp4', 'robot_stimuli\\L_Head_Z_Back.mp4', 'robot_stimuli\\L_Head_X_For.mp4', 'robot_stimuli\\R_Arm_X_Back.mp4', 'robot_stimuli\\L_Base_Z_For.mp4']",robot_stimuli\R_Arm_X_Back.mp4,18,,,,,,,,,,,,,0,46,46,46,,,,,,,,,,,,,,,,,1158.614574299998,1159.7038023999994,,,,,,,,,1164.0755866,1164.0755866,1164.0755866,1164.0755866,1164.0755866,1164.0755866,1164.0755866,1164.0755866,None,None,None,,,,,,,,,,,1135.3584827999985,1135.3584827999985,None,,,,,1159.7038023999994,1159.7038023999994,1159.7038023999994,n,4.337400000003981,1135.3584827999985,1135.3584827999985,1154.9836585000012,1159.7038023999994,18,001,2024-07-30_15h07.21.332,robot_sternberg_sign,2022.2.5,60.08412979825871,
"['R_Torso_Z_Back', 'L_Torso_X_For', 'L_Head_Y_For', 'R_Head_Z_Back', 'L_Arm_Y_For', 'R_Arm_X_Back']",False,L_Base_Z_Back,6,robot,2,False,False,"['robot_stimuli\\R_Torso_Z_Back.mp4', 'robot_stimuli\\L_Torso_X_For.mp4', 'robot_stimuli\\L_Head_Y_For.mp4', 'robot_stimuli\\R_Head_Z_Back.mp4', 'robot_stimuli\\L_Arm_Y_For.mp4', 'robot_stimuli\\R_Arm_X_Back.mp4']",robot_stimuli\L_Base_Z_Back.mp4,18,,,,,,,,,,,,,0,47,47,47,,,,,,,,,,,,,,,,,1187.3975219999993,1188.486748899999,,,,,,,,,1194.691635799998,1194.691635799998,1194.691635799998,1194.691635799998,1194.691635799998,1194.691635799998,1194.691635799998,1194.691635799998,None,None,None,,,,,,,,,,,1164.0755866,1164.0755866,None,,,,,1188.486748899999,1188.486748899999,1188.486748899999,c,6.162081100002979,1164.0755866,1164.0755866,1183.7672031000002,1188.486748899999,18,001,2024-07-30_15h07.21.332,robot_sternberg_sign,2022.2.5,60.08412979825871,
"['L_Head_Z_For', 'R_Base_Z_Back', 'R_Base_X_Back', 'L_Base_Y_For', 'L_Torso_Y_For', 'R_Arm_Y_For']",False,R_Base_Y_Back,6,robot,2,False,False,"['robot_stimuli\\L_Head_Z_For.mp4', 'robot_stimuli\\R_Base_Z_Back.mp4', 'robot_stimuli\\R_Base_X_Back.mp4', 'robot_stimuli\\L_Base_Y_For.mp4', 'robot_stimuli\\L_Torso_Y_For.mp4', 'robot_stimuli\\R_Arm_Y_For.mp4']",robot_stimuli\R_Base_Y_Back.mp4,18,,,,,,,,,,,,,0,48,48,48,,,,,,,,,,,,,,,,,1217.648339899999,1218.7369763999995,,,,,,,,,1226.7675698999992,1226.7675698999992,1226.7675698999992,1226.7675698999992,1226.7675698999992,1226.7675698999992,1226.7675698999992,1226.7675698999992,None,None,None,,,,,,,,,,,1194.691635799998,1194.691635799998,None,,,,,1218.7369763999995,1218.7369763999995,1218.7369763999995,n,7.99988680000024,1194.691635799998,1194.691635799998,1214.1511242999986,1218.7369763999995,18,001,2024-07-30_15h07.21.332,robot_sternberg_sign,2022.2.5,60.08412979825871,
"['R_Torso_Z_Back', 'R_Head_Z_For', 'L_Torso_Z_Back', 'L_Head_Y_For', 'L_Head_Z_For', 'R_Base_Z_Back']",False,R_Base_Z_For,6,robot,2,False,True,"['robot_stimuli\\R_Torso_Z_Back.mp4', 'robot_stimuli\\R_Head_Z_For.mp4', 'robot_stimuli\\L_Torso_Z_Back.mp4', 'robot_stimuli\\L_Head_Y_For.mp4', 'robot_stimuli\\L_Head_Z_For.mp4', 'robot_stimuli\\R_Base_Z_Back.mp4']",robot_stimuli\R_Base_Z_For.mp4,18,,,,,,,,,,,,,0,49,49,49,,,,,,,,,,,,,,,,,1249.8671160999984,1250.9518336,,,,,,,,,1254.622900399998,1258.5943092999987,1254.622900399998,1258.5943092999987,1254.622900399998,1258.5943092999987,1254.622900399998,1258.5943092999987,37.87037037037037,2.8870618999972066,space,,,3.922210400003678,,,,,,,,1226.7675698999992,1226.7675698999992,None,,,,,1250.9518336,1250.9518336,1250.9518336,n,3.1064754000035464,1226.7675698999992,1226.7675698999992,1246.3347837000001,1250.9518336,18,001,2024-07-30_15h07.21.332,robot_sternberg_sign,2022.2.5,60.08412979825871,
"['L_Base_Y_Back', 'L_Torso_Z_For', 'R_Base_X_For', 'L_Head_X_Back']",True,L_Base_Y_Back,4,robot,2,True,False,"['robot_stimuli\\L_Base_Y_Back.mp4', 'robot_stimuli\\L_Torso_Z_For.mp4', 'robot_stimuli\\R_Base_X_For.mp4', 'robot_stimuli\\L_Head_X_Back.mp4']",robot_stimuli\L_Base_Y_Back.mp4,18,,,,,,,,,,,,,0,50,50,50,,,,,,,,,,,,,,,,,1278.8979962000012,1279.9884660999996,,,,,,,,,1283.569915600001,1283.569915600001,1283.569915600001,1283.569915600001,1283.569915600001,1283.569915600001,1283.569915600001,1283.569915600001,None,None,None,,,,,,,,,,,1258.5943092999987,1258.5943092999987,space,4.592007300001569,,,,1279.9884660999996,1279.9884660999996,1279.9884660999996,n,3.0603903000010177,,,1275.2672371000008,1279.9884660999996,18,001,2024-07-30_15h07.21.332,robot_sternberg_sign,2022.2.5,60.08412979825871,
"['R_Torso_Z_Back', 'R_Head_Y_For', 'L_Arm_Z_Back', 'R_Arm_X_Back']",False,L_Torso_Y_Back,4,robot,2,False,False,"['robot_stimuli\\R_Torso_Z_Back.mp4', 'robot_stimuli\\R_Head_Y_For.mp4', 'robot_stimuli\\L_Arm_Z_Back.mp4', 'robot_stimuli\\R_Arm_X_Back.mp4']",robot_stimuli\L_Torso_Y_Back.mp4,18,,,,,,,,,,,,,0,51,51,51,,,,,,,,,,,,,,,,,1299.4477937999982,1300.5377898000006,,,,,,,,,1304.043499899999,1304.043499899999,1304.043499899999,1304.043499899999,1304.043499899999,1304.043499899999,1304.043499899999,1304.043499899999,None,None,None,,,,,,,,,,,1283.569915600001,1283.569915600001,None,,,,,1300.5377898000006,1300.5377898000006,1300.5377898000006,n,2.55952690000413,1283.569915600001,1283.569915600001,1295.8176624999978,1300.5377898000006,18,001,2024-07-30_15h07.21.332,robot_sternberg_sign,2022.2.5,60.08412979825871,
"['L_Base_Z_Back', 'L_Base_Y_Back', 'R_Torso_Y_Back', 'R_Torso_Y_For']",False,R_Head_Y_For,4,robot,2,False,False,"['robot_stimuli\\L_Base_Z_Back.mp4', 'robot_stimuli\\L_Base_Y_Back.mp4', 'robot_stimuli\\R_Torso_Y_Back.mp4', 'robot_stimuli\\R_Torso_Y_For.mp4']",robot_stimuli\R_Head_Y_For.mp4,18,,,,,,,,,,,,,0,52,52,52,,,,,,,,,,,,,,,,,1319.8491147999994,1320.9376515000004,,,,,,,,,1325.9338159,1325.9338159,1325.9338159,1325.9338159,1325.9338159,1325.9338159,1325.9338159,1325.9338159,None,None,None,,,,,,,,,,,1304.043499899999,1304.043499899999,None,,,,,1320.9376515000004,1320.9376515000004,1320.9376515000004,c,4.959843399999954,1304.043499899999,1304.043499899999,1316.2174152000007,1320.9376515000004,18,001,2024-07-30_15h07.21.332,robot_sternberg_sign,2022.2.5,60.08412979825871,
"['L_Base_Y_For', 'L_Base_Z_For', 'L_Torso_Y_Back', 'L_Base_X_Back']",True,L_Base_Y_For,4,robot,2,False,False,"['robot_stimuli\\L_Base_Y_For.mp4', 'robot_stimuli\\L_Base_Z_For.mp4', 'robot_stimuli\\L_Torso_Y_Back.mp4', 'robot_stimuli\\L_Base_X_Back.mp4']",robot_stimuli\L_Base_Y_For.mp4,18,,,,,,,,,,,,,0,53,53,53,,,,,,,,,,,,,,,,,1341.566706499998,1342.6532664000006,,,,,,,,,1346.7723813999983,1346.7723813999983,1346.7723813999983,1346.7723813999983,1346.7723813999983,1346.7723813999983,1346.7723813999983,1346.7723813999983,None,None,None,,,,,,,,,,,1325.9338159,1325.9338159,None,,,,,1342.6532664000006,1342.6532664000006,1342.6532664000006,n,4.084703600005014,1325.9338159,1325.9338159,1337.9589730999978,1342.6532664000006,18,001,2024-07-30_15h07.21.332,robot_sternberg_sign,2022.2.5,60.08412979825871,
"['R_Arm_Z_Back', 'L_Arm_Y_Back', 'L_Arm_X_Back', 'R_Torso_Y_Back']",True,L_Arm_Y_Back,4,robot,2,False,False,"['robot_stimuli\\R_Arm_Z_Back.mp4', 'robot_stimuli\\L_Arm_Y_Back.mp4', 'robot_stimuli\\L_Arm_X_Back.mp4', 'robot_stimuli\\R_Torso_Y_Back.mp4']",robot_stimuli\L_Arm_Y_Back.mp4,18,,,,,,,,,,,,,0,54,54,54,,,,,,,,,,,,,,,,,1362.6457105000009,1347.850615899999,,,,,,,,,1367.3763357999997,1367.3763357999997,1367.3763357999997,1367.3763357999997,1367.3763357999997,1367.3763357999997,1367.3763357999997,1367.3763357999997,None,None,None,,,,,,,,,,,1346.7723813999983,1346.7723813999983,None,,,,,1363.7363138,1363.7363138,1363.7363138,c,2.4976787000014156,1346.7723813999983,1346.7723813999983,1359.0041749999982,1363.7363138,18,001,2024-07-30_15h07.21.332,robot_sternberg_sign,2022.2.5,60.08412979825871,
"['R_Base_X_For', 'R_Arm_X_Back', 'L_Base_X_For', 'L_Base_Z_For']",False,L_Torso_Y_Back,4,robot,2,False,False,"['robot_stimuli\\R_Base_X_For.mp4', 'robot_stimuli\\R_Arm_X_Back.mp4', 'robot_stimuli\\L_Base_X_For.mp4', 'robot_stimuli\\L_Base_Z_For.mp4']",robot_stimuli\L_Torso_Y_Back.mp4,18,,,,,,,,,,,,,0,55,55,55,,,,,,,,,,,,,,,,,1383.0816582999978,1384.1708448999998,,,,,,,,,1387.667231299998,1387.667231299998,1387.667231299998,1387.667231299998,1387.667231299998,1387.667231299998,1387.667231299998,1387.667231299998,None,None,None,,,,,,,,,,,1367.3763357999997,1367.3763357999997,None,,,,,1384.1708448999998,1384.1708448999998,1384.1708448999998,n,2.838651200003369,1367.3763357999997,1367.3763357999997,1379.4508309999983,1384.1708448999998,18,001,2024-07-30_15h07.21.332,robot_sternberg_sign,2022.2.5,60.08412979825871,
"['R_Base_Z_Back', 'R_Base_X_Back', 'L_Arm_X_For', 'L_Torso_X_For']",False,L_Base_X_For,4,robot,2,False,False,"['robot_stimuli\\R_Base_Z_Back.mp4', 'robot_stimuli\\R_Base_X_Back.mp4', 'robot_stimuli\\L_Arm_X_For.mp4', 'robot_stimuli\\L_Torso_X_For.mp4']",robot_stimuli\L_Base_X_For.mp4,18,,,,,,,,,,,,,0,56,56,56,,,,,,,,,,,,,,,,,1403.4778865999979,1388.7501279999997,,,,,,,,,1408.8201889999982,1408.8201889999982,1408.8201889999982,1408.8201889999982,1408.8201889999982,1408.8201889999982,1408.8201889999982,1408.8201889999982,None,None,None,,,,,,,,,,,1387.667231299998,1387.667231299998,None,,,,,1404.5721818999991,1404.5721818999991,1404.5721818999991,n,4.213956900002813,1387.667231299998,1387.667231299998,1399.837066699998,1404.5721818999991,18,001,2024-07-30_15h07.21.332,robot_sternberg_sign,2022.2.5,60.08412979825871,
"['L_Torso_Z_Back', 'L_Torso_Y_Back', 'L_Base_Y_For', 'L_Arm_X_For']",True,L_Torso_Y_Back,4,robot,2,False,False,"['robot_stimuli\\L_Torso_Z_Back.mp4', 'robot_stimuli\\L_Torso_Y_Back.mp4', 'robot_stimuli\\L_Base_Y_For.mp4', 'robot_stimuli\\L_Arm_X_For.mp4']",robot_stimuli\L_Torso_Y_Back.mp4,18,,,,,,,,,,,,,0,57,57,57,,,,,,,,,,,,,,,,,1424.3468528000012,1425.4396750999986,,,,,,,,,1428.9550904999996,1428.9550904999996,1428.9550904999996,1428.9550904999996,1428.9550904999996,1428.9550904999996,1428.9550904999996,1428.9550904999996,None,None,None,,,,,,,,,,,1408.8201889999982,1408.8201889999982,None,,,,,1425.4396750999986,1425.4396750999986,1425.4396750999986,c,3.20114850000391,1408.8201889999982,1408.8201889999982,1420.7046210000008,1425.4396750999986,18,001,2024-07-30_15h07.21.332,robot_sternberg_sign,2022.2.5,60.08412979825871,
"['R_Head_X_For', 'R_Torso_Y_For', 'L_Base_Y_For', 'L_Head_Y_For']",False,L_Base_X_For,4,robot,2,False,False,"['robot_stimuli\\R_Head_X_For.mp4', 'robot_stimuli\\R_Torso_Y_For.mp4', 'robot_stimuli\\L_Base_Y_For.mp4', 'robot_stimuli\\L_Head_Y_For.mp4']",robot_stimuli\L_Base_X_For.mp4,18,,,,,,,,,,,,,0,58,58,58,,,,,,,,,,,,,,,,,1444.726094499998,1445.805857700001,,,,,,,,,1449.3892201999988,1449.3892201999988,1449.3892201999988,1449.3892201999988,1449.3892201999988,1449.3892201999988,1449.3892201999988,1449.3892201999988,None,None,None,,,,,,,,,,,1428.9550904999996,1428.9550904999996,None,,,,,1445.805857700001,1445.805857700001,1445.805857700001,n,2.884370499999932,1428.9550904999996,1428.9550904999996,1441.1033444999994,1445.805857700001,18,001,2024-07-30_15h07.21.332,robot_sternberg_sign,2022.2.5,60.08412979825871,
"['L_Arm_Y_Back', 'L_Head_X_For', 'L_Torso_Y_For', 'R_Head_Y_For']",True,L_Arm_Y_Back,4,robot,2,False,True,"['robot_stimuli\\L_Arm_Y_Back.mp4', 'robot_stimuli\\L_Head_X_For.mp4', 'robot_stimuli\\L_Torso_Y_For.mp4', 'robot_stimuli\\R_Head_Y_For.mp4']",robot_stimuli\L_Arm_Y_Back.mp4,18,,,,,,,,,,,,,0,59,59,59,,,,,,,,,,,,,,,,,1465.2176951000001,1466.301962900001,,,,,,,,,1469.9719005000006,1473.6376267999985,1469.9719005000006,1473.6376267999985,1469.9719005000006,1473.6376267999985,1469.9719005000006,1473.6376267999985,27.685185185185183,2.8562230999996245,space,,,3.6130476000034832,,,,,,,,1449.3892201999988,1449.3892201999988,None,,,,,1466.301962900001,1466.301962900001,1466.301962900001,c,3.122730800001591,1449.3892201999988,1449.3892201999988,1461.5864574999978,1466.301962900001,18,001,2024-07-30_15h07.21.332,robot_sternberg_sign,2022.2.5,60.08412979825871,
"['H', 'P']",False,C,2,letter,3,True,False,"['robot_stimuli\\\\filler.mp4', 'robot_stimuli\\\\filler.mp4']",robot_stimuli\\filler.mp4,18,,,,,,,,,,,,,0,60,60,60,,,,,,,,,,,,,,,,,1481.976216799998,1483.0305262000002,,,,,,,,,1484.254847100001,1484.254847100001,1484.254847100001,1484.254847100001,1484.254847100001,1484.254847100001,1484.254847100001,1484.254847100001,None,None,None,,,,,,,,,,,1473.6376267999985,1473.6376267999985,space,2.763839100000041,1479.7681969000005,1481.976216799998,1483.0305262000002,1483.0305262000002,1483.0305262000002,1483.0305262000002,n,1.14002050000272,,,,,18,001,2024-07-30_15h07.21.332,robot_sternberg_sign,2022.2.5,60.08412979825871,
"['W', 'F']",False,Z,2,letter,3,False,False,"['robot_stimuli\\\\filler.mp4', 'robot_stimuli\\\\filler.mp4']",robot_stimuli\\filler.mp4,18,,,,,,,,,,,,,0,61,61,61,,,,,,,,,,,,,,,,,1489.4184447000007,1490.4809693999996,,,,,,,,,1491.3028226999995,1491.3028226999995,1491.3028226999995,1491.3028226999995,1491.3028226999995,1491.3028226999995,1491.3028226999995,1491.3028226999995,None,None,None,,,,,,,,,,,1484.254847100001,1484.254847100001,None,,1487.401805999998,1489.4184447000007,1490.4809693999996,1490.4809693999996,1490.4809693999996,1490.4809693999996,n,0.7681636000015715,1484.254847100001,1484.254847100001,,,18,001,2024-07-30_15h07.21.332,robot_sternberg_sign,2022.2.5,60.08412979825871,
"['R', 'P']",False,D,2,letter,3,False,False,"['robot_stimuli\\\\filler.mp4', 'robot_stimuli\\\\filler.mp4']",robot_stimuli\\filler.mp4,18,,,,,,,,,,,,,0,62,62,62,,,,,,,,,,,,,,,,,1496.863730099998,1497.9296572999992,,,,,,,,,1498.5579311000001,1498.5579311000001,1498.5579311000001,1498.5579311000001,1498.5579311000001,1498.5579311000001,1498.5579311000001,1498.5579311000001,None,None,None,,,,,,,,,,,1491.3028226999995,1491.3028226999995,None,,1494.648613199999,1496.863730099998,1497.9296572999992,1497.9296572999992,1497.9296572999992,1497.9296572999992,n,0.4801266000031319,1491.3028226999995,1491.3028226999995,,,18,001,2024-07-30_15h07.21.332,robot_sternberg_sign,2022.2.5,60.08412979825871,
"['S', 'Z']",False,B,2,letter,3,False,False,"['robot_stimuli\\\\filler.mp4', 'robot_stimuli\\\\filler.mp4']",robot_stimuli\\filler.mp4,18,,,,,,,,,,,,,0,63,63,63,,,,,,,,,,,,,,,,,1504.1212391000008,1505.1822102999977,,,,,,,,,1505.8045008000008,1505.8045008000008,1505.8045008000008,1505.8045008000008,1505.8045008000008,1505.8045008000008,1505.8045008000008,1505.8045008000008,None,None,None,,,,,,,,,,,1498.5579311000001,1498.5579311000001,None,,1501.9109874999995,1504.1212391000008,1505.1822102999977,1505.1822102999977,1505.1822102999977,1505.1822102999977,n,0.5225250000039523,1498.5579311000001,1498.5579311000001,,,18,001,2024-07-30_15h07.21.332,robot_sternberg_sign,2022.2.5,60.08412979825871,
"['P', 'W']",True,W,2,letter,3,False,False,"['robot_stimuli\\\\filler.mp4', 'robot_stimuli\\\\filler.mp4']",robot_stimuli\\filler.mp4,18,,,,,,,,,,,,,0,64,64,64,,,,,,,,,,,,,,,,,1511.3641554999995,1512.4307793999978,,,,,,,,,1513.2598422999981,1513.2598422999981,1513.2598422999981,1513.2598422999981,1513.2598422999981,1513.2598422999981,1513.2598422999981,1513.2598422999981,None,None,None,,,,,,,,,,,1505.8045008000008,1505.8045008000008,None,,1509.147843499999,1511.3641554999995,1512.4307793999978,1512.4307793999978,1512.4307793999978,1512.4307793999978,c,0.7392409000021871,1505.8045008000008,1505.8045008000008,,,18,001,2024-07-30_15h07.21.332,robot_sternberg_sign,2022.2.5,60.08412979825871,
"['L', 'P']",True,L,2,letter,3,False,False,"['robot_stimuli\\\\filler.mp4', 'robot_stimuli\\\\filler.mp4']",robot_stimuli\\filler.mp4,18,,,,,,,,,,,,,0,65,65,65,,,,,,,,,,,,,,,,,1518.825453999998,1519.8833250999996,,,,,,,,,1520.7078782999997,1520.7078782999997,1520.7078782999997,1520.7078782999997,1520.7078782999997,1520.7078782999997,1520.7078782999997,1520.7078782999997,None,None,None,,,,,,,,,,,1513.2598422999981,1513.2598422999981,None,,1516.6105859999989,1518.825453999998,1519.8833250999996,1519.8833250999996,1519.8833250999996,1519.8833250999996,c,0.6943344000028446,1513.2598422999981,1513.2598422999981,,,18,001,2024-07-30_15h07.21.332,robot_sternberg_sign,2022.2.5,60.08412979825871,
"['K', 'G']",True,G,2,letter,3,False,False,"['robot_stimuli\\\\filler.mp4', 'robot_stimuli\\\\filler.mp4']",robot_stimuli\\filler.mp4,18,,,,,,,,,,,,,0,66,66,66,,,,,,,,,,,,,,,,,1525.8787634,1521.7730482000006,,,,,,,,,1527.9706325000006,1527.9706325000006,1527.9706325000006,1527.9706325000006,1527.9706325000006,1527.9706325000006,1527.9706325000006,1527.9706325000006,None,None,None,,,,,,,,,,,1520.7078782999997,1520.7078782999997,None,,1523.8649880000012,1525.8787634,1526.947049399998,1526.947049399998,1526.947049399998,1526.947049399998,c,0.7824515000029351,1520.7078782999997,1520.7078782999997,,,18,001,2024-07-30_15h07.21.332,robot_sternberg_sign,2022.2.5,60.08412979825871,
"['H', 'W']",True,W,2,letter,3,False,False,"['robot_stimuli\\\\filler.mp4', 'robot_stimuli\\\\filler.mp4']",robot_stimuli\\filler.mp4,18,,,,,,,,,,,,,0,67,67,67,,,,,,,,,,,,,,,,,1533.3395339999988,1534.3967802999978,,,,,,,,,1535.2267955999996,1535.2267955999996,1535.2267955999996,1535.2267955999996,1535.2267955999996,1535.2267955999996,1535.2267955999996,1535.2267955999996,None,None,None,,,,,,,,,,,1527.9706325000006,1527.9706325000006,None,,1531.3197543999995,1533.3395339999988,1534.3967802999978,1534.3967802999978,1534.3967802999978,1534.3967802999978,c,0.7638188000019,1527.9706325000006,1527.9706325000006,,,18,001,2024-07-30_15h07.21.332,robot_sternberg_sign,2022.2.5,60.08412979825871,
"['J', 'D']",True,D,2,letter,3,False,False,"['robot_stimuli\\\\filler.mp4', 'robot_stimuli\\\\filler.mp4']",robot_stimuli\\filler.mp4,18,,,,,,,,,,,,,0,68,68,68,,,,,,,,,,,,,,,,,1540.5817965999995,1541.6468139999997,,,,,,,,,1542.4816294999982,1542.4816294999982,1542.4816294999982,1542.4816294999982,1542.4816294999982,1542.4816294999982,1542.4816294999982,1542.4816294999982,None,None,None,,,,,,,,,,,1535.2267955999996,1535.2267955999996,None,,1538.573195699999,1540.5817965999995,1541.6468139999997,1541.6468139999997,1541.6468139999997,1541.6468139999997,c,0.6026353999986895,1535.2267955999996,1535.2267955999996,,,18,001,2024-07-30_15h07.21.332,robot_sternberg_sign,2022.2.5,60.08412979825871,
"['Z', 'K']",False,Q,2,letter,3,False,True,"['robot_stimuli\\\\filler.mp4', 'robot_stimuli\\\\filler.mp4']",robot_stimuli\\filler.mp4,18,,,,,,,,,,,,,0,69,69,69,,,,,,,,,,,,,,,,,1547.6760250999978,1548.7301794999985,,,,,,,,,1549.587281199998,1552.2647085999997,1549.587281199998,1552.2647085999997,1549.587281199998,1552.2647085999997,1549.587281199998,1552.2647085999997,2.8395061728395063,2.2918195000020205,space,,,2.6211753000025055,,,,,,,,1542.4816294999982,1542.4816294999982,None,,1545.6593920999985,1547.6760250999978,1548.7301794999985,1548.7301794999985,1548.7301794999985,1548.7301794999985,n,0.6307385000000068,1542.4816294999982,1542.4816294999982,,,18,001,2024-07-30_15h07.21.332,robot_sternberg_sign,2022.2.5,60.08412979825871,
"['L', 'J', 'T', 'G', 'V', 'Q']",True,V,6,letter,3,True,False,"['robot_stimuli\\\\filler.mp4', 'robot_stimuli\\\\filler.mp4', 'robot_stimuli\\\\filler.mp4', 'robot_stimuli\\\\filler.mp4', 'robot_stimuli\\\\filler.mp4', 'robot_stimuli\\\\filler.mp4']",robot_stimuli\\filler.mp4,18,,,,,,,,,,,,,0,70,70,70,,,,,,,,,,,,,,,,,1567.970078800001,1569.0341475999994,,,,,,,,,1570.4634684999983,1570.4634684999983,1570.4634684999983,1570.4634684999983,1570.4634684999983,1570.4634684999983,1570.4634684999983,1570.4634684999983,None,None,None,,,,,,,,,,,1552.2647085999997,1552.2647085999997,space,1.1933294000045862,1565.7516658999994,1567.970078800001,1569.0341475999994,1569.0341475999994,1569.0341475999994,1569.0341475999994,c,1.2546410000031756,,,,,18,001,2024-07-30_15h07.21.332,robot_sternberg_sign,2022.2.5,60.08412979825871,
"['L', 'B', 'F', 'S', 'K', 'P']",False,N,6,letter,3,False,False,"['robot_stimuli\\\\filler.mp4', 'robot_stimuli\\\\filler.mp4', 'robot_stimuli\\\\filler.mp4', 'robot_stimuli\\\\filler.mp4', 'robot_stimuli\\\\filler.mp4', 'robot_stimuli\\\\filler.mp4']",robot_stimuli\\filler.mp4,18,,,,,,,,,,,,,0,71,71,71,,,,,,,,,,,,,,,,,1584.9849633999984,1586.0473665999998,,,,,,,,,1587.6709413999997,1587.6709413999997,1587.6709413999997,1587.6709413999997,1587.6709413999997,1587.6709413999997,1587.6709413999997,1587.6709413999997,None,None,None,,,,,,,,,,,1570.4634684999983,1570.4634684999983,None,,1582.7662025999998,1584.9849633999984,1586.0473665999998,1586.0473665999998,1586.0473665999998,1586.0473665999998,n,1.473161900004925,1570.4634684999983,1570.4634684999983,,,18,001,2024-07-30_15h07.21.332,robot_sternberg_sign,2022.2.5,60.08412979825871,
"['Q', 'R', 'Z', 'M', 'J', 'B']",False,V,6,letter,3,False,False,"['robot_stimuli\\\\filler.mp4', 'robot_stimuli\\\\filler.mp4', 'robot_stimuli\\\\filler.mp4', 'robot_stimuli\\\\filler.mp4', 'robot_stimuli\\\\filler.mp4', 'robot_stimuli\\\\filler.mp4']",robot_stimuli\\filler.mp4,18,,,,,,,,,,,,,0,72,72,72,,,,,,,,,,,,,,,,,1601.3726404000008,1602.4312834999982,,,,,,,,,1604.0567761999991,1604.0567761999991,1604.0567761999991,1604.0567761999991,1604.0567761999991,1604.0567761999991,1604.0567761999991,1604.0567761999991,None,None,None,,,,,,,,,,,1587.6709413999997,1587.6709413999997,None,,1599.3573522000006,1601.3726404000008,1602.4312834999982,1602.4312834999982,1602.4312834999982,1602.4312834999982,n,1.506439799999498,1587.6709413999997,1587.6709413999997,,,18,001,2024-07-30_15h07.21.332,robot_sternberg_sign,2022.2.5,60.08412979825871,
"['J', 'R', 'K', 'T', 'B', 'X']",True,T,6,letter,3,False,False,"['robot_stimuli\\\\filler.mp4', 'robot_stimuli\\\\filler.mp4', 'robot_stimuli\\\\filler.mp4', 'robot_stimuli\\\\filler.mp4', 'robot_stimuli\\\\filler.mp4', 'robot_stimuli\\\\filler.mp4']",robot_stimuli\\filler.mp4,18,,,,,,,,,,,,,0,73,73,73,,,,,,,,,,,,,,,,,1617.9582422999993,1619.0132438,,,,,,,,,1620.837689,1620.837689,1620.837689,1620.837689,1620.837689,1620.837689,1620.837689,1620.837689,None,None,None,,,,,,,,,,,1604.0567761999991,1604.0567761999991,None,,1615.9360035999998,1617.9582422999993,1619.0132438,1619.0132438,1619.0132438,1619.0132438,c,1.5958910000044852,1604.0567761999991,1604.0567761999991,,,18,001,2024-07-30_15h07.21.332,robot_sternberg_sign,2022.2.5,60.08412979825871,
"['S', 'G', 'H', 'C', 'Z', 'N']",False,Q,6,letter,3,False,False,"['robot_stimuli\\\\filler.mp4', 'robot_stimuli\\\\filler.mp4', 'robot_stimuli\\\\filler.mp4', 'robot_stimuli\\\\filler.mp4', 'robot_stimuli\\\\filler.mp4', 'robot_stimuli\\\\filler.mp4']",robot_stimuli\\filler.mp4,18,,,,,,,,,,,,,0,74,74,74,,,,,,,,,,,,,,,,,1635.5323102000002,1636.5974975999998,,,,,,,,,1638.4222474999988,1638.4222474999988,1638.4222474999988,1638.4222474999988,1638.4222474999988,1638.4222474999988,1638.4222474999988,1638.4222474999988,None,None,None,,,,,,,,,,,1620.837689,1620.837689,None,,1633.3228163999993,1635.5323102000002,1636.5974975999998,1636.5974975999998,1636.5974975999998,1636.5974975999998,n,1.667282400001568,1620.837689,1620.837689,,,18,001,2024-07-30_15h07.21.332,robot_sternberg_sign,2022.2.5,60.08412979825871,
"['M', 'K', 'C', 'B', 'R', 'T']",True,R,6,letter,3,False,False,"['robot_stimuli\\\\filler.mp4', 'robot_stimuli\\\\filler.mp4', 'robot_stimuli\\\\filler.mp4', 'robot_stimuli\\\\filler.mp4', 'robot_stimuli\\\\filler.mp4', 'robot_stimuli\\\\filler.mp4']",robot_stimuli\\filler.mp4,18,,,,,,,,,,,,,0,75,75,75,,,,,,,,,,,,,,,,,1652.3413733999987,1653.4022006999985,,,,,,,,,1654.8252962000006,1654.8252962000006,1654.8252962000006,1654.8252962000006,1654.8252962000006,1654.8252962000006,1654.8252962000006,1654.8252962000006,None,None,None,,,,,,,,,,,1638.4222474999988,1638.4222474999988,None,,1650.3227114000001,1652.3413733999987,1653.4022006999985,1653.4022006999985,1653.4022006999985,1653.4022006999985,c,1.264360700002726,1638.4222474999988,1638.4222474999988,,,18,001,2024-07-30_15h07.21.332,robot_sternberg_sign,2022.2.5,60.08412979825871,
"['G', 'K', 'F', 'L', 'X', 'D']",True,G,6,letter,3,False,False,"['robot_stimuli\\\\filler.mp4', 'robot_stimuli\\\\filler.mp4', 'robot_stimuli\\\\filler.mp4', 'robot_stimuli\\\\filler.mp4', 'robot_stimuli\\\\filler.mp4', 'robot_stimuli\\\\filler.mp4']",robot_stimuli\\filler.mp4,18,,,,,,,,,,,,,0,76,76,76,,,,,,,,,,,,,,,,,1668.9593958000005,1670.0286159999996,,,,,,,,,1671.8552333999978,1671.8552333999978,1671.8552333999978,1671.8552333999978,1671.8552333999978,1671.8552333999978,1671.8552333999978,1671.8552333999978,None,None,None,,,,,,,,,,,1654.8252962000006,1654.8252962000006,None,,1666.933223699998,1668.9593958000005,1670.0286159999996,1670.0286159999996,1670.0286159999996,1670.0286159999996,c,1.6375513000020874,1654.8252962000006,1654.8252962000006,,,18,001,2024-07-30_15h07.21.332,robot_sternberg_sign,2022.2.5,60.08412979825871,
"['W', 'Q', 'L', 'R', 'T', 'J']",False,C,6,letter,3,False,False,"['robot_stimuli\\\\filler.mp4', 'robot_stimuli\\\\filler.mp4', 'robot_stimuli\\\\filler.mp4', 'robot_stimuli\\\\filler.mp4', 'robot_stimuli\\\\filler.mp4', 'robot_stimuli\\\\filler.mp4']",robot_stimuli\\filler.mp4,18,,,,,,,,,,,,,0,77,77,77,,,,,,,,,,,,,,,,,1685.582452999999,1686.6491558999987,,,,,,,,,1689.8803387000007,1689.8803387000007,1689.8803387000007,1689.8803387000007,1689.8803387000007,1689.8803387000007,1689.8803387000007,1689.8803387000007,None,None,None,,,,,,,,,,,1671.8552333999978,1671.8552333999978,None,,1683.3610325000009,1685.582452999999,1686.6491558999987,1686.6491558999987,1686.6491558999987,1686.6491558999987,n,3.0885290000005625,1671.8552333999978,1671.8552333999978,,,18,001,2024-07-30_15h07.21.332,robot_sternberg_sign,2022.2.5,60.08412979825871,
"['G', 'P', 'R', 'C', 'J', 'X']",False,T,6,letter,3,False,False,"['robot_stimuli\\\\filler.mp4', 'robot_stimuli\\\\filler.mp4', 'robot_stimuli\\\\filler.mp4', 'robot_stimuli\\\\filler.mp4', 'robot_stimuli\\\\filler.mp4', 'robot_stimuli\\\\filler.mp4']",robot_stimuli\\filler.mp4,18,,,,,,,,,,,,,0,78,78,78,,,,,,,,,,,,,,,,,1704.0029714999982,1705.0681337999995,,,,,,,,,1708.494358,1708.494358,1708.494358,1708.494358,1708.494358,1708.494358,1708.494358,1708.494358,None,None,None,,,,,,,,,,,1689.8803387000007,1689.8803387000007,None,,1701.7957628000004,1704.0029714999982,1705.0681337999995,1705.0681337999995,1705.0681337999995,1705.0681337999995,n,3.3176696000009542,1689.8803387000007,1689.8803387000007,,,18,001,2024-07-30_15h07.21.332,robot_sternberg_sign,2022.2.5,60.08412979825871,
"['M', 'B', 'L', 'T', 'X', 'C']",True,C,6,letter,3,False,True,"['robot_stimuli\\\\filler.mp4', 'robot_stimuli\\\\filler.mp4', 'robot_stimuli\\\\filler.mp4', 'robot_stimuli\\\\filler.mp4', 'robot_stimuli\\\\filler.mp4', 'robot_stimuli\\\\filler.mp4']",robot_stimuli\\filler.mp4,18,,,,,,,,,,,,,0,79,79,79,,,,,,,,,,,,,,,,,1722.2344157000007,1723.2973659999989,,,,,,,,,1724.5499543000005,1728.410209900001,1724.5499543000005,1728.410209900001,1724.5499543000005,1728.410209900001,1724.5499543000005,1728.410209900001,19.66049382716049,3.1255759000014223,space,,,3.803490900001634,,,,,,,,1708.494358,1708.494358,None,,1720.2238208999988,1722.2344157000007,1723.2973659999989,1723.2973659999989,1723.2973659999989,1723.2973659999989,c,1.1113451000019268,1708.494358,1708.494358,,,18,001,2024-07-30_15h07.21.332,robot_sternberg_sign,2022.2.5,60.08412979825871,
"['M', 'N', 'C', 'B']",True,B,4,letter,3,True,False,"['robot_stimuli\\\\filler.mp4', 'robot_stimuli\\\\filler.mp4', 'robot_stimuli\\\\filler.mp4', 'robot_stimuli\\\\filler.mp4']",robot_stimuli\\filler.mp4,18,,,,,,,,,,,,,0,80,80,80,,,,,,,,,,,,,,,,,1743.4857788000008,1744.549992799999,,,,,,,,,1746.7702728000004,1746.7702728000004,1746.7702728000004,1746.7702728000004,1746.7702728000004,1746.7702728000004,1746.7702728000004,1746.7702728000004,None,None,None,,,,,,,,,,,1728.410209900001,1728.410209900001,space,5.119863000003534,1741.4682522000003,1743.4857788000008,1744.549992799999,1744.549992799999,1744.549992799999,1744.549992799999,c,2.018537000003562,,,,,18,001,2024-07-30_15h07.21.332,robot_sternberg_sign,2022.2.5,60.08412979825871,
"['H', 'G', 'P', 'T']",False,W,4,letter,3,False,False,"['robot_stimuli\\\\filler.mp4', 'robot_stimuli\\\\filler.mp4', 'robot_stimuli\\\\filler.mp4', 'robot_stimuli\\\\filler.mp4']",robot_stimuli\\filler.mp4,18,,,,,,,,,,,,,0,81,81,81,,,,,,,,,,,,,,,,,1756.3063350000011,1757.3635722,,,,,,,,,1758.9874827999993,1758.9874827999993,1758.9874827999993,1758.9874827999993,1758.9874827999993,1758.9874827999993,1758.9874827999993,1758.9874827999993,None,None,None,,,,,,,,,,,1746.7702728000004,1746.7702728000004,None,,1754.2935652999986,1756.3063350000011,1757.3635722,1757.3635722,1757.3635722,1757.3635722,n,1.502652200004377,1746.7702728000004,1746.7702728000004,,,18,001,2024-07-30_15h07.21.332,robot_sternberg_sign,2022.2.5,60.08412979825871,
"['W', 'L', 'M', 'J']",True,W,4,letter,3,False,False,"['robot_stimuli\\\\filler.mp4', 'robot_stimuli\\\\filler.mp4', 'robot_stimuli\\\\filler.mp4', 'robot_stimuli\\\\filler.mp4']",robot_stimuli\\filler.mp4,18,,,,,,,,,,,,,0,82,82,82,,,,,,,,,,,,,,,,,1769.1200470000003,1770.1795338999982,,,,,,,,,1772.4095877,1772.4095877,1772.4095877,1772.4095877,1772.4095877,1772.4095877,1772.4095877,1772.4095877,None,None,None,,,,,,,,,,,1758.9874827999993,1758.9874827999993,None,,1766.903175899999,1769.1200470000003,1770.1795338999982,1770.1795338999982,1770.1795338999982,1770.1795338999982,c,2.158551800002897,1758.9874827999993,1758.9874827999993,,,18,001,2024-07-30_15h07.21.332,robot_sternberg_sign,2022.2.5,60.08412979825871,
"['D', 'X', 'P', 'K']",False,Z,4,letter,3,False,False,"['robot_stimuli\\\\filler.mp4', 'robot_stimuli\\\\filler.mp4', 'robot_stimuli\\\\filler.mp4', 'robot_stimuli\\\\filler.mp4']",robot_stimuli\\filler.mp4,18,,,,,,,,,,,,,0,83,83,83,,,,,,,,,,,,,,,,,1782.3453435999982,1773.4641349999984,,,,,,,,,1785.0373261999994,1785.0373261999994,1785.0373261999994,1785.0373261999994,1785.0373261999994,1785.0373261999994,1785.0373261999994,1785.0373261999994,None,None,None,,,,,,,,,,,1772.4095877,1772.4095877,None,,1780.134315899999,1782.3453435999982,1783.4153043000006,1783.4153043000006,1783.4153043000006,1783.4153043000006,n,1.5551742000025115,1772.4095877,1772.4095877,,,18,001,2024-07-30_15h07.21.332,robot_sternberg_sign,2022.2.5,60.08412979825871,
"['G', 'P', 'S', 'Q']",True,S,4,letter,3,False,False,"['robot_stimuli\\\\filler.mp4', 'robot_stimuli\\\\filler.mp4', 'robot_stimuli\\\\filler.mp4', 'robot_stimuli\\\\filler.mp4']",robot_stimuli\\filler.mp4,18,,,,,,,,,,,,,0,84,84,84,,,,,,,,,,,,,,,,,1794.570230199999,1795.630392799998,,,,,,,,,1796.8568123000005,1796.8568123000005,1796.8568123000005,1796.8568123000005,1796.8568123000005,1796.8568123000005,1796.8568123000005,1796.8568123000005,None,None,None,,,,,,,,,,,1785.0373261999994,1785.0373261999994,None,,1792.361155300001,1794.570230199999,1795.630392799998,1795.630392799998,1795.630392799998,1795.630392799998,c,1.139932600002794,1785.0373261999994,1785.0373261999994,,,18,001,2024-07-30_15h07.21.332,robot_sternberg_sign,2022.2.5,60.08412979825871,
"['M', 'S', 'W', 'H']",False,Q,4,letter,3,False,False,"['robot_stimuli\\\\filler.mp4', 'robot_stimuli\\\\filler.mp4', 'robot_stimuli\\\\filler.mp4', 'robot_stimuli\\\\filler.mp4']",robot_stimuli\\filler.mp4,18,,,,,,,,,,,,,0,85,85,85,,,,,,,,,,,,,,,,,1806.7976703999993,1807.8646999999983,,,,,,,,,1810.2926564000009,1810.2926564000009,1810.2926564000009,1810.2926564000009,1810.2926564000009,1810.2926564000009,1810.2926564000009,1810.2926564000009,None,None,None,,,,,,,,,,,1796.8568123000005,1796.8568123000005,None,,1804.586239100001,1806.7976703999993,1807.8646999999983,1807.8646999999983,1807.8646999999983,1807.8646999999983,n,2.3931183999993664,1796.8568123000005,1796.8568123000005,,,18,001,2024-07-30_15h07.21.332,robot_sternberg_sign,2022.2.5,60.08412979825871,
"['M', 'W', 'S', 'K']",True,K,4,letter,3,False,False,"['robot_stimuli\\\\filler.mp4', 'robot_stimuli\\\\filler.mp4', 'robot_stimuli\\\\filler.mp4', 'robot_stimuli\\\\filler.mp4']",robot_stimuli\\filler.mp4,18,,,,,,,,,,,,,0,86,86,86,,,,,,,,,,,,,,,,,1820.0274624999984,1811.3491121000006,,,,,,,,,1822.534547799998,1822.534547799998,1822.534547799998,1822.534547799998,1822.534547799998,1822.534547799998,1822.534547799998,1822.534547799998,None,None,None,,,,,,,,,,,1810.2926564000009,1810.2926564000009,None,,1817.8155789000011,1820.0274624999984,1821.109113999999,1821.109113999999,1821.109113999999,1821.109113999999,c,1.2525792000051297,1810.2926564000009,1810.2926564000009,,,18,001,2024-07-30_15h07.21.332,robot_sternberg_sign,2022.2.5,60.08412979825871,
"['N', 'Z', 'F', 'C']",True,F,4,letter,3,False,False,"['robot_stimuli\\\\filler.mp4', 'robot_stimuli\\\\filler.mp4', 'robot_stimuli\\\\filler.mp4', 'robot_stimuli\\\\filler.mp4']",robot_stimuli\\filler.mp4,18,,,,,,,,,,,,,0,87,87,87,,,,,,,,,,,,,,,,,1832.4800892999992,1833.5475024000007,,,,,,,,,1835.1727715999987,1835.1727715999987,1835.1727715999987,1835.1727715999987,1835.1727715999987,1835.1727715999987,1835.1727715999987,1835.1727715999987,None,None,None,,,,,,,,,,,1822.534547799998,1822.534547799998,None,,1830.2611546999979,1832.4800892999992,1833.5475024000007,1833.5475024000007,1833.5475024000007,1833.5475024000007,c,1.5181273000016517,1822.534547799998,1822.534547799998,,,18,001,2024-07-30_15h07.21.332,robot_sternberg_sign,2022.2.5,60.08412979825871,
"['X', 'P', 'R', 'L']",False,W,4,letter,3,False,False,"['robot_stimuli\\\\filler.mp4', 'robot_stimuli\\\\filler.mp4', 'robot_stimuli\\\\filler.mp4', 'robot_stimuli\\\\filler.mp4']",robot_stimuli\\filler.mp4,18,,,,,,,,,,,,,0,88,88,88,,,,,,,,,,,,,,,,,1844.7109401999987,1836.230771999999,,,,,,,,,1848.0131226999983,1848.0131226999983,1848.0131226999983,1848.0131226999983,1848.0131226999983,1848.0131226999983,1848.0131226999983,1848.0131226999983,None,None,None,,,,,,,,,,,1835.1727715999987,1835.1727715999987,None,,1842.6934449,1844.7109401999987,1845.7803236,1845.7803236,1845.7803236,1845.7803236,n,2.0138700000024983,1835.1727715999987,1835.1727715999987,,,18,001,2024-07-30_15h07.21.332,robot_sternberg_sign,2022.2.5,60.08412979825871,
"['L', 'N', 'B', 'K']",False,W,4,letter,3,False,True,"['robot_stimuli\\\\filler.mp4', 'robot_stimuli\\\\filler.mp4', 'robot_stimuli\\\\filler.mp4', 'robot_stimuli\\\\filler.mp4']",robot_stimuli\\filler.mp4,18,,,,,,,,,,,,,0,89,89,89,,,,,,,,,,,,,,,,,1857.7530153999978,1858.8155114,,,,,,,,,1861.469172699999,1864.4644389999994,1861.469172699999,1864.4644389999994,1861.469172699999,1864.4644389999994,1861.469172699999,1864.4644389999994,13.024691358024686,2.44610190000094,space,,,2.9393200000013167,,,,,,,,1848.0131226999983,1848.0131226999983,None,,1855.7398728999979,1857.7530153999978,1858.8155114,1858.8155114,1858.8155114,1858.8155114,n,2.434098700003233,1848.0131226999983,1848.0131226999983,,,18,001,2024-07-30_15h07.21.332,robot_sternberg_sign,2022.2.5,60.08412979825871,
"['L_Torso_X_Back', 'L_Arm_Y_For', 'L_Head_X_Back', 'R_Head_Z_Back']",True,L_Torso_X_Back,4,robot,4,True,False,"['robot_stimuli\\L_Torso_X_Back.mp4', 'robot_stimuli\\L_Arm_Y_For.mp4', 'robot_stimuli\\L_Head_X_Back.mp4', 'robot_stimuli\\R_Head_Z_Back.mp4']",robot_stimuli\L_Torso_X_Back.mp4,18,,,,,,,,,,,,,0,90,90,90,,,,,,,,,,,,,,,,,1889.5313972000004,1890.6223535999998,,,,,,,,,1894.2726402000008,1894.2726402000008,1894.2726402000008,1894.2726402000008,1894.2726402000008,1894.2726402000008,1894.2726402000008,1894.2726402000008,None,None,None,,,,,,,,,,,1864.4644389999994,1864.4644389999994,space,9.113095600001543,,,,1890.6223535999998,1890.6223535999998,1890.6223535999998,c,2.867926900002203,,,1885.8881999000005,1890.6223535999998,18,001,2024-07-30_15h07.21.332,robot_sternberg_sign,2022.2.5,60.08412979825871,
"['L_Base_X_Back', 'R_Head_X_Back', 'R_Arm_Z_Back', 'L_Arm_Y_For']",False,L_Head_Z_Back,4,robot,4,False,False,"['robot_stimuli\\L_Base_X_Back.mp4', 'robot_stimuli\\R_Head_X_Back.mp4', 'robot_stimuli\\R_Arm_Z_Back.mp4', 'robot_stimuli\\L_Arm_Y_For.mp4']",robot_stimuli\L_Head_Z_Back.mp4,18,,,,,,,,,,,,,0,91,91,91,,,,,,,,,,,,,,,,,1910.1342349000006,1911.2368414999983,,,,,,,,,1914.8749672000013,1914.8749672000013,1914.8749672000013,1914.8749672000013,1914.8749672000013,1914.8749672000013,1914.8749672000013,1914.8749672000013,None,None,None,,,,,,,,,,,1894.2726402000008,1894.2726402000008,None,,,,,1911.2368414999983,1911.2368414999983,1911.2368414999983,n,2.9336264000012306,1894.2726402000008,1894.2726402000008,1906.500446099999,1911.2368414999983,18,001,2024-07-30_15h07.21.332,robot_sternberg_sign,2022.2.5,60.08412979825871,
"['L_Base_X_Back', 'L_Torso_X_Back', 'R_Torso_Z_Back', 'L_Base_Z_For']",True,R_Torso_Z_Back,4,robot,4,False,False,"['robot_stimuli\\L_Base_X_Back.mp4', 'robot_stimuli\\L_Torso_X_Back.mp4', 'robot_stimuli\\R_Torso_Z_Back.mp4', 'robot_stimuli\\L_Base_Z_For.mp4']",robot_stimuli\R_Torso_Z_Back.mp4,18,,,,,,,,,,,,,0,92,92,92,,,,,,,,,,,,,,,,,1930.7167483000012,1931.8046251999986,,,,,,,,,1935.4429373999992,1935.4429373999992,1935.4429373999992,1935.4429373999992,1935.4429373999992,1935.4429373999992,1935.4429373999992,1935.4429373999992,None,None,None,,,,,,,,,,,1914.8749672000013,1914.8749672000013,None,,,,,1931.8046251999986,1931.8046251999986,1931.8046251999986,c,2.925338900004135,1914.8749672000013,1914.8749672000013,1927.084729099999,1931.8046251999986,18,001,2024-07-30_15h07.21.332,robot_sternberg_sign,2022.2.5,60.08412979825871,
"['L_Head_Y_For', 'R_Arm_Y_For', 'R_Arm_X_For', 'L_Arm_X_Back']",False,R_Head_X_For,4,robot,4,False,False,"['robot_stimuli\\L_Head_Y_For.mp4', 'robot_stimuli\\R_Arm_Y_For.mp4', 'robot_stimuli\\R_Arm_X_For.mp4', 'robot_stimuli\\L_Arm_X_Back.mp4']",robot_stimuli\R_Head_X_For.mp4,18,,,,,,,,,,,,,0,93,93,93,,,,,,,,,,,,,,,,,1951.159739499999,1952.2397945000012,,,,,,,,,1958.4262092999998,1958.4262092999998,1958.4262092999998,1958.4262092999998,1958.4262092999998,1958.4262092999998,1958.4262092999998,1958.4262092999998,None,None,None,,,,,,,,,,,1935.4429373999992,1935.4429373999992,None,,,,,1952.2397945000012,1952.2397945000012,1952.2397945000012,n,6.153364700003294,1935.4429373999992,1935.4429373999992,1947.5375172999993,1952.2397945000012,18,001,2024-07-30_15h07.21.332,robot_sternberg_sign,2022.2.5,60.08412979825871,
"['R_Arm_Z_For', 'R_Head_X_For', 'R_Head_Y_Back', 'R_Torso_X_Back']",False,R_Torso_X_For,4,robot,4,False,False,"['robot_stimuli\\R_Arm_Z_For.mp4', 'robot_stimuli\\R_Head_X_For.mp4', 'robot_stimuli\\R_Head_Y_Back.mp4', 'robot_stimuli\\R_Torso_X_Back.mp4']",robot_stimuli\R_Torso_X_For.mp4,18,,,,,,,,,,,,,0,94,94,94,,,,,,,,,,,,,,,,,1974.2970007000004,1975.3871532000012,,,,,,,,,1979.028469599998,1979.028469599998,1979.028469599998,1979.028469599998,1979.028469599998,1979.028469599998,1979.028469599998,1979.028469599998,None,None,None,,,,,,,,,,,1958.4262092999998,1958.4262092999998,None,,,,,1975.3871532000012,1975.3871532000012,1975.3871532000012,n,2.718804000000091,1958.4262092999998,1958.4262092999998,1970.655033799998,1975.3871532000012,18,001,2024-07-30_15h07.21.332,robot_sternberg_sign,2022.2.5,60.08412979825871,
"['R_Torso_X_For', 'R_Torso_Z_For', 'R_Base_Z_For', 'R_Arm_X_Back']",True,R_Torso_X_For,4,robot,4,False,False,"['robot_stimuli\\R_Torso_X_For.mp4', 'robot_stimuli\\R_Torso_Z_For.mp4', 'robot_stimuli\\R_Base_Z_For.mp4', 'robot_stimuli\\R_Arm_X_Back.mp4']",robot_stimuli\R_Torso_X_For.mp4,18,,,,,,,,,,,,,0,95,95,95,,,,,,,,,,,,,,,,,1994.9165764999998,1996.0022256999982,,,,,,,,,2001.5608964999992,2001.5608964999992,2001.5608964999992,2001.5608964999992,2001.5608964999992,2001.5608964999992,2001.5608964999992,2001.5608964999992,None,None,None,,,,,,,,,,,1979.028469599998,1979.028469599998,None,,,,,1996.0022256999982,1996.0022256999982,1996.0022256999982,n,5.510565900000074,1979.028469599998,1979.028469599998,1991.2854547999996,1996.0022256999982,18,001,2024-07-30_15h07.21.332,robot_sternberg_sign,2022.2.5,60.08412979825871,
"['R_Base_Z_For', 'L_Base_Z_Back', 'L_Arm_X_Back', 'R_Base_Z_Back']",True,R_Base_Z_Back,4,robot,4,False,False,"['robot_stimuli\\R_Base_Z_For.mp4', 'robot_stimuli\\L_Base_Z_Back.mp4', 'robot_stimuli\\L_Arm_X_Back.mp4', 'robot_stimuli\\R_Base_Z_Back.mp4']",robot_stimuli\R_Base_Z_Back.mp4,18,,,,,,,,,,,,,0,96,96,96,,,,,,,,,,,,,,,,,2017.3500958000004,2018.4344706999982,,,,,,,,,2021.9798932999984,2021.9798932999984,2021.9798932999984,2021.9798932999984,2021.9798932999984,2021.9798932999984,2021.9798932999984,2021.9798932999984,None,None,None,,,,,,,,,,,2001.5608964999992,2001.5608964999992,None,,,,,2018.4344706999982,2018.4344706999982,2018.4344706999982,c,2.2473821000021417,2001.5608964999992,2001.5608964999992,2013.8187435,2018.4344706999982,18,001,2024-07-30_15h07.21.332,robot_sternberg_sign,2022.2.5,60.08412979825871,
"['L_Torso_X_For', 'L_Head_Z_For', 'L_Arm_Y_Back', 'L_Head_X_Back']",False,L_Arm_X_Back,4,robot,4,False,False,"['robot_stimuli\\L_Torso_X_For.mp4', 'robot_stimuli\\L_Head_Z_For.mp4', 'robot_stimuli\\L_Arm_Y_Back.mp4', 'robot_stimuli\\L_Head_X_Back.mp4']",robot_stimuli\L_Arm_X_Back.mp4,18,,,,,,,,,,,,,0,97,97,97,,,,,,,,,,,,,,,,,2037.8854934999981,2038.9709268000006,,,,,,,,,2042.6103438999999,2042.6103438999999,2042.6103438999999,2042.6103438999999,2042.6103438999999,2042.6103438999999,2042.6103438999999,2042.6103438999999,None,None,None,,,,,,,,,,,2021.9798932999984,2021.9798932999984,None,,,,,2038.9709268000006,2038.9709268000006,2038.9709268000006,c,2.8466967000022123,2021.9798932999984,2021.9798932999984,2034.253040399999,2038.9709268000006,18,001,2024-07-30_15h07.21.332,robot_sternberg_sign,2022.2.5,60.08412979825871,
"['R_Base_Z_Back', 'R_Base_X_For', 'L_Arm_X_For', 'L_Base_Y_For']",True,L_Arm_X_For,4,robot,4,False,False,"['robot_stimuli\\R_Base_Z_Back.mp4', 'robot_stimuli\\R_Base_X_For.mp4', 'robot_stimuli\\L_Arm_X_For.mp4', 'robot_stimuli\\L_Base_Y_For.mp4']",robot_stimuli\L_Arm_X_For.mp4,18,,,,,,,,,,,,,0,98,98,98,,,,,,,,,,,,,,,,,2058.1652369000003,2059.2548585000004,,,,,,,,,2062.9048946000003,2062.9048946000003,2062.9048946000003,2062.9048946000003,2062.9048946000003,2062.9048946000003,2062.9048946000003,2062.9048946000003,None,None,None,,,,,,,,,,,2042.6103438999999,2042.6103438999999,None,,,,,2059.2548585000004,2059.2548585000004,2059.2548585000004,c,2.9471979000009014,2042.6103438999999,2042.6103438999999,2054.633998699999,2059.2548585000004,18,001,2024-07-30_15h07.21.332,robot_sternberg_sign,2022.2.5,60.08412979825871,
"['L_Head_Z_Back', 'L_Head_Z_For', 'L_Head_X_For', 'L_Base_Z_Back']",False,L_Arm_Y_Back,4,robot,4,False,True,"['robot_stimuli\\L_Head_Z_Back.mp4', 'robot_stimuli\\L_Head_Z_For.mp4', 'robot_stimuli\\L_Head_X_For.mp4', 'robot_stimuli\\L_Base_Z_Back.mp4']",robot_stimuli\L_Arm_Y_Back.mp4,18,,,,,,,,,,,,,0,99,99,99,,,,,,,,,,,,,,,,,2078.732468099999,2079.8219243999993,,,,,,,,,2083.4863001000012,2087.639403099998,2083.4863001000012,2087.639403099998,2083.4863001000012,2087.639403099998,2083.4863001000012,2087.639403099998,31.08024691358024,3.60100120000061,space,,,4.082094600002165,,,,,,,,2062.9048946000003,2062.9048946000003,None,,,,,2079.8219243999993,2079.8219243999993,2079.8219243999993,n,2.27491050000026,2062.9048946000003,2062.9048946000003,2075.092040399999,2079.8219243999993,18,001,2024-07-30_15h07.21.332,robot_sternberg_sign,2022.2.5,60.08412979825871,
"['L_Head_Z_For', 'R_Base_X_For']",False,L_Head_Y_For,2,robot,4,True,False,"['robot_stimuli\\L_Head_Z_For.mp4', 'robot_stimuli\\R_Base_X_For.mp4']",robot_stimuli\L_Head_Y_For.mp4,18,,,,,,,,,,,,,0,100,100,100,,,,,,,,,,,,,,,,,2103.462968699998,2096.2034663999984,,,,,,,,,2108.192507399999,2108.192507399999,2108.192507399999,2108.192507399999,2108.192507399999,2108.192507399999,2108.192507399999,2108.192507399999,None,None,None,,,,,,,,,,,2087.639403099998,2087.639403099998,space,7.466133199999604,,,,2104.554664799998,2104.554664799998,2104.554664799998,n,2.4299338000018906,,,2099.925084999999,2104.554664799998,18,001,2024-07-30_15h07.21.332,robot_sternberg_sign,2022.2.5,60.08412979825871,
"['R_Torso_Z_For', 'L_Base_Y_Back']",True,R_Torso_Z_For,2,robot,4,False,False,"['robot_stimuli\\R_Torso_Z_For.mp4', 'robot_stimuli\\L_Base_Y_Back.mp4']",robot_stimuli\R_Torso_Z_For.mp4,18,,,,,,,,,,,,,0,101,101,101,,,,,,,,,,,,,,,,,2116.5514958999993,2117.637147199999,,,,,,,,,2121.2763586,2121.2763586,2121.2763586,2121.2763586,2121.2763586,2121.2763586,2121.2763586,2121.2763586,None,None,None,,,,,,,,,,,2108.192507399999,2108.192507399999,None,,,,,2117.637147199999,2117.637147199999,2117.637147199999,c,2.0520711000026495,2108.192507399999,2108.192507399999,2112.988240499999,2117.637147199999,18,001,2024-07-30_15h07.21.332,robot_sternberg_sign,2022.2.5,60.08412979825871,
"['R_Arm_Y_Back', 'R_Arm_Z_Back']",False,R_Torso_Z_Back,2,robot,4,False,False,"['robot_stimuli\\R_Arm_Y_Back.mp4', 'robot_stimuli\\R_Arm_Z_Back.mp4']",robot_stimuli\R_Torso_Z_Back.mp4,18,,,,,,,,,,,,,0,102,102,102,,,,,,,,,,,,,,,,,2129.7023100000006,2130.7888170000006,,,,,,,,,2134.4373737999995,2134.4373737999995,2134.4373737999995,2134.4373737999995,2134.4373737999995,2134.4373737999995,2134.4373737999995,2134.4373737999995,None,None,None,,,,,,,,,,,2121.2763586,2121.2763586,None,,,,,2130.7888170000006,2130.7888170000006,2130.7888170000006,n,1.475881300000765,2121.2763586,2121.2763586,2126.0722128999987,2130.7888170000006,18,001,2024-07-30_15h07.21.332,robot_sternberg_sign,2022.2.5,60.08412979825871,
"['L_Torso_Y_Back', 'R_Arm_X_For']",True,L_Torso_Y_Back,2,robot,4,False,False,"['robot_stimuli\\L_Torso_Y_Back.mp4', 'robot_stimuli\\R_Arm_X_For.mp4']",robot_stimuli\L_Torso_Y_Back.mp4,18,,,,,,,,,,,,,0,103,103,103,,,,,,,,,,,,,,,,,2142.743158699999,2143.8240033,,,,,,,,,2147.3385610000005,2147.3385610000005,2147.3385610000005,2147.3385610000005,2147.3385610000005,2147.3385610000005,2147.3385610000005,2147.3385610000005,None,None,None,,,,,,,,,,,2134.4373737999995,2134.4373737999995,None,,,,,2143.8240033,2143.8240033,2143.8240033,n,1.634049900003447,2134.4373737999995,2134.4373737999995,2139.1130847999993,2143.8240033,18,001,2024-07-30_15h07.21.332,robot_sternberg_sign,2022.2.5,60.08412979825871,
"['R_Arm_Y_For', 'L_Head_Z_Back']",False,L_Torso_Z_For,2,robot,4,False,False,"['robot_stimuli\\R_Arm_Y_For.mp4', 'robot_stimuli\\L_Head_Z_Back.mp4']",robot_stimuli\L_Torso_Z_For.mp4,18,,,,,,,,,,,,,0,104,104,104,,,,,,,,,,,,,,,,,2155.6508380999985,2156.7387462000006,,,,,,,,,2160.3874569,2160.3874569,2160.3874569,2160.3874569,2160.3874569,2160.3874569,2160.3874569,2160.3874569,None,None,None,,,,,,,,,,,2147.3385610000005,2147.3385610000005,None,,,,,2156.7387462000006,2156.7387462000006,2156.7387462000006,n,1.8065531000029296,2147.3385610000005,2147.3385610000005,2152.0086537999996,2156.7387462000006,18,001,2024-07-30_15h07.21.332,robot_sternberg_sign,2022.2.5,60.08412979825871,
"['L_Head_X_Back', 'L_Arm_Y_For']",True,L_Head_X_Back,2,robot,4,False,False,"['robot_stimuli\\L_Head_X_Back.mp4', 'robot_stimuli\\L_Arm_Y_For.mp4']",robot_stimuli\L_Head_X_Back.mp4,18,,,,,,,,,,,,,0,105,105,105,,,,,,,,,,,,,,,,,2168.815406599999,2169.9079552000003,,,,,,,,,2173.5586490999995,2173.5586490999995,2173.5586490999995,2173.5586490999995,2173.5586490999995,2173.5586490999995,2173.5586490999995,2173.5586490999995,None,None,None,,,,,,,,,,,2160.3874569,2160.3874569,None,,,,,2169.9079552000003,2169.9079552000003,2169.9079552000003,c,2.2692591000013635,2160.3874569,2160.3874569,2165.1874196999997,2169.9079552000003,18,001,2024-07-30_15h07.21.332,robot_sternberg_sign,2022.2.5,60.08412979825871,
"['R_Arm_Y_For', 'L_Head_X_For']",False,R_Base_Y_Back,2,robot,4,False,False,"['robot_stimuli\\R_Arm_Y_For.mp4', 'robot_stimuli\\L_Head_X_For.mp4']",robot_stimuli\R_Base_Y_Back.mp4,18,,,,,,,,,,,,,0,106,106,106,,,,,,,,,,,,,,,,,2181.793325800001,2182.871828899999,,,,,,,,,2186.5100158999994,2186.5100158999994,2186.5100158999994,2186.5100158999994,2186.5100158999994,2186.5100158999994,2186.5100158999994,2186.5100158999994,None,None,None,,,,,,,,,,,2173.5586490999995,2173.5586490999995,None,,,,,2182.871828899999,2182.871828899999,2182.871828899999,n,2.3780638000025647,2173.5586490999995,2173.5586490999995,2178.2407475,2182.871828899999,18,001,2024-07-30_15h07.21.332,robot_sternberg_sign,2022.2.5,60.08412979825871,
