sequence,is_true,target,condition,stimuli,block,is_block_beginning,is_block_ending,sequence_fnames,target_fname,subject,retraining.thisRepN,retraining.thisTrialN,retraining.thisN,retraining.thisIndex,training.thisRepN,training.thisTrialN,training.thisN,training.thisIndex,training_sequence_loop.thisRepN,training_sequence_loop.thisTrialN,training_sequence_loop.thisN,training_sequence_loop.thisIndex,trials.thisRepN,trials.thisTrialN,trials.thisN,trials.thisIndex,sequence_loop.thisRepN,sequence_loop.thisTrialN,sequence_loop.thisN,sequence_loop.thisIndex,langage_text.started,langage_key.started,langage_key.keys,langage_key.rt,intro_text.started,intro_key.started,intro_key.keys,intro_key.rt,training_intro_text.started,training_intro_key.started,training_intro_key.keys,training_intro_key.rt,polygon.started,polygon.stopped,training_presentation_letter.started,training_presentation_letter.stopped,training_recall_letter.started,training_recall_key.started,training_recall_question.started,training_recall_answer.started,training_recall_key.keys,training_recall_key.rt,RSME_labels.started,RSME_labels.stopped,RSME_ticks.started,RSME_ticks.stopped,RSME_text.started,RSME_text.stopped,RSME_key.started,RSME_key.stopped,RSME_ticks.response,RSME_ticks.rt,RSME_key.keys,training_intro_text.stopped,training_intro_key.stopped,RSME_key.rt,training_presentation_movie.started,training_recall_movie.started,experiment_beginning_text.started,experiment_beginning_keys.started,experiment_beginning_key.started,experiment_beginning_key.keys,experiment_beginning_key.rt,block_intro_text.started,block_intro_key.started,block_intro_key.keys,block_intro_key.rt,presentation_letter.started,presentation_letter.stopped,recall_letter.started,recall_key.started,recall_question.started,recall_answer.started,recall_key.keys,recall_key.rt,block_intro_text.stopped,block_intro_key.stopped,presentation_movie.started,recall_movie.started,participant,session,date,expName,psychopyVersion,frameRate,
,,,,,,,,,,,,,,,,,,,,,,,,,,,,,,,18.05936339999971,18.05936339999971,e,2.516244500000539,,,,,,,,,,,,,,,,,,,,,,,,,,,,,,,,,,,,,,,,,,,,,,,,,,,,,,,,20,001,2024-07-31_12h57.47.637,robot_sternberg_sign,2022.2.5,60.04830285474082,
,,,,,,,,,,,,,,,,,,,,,,,,,,,,,,,,,,,20.629730700000437,20.629730700000437,space,21.5858457000013,,,,,,,,,,,,,,,,,,,,,,,,,,,,,,,,,,,,,,,,,,,,,,,,,,,,20,001,2024-07-31_12h57.47.637,robot_sternberg_sign,2022.2.5,60.04830285474082,
"['L', 'K']",False,V,2,letter,1,True,False,"['robot_stimuli\\\\filler.mp4', 'robot_stimuli\\\\filler.mp4']",robot_stimuli\\filler.mp4,20,0,0,0,0,0,0,0,0,,,,,,,,,,,,,,,,,,,,,42.24514110000018,42.24514110000018,space,49.793549100000746,97.94343189999927,99.03814599999896,95.72842169999967,97.94343189999927,99.03814599999896,99.03814599999896,99.03814599999896,99.03814599999896,c,6.417734900000141,105.66933710000012,105.66933710000012,105.66933710000012,105.66933710000012,105.66933710000012,105.66933710000012,105.66933710000012,105.66933710000012,None,None,None,,,,,,,,,,,,,,,,,,,,,,,,,,,20,001,2024-07-31_12h57.47.637,robot_sternberg_sign,2022.2.5,60.04830285474082,
"['X', 'L']",True,L,2,letter,1,False,False,"['robot_stimuli\\\\filler.mp4', 'robot_stimuli\\\\filler.mp4']",robot_stimuli\\filler.mp4,20,0,0,0,0,0,1,1,1,,,,,,,,,,,,,,,,,,,,,105.66933710000012,105.66933710000012,None,,111.06567859999996,112.13823880000018,108.85393719999956,111.06567859999996,112.13823880000018,112.13823880000018,112.13823880000018,112.13823880000018,c,4.540782000000036,116.77939349999906,116.77939349999906,116.77939349999906,116.77939349999906,116.77939349999906,116.77939349999906,116.77939349999906,116.77939349999906,None,None,None,105.66933710000012,105.66933710000012,,,,,,,,,,,,,,,,,,,,,,,,,20,001,2024-07-31_12h57.47.637,robot_sternberg_sign,2022.2.5,60.04830285474082,
"['H', 'X']",True,X,2,letter,1,False,True,"['robot_stimuli\\\\filler.mp4', 'robot_stimuli\\\\filler.mp4']",robot_stimuli\\filler.mp4,20,0,0,0,0,0,2,2,2,,,,,,,,,,,,,,,,,,,,,116.77939349999906,116.77939349999906,None,,122.37569299999996,123.45113029999993,120.15625539999928,122.37569299999996,123.45113029999993,123.45113029999993,123.45113029999993,123.45113029999993,c,0.90754890000062,124.53099610000027,134.82807329999923,124.53099610000027,134.82807329999923,124.53099610000027,134.82807329999923,124.53099610000027,134.82807329999923,80.0,8.523456999999325,space,116.77939349999906,116.77939349999906,10.235278899999685,,,,,,,,,,,,,,,,,,,,,,,,20,001,2024-07-31_12h57.47.637,robot_sternberg_sign,2022.2.5,60.04830285474082,
"['V', 'M', 'K', 'G']",True,K,4,letter,1,True,False,"['robot_stimuli\\\\filler.mp4', 'robot_stimuli\\\\filler.mp4', 'robot_stimuli\\\\filler.mp4', 'robot_stimuli\\\\filler.mp4']",robot_stimuli\\filler.mp4,20,0,0,0,0,0,3,3,3,,,,,,,,,,,,,,,,,,,,,134.82807329999923,134.82807329999923,space,6.482705100001112,151.31944750000002,142.40108949999922,149.1032353999999,151.31944750000002,152.39720839999973,152.39720839999973,152.39720839999973,152.39720839999973,c,2.225578100000348,154.82864080000036,154.82864080000036,154.82864080000036,154.82864080000036,154.82864080000036,154.82864080000036,154.82864080000036,154.82864080000036,None,None,None,,,,,,,,,,,,,,,,,,,,,,,,,,,20,001,2024-07-31_12h57.47.637,robot_sternberg_sign,2022.2.5,60.04830285474082,
"['S', 'B', 'N', 'Q']",False,V,4,letter,1,False,False,"['robot_stimuli\\\\filler.mp4', 'robot_stimuli\\\\filler.mp4', 'robot_stimuli\\\\filler.mp4', 'robot_stimuli\\\\filler.mp4']",robot_stimuli\\filler.mp4,20,0,0,0,0,0,4,4,4,,,,,,,,,,,,,,,,,,,,,154.82864080000036,154.82864080000036,None,,164.41660589999992,165.4821953999999,162.39236829999936,164.41660589999992,165.4821953999999,165.4821953999999,165.4821953999999,165.4821953999999,n,2.0775105000011536,167.7174630999998,167.7174630999998,167.7174630999998,167.7174630999998,167.7174630999998,167.7174630999998,167.7174630999998,167.7174630999998,None,None,None,154.82864080000036,154.82864080000036,,,,,,,,,,,,,,,,,,,,,,,,,20,001,2024-07-31_12h57.47.637,robot_sternberg_sign,2022.2.5,60.04830285474082,
"['M', 'P', 'Z', 'W']",True,Z,4,letter,1,False,True,"['robot_stimuli\\\\filler.mp4', 'robot_stimuli\\\\filler.mp4', 'robot_stimuli\\\\filler.mp4', 'robot_stimuli\\\\filler.mp4']",robot_stimuli\\filler.mp4,20,0,0,0,0,0,5,5,5,,,,,,,,,,,,,,,,,,,,,167.7174630999998,167.7174630999998,None,,177.32541839999976,178.3985102000006,175.30086669999946,177.32541839999976,178.3985102000006,178.3985102000006,178.3985102000006,178.3985102000006,c,1.3773646999998164,179.86246199999914,183.78677959999914,179.86246199999914,183.78677959999914,179.86246199999914,183.78677959999914,179.86246199999914,183.78677959999914,69.35185185185185,2.852382699998998,space,167.7174630999998,167.7174630999998,3.849291300000914,,,,,,,,,,,,,,,,,,,,,,,,20,001,2024-07-31_12h57.47.637,robot_sternberg_sign,2022.2.5,60.04830285474082,
"['Z', 'C', 'D', 'G', 'X', 'M']",True,G,6,letter,1,True,False,"['robot_stimuli\\\\filler.mp4', 'robot_stimuli\\\\filler.mp4', 'robot_stimuli\\\\filler.mp4', 'robot_stimuli\\\\filler.mp4', 'robot_stimuli\\\\filler.mp4', 'robot_stimuli\\\\filler.mp4']",robot_stimuli\\filler.mp4,20,0,0,0,0,0,6,6,6,,,,,,,,,,,,,,,,,,,,,183.78677959999914,183.78677959999914,space,2.973176899999089,201.16179779999948,202.2227681000004,199.15153859999918,201.16179779999948,202.2227681000004,202.2227681000004,202.2227681000004,202.2227681000004,c,1.5851708999998664,203.85185330000058,203.85185330000058,203.85185330000058,203.85185330000058,203.85185330000058,203.85185330000058,203.85185330000058,203.85185330000058,None,None,None,,,,,,,,,,,,,,,,,,,,,,,,,,,20,001,2024-07-31_12h57.47.637,robot_sternberg_sign,2022.2.5,60.04830285474082,
"['M', 'L', 'F', 'Q', 'V', 'W']",False,H,6,letter,1,False,False,"['robot_stimuli\\\\filler.mp4', 'robot_stimuli\\\\filler.mp4', 'robot_stimuli\\\\filler.mp4', 'robot_stimuli\\\\filler.mp4', 'robot_stimuli\\\\filler.mp4', 'robot_stimuli\\\\filler.mp4']",robot_stimuli\\filler.mp4,20,0,0,0,0,0,7,7,7,,,,,,,,,,,,,,,,,,,,,203.85185330000058,203.85185330000058,None,,217.81741479999982,218.87787770000068,215.79442980000022,217.81741479999982,218.87787770000068,218.87787770000068,218.87787770000068,218.87787770000068,n,1.6820435999998153,220.70949830000063,220.70949830000063,220.70949830000063,220.70949830000063,220.70949830000063,220.70949830000063,220.70949830000063,220.70949830000063,None,None,None,203.85185330000058,203.85185330000058,,,,,,,,,,,,,,,,,,,,,,,,,20,001,2024-07-31_12h57.47.637,robot_sternberg_sign,2022.2.5,60.04830285474082,
"['D', 'X', 'P', 'Z', 'W', 'H']",True,P,6,letter,1,False,True,"['robot_stimuli\\\\filler.mp4', 'robot_stimuli\\\\filler.mp4', 'robot_stimuli\\\\filler.mp4', 'robot_stimuli\\\\filler.mp4', 'robot_stimuli\\\\filler.mp4', 'robot_stimuli\\\\filler.mp4']",robot_stimuli\\filler.mp4,20,0,0,0,0,0,8,8,8,,,,,,,,,,,,,,,,,,,,,220.70949830000063,220.70949830000063,None,,234.4490593999999,235.50443629999972,232.43389220000063,234.4490593999999,235.50443629999972,235.50443629999972,235.50443629999972,235.50443629999972,n,2.7435041000007914,238.36222129999987,241.68406010000035,238.36222129999987,241.68406010000035,238.36222129999987,241.68406010000035,238.36222129999987,241.68406010000035,69.81481481481482,2.3655115000001388,space,220.70949830000063,220.70949830000063,3.269136700000672,,,,,,,,,,,,,,,,,,,,,,,,20,001,2024-07-31_12h57.47.637,robot_sternberg_sign,2022.2.5,60.04830285474082,
"['R_Base_X_Back', 'R_Head_X_Back']",False,L_Head_Z_Back,2,robot,2,True,False,"['robot_stimuli\\R_Base_X_Back.mp4', 'robot_stimuli\\R_Head_X_Back.mp4']",robot_stimuli\L_Head_Z_Back.mp4,20,0,0,0,0,0,9,9,9,,,,,,,,,,,,,,,,,,,,,241.68406010000035,241.68406010000035,space,3.451487800000905,253.6262026000004,254.7179441999997,,,,254.7179441999997,254.7179441999997,254.7179441999997,n,6.545294600000489,261.29807040000014,261.29807040000014,261.29807040000014,261.29807040000014,261.29807040000014,261.29807040000014,261.29807040000014,261.29807040000014,None,None,None,,,,249.9963284000005,254.7179441999997,,,,,,,,,,,,,,,,,,,,,,20,001,2024-07-31_12h57.47.637,robot_sternberg_sign,2022.2.5,60.04830285474082,
"['L_Arm_Y_For', 'L_Base_X_For']",True,L_Arm_Y_For,2,robot,2,False,False,"['robot_stimuli\\L_Arm_Y_For.mp4', 'robot_stimuli\\L_Base_X_For.mp4']",robot_stimuli\L_Arm_Y_For.mp4,20,0,0,0,0,0,10,10,10,,,,,,,,,,,,,,,,,,,,,261.29807040000014,261.29807040000014,None,,269.69174139999996,270.782293799999,,,,270.782293799999,270.782293799999,270.782293799999,n,6.0557700999997905,276.8774512,276.8774512,276.8774512,276.8774512,276.8774512,276.8774512,276.8774512,276.8774512,None,None,None,261.29807040000014,261.29807040000014,,266.1182826000004,270.782293799999,,,,,,,,,,,,,,,,,,,,,,20,001,2024-07-31_12h57.47.637,robot_sternberg_sign,2022.2.5,60.04830285474082,
"['L_Base_Z_Back', 'L_Torso_Z_Back']",True,L_Base_Z_Back,2,robot,2,False,True,"['robot_stimuli\\L_Base_Z_Back.mp4', 'robot_stimuli\\L_Torso_Z_Back.mp4']",robot_stimuli\L_Base_Z_Back.mp4,20,0,0,0,0,0,11,11,11,,,,,,,,,,,,,,,,,,,,,276.8774512,276.8774512,None,,285.2102089,286.3119554999994,,,,286.3119554999994,286.3119554999994,286.3119554999994,c,4.757960800001456,291.14739700000064,299.42088370000056,291.14739700000064,299.42088370000056,291.14739700000064,299.42088370000056,291.14739700000064,299.42088370000056,77.37654320987654,5.022278599999481,space,276.8774512,276.8774512,8.227664000000004,281.701133999999,286.3119554999994,,,,,,,,,,,,,,,,,,,,,,20,001,2024-07-31_12h57.47.637,robot_sternberg_sign,2022.2.5,60.04830285474082,
"['L_Arm_Y_Back', 'R_Arm_X_Back', 'L_Base_Z_For', 'R_Head_Y_For']",False,L_Base_X_Back,4,robot,2,True,False,"['robot_stimuli\\L_Arm_Y_Back.mp4', 'robot_stimuli\\R_Arm_X_Back.mp4', 'robot_stimuli\\L_Base_Z_For.mp4', 'robot_stimuli\\R_Head_Y_For.mp4']",robot_stimuli\L_Base_X_Back.mp4,20,0,0,0,0,0,12,12,12,,,,,,,,,,,,,,,,,,,,,299.42088370000056,299.42088370000056,space,2.234725799999069,317.59275779999916,318.67829449999954,,,,318.67829449999954,318.67829449999954,318.67829449999954,c,7.3047427000001335,326.0154127000005,326.0154127000005,326.0154127000005,326.0154127000005,326.0154127000005,326.0154127000005,326.0154127000005,326.0154127000005,None,None,None,,,,313.96064099999967,318.67829449999954,,,,,,,,,,,,,,,,,,,,,,20,001,2024-07-31_12h57.47.637,robot_sternberg_sign,2022.2.5,60.04830285474082,
"['R_Head_Y_For', 'R_Arm_Z_Back', 'L_Torso_X_Back', 'L_Torso_Z_For']",True,R_Head_Y_For,4,robot,2,False,False,"['robot_stimuli\\R_Head_Y_For.mp4', 'robot_stimuli\\R_Arm_Z_Back.mp4', 'robot_stimuli\\L_Torso_X_Back.mp4', 'robot_stimuli\\L_Torso_Z_For.mp4']",robot_stimuli\R_Head_Y_For.mp4,20,0,0,0,0,0,13,13,13,,,,,,,,,,,,,,,,,,,,,326.0154127000005,326.0154127000005,None,,341.92134500000066,343.0139374999999,,,,343.0139374999999,343.0139374999999,343.0139374999999,c,4.265241400000377,347.31750309999916,347.31750309999916,347.31750309999916,347.31750309999916,347.31750309999916,347.31750309999916,347.31750309999916,347.31750309999916,None,None,None,326.0154127000005,326.0154127000005,,338.2789045999998,343.0139374999999,,,,,,,,,,,,,,,,,,,,,,20,001,2024-07-31_12h57.47.637,robot_sternberg_sign,2022.2.5,60.04830285474082,
"['R_Base_Y_Back', 'L_Arm_X_Back', 'R_Head_Y_For', 'L_Head_Z_For']",True,R_Head_Y_For,4,robot,2,False,True,"['robot_stimuli\\R_Base_Y_Back.mp4', 'robot_stimuli\\L_Arm_X_Back.mp4', 'robot_stimuli\\R_Head_Y_For.mp4', 'robot_stimuli\\L_Head_Z_For.mp4']",robot_stimuli\R_Head_Y_For.mp4,20,0,0,0,0,0,14,14,14,,,,,,,,,,,,,,,,,,,,,347.31750309999916,347.31750309999916,None,,363.2063367999999,364.2935323999991,,,,364.2935323999991,364.2935323999991,364.2935323999991,c,3.1221726999992825,367.9623439999996,371.2493744000003,367.9623439999996,371.2493744000003,367.9623439999996,371.2493744000003,367.9623439999996,371.2493744000003,67.34567901234568,2.6263947999996162,space,347.31750309999916,347.31750309999916,3.220895099999325,359.56432099999984,364.2935323999991,,,,,,,,,,,,,,,,,,,,,,20,001,2024-07-31_12h57.47.637,robot_sternberg_sign,2022.2.5,60.04830285474082,
"['L_Head_Z_For', 'R_Base_Z_Back', 'R_Torso_Y_For', 'R_Arm_X_Back', 'L_Base_X_For', 'R_Torso_Z_Back']",False,R_Base_Y_Back,6,robot,2,True,False,"['robot_stimuli\\L_Head_Z_For.mp4', 'robot_stimuli\\R_Base_Z_Back.mp4', 'robot_stimuli\\R_Torso_Y_For.mp4', 'robot_stimuli\\R_Arm_X_Back.mp4', 'robot_stimuli\\L_Base_X_For.mp4', 'robot_stimuli\\R_Torso_Z_Back.mp4']",robot_stimuli\R_Base_Y_Back.mp4,20,0,0,0,0,0,15,15,15,,,,,,,,,,,,,,,,,,,,,371.2493744000003,371.2493744000003,space,0.7010523000008106,395.15385269999933,373.0422753999992,,,,396.2458554999994,396.2458554999994,396.2458554999994,c,2.872453599999062,399.88528170000063,399.88528170000063,399.88528170000063,399.88528170000063,399.88528170000063,399.88528170000063,399.88528170000063,399.88528170000063,None,None,None,,,,391.5133967999991,396.2458554999994,,,,,,,,,,,,,,,,,,,,,,20,001,2024-07-31_12h57.47.637,robot_sternberg_sign,2022.2.5,60.04830285474082,
"['R_Torso_Y_Back', 'R_Base_Y_Back', 'L_Base_X_Back', 'R_Base_X_Back', 'R_Head_Y_For', 'R_Arm_Z_For']",True,R_Torso_Y_Back,6,robot,2,False,False,"['robot_stimuli\\R_Torso_Y_Back.mp4', 'robot_stimuli\\R_Base_Y_Back.mp4', 'robot_stimuli\\L_Base_X_Back.mp4', 'robot_stimuli\\R_Base_X_Back.mp4', 'robot_stimuli\\R_Head_Y_For.mp4', 'robot_stimuli\\R_Arm_Z_For.mp4']",robot_stimuli\R_Torso_Y_Back.mp4,20,0,0,0,0,0,16,16,16,,,,,,,,,,,,,,,,,,,,,399.88528170000063,399.88528170000063,None,,423.2238333000005,424.3165403999992,,,,424.3165403999992,424.3165403999992,424.3165403999992,c,2.929427500001111,427.96576710000045,427.96576710000045,427.96576710000045,427.96576710000045,427.96576710000045,427.96576710000045,427.96576710000045,427.96576710000045,None,None,None,399.88528170000063,399.88528170000063,,419.5812989999995,424.3165403999992,,,,,,,,,,,,,,,,,,,,,,20,001,2024-07-31_12h57.47.637,robot_sternberg_sign,2022.2.5,60.04830285474082,
"['L_Arm_X_For', 'R_Head_X_Back', 'L_Arm_X_Back', 'R_Base_Y_Back', 'R_Base_Z_Back', 'L_Head_X_Back']",True,L_Head_X_Back,6,robot,2,False,True,"['robot_stimuli\\L_Arm_X_For.mp4', 'robot_stimuli\\R_Head_X_Back.mp4', 'robot_stimuli\\L_Arm_X_Back.mp4', 'robot_stimuli\\R_Base_Y_Back.mp4', 'robot_stimuli\\R_Base_Z_Back.mp4', 'robot_stimuli\\L_Head_X_Back.mp4']",robot_stimuli\L_Head_X_Back.mp4,20,0,0,0,0,0,17,17,17,,,,,,,,,,,,,,,,,,,,,427.96576710000045,427.96576710000045,None,,451.2220082999993,452.3117070999997,,,,452.3117070999997,452.3117070999997,452.3117070999997,c,2.4071475000000646,455.9807230000006,465.6677784000003,455.9807230000006,465.6677784000003,455.9807230000006,465.6677784000003,455.9807230000006,465.6677784000003,36.94444444444444,8.833136600000216,space,427.96576710000045,427.96576710000045,9.633394899999985,447.5876346999994,452.3117070999997,,,,,,,,,,,,,,,,,,,,,,20,001,2024-07-31_12h57.47.637,robot_sternberg_sign,2022.2.5,60.04830285474082,
,,,,,,,,,,,0,0,0,0,,,,,,,,,,,,,,,,,,,,,,,,,,,,,,,,,,,,,,,,,,,,,,,,,,,,,,,465.6677784000003,465.6677784000003,465.6677784000003,c,3.131202200000189,,,,,,,,,,,,,,,,,20,001,2024-07-31_12h57.47.637,robot_sternberg_sign,2022.2.5,60.04830285474082,
"['K', 'R']",False,B,2,letter,1,True,False,"['robot_stimuli\\\\filler.mp4', 'robot_stimuli\\\\filler.mp4']",robot_stimuli\\filler.mp4,20,,,,,,,,,,,,,0,0,0,0,,,,,,,,,,,,,,,,,477.3793876999989,478.4537670999998,,,,,,,,,479.66122220000034,479.66122220000034,479.66122220000034,479.66122220000034,479.66122220000034,479.66122220000034,479.66122220000034,479.66122220000034,None,None,None,,,,,,,,,,,468.83332229999905,468.83332229999905,space,3.165748800000074,475.1725055000006,477.3793876999989,478.4537670999998,478.4537670999998,478.4537670999998,478.4537670999998,n,1.0262013999999908,,,,,20,001,2024-07-31_12h57.47.637,robot_sternberg_sign,2022.2.5,60.04830285474082,
"['B', 'G']",True,B,2,letter,1,False,False,"['robot_stimuli\\\\filler.mp4', 'robot_stimuli\\\\filler.mp4']",robot_stimuli\\filler.mp4,20,,,,,,,,,,,,,0,1,1,1,,,,,,,,,,,,,,,,,485.0503614999998,486.10183829999914,,,,,,,,,487.3346929999989,487.3346929999989,487.3346929999989,487.3346929999989,487.3346929999989,487.3346929999989,487.3346929999989,487.3346929999989,None,None,None,,,,,,,,,,,479.66122220000034,479.66122220000034,None,,483.03003910000007,485.0503614999998,486.10183829999914,486.10183829999914,486.10183829999914,486.10183829999914,c,1.0419412999999622,479.66122220000034,479.66122220000034,,,20,001,2024-07-31_12h57.47.637,robot_sternberg_sign,2022.2.5,60.04830285474082,
"['T', 'S']",True,S,2,letter,1,False,False,"['robot_stimuli\\\\filler.mp4', 'robot_stimuli\\\\filler.mp4']",robot_stimuli\\filler.mp4,20,,,,,,,,,,,,,0,2,2,2,,,,,,,,,,,,,,,,,492.8945211999999,493.95365519999905,,,,,,,,,495.1787841000005,495.1787841000005,495.1787841000005,495.1787841000005,495.1787841000005,495.1787841000005,495.1787841000005,495.1787841000005,None,None,None,,,,,,,,,,,487.3346929999989,487.3346929999989,None,,490.6781486,492.8945211999999,493.95365519999905,493.95365519999905,493.95365519999905,493.95365519999905,c,0.9883289000008517,487.3346929999989,487.3346929999989,,,20,001,2024-07-31_12h57.47.637,robot_sternberg_sign,2022.2.5,60.04830285474082,
"['L', 'D']",False,R,2,letter,1,False,False,"['robot_stimuli\\\\filler.mp4', 'robot_stimuli\\\\filler.mp4']",robot_stimuli\\filler.mp4,20,,,,,,,,,,,,,0,3,3,3,,,,,,,,,,,,,,,,,500.3585418999992,501.42156839999916,,,,,,,,,502.2530852,502.2530852,502.2530852,502.2530852,502.2530852,502.2530852,502.2530852,502.2530852,None,None,None,,,,,,,,,,,495.1787841000005,495.1787841000005,None,,498.3437221000004,500.3585418999992,501.42156839999916,501.42156839999916,501.42156839999916,501.42156839999916,n,0.6100084999998217,495.1787841000005,495.1787841000005,,,20,001,2024-07-31_12h57.47.637,robot_sternberg_sign,2022.2.5,60.04830285474082,
"['J', 'Z']",True,Z,2,letter,1,False,False,"['robot_stimuli\\\\filler.mp4', 'robot_stimuli\\\\filler.mp4']",robot_stimuli\\filler.mp4,20,,,,,,,,,,,,,0,4,4,4,,,,,,,,,,,,,,,,,507.8174696999995,508.8760686000005,,,,,,,,,511.0943095999992,511.0943095999992,511.0943095999992,511.0943095999992,511.0943095999992,511.0943095999992,511.0943095999992,511.0943095999992,None,None,None,,,,,,,,,,,502.2530852,502.2530852,None,,505.6022338999992,507.8174696999995,508.8760686000005,508.8760686000005,508.8760686000005,508.8760686000005,c,2.0258413999999902,502.2530852,502.2530852,,,20,001,2024-07-31_12h57.47.637,robot_sternberg_sign,2022.2.5,60.04830285474082,
"['W', 'V']",False,X,2,letter,1,False,False,"['robot_stimuli\\\\filler.mp4', 'robot_stimuli\\\\filler.mp4']",robot_stimuli\\filler.mp4,20,,,,,,,,,,,,,0,5,5,5,,,,,,,,,,,,,,,,,516.670016,512.1565253999997,,,,,,,,,518.7762208000004,518.7762208000004,518.7762208000004,518.7762208000004,518.7762208000004,518.7762208000004,518.7762208000004,518.7762208000004,None,None,None,,,,,,,,,,,511.0943095999992,511.0943095999992,None,,514.4578858000004,516.670016,517.7498653000002,517.7498653000002,517.7498653000002,517.7498653000002,n,0.912922499999695,511.0943095999992,511.0943095999992,,,20,001,2024-07-31_12h57.47.637,robot_sternberg_sign,2022.2.5,60.04830285474082,
"['B', 'F']",False,X,2,letter,1,False,False,"['robot_stimuli\\\\filler.mp4', 'robot_stimuli\\\\filler.mp4']",robot_stimuli\\filler.mp4,20,,,,,,,,,,,,,0,6,6,6,,,,,,,,,,,,,,,,,524.3470512000004,525.4035473000004,,,,,,,,,526.4344638999992,526.4344638999992,526.4344638999992,526.4344638999992,526.4344638999992,526.4344638999992,526.4344638999992,526.4344638999992,None,None,None,,,,,,,,,,,518.7762208000004,518.7762208000004,None,,522.1381340999997,524.3470512000004,525.4035473000004,525.4035473000004,525.4035473000004,525.4035473000004,n,0.8602692000004026,518.7762208000004,518.7762208000004,,,20,001,2024-07-31_12h57.47.637,robot_sternberg_sign,2022.2.5,60.04830285474082,
"['S', 'B']",False,N,2,letter,1,False,False,"['robot_stimuli\\\\filler.mp4', 'robot_stimuli\\\\filler.mp4']",robot_stimuli\\filler.mp4,20,,,,,,,,,,,,,0,7,7,7,,,,,,,,,,,,,,,,,531.5976410999992,532.6577108999991,,,,,,,,,533.4785960999998,533.4785960999998,533.4785960999998,533.4785960999998,533.4785960999998,533.4785960999998,533.4785960999998,533.4785960999998,None,None,None,,,,,,,,,,,526.4344638999992,526.4344638999992,None,,529.5806021999997,531.5976410999992,532.6577108999991,532.6577108999991,532.6577108999991,532.6577108999991,n,0.6130886000009923,526.4344638999992,526.4344638999992,,,20,001,2024-07-31_12h57.47.637,robot_sternberg_sign,2022.2.5,60.04830285474082,
"['P', 'D']",True,D,2,letter,1,False,False,"['robot_stimuli\\\\filler.mp4', 'robot_stimuli\\\\filler.mp4']",robot_stimuli\\filler.mp4,20,,,,,,,,,,,,,0,8,8,8,,,,,,,,,,,,,,,,,538.849168499999,539.9046564,,,,,,,,,541.5320391000005,541.5320391000005,541.5320391000005,541.5320391000005,541.5320391000005,541.5320391000005,541.5320391000005,541.5320391000005,None,None,None,,,,,,,,,,,533.4785960999998,533.4785960999998,None,,536.8323626000001,538.849168499999,539.9046564,539.9046564,539.9046564,539.9046564,c,1.4453097999994498,533.4785960999998,533.4785960999998,,,20,001,2024-07-31_12h57.47.637,robot_sternberg_sign,2022.2.5,60.04830285474082,
"['G', 'Q']",True,G,2,letter,1,False,True,"['robot_stimuli\\\\filler.mp4', 'robot_stimuli\\\\filler.mp4']",robot_stimuli\\filler.mp4,20,,,,,,,,,,,,,0,9,9,9,,,,,,,,,,,,,,,,,546.8902244000001,547.9545204000005,,,,,,,,,549.0141736999994,552.2289824,549.0141736999994,552.2289824,549.0141736999994,552.2289824,549.0141736999994,552.2289824,40.49382716049382,2.2347279000005074,space,,,3.14444629999889,,,,,,,,541.5320391000005,541.5320391000005,None,,544.876103999999,546.8902244000001,547.9545204000005,547.9545204000005,547.9545204000005,547.9545204000005,c,0.9643126999999367,541.5320391000005,541.5320391000005,,,20,001,2024-07-31_12h57.47.637,robot_sternberg_sign,2022.2.5,60.04830285474082,
"['Q', 'P', 'N', 'G', 'L', 'S']",True,N,6,letter,1,True,False,"['robot_stimuli\\\\filler.mp4', 'robot_stimuli\\\\filler.mp4', 'robot_stimuli\\\\filler.mp4', 'robot_stimuli\\\\filler.mp4', 'robot_stimuli\\\\filler.mp4', 'robot_stimuli\\\\filler.mp4']",robot_stimuli\\filler.mp4,20,,,,,,,,,,,,,0,10,10,10,,,,,,,,,,,,,,,,,571.0566481000005,572.1202493000001,,,,,,,,,573.7474917,573.7474917,573.7474917,573.7474917,573.7474917,573.7474917,573.7474917,573.7474917,None,None,None,,,,,,,,,,,552.2289824,552.2289824,space,4.497275900001114,569.0470287999997,571.0566481000005,572.1202493000001,572.1202493000001,572.1202493000001,572.1202493000001,c,1.3820950999997876,,,,,20,001,2024-07-31_12h57.47.637,robot_sternberg_sign,2022.2.5,60.04830285474082,
"['Q', 'W', 'K', 'S', 'T', 'V']",True,T,6,letter,1,False,False,"['robot_stimuli\\\\filler.mp4', 'robot_stimuli\\\\filler.mp4', 'robot_stimuli\\\\filler.mp4', 'robot_stimuli\\\\filler.mp4', 'robot_stimuli\\\\filler.mp4', 'robot_stimuli\\\\filler.mp4']",robot_stimuli\\filler.mp4,20,,,,,,,,,,,,,0,11,11,11,,,,,,,,,,,,,,,,,587.8703829000005,574.808345899999,,,,,,,,,590.3656904999989,590.3656904999989,590.3656904999989,590.3656904999989,590.3656904999989,590.3656904999989,590.3656904999989,590.3656904999989,None,None,None,,,,,,,,,,,573.7474917,573.7474917,None,,585.6556911999996,587.8703829000005,588.939812999999,588.939812999999,588.939812999999,588.939812999999,c,1.2426585000011983,573.7474917,573.7474917,,,20,001,2024-07-31_12h57.47.637,robot_sternberg_sign,2022.2.5,60.04830285474082,
"['L', 'P', 'C', 'B', 'G', 'R']",True,B,6,letter,1,False,False,"['robot_stimuli\\\\filler.mp4', 'robot_stimuli\\\\filler.mp4', 'robot_stimuli\\\\filler.mp4', 'robot_stimuli\\\\filler.mp4', 'robot_stimuli\\\\filler.mp4', 'robot_stimuli\\\\filler.mp4']",robot_stimuli\\filler.mp4,20,,,,,,,,,,,,,0,12,12,12,,,,,,,,,,,,,,,,,604.6694095000003,591.4229661999998,,,,,,,,,606.7735059000006,606.7735059000006,606.7735059000006,606.7735059000006,606.7735059000006,606.7735059000006,606.7735059000006,606.7735059000006,None,None,None,,,,,,,,,,,590.3656904999989,590.3656904999989,None,,602.6512160000002,604.6694095000003,605.7376757999991,605.7376757999991,605.7376757999991,605.7376757999991,c,0.909068799999659,590.3656904999989,590.3656904999989,,,20,001,2024-07-31_12h57.47.637,robot_sternberg_sign,2022.2.5,60.04830285474082,
"['B', 'Q', 'W', 'K', 'S', 'T']",False,C,6,letter,1,False,False,"['robot_stimuli\\\\filler.mp4', 'robot_stimuli\\\\filler.mp4', 'robot_stimuli\\\\filler.mp4', 'robot_stimuli\\\\filler.mp4', 'robot_stimuli\\\\filler.mp4', 'robot_stimuli\\\\filler.mp4']",robot_stimuli\\filler.mp4,20,,,,,,,,,,,,,0,13,13,13,,,,,,,,,,,,,,,,,620.7130913000001,621.7735790999996,,,,,,,,,625.0045928,625.0045928,625.0045928,625.0045928,625.0045928,625.0045928,625.0045928,625.0045928,None,None,None,,,,,,,,,,,606.7735059000006,606.7735059000006,None,,618.7005401999995,620.7130913000001,621.7735790999996,621.7735790999996,621.7735790999996,621.7735790999996,n,3.0175703000004432,606.7735059000006,606.7735059000006,,,20,001,2024-07-31_12h57.47.637,robot_sternberg_sign,2022.2.5,60.04830285474082,
"['F', 'J', 'X', 'G', 'B', 'R']",True,F,6,letter,1,False,False,"['robot_stimuli\\\\filler.mp4', 'robot_stimuli\\\\filler.mp4', 'robot_stimuli\\\\filler.mp4', 'robot_stimuli\\\\filler.mp4', 'robot_stimuli\\\\filler.mp4', 'robot_stimuli\\\\filler.mp4']",robot_stimuli\\filler.mp4,20,,,,,,,,,,,,,0,14,14,14,,,,,,,,,,,,,,,,,639.1434869000004,640.2066709999999,,,,,,,,,641.0287387999997,641.0287387999997,641.0287387999997,641.0287387999997,641.0287387999997,641.0287387999997,641.0287387999997,641.0287387999997,None,None,None,,,,,,,,,,,625.0045928,625.0045928,None,,637.1284333999993,639.1434869000004,640.2066709999999,640.2066709999999,640.2066709999999,640.2066709999999,c,0.7531684000005043,625.0045928,625.0045928,,,20,001,2024-07-31_12h57.47.637,robot_sternberg_sign,2022.2.5,60.04830285474082,
"['V', 'K', 'Q', 'N', 'H', 'M']",False,G,6,letter,1,False,False,"['robot_stimuli\\\\filler.mp4', 'robot_stimuli\\\\filler.mp4', 'robot_stimuli\\\\filler.mp4', 'robot_stimuli\\\\filler.mp4', 'robot_stimuli\\\\filler.mp4', 'robot_stimuli\\\\filler.mp4']",robot_stimuli\\filler.mp4,20,,,,,,,,,,,,,0,15,15,15,,,,,,,,,,,,,,,,,655.1425163999993,656.2047717000005,,,,,,,,,657.6270052,657.6270052,657.6270052,657.6270052,657.6270052,657.6270052,657.6270052,657.6270052,None,None,None,,,,,,,,,,,641.0287387999997,641.0287387999997,None,,653.1327347000006,655.1425163999993,656.2047717000005,656.2047717000005,656.2047717000005,656.2047717000005,n,1.306830399998944,641.0287387999997,641.0287387999997,,,20,001,2024-07-31_12h57.47.637,robot_sternberg_sign,2022.2.5,60.04830285474082,
"['C', 'S', 'V', 'B', 'H', 'P']",True,C,6,letter,1,False,False,"['robot_stimuli\\\\filler.mp4', 'robot_stimuli\\\\filler.mp4', 'robot_stimuli\\\\filler.mp4', 'robot_stimuli\\\\filler.mp4', 'robot_stimuli\\\\filler.mp4', 'robot_stimuli\\\\filler.mp4']",robot_stimuli\\filler.mp4,20,,,,,,,,,,,,,0,16,16,16,,,,,,,,,,,,,,,,,671.3359576000003,658.6881892000001,,,,,,,,,673.4398122000002,673.4398122000002,673.4398122000002,673.4398122000002,673.4398122000002,673.4398122000002,673.4398122000002,673.4398122000002,None,None,None,,,,,,,,,,,657.6270052,657.6270052,None,,669.3280615000003,671.3359576000003,672.4102561999989,672.4102561999989,672.4102561999989,672.4102561999989,c,0.8437601000005088,657.6270052,657.6270052,,,20,001,2024-07-31_12h57.47.637,robot_sternberg_sign,2022.2.5,60.04830285474082,
"['L', 'X', 'K', 'P', 'C', 'Z']",False,J,6,letter,1,False,False,"['robot_stimuli\\\\filler.mp4', 'robot_stimuli\\\\filler.mp4', 'robot_stimuli\\\\filler.mp4', 'robot_stimuli\\\\filler.mp4', 'robot_stimuli\\\\filler.mp4', 'robot_stimuli\\\\filler.mp4']",robot_stimuli\\filler.mp4,20,,,,,,,,,,,,,0,17,17,17,,,,,,,,,,,,,,,,,687.5715349999991,688.6414666000001,,,,,,,,,690.0664737999996,690.0664737999996,690.0664737999996,690.0664737999996,690.0664737999996,690.0664737999996,690.0664737999996,690.0664737999996,None,None,None,,,,,,,,,,,673.4398122000002,673.4398122000002,None,,685.5559400999991,687.5715349999991,688.6414666000001,688.6414666000001,688.6414666000001,688.6414666000001,n,1.2539343000007648,673.4398122000002,673.4398122000002,,,20,001,2024-07-31_12h57.47.637,robot_sternberg_sign,2022.2.5,60.04830285474082,
"['M', 'P', 'R', 'G', 'T', 'V']",False,B,6,letter,1,False,False,"['robot_stimuli\\\\filler.mp4', 'robot_stimuli\\\\filler.mp4', 'robot_stimuli\\\\filler.mp4', 'robot_stimuli\\\\filler.mp4', 'robot_stimuli\\\\filler.mp4', 'robot_stimuli\\\\filler.mp4']",robot_stimuli\\filler.mp4,20,,,,,,,,,,,,,0,18,18,18,,,,,,,,,,,,,,,,,703.9815371000004,705.0399345000005,,,,,,,,,706.2631793,706.2631793,706.2631793,706.2631793,706.2631793,706.2631793,706.2631793,706.2631793,None,None,None,,,,,,,,,,,690.0664737999996,690.0664737999996,None,,701.9607415999999,703.9815371000004,705.0399345000005,705.0399345000005,705.0399345000005,705.0399345000005,n,0.9833920000000944,690.0664737999996,690.0664737999996,,,20,001,2024-07-31_12h57.47.637,robot_sternberg_sign,2022.2.5,60.04830285474082,
"['R', 'M', 'V', 'W', 'J', 'T']",False,X,6,letter,1,False,True,"['robot_stimuli\\\\filler.mp4', 'robot_stimuli\\\\filler.mp4', 'robot_stimuli\\\\filler.mp4', 'robot_stimuli\\\\filler.mp4', 'robot_stimuli\\\\filler.mp4', 'robot_stimuli\\\\filler.mp4']",robot_stimuli\\filler.mp4,20,,,,,,,,,,,,,0,19,19,19,,,,,,,,,,,,,,,,,720.3520365999993,707.3223123999996,,,,,,,,,723.8926147000002,727.9333083000001,723.8926147000002,727.9333083000001,723.8926147000002,727.9333083000001,723.8926147000002,727.9333083000001,37.098765432098766,3.0268863000001147,space,,,3.985794700000042,,,,,,,,706.2631793,706.2631793,None,,718.1396731000004,720.3520365999993,721.4306777999991,721.4306777999991,721.4306777999991,721.4306777999991,n,2.3361218000009103,706.2631793,706.2631793,,,20,001,2024-07-31_12h57.47.637,robot_sternberg_sign,2022.2.5,60.04830285474082,
"['J', 'N', 'Q', 'G']",False,X,4,letter,1,True,False,"['robot_stimuli\\\\filler.mp4', 'robot_stimuli\\\\filler.mp4', 'robot_stimuli\\\\filler.mp4', 'robot_stimuli\\\\filler.mp4']",robot_stimuli\\filler.mp4,20,,,,,,,,,,,,,0,20,20,20,,,,,,,,,,,,,,,,,739.7003941999992,740.7539223000003,,,,,,,,,741.9849302999992,741.9849302999992,741.9849302999992,741.9849302999992,741.9849302999992,741.9849302999992,741.9849302999992,741.9849302999992,None,None,None,,,,,,,,,,,727.9333083000001,727.9333083000001,space,1.8094712000001891,737.4884034999995,739.7003941999992,740.7539223000003,740.7539223000003,740.7539223000003,740.7539223000003,n,1.077420900001016,,,,,20,001,2024-07-31_12h57.47.637,robot_sternberg_sign,2022.2.5,60.04830285474082,
"['L', 'T', 'F', 'C']",True,F,4,letter,1,False,False,"['robot_stimuli\\\\filler.mp4', 'robot_stimuli\\\\filler.mp4', 'robot_stimuli\\\\filler.mp4', 'robot_stimuli\\\\filler.mp4']",robot_stimuli\\filler.mp4,20,,,,,,,,,,,,,0,21,21,21,,,,,,,,,,,,,,,,,751.7089732000004,752.7711256000002,,,,,,,,,753.9927695999995,753.9927695999995,753.9927695999995,753.9927695999995,753.9927695999995,753.9927695999995,753.9927695999995,753.9927695999995,None,None,None,,,,,,,,,,,741.9849302999992,741.9849302999992,None,,749.6965514999993,751.7089732000004,752.7711256000002,752.7711256000002,752.7711256000002,752.7711256000002,c,1.0999687000003178,741.9849302999992,741.9849302999992,,,20,001,2024-07-31_12h57.47.637,robot_sternberg_sign,2022.2.5,60.04830285474082,
"['F', 'X', 'C', 'J']",True,F,4,letter,1,False,False,"['robot_stimuli\\\\filler.mp4', 'robot_stimuli\\\\filler.mp4', 'robot_stimuli\\\\filler.mp4', 'robot_stimuli\\\\filler.mp4']",robot_stimuli\\filler.mp4,20,,,,,,,,,,,,,0,22,22,22,,,,,,,,,,,,,,,,,764.1198848999993,755.055018699999,,,,,,,,,766.0174425999994,766.0174425999994,766.0174425999994,766.0174425999994,766.0174425999994,766.0174425999994,766.0174425999994,766.0174425999994,None,None,None,,,,,,,,,,,753.9927695999995,753.9927695999995,None,,761.908137299999,764.1198848999993,765.1899627000003,765.1899627000003,765.1899627000003,765.1899627000003,c,0.6810090999988461,753.9927695999995,753.9927695999995,,,20,001,2024-07-31_12h57.47.637,robot_sternberg_sign,2022.2.5,60.04830285474082,
"['R', 'Z', 'F', 'N']",True,R,4,letter,1,False,False,"['robot_stimuli\\\\filler.mp4', 'robot_stimuli\\\\filler.mp4', 'robot_stimuli\\\\filler.mp4', 'robot_stimuli\\\\filler.mp4']",robot_stimuli\\filler.mp4,20,,,,,,,,,,,,,0,23,23,23,,,,,,,,,,,,,,,,,775.7509176000003,776.8132764999991,,,,,,,,,777.6386674999994,777.6386674999994,777.6386674999994,777.6386674999994,777.6386674999994,777.6386674999994,777.6386674999994,777.6386674999994,None,None,None,,,,,,,,,,,766.0174425999994,766.0174425999994,None,,773.5391359999994,775.7509176000003,776.8132764999991,776.8132764999991,776.8132764999991,776.8132764999991,c,0.6573420000004262,766.0174425999994,766.0174425999994,,,20,001,2024-07-31_12h57.47.637,robot_sternberg_sign,2022.2.5,60.04830285474082,
"['P', 'N', 'F', 'C']",False,Z,4,letter,1,False,False,"['robot_stimuli\\\\filler.mp4', 'robot_stimuli\\\\filler.mp4', 'robot_stimuli\\\\filler.mp4', 'robot_stimuli\\\\filler.mp4']",robot_stimuli\\filler.mp4,20,,,,,,,,,,,,,0,24,24,24,,,,,,,,,,,,,,,,,787.5671026999989,788.6221294999996,,,,,,,,,789.6519893000004,789.6519893000004,789.6519893000004,789.6519893000004,789.6519893000004,789.6519893000004,789.6519893000004,789.6519893000004,None,None,None,,,,,,,,,,,777.6386674999994,777.6386674999994,None,,785.3585526999996,787.5671026999989,788.6221294999996,788.6221294999996,788.6221294999996,788.6221294999996,n,0.8892652000013186,777.6386674999994,777.6386674999994,,,20,001,2024-07-31_12h57.47.637,robot_sternberg_sign,2022.2.5,60.04830285474082,
"['K', 'B', 'L', 'X']",False,Z,4,letter,1,False,False,"['robot_stimuli\\\\filler.mp4', 'robot_stimuli\\\\filler.mp4', 'robot_stimuli\\\\filler.mp4', 'robot_stimuli\\\\filler.mp4']",robot_stimuli\\filler.mp4,20,,,,,,,,,,,,,0,25,25,25,,,,,,,,,,,,,,,,,799.803439199999,,,,,,,,,,801.9007724000003,801.9007724000003,801.9007724000003,801.9007724000003,801.9007724000003,801.9007724000003,801.9007724000003,801.9007724000003,None,None,None,,,,,,,,,,,789.6519893000004,789.6519893000004,None,,797.5877392000002,799.803439199999,800.8695475999994,800.8695475999994,800.8695475999994,800.8695475999994,n,0.8895403000005899,789.6519893000004,789.6519893000004,,,20,001,2024-07-31_12h57.47.637,robot_sternberg_sign,2022.2.5,60.04830285474082,
"['M', 'C', 'T', 'S']",False,P,4,letter,1,False,False,"['robot_stimuli\\\\filler.mp4', 'robot_stimuli\\\\filler.mp4', 'robot_stimuli\\\\filler.mp4', 'robot_stimuli\\\\filler.mp4']",robot_stimuli\\filler.mp4,20,,,,,,,,,,,,,0,26,26,26,,,,,,,,,,,,,,,,,811.8340196999998,812.8918852999996,,,,,,,,,814.5175923999996,814.5175923999996,814.5175923999996,814.5175923999996,814.5175923999996,814.5175923999996,814.5175923999996,814.5175923999996,None,None,None,,,,,,,,,,,801.9007724000003,801.9007724000003,None,,809.6216297999999,811.8340196999998,812.8918852999996,812.8918852999996,812.8918852999996,812.8918852999996,n,1.5557523000006768,801.9007724000003,801.9007724000003,,,20,001,2024-07-31_12h57.47.637,robot_sternberg_sign,2022.2.5,60.04830285474082,
"['X', 'M', 'V', 'C']",True,C,4,letter,1,False,False,"['robot_stimuli\\\\filler.mp4', 'robot_stimuli\\\\filler.mp4', 'robot_stimuli\\\\filler.mp4', 'robot_stimuli\\\\filler.mp4']",robot_stimuli\\filler.mp4,20,,,,,,,,,,,,,0,27,27,27,,,,,,,,,,,,,,,,,824.2476248999992,825.3103800999997,,,,,,,,,827.7366755999992,827.7366755999992,827.7366755999992,827.7366755999992,827.7366755999992,827.7366755999992,827.7366755999992,827.7366755999992,None,None,None,,,,,,,,,,,814.5175923999996,814.5175923999996,None,,822.2349271000003,824.2476248999992,825.3103800999997,825.3103800999997,825.3103800999997,825.3103800999997,c,2.241371500000241,814.5175923999996,814.5175923999996,,,20,001,2024-07-31_12h57.47.637,robot_sternberg_sign,2022.2.5,60.04830285474082,
"['Z', 'K', 'G', 'B']",False,F,4,letter,1,False,False,"['robot_stimuli\\\\filler.mp4', 'robot_stimuli\\\\filler.mp4', 'robot_stimuli\\\\filler.mp4', 'robot_stimuli\\\\filler.mp4']",robot_stimuli\\filler.mp4,20,,,,,,,,,,,,,0,28,28,28,,,,,,,,,,,,,,,,,837.2998294999998,838.3581842000003,,,,,,,,,841.186837199999,841.186837199999,841.186837199999,841.186837199999,841.186837199999,841.186837199999,841.186837199999,841.186837199999,None,None,None,,,,,,,,,,,827.7366755999992,827.7366755999992,None,,835.2796094999994,837.2998294999998,838.3581842000003,838.3581842000003,838.3581842000003,838.3581842000003,n,2.6250863000004756,827.7366755999992,827.7366755999992,,,20,001,2024-07-31_12h57.47.637,robot_sternberg_sign,2022.2.5,60.04830285474082,
"['C', 'T', 'K', 'X']",True,T,4,letter,1,False,True,"['robot_stimuli\\\\filler.mp4', 'robot_stimuli\\\\filler.mp4', 'robot_stimuli\\\\filler.mp4', 'robot_stimuli\\\\filler.mp4']",robot_stimuli\\filler.mp4,20,,,,,,,,,,,,,0,29,29,29,,,,,,,,,,,,,,,,,850.7521242999992,,,,,,,,,,854.2789506999998,857.2550410999993,854.2789506999998,857.2550410999993,854.2789506999998,857.2550410999993,854.2789506999998,857.2550410999993,43.27160493827161,2.064444399999047,space,,,2.9110615999998117,,,,,,,,841.186837199999,841.186837199999,None,,848.7348700999992,850.7521242999992,851.8232064999993,851.8232064999993,851.8232064999993,851.8232064999993,n,2.2308845999996265,841.186837199999,841.186837199999,,,20,001,2024-07-31_12h57.47.637,robot_sternberg_sign,2022.2.5,60.04830285474082,
"['L_Base_Z_For', 'R_Base_Y_For', 'R_Arm_Y_For', 'R_Torso_Z_For']",False,L_Torso_Z_Back,4,robot,2,True,False,"['robot_stimuli\\L_Base_Z_For.mp4', 'robot_stimuli\\R_Base_Y_For.mp4', 'robot_stimuli\\R_Arm_Y_For.mp4', 'robot_stimuli\\R_Torso_Z_For.mp4']",robot_stimuli\L_Torso_Z_Back.mp4,20,,,,,,,,,,,,,0,30,30,30,,,,,,,,,,,,,,,,,874.5561056000006,875.6467907000006,,,,,,,,,879.1640960999994,879.1640960999994,879.1640960999994,879.1640960999994,879.1640960999994,879.1640960999994,879.1640960999994,879.1640960999994,None,None,None,,,,,,,,,,,857.2550410999993,857.2550410999993,space,1.4807650000002468,,,,875.6467907000006,875.6467907000006,875.6467907000006,n,3.0076700000008714,,,870.9132819999995,875.6467907000006,20,001,2024-07-31_12h57.47.637,robot_sternberg_sign,2022.2.5,60.04830285474082,
"['R_Torso_Y_Back', 'L_Torso_X_For', 'L_Arm_X_Back', 'R_Arm_Z_Back']",True,R_Arm_Z_Back,4,robot,2,False,False,"['robot_stimuli\\R_Torso_Y_Back.mp4', 'robot_stimuli\\L_Torso_X_For.mp4', 'robot_stimuli\\L_Arm_X_Back.mp4', 'robot_stimuli\\R_Arm_Z_Back.mp4']",robot_stimuli\R_Arm_Z_Back.mp4,20,,,,,,,,,,,,,0,31,31,31,,,,,,,,,,,,,,,,,895.0391576999991,896.1308363999997,,,,,,,,,899.7816975999995,899.7816975999995,899.7816975999995,899.7816975999995,899.7816975999995,899.7816975999995,899.7816975999995,899.7816975999995,None,None,None,,,,,,,,,,,879.1640960999994,879.1640960999994,None,,,,,896.1308363999997,896.1308363999997,896.1308363999997,n,2.923304100000678,879.1640960999994,879.1640960999994,891.397444799999,896.1308363999997,20,001,2024-07-31_12h57.47.637,robot_sternberg_sign,2022.2.5,60.04830285474082,
"['L_Head_Y_Back', 'L_Torso_Z_Back', 'L_Torso_X_For', 'R_Arm_Z_Back']",True,R_Arm_Z_Back,4,robot,2,False,False,"['robot_stimuli\\L_Head_Y_Back.mp4', 'robot_stimuli\\L_Torso_Z_Back.mp4', 'robot_stimuli\\L_Torso_X_For.mp4', 'robot_stimuli\\R_Arm_Z_Back.mp4']",robot_stimuli\R_Arm_Z_Back.mp4,20,,,,,,,,,,,,,0,32,32,32,,,,,,,,,,,,,,,,,915.5175440000003,916.5919070999989,,,,,,,,,920.2305213999989,920.2305213999989,920.2305213999989,920.2305213999989,920.2305213999989,920.2305213999989,920.2305213999989,920.2305213999989,None,None,None,,,,,,,,,,,899.7816975999995,899.7816975999995,None,,,,,916.5919070999989,916.5919070999989,916.5919070999989,c,3.0394921000006434,899.7816975999995,899.7816975999995,911.8945736000005,916.5919070999989,20,001,2024-07-31_12h57.47.637,robot_sternberg_sign,2022.2.5,60.04830285474082,
"['R_Head_X_For', 'R_Arm_Y_Back', 'L_Base_Z_Back', 'L_Head_Y_For']",False,L_Arm_Z_For,4,robot,2,False,False,"['robot_stimuli\\R_Head_X_For.mp4', 'robot_stimuli\\R_Arm_Y_Back.mp4', 'robot_stimuli\\L_Base_Z_Back.mp4', 'robot_stimuli\\L_Head_Y_For.mp4']",robot_stimuli\L_Arm_Z_For.mp4,20,,,,,,,,,,,,,0,33,33,33,,,,,,,,,,,,,,,,,936.088901699999,937.1790218000006,,,,,,,,,941.2668374000004,941.2668374000004,941.2668374000004,941.2668374000004,941.2668374000004,941.2668374000004,941.2668374000004,941.2668374000004,None,None,None,,,,,,,,,,,920.2305213999989,920.2305213999989,None,,,,,937.1790218000006,937.1790218000006,937.1790218000006,c,4.043639499999699,920.2305213999989,920.2305213999989,932.457943899999,937.1790218000006,20,001,2024-07-31_12h57.47.637,robot_sternberg_sign,2022.2.5,60.04830285474082,
"['L_Arm_Y_For', 'R_Base_X_For', 'L_Base_X_Back', 'L_Torso_Z_Back']",True,L_Torso_Z_Back,4,robot,2,False,False,"['robot_stimuli\\L_Arm_Y_For.mp4', 'robot_stimuli\\R_Base_X_For.mp4', 'robot_stimuli\\L_Base_X_Back.mp4', 'robot_stimuli\\L_Torso_Z_Back.mp4']",robot_stimuli\L_Torso_Z_Back.mp4,20,,,,,,,,,,,,,0,34,34,34,,,,,,,,,,,,,,,,,956.8903835000001,957.9797987999991,,,,,,,,,961.495933799999,961.495933799999,961.495933799999,961.495933799999,961.495933799999,961.495933799999,961.495933799999,961.495933799999,None,None,None,,,,,,,,,,,941.2668374000004,941.2668374000004,None,,,,,957.9797987999991,957.9797987999991,957.9797987999991,c,3.451524600000994,941.2668374000004,941.2668374000004,953.3809005999992,957.9797987999991,20,001,2024-07-31_12h57.47.637,robot_sternberg_sign,2022.2.5,60.04830285474082,
"['R_Base_Z_Back', 'L_Base_Y_Back', 'R_Torso_Z_For', 'R_Torso_Z_Back']",False,L_Head_Y_For,4,robot,2,False,False,"['robot_stimuli\\R_Base_Z_Back.mp4', 'robot_stimuli\\L_Base_Y_Back.mp4', 'robot_stimuli\\R_Torso_Z_For.mp4', 'robot_stimuli\\R_Torso_Z_Back.mp4']",robot_stimuli\L_Head_Y_For.mp4,20,,,,,,,,,,,,,0,35,35,35,,,,,,,,,,,,,,,,,977.2009140999999,978.2799152000007,,,,,,,,,981.9084082999998,981.9084082999998,981.9084082999998,981.9084082999998,981.9084082999998,981.9084082999998,981.9084082999998,981.9084082999998,None,None,None,,,,,,,,,,,961.495933799999,961.495933799999,None,,,,,978.2799152000007,978.2799152000007,978.2799152000007,n,1.9672642000004998,961.495933799999,961.495933799999,973.5791860999998,978.2799152000007,20,001,2024-07-31_12h57.47.637,robot_sternberg_sign,2022.2.5,60.04830285474082,
"['L_Arm_Z_For', 'R_Head_X_Back', 'L_Head_Z_For', 'L_Torso_Z_Back']",False,R_Base_Z_For,4,robot,2,False,False,"['robot_stimuli\\L_Arm_Z_For.mp4', 'robot_stimuli\\R_Head_X_Back.mp4', 'robot_stimuli\\L_Head_Z_For.mp4', 'robot_stimuli\\L_Torso_Z_Back.mp4']",robot_stimuli\R_Base_Z_For.mp4,20,,,,,,,,,,,,,0,36,36,36,,,,,,,,,,,,,,,,,997.6537042999989,982.9948069999991,,,,,,,,,1002.3854711999993,1002.3854711999993,1002.3854711999993,1002.3854711999993,1002.3854711999993,1002.3854711999993,1002.3854711999993,1002.3854711999993,None,None,None,,,,,,,,,,,981.9084082999998,981.9084082999998,None,,,,,998.7461332000003,998.7461332000003,998.7461332000003,n,2.6525462999998126,981.9084082999998,981.9084082999998,994.154504099999,998.7461332000003,20,001,2024-07-31_12h57.47.637,robot_sternberg_sign,2022.2.5,60.04830285474082,
"['R_Base_Y_For', 'L_Base_X_Back', 'L_Head_Z_For', 'R_Head_Z_For']",True,R_Head_Z_For,4,robot,2,False,False,"['robot_stimuli\\R_Base_Y_For.mp4', 'robot_stimuli\\L_Base_X_Back.mp4', 'robot_stimuli\\L_Head_Z_For.mp4', 'robot_stimuli\\R_Head_Z_For.mp4']",robot_stimuli\R_Head_Z_For.mp4,20,,,,,,,,,,,,,0,37,37,37,,,,,,,,,,,,,,,,,1018.2252288999989,1019.3132669000006,,,,,,,,,1022.9655294000004,1022.9655294000004,1022.9655294000004,1022.9655294000004,1022.9655294000004,1022.9655294000004,1022.9655294000004,1022.9655294000004,None,None,None,,,,,,,,,,,1002.3854711999993,1002.3854711999993,None,,,,,1019.3132669000006,1019.3132669000006,1019.3132669000006,c,2.2213424000001396,1002.3854711999993,1002.3854711999993,1014.5934820999992,1019.3132669000006,20,001,2024-07-31_12h57.47.637,robot_sternberg_sign,2022.2.5,60.04830285474082,
"['R_Arm_X_Back', 'L_Torso_Z_Back', 'L_Base_X_For', 'R_Base_Z_Back']",True,R_Arm_X_Back,4,robot,2,False,False,"['robot_stimuli\\R_Arm_X_Back.mp4', 'robot_stimuli\\L_Torso_Z_Back.mp4', 'robot_stimuli\\L_Base_X_For.mp4', 'robot_stimuli\\R_Base_Z_Back.mp4']",robot_stimuli\R_Arm_X_Back.mp4,20,,,,,,,,,,,,,0,38,38,38,,,,,,,,,,,,,,,,,1038.5561589999998,1039.64682,,,,,,,,,1043.5634090000003,1043.5634090000003,1043.5634090000003,1043.5634090000003,1043.5634090000003,1043.5634090000003,1043.5634090000003,1043.5634090000003,None,None,None,,,,,,,,,,,1022.9655294000004,1022.9655294000004,None,,,,,1039.64682,1039.64682,1039.64682,n,3.8890171999992162,1022.9655294000004,1022.9655294000004,1035.0138265999994,1039.64682,20,001,2024-07-31_12h57.47.637,robot_sternberg_sign,2022.2.5,60.04830285474082,
"['L_Head_Y_For', 'L_Base_Y_For', 'R_Base_Y_Back', 'L_Torso_X_Back']",False,R_Arm_Y_Back,4,robot,2,False,True,"['robot_stimuli\\L_Head_Y_For.mp4', 'robot_stimuli\\L_Base_Y_For.mp4', 'robot_stimuli\\R_Base_Y_Back.mp4', 'robot_stimuli\\L_Torso_X_Back.mp4']",robot_stimuli\R_Arm_Y_Back.mp4,20,,,,,,,,,,,,,0,39,39,39,,,,,,,,,,,,,,,,,1059.3762645999996,1060.4616602000006,,,,,,,,,1064.3367538000002,1068.0635091999993,1064.3367538000002,1068.0635091999993,1064.3367538000002,1068.0635091999993,1064.3367538000002,1068.0635091999993,46.2037037037037,3.1025381999988895,space,,,3.6692298999987543,,,,,,,,1043.5634090000003,1043.5634090000003,None,,,,,1060.4616602000006,1060.4616602000006,1060.4616602000006,n,3.7931539000001067,1043.5634090000003,1043.5634090000003,1055.7446295999998,1060.4616602000006,20,001,2024-07-31_12h57.47.637,robot_sternberg_sign,2022.2.5,60.04830285474082,
"['L_Base_Y_For', 'R_Head_X_Back']",True,L_Base_Y_For,2,robot,2,True,False,"['robot_stimuli\\L_Base_Y_For.mp4', 'robot_stimuli\\R_Head_X_Back.mp4']",robot_stimuli\L_Base_Y_For.mp4,20,,,,,,,,,,,,,0,40,40,40,,,,,,,,,,,,,,,,,1078.4270543000002,1079.5128048999995,,,,,,,,,1083.0425556999999,1083.0425556999999,1083.0425556999999,1083.0425556999999,1083.0425556999999,1083.0425556999999,1083.0425556999999,1083.0425556999999,None,None,None,,,,,,,,,,,1068.0635091999993,1068.0635091999993,space,1.9995660000004136,,,,1079.5128048999995,1079.5128048999995,1079.5128048999995,c,1.957789000000048,,,1074.7967272000005,1079.5128048999995,20,001,2024-07-31_12h57.47.637,robot_sternberg_sign,2022.2.5,60.04830285474082,
"['L_Head_Z_For', 'L_Base_X_Back']",False,R_Arm_X_For,2,robot,2,False,False,"['robot_stimuli\\L_Head_Z_For.mp4', 'robot_stimuli\\L_Base_X_Back.mp4']",robot_stimuli\R_Arm_X_For.mp4,20,,,,,,,,,,,,,0,41,41,41,,,,,,,,,,,,,,,,,1091.4593542999992,1092.5472317999993,,,,,,,,,1096.1968447,1096.1968447,1096.1968447,1096.1968447,1096.1968447,1096.1968447,1096.1968447,1096.1968447,None,None,None,,,,,,,,,,,1083.0425556999999,1083.0425556999999,None,,,,,1092.5472317999993,1092.5472317999993,1092.5472317999993,n,1.8432520999995177,1083.0425556999999,1083.0425556999999,1087.8532943999999,1092.5472317999993,20,001,2024-07-31_12h57.47.637,robot_sternberg_sign,2022.2.5,60.04830285474082,
"['R_Torso_Y_Back', 'R_Arm_Z_Back']",True,R_Arm_Z_Back,2,robot,2,False,False,"['robot_stimuli\\R_Torso_Y_Back.mp4', 'robot_stimuli\\R_Arm_Z_Back.mp4']",robot_stimuli\R_Arm_Z_Back.mp4,20,,,,,,,,,,,,,0,42,42,42,,,,,,,,,,,,,,,,,1104.619684899999,1097.2777965000005,,,,,,,,,1109.3509592999999,1109.3509592999999,1109.3509592999999,1109.3509592999999,1109.3509592999999,1109.3509592999999,1109.3509592999999,1109.3509592999999,None,None,None,,,,,,,,,,,1096.1968447,1096.1968447,None,,,,,1105.7117469000004,1105.7117469000004,1105.7117469000004,c,2.2801416000002064,1096.1968447,1096.1968447,1100.9894490999995,1105.7117469000004,20,001,2024-07-31_12h57.47.637,robot_sternberg_sign,2022.2.5,60.04830285474082,
"['L_Base_X_For', 'L_Base_Z_Back']",False,R_Head_Y_For,2,robot,2,False,False,"['robot_stimuli\\L_Base_X_For.mp4', 'robot_stimuli\\L_Base_Z_Back.mp4']",robot_stimuli\R_Head_Y_For.mp4,20,,,,,,,,,,,,,0,43,43,43,,,,,,,,,,,,,,,,,1117.739674999999,1118.831467599999,,,,,,,,,1122.4808319000003,1122.4808319000003,1122.4808319000003,1122.4808319000003,1122.4808319000003,1122.4808319000003,1122.4808319000003,1122.4808319000003,None,None,None,,,,,,,,,,,1109.3509592999999,1109.3509592999999,None,,,,,1118.831467599999,1118.831467599999,1118.831467599999,n,1.6231442999996943,1109.3509592999999,1109.3509592999999,1114.1005540000006,1118.831467599999,20,001,2024-07-31_12h57.47.637,robot_sternberg_sign,2022.2.5,60.04830285474082,
"['L_Head_Y_Back', 'L_Arm_X_For']",True,L_Arm_X_For,2,robot,2,False,False,"['robot_stimuli\\L_Head_Y_Back.mp4', 'robot_stimuli\\L_Arm_X_For.mp4']",robot_stimuli\L_Arm_X_For.mp4,20,,,,,,,,,,,,,0,44,44,44,,,,,,,,,,,,,,,,,1130.9045788000003,1123.5624609000006,,,,,,,,,1135.6335779,1135.6335779,1135.6335779,1135.6335779,1135.6335779,1135.6335779,1135.6335779,1135.6335779,None,None,None,,,,,,,,,,,1122.4808319000003,1122.4808319000003,None,,,,,1131.9951973999996,1131.9951973999996,1131.9951973999996,c,2.9392451999992772,1122.4808319000003,1122.4808319000003,1127.2754664000004,1131.9951973999996,20,001,2024-07-31_12h57.47.637,robot_sternberg_sign,2022.2.5,60.04830285474082,
"['R_Arm_X_For', 'L_Base_Y_Back']",False,R_Base_Y_For,2,robot,2,False,False,"['robot_stimuli\\R_Arm_X_For.mp4', 'robot_stimuli\\L_Base_Y_Back.mp4']",robot_stimuli\R_Base_Y_For.mp4,20,,,,,,,,,,,,,0,45,45,45,,,,,,,,,,,,,,,,,1143.9881351999993,1136.7121122999997,,,,,,,,,1150.917953799999,1150.917953799999,1150.917953799999,1150.917953799999,1150.917953799999,1150.917953799999,1150.917953799999,1150.917953799999,None,None,None,,,,,,,,,,,1135.6335779,1135.6335779,None,,,,,1145.0839355999997,1145.0839355999997,1145.0839355999997,c,5.795411299999614,1135.6335779,1135.6335779,1140.4245374999991,1145.0839355999997,20,001,2024-07-31_12h57.47.637,robot_sternberg_sign,2022.2.5,60.04830285474082,
"['R_Base_Z_For', 'R_Head_X_For']",False,L_Base_Z_For,2,robot,2,False,False,"['robot_stimuli\\R_Base_Z_For.mp4', 'robot_stimuli\\R_Head_X_For.mp4']",robot_stimuli\L_Base_Z_For.mp4,20,,,,,,,,,,,,,0,46,46,46,,,,,,,,,,,,,,,,,1159.3412470000003,1160.4311574000003,,,,,,,,,1164.080731,1164.080731,1164.080731,1164.080731,1164.080731,1164.080731,1164.080731,1164.080731,None,None,None,,,,,,,,,,,1150.917953799999,1150.917953799999,None,,,,,1160.4311574000003,1160.4311574000003,1160.4311574000003,c,2.152210300000661,1150.917953799999,1150.917953799999,1155.7113006,1160.4311574000003,20,001,2024-07-31_12h57.47.637,robot_sternberg_sign,2022.2.5,60.04830285474082,
"['R_Base_Z_Back', 'R_Arm_Y_For']",True,R_Base_Z_Back,2,robot,2,False,False,"['robot_stimuli\\R_Base_Z_Back.mp4', 'robot_stimuli\\R_Arm_Y_For.mp4']",robot_stimuli\R_Base_Z_Back.mp4,20,,,,,,,,,,,,,0,47,47,47,,,,,,,,,,,,,,,,,1172.2929127000007,1173.3811146999997,,,,,,,,,1176.9299336999993,1176.9299336999993,1176.9299336999993,1176.9299336999993,1176.9299336999993,1176.9299336999993,1176.9299336999993,1176.9299336999993,None,None,None,,,,,,,,,,,1164.080731,1164.080731,None,,,,,1173.3811146999997,1173.3811146999997,1173.3811146999997,c,2.378459400000793,1164.080731,1164.080731,1168.7831024999996,1173.3811146999997,20,001,2024-07-31_12h57.47.637,robot_sternberg_sign,2022.2.5,60.04830285474082,
"['R_Arm_Z_For', 'R_Torso_Z_Back']",True,R_Torso_Z_Back,2,robot,2,False,False,"['robot_stimuli\\R_Arm_Z_For.mp4', 'robot_stimuli\\R_Torso_Z_Back.mp4']",robot_stimuli\R_Torso_Z_Back.mp4,20,,,,,,,,,,,,,0,48,48,48,,,,,,,,,,,,,,,,,1185.351196399999,1186.4284241000005,,,,,,,,,1190.066812699999,1190.066812699999,1190.066812699999,1190.066812699999,1190.066812699999,1190.066812699999,1190.066812699999,1190.066812699999,None,None,None,,,,,,,,,,,1176.9299336999993,1176.9299336999993,None,,,,,1186.4284241000005,1186.4284241000005,1186.4284241000005,c,2.6823953000002803,1176.9299336999993,1176.9299336999993,1181.7302168999995,1186.4284241000005,20,001,2024-07-31_12h57.47.637,robot_sternberg_sign,2022.2.5,60.04830285474082,
"['R_Torso_Y_Back', 'L_Head_X_For']",False,L_Base_X_For,2,robot,2,False,True,"['robot_stimuli\\R_Torso_Y_Back.mp4', 'robot_stimuli\\L_Head_X_For.mp4']",robot_stimuli\L_Base_X_For.mp4,20,,,,,,,,,,,,,0,49,49,49,,,,,,,,,,,,,,,,,1198.4178926999994,1199.4962968,,,,,,,,,1203.0901565999993,1208.6833993,1203.0901565999993,1208.6833993,1203.0901565999993,1208.6833993,1203.0901565999993,1208.6833993,57.160493827160494,3.091098000000784,space,,,5.5397504000011395,,,,,,,,1190.066812699999,1190.066812699999,None,,,,,1199.4962968,1199.4962968,1199.4962968,n,1.7344947999990836,1190.066812699999,1190.066812699999,1194.8653505000002,1199.4962968,20,001,2024-07-31_12h57.47.637,robot_sternberg_sign,2022.2.5,60.04830285474082,
"['L_Torso_X_Back', 'R_Base_Y_Back', 'L_Base_Z_For', 'L_Base_X_Back', 'L_Arm_Z_Back', 'R_Arm_Y_For']",False,R_Torso_Y_Back,6,robot,2,True,False,"['robot_stimuli\\L_Torso_X_Back.mp4', 'robot_stimuli\\R_Base_Y_Back.mp4', 'robot_stimuli\\L_Base_Z_For.mp4', 'robot_stimuli\\L_Base_X_Back.mp4', 'robot_stimuli\\L_Arm_Z_Back.mp4', 'robot_stimuli\\R_Arm_Y_For.mp4']",robot_stimuli\R_Torso_Y_Back.mp4,20,,,,,,,,,,,,,0,50,50,50,,,,,,,,,,,,,,,,,1233.4238915999995,1234.5144180000007,,,,,,,,,1238.7276297999997,1238.7276297999997,1238.7276297999997,1238.7276297999997,1238.7276297999997,1238.7276297999997,1238.7276297999997,1238.7276297999997,None,None,None,,,,,,,,,,,1208.6833993,1208.6833993,space,1.587326500000927,,,,1234.5144180000007,1234.5144180000007,1234.5144180000007,c,4.188480300001174,,,1229.9253327999995,1234.5144180000007,20,001,2024-07-31_12h57.47.637,robot_sternberg_sign,2022.2.5,60.04830285474082,
"['R_Head_Y_Back', 'R_Torso_X_For', 'R_Arm_X_For', 'L_Base_X_Back', 'L_Base_Y_For', 'R_Arm_Z_For']",True,R_Arm_Z_For,6,robot,2,False,False,"['robot_stimuli\\R_Head_Y_Back.mp4', 'robot_stimuli\\R_Torso_X_For.mp4', 'robot_stimuli\\R_Arm_X_For.mp4', 'robot_stimuli\\L_Base_X_Back.mp4', 'robot_stimuli\\L_Base_Y_For.mp4', 'robot_stimuli\\R_Arm_Z_For.mp4']",robot_stimuli\R_Arm_Z_For.mp4,20,,,,,,,,,,,,,0,51,51,51,,,,,,,,,,,,,,,,,1261.9051751999996,1262.9966695999992,,,,,,,,,1266.647513599999,1266.647513599999,1266.647513599999,1266.647513599999,1266.647513599999,1266.647513599999,1266.647513599999,1266.647513599999,None,None,None,,,,,,,,,,,1238.7276297999997,1238.7276297999997,None,,,,,1262.9966695999992,1262.9966695999992,1262.9966695999992,c,2.5375688999993145,1238.7276297999997,1238.7276297999997,1258.2734309999996,1262.9966695999992,20,001,2024-07-31_12h57.47.637,robot_sternberg_sign,2022.2.5,60.04830285474082,
"['R_Head_Z_For', 'L_Base_X_Back', 'L_Arm_Y_For', 'L_Arm_Z_Back', 'R_Torso_Y_For', 'L_Torso_Z_For']",True,L_Arm_Z_Back,6,robot,2,False,False,"['robot_stimuli\\R_Head_Z_For.mp4', 'robot_stimuli\\L_Base_X_Back.mp4', 'robot_stimuli\\L_Arm_Y_For.mp4', 'robot_stimuli\\L_Arm_Z_Back.mp4', 'robot_stimuli\\R_Torso_Y_For.mp4', 'robot_stimuli\\L_Torso_Z_For.mp4']",robot_stimuli\L_Arm_Z_Back.mp4,20,,,,,,,,,,,,,0,52,52,52,,,,,,,,,,,,,,,,,1289.9283317999998,1291.028474499999,,,,,,,,,1294.6679506,1294.6679506,1294.6679506,1294.6679506,1294.6679506,1294.6679506,1294.6679506,1294.6679506,None,None,None,,,,,,,,,,,1266.647513599999,1266.647513599999,None,,,,,1291.028474499999,1291.028474499999,1291.028474499999,c,0.5621489000004658,1266.647513599999,1266.647513599999,1286.2932538999994,1291.028474499999,20,001,2024-07-31_12h57.47.637,robot_sternberg_sign,2022.2.5,60.04830285474082,
"['R_Base_Y_Back', 'L_Torso_Y_Back', 'L_Head_Y_For', 'L_Arm_Z_Back', 'L_Base_X_Back', 'L_Arm_Y_For']",True,L_Arm_Y_For,6,robot,2,False,False,"['robot_stimuli\\R_Base_Y_Back.mp4', 'robot_stimuli\\L_Torso_Y_Back.mp4', 'robot_stimuli\\L_Head_Y_For.mp4', 'robot_stimuli\\L_Arm_Z_Back.mp4', 'robot_stimuli\\L_Base_X_Back.mp4', 'robot_stimuli\\L_Arm_Y_For.mp4']",robot_stimuli\L_Arm_Y_For.mp4,20,,,,,,,,,,,,,0,53,53,53,,,,,,,,,,,,,,,,,1317.8426918000005,1318.9298657999989,,,,,,,,,1322.5683334999994,1322.5683334999994,1322.5683334999994,1322.5683334999994,1322.5683334999994,1322.5683334999994,1322.5683334999994,1322.5683334999994,None,None,None,,,,,,,,,,,1294.6679506,1294.6679506,None,,,,,1318.9298657999989,1318.9298657999989,1318.9298657999989,c,1.9900034999991476,1294.6679506,1294.6679506,1314.1973486000006,1318.9298657999989,20,001,2024-07-31_12h57.47.637,robot_sternberg_sign,2022.2.5,60.04830285474082,
"['L_Arm_X_Back', 'L_Torso_Y_For', 'R_Arm_Y_Back', 'L_Torso_X_For', 'R_Head_Z_For', 'L_Torso_X_Back']",False,L_Head_Y_For,6,robot,2,False,False,"['robot_stimuli\\L_Arm_X_Back.mp4', 'robot_stimuli\\L_Torso_Y_For.mp4', 'robot_stimuli\\R_Arm_Y_Back.mp4', 'robot_stimuli\\L_Torso_X_For.mp4', 'robot_stimuli\\R_Head_Z_For.mp4', 'robot_stimuli\\L_Torso_X_Back.mp4']",robot_stimuli\L_Head_Y_For.mp4,20,,,,,,,,,,,,,0,54,54,54,,,,,,,,,,,,,,,,,1345.856256699999,1346.9474078000003,,,,,,,,,1350.5981948999997,1350.5981948999997,1350.5981948999997,1350.5981948999997,1350.5981948999997,1350.5981948999997,1350.5981948999997,1350.5981948999997,None,None,None,,,,,,,,,,,1322.5683334999994,1322.5683334999994,None,,,,,1346.9474078000003,1346.9474078000003,1346.9474078000003,n,1.9867061999993894,1322.5683334999994,1322.5683334999994,1342.2251080999995,1346.9474078000003,20,001,2024-07-31_12h57.47.637,robot_sternberg_sign,2022.2.5,60.04830285474082,
"['R_Arm_Y_Back', 'R_Base_Y_For', 'L_Head_X_For', 'R_Base_X_For', 'L_Head_Y_Back', 'R_Head_Z_Back']",False,R_Head_X_Back,6,robot,2,False,False,"['robot_stimuli\\R_Arm_Y_Back.mp4', 'robot_stimuli\\R_Base_Y_For.mp4', 'robot_stimuli\\L_Head_X_For.mp4', 'robot_stimuli\\R_Base_X_For.mp4', 'robot_stimuli\\L_Head_Y_Back.mp4', 'robot_stimuli\\R_Head_Z_Back.mp4']",robot_stimuli\R_Head_X_Back.mp4,20,,,,,,,,,,,,,0,55,55,55,,,,,,,,,,,,,,,,,1373.7390993999998,1374.8299852,,,,,,,,,1378.4595074999997,1378.4595074999997,1378.4595074999997,1378.4595074999997,1378.4595074999997,1378.4595074999997,1378.4595074999997,1378.4595074999997,None,None,None,,,,,,,,,,,1350.5981948999997,1350.5981948999997,None,,,,,1374.8299852,1374.8299852,1374.8299852,n,2.7364135999996506,1350.5981948999997,1350.5981948999997,1370.0974867999994,1374.8299852,20,001,2024-07-31_12h57.47.637,robot_sternberg_sign,2022.2.5,60.04830285474082,
"['R_Head_Y_Back', 'L_Base_Z_Back', 'L_Head_Y_Back', 'R_Base_Z_For', 'R_Base_Z_Back', 'L_Base_Y_For']",True,L_Head_Y_Back,6,robot,2,False,False,"['robot_stimuli\\R_Head_Y_Back.mp4', 'robot_stimuli\\L_Base_Z_Back.mp4', 'robot_stimuli\\L_Head_Y_Back.mp4', 'robot_stimuli\\R_Base_Z_For.mp4', 'robot_stimuli\\R_Base_Z_Back.mp4', 'robot_stimuli\\L_Base_Y_For.mp4']",robot_stimuli\L_Head_Y_Back.mp4,20,,,,,,,,,,,,,0,56,56,56,,,,,,,,,,,,,,,,,1401.5555986999989,1402.6512495000006,,,,,,,,,1406.2994935000006,1406.2994935000006,1406.2994935000006,1406.2994935000006,1406.2994935000006,1406.2994935000006,1406.2994935000006,1406.2994935000006,None,None,None,,,,,,,,,,,1378.4595074999997,1378.4595074999997,None,,,,,1402.6512495000006,1402.6512495000006,1402.6512495000006,c,2.2366318000003957,1378.4595074999997,1378.4595074999997,1398.0259645999995,1402.6512495000006,20,001,2024-07-31_12h57.47.637,robot_sternberg_sign,2022.2.5,60.04830285474082,
"['R_Base_Y_For', 'R_Base_Y_Back', 'R_Torso_Z_For', 'R_Arm_Y_Back', 'L_Head_Z_For', 'L_Torso_X_Back']",True,L_Torso_X_Back,6,robot,2,False,False,"['robot_stimuli\\R_Base_Y_For.mp4', 'robot_stimuli\\R_Base_Y_Back.mp4', 'robot_stimuli\\R_Torso_Z_For.mp4', 'robot_stimuli\\R_Arm_Y_Back.mp4', 'robot_stimuli\\L_Head_Z_For.mp4', 'robot_stimuli\\L_Torso_X_Back.mp4']",robot_stimuli\L_Torso_X_Back.mp4,20,,,,,,,,,,,,,0,57,57,57,,,,,,,,,,,,,,,,,1429.6587853,1430.7468384999993,,,,,,,,,1434.3963119,1434.3963119,1434.3963119,1434.3963119,1434.3963119,1434.3963119,1434.3963119,1434.3963119,None,None,None,,,,,,,,,,,1406.2994935000006,1406.2994935000006,None,,,,,1430.7468384999993,1430.7468384999993,1430.7468384999993,c,2.268670999999813,1406.2994935000006,1406.2994935000006,1426.0277091999997,1430.7468384999993,20,001,2024-07-31_12h57.47.637,robot_sternberg_sign,2022.2.5,60.04830285474082,
"['R_Torso_X_Back', 'L_Base_X_For', 'L_Base_Y_For', 'R_Arm_X_Back', 'L_Torso_Z_Back', 'L_Base_Y_Back']",False,L_Arm_X_For,6,robot,2,False,False,"['robot_stimuli\\R_Torso_X_Back.mp4', 'robot_stimuli\\L_Base_X_For.mp4', 'robot_stimuli\\L_Base_Y_For.mp4', 'robot_stimuli\\R_Arm_X_Back.mp4', 'robot_stimuli\\L_Torso_Z_Back.mp4', 'robot_stimuli\\L_Base_Y_Back.mp4']",robot_stimuli\L_Arm_X_For.mp4,20,,,,,,,,,,,,,0,58,58,58,,,,,,,,,,,,,,,,,1457.3244912999999,1458.412524899999,,,,,,,,,1462.0523307000003,1462.0523307000003,1462.0523307000003,1462.0523307000003,1462.0523307000003,1462.0523307000003,1462.0523307000003,1462.0523307000003,None,None,None,,,,,,,,,,,1434.3963119,1434.3963119,None,,,,,1458.412524899999,1458.412524899999,1458.412524899999,c,2.6985445999998774,1434.3963119,1434.3963119,1453.761016999999,1458.412524899999,20,001,2024-07-31_12h57.47.637,robot_sternberg_sign,2022.2.5,60.04830285474082,
"['L_Head_X_For', 'R_Torso_X_For', 'L_Base_X_For', 'R_Base_Y_For', 'R_Base_X_For', 'R_Base_Y_Back']",False,R_Head_Z_For,6,robot,2,False,True,"['robot_stimuli\\L_Head_X_For.mp4', 'robot_stimuli\\R_Torso_X_For.mp4', 'robot_stimuli\\L_Base_X_For.mp4', 'robot_stimuli\\R_Base_Y_For.mp4', 'robot_stimuli\\R_Base_X_For.mp4', 'robot_stimuli\\R_Base_Y_Back.mp4']",robot_stimuli\R_Head_Z_For.mp4,20,,,,,,,,,,,,,0,59,59,59,,,,,,,,,,,,,,,,,1485.109967299999,1486.2111377,,,,,,,,,1489.8826804,1496.4310492000004,1489.8826804,1496.4310492000004,1489.8826804,1496.4310492000004,1489.8826804,1496.4310492000004,36.94444444444444,6.130735199998526,space,,,6.4914594999991095,,,,,,,,1462.0523307000003,1462.0523307000003,None,,,,,1486.2111377,1486.2111377,1486.2111377,n,1.7005598000014288,1462.0523307000003,1462.0523307000003,1481.4745631999995,1486.2111377,20,001,2024-07-31_12h57.47.637,robot_sternberg_sign,2022.2.5,60.04830285474082,
"['G', 'K', 'C', 'P', 'J', 'D']",False,H,6,letter,3,True,False,"['robot_stimuli\\\\filler.mp4', 'robot_stimuli\\\\filler.mp4', 'robot_stimuli\\\\filler.mp4', 'robot_stimuli\\\\filler.mp4', 'robot_stimuli\\\\filler.mp4', 'robot_stimuli\\\\filler.mp4']",robot_stimuli\\filler.mp4,20,,,,,,,,,,,,,0,60,60,60,,,,,,,,,,,,,,,,,1514.7268210999991,1515.7909469999995,,,,,,,,,1518.6231754,1518.6231754,1518.6231754,1518.6231754,1518.6231754,1518.6231754,1518.6231754,1518.6231754,None,None,None,,,,,,,,,,,1496.4310492000004,1496.4310492000004,space,4.559232100000372,1512.7084427999998,1514.7268210999991,1515.7909469999995,1515.7909469999995,1515.7909469999995,1515.7909469999995,n,2.648157400000855,,,,,20,001,2024-07-31_12h57.47.637,robot_sternberg_sign,2022.2.5,60.04830285474082,
"['N', 'L', 'C', 'V', 'P', 'Q']",True,Q,6,letter,3,False,False,"['robot_stimuli\\\\filler.mp4', 'robot_stimuli\\\\filler.mp4', 'robot_stimuli\\\\filler.mp4', 'robot_stimuli\\\\filler.mp4', 'robot_stimuli\\\\filler.mp4', 'robot_stimuli\\\\filler.mp4']",robot_stimuli\\filler.mp4,20,,,,,,,,,,,,,0,61,61,61,,,,,,,,,,,,,,,,,1532.7282436999994,1533.8001454000005,,,,,,,,,1535.0248252000001,1535.0248252000001,1535.0248252000001,1535.0248252000001,1535.0248252000001,1535.0248252000001,1535.0248252000001,1535.0248252000001,None,None,None,,,,,,,,,,,1518.6231754,1518.6231754,None,,1530.7108941999995,1532.7282436999994,1533.8001454000005,1533.8001454000005,1533.8001454000005,1533.8001454000005,c,1.0785314000004291,1518.6231754,1518.6231754,,,20,001,2024-07-31_12h57.47.637,robot_sternberg_sign,2022.2.5,60.04830285474082,
"['N', 'C', 'B', 'V', 'P', 'X']",False,M,6,letter,3,False,False,"['robot_stimuli\\\\filler.mp4', 'robot_stimuli\\\\filler.mp4', 'robot_stimuli\\\\filler.mp4', 'robot_stimuli\\\\filler.mp4', 'robot_stimuli\\\\filler.mp4', 'robot_stimuli\\\\filler.mp4']",robot_stimuli\\filler.mp4,20,,,,,,,,,,,,,0,62,62,62,,,,,,,,,,,,,,,,,1548.7441416000001,1549.806117799999,,,,,,,,,1551.0290143999991,1551.0290143999991,1551.0290143999991,1551.0290143999991,1551.0290143999991,1551.0290143999991,1551.0290143999991,1551.0290143999991,None,None,None,,,,,,,,,,,1535.0248252000001,1535.0248252000001,None,,1546.727664099999,1548.7441416000001,1549.806117799999,1549.806117799999,1549.806117799999,1549.806117799999,n,1.1129521999991994,1535.0248252000001,1535.0248252000001,,,20,001,2024-07-31_12h57.47.637,robot_sternberg_sign,2022.2.5,60.04830285474082,
"['Z', 'N', 'W', 'X', 'D', 'Q']",True,N,6,letter,3,False,False,"['robot_stimuli\\\\filler.mp4', 'robot_stimuli\\\\filler.mp4', 'robot_stimuli\\\\filler.mp4', 'robot_stimuli\\\\filler.mp4', 'robot_stimuli\\\\filler.mp4', 'robot_stimuli\\\\filler.mp4']",robot_stimuli\\filler.mp4,20,,,,,,,,,,,,,0,63,63,63,,,,,,,,,,,,,,,,,1564.5347803999994,1565.591222699999,,,,,,,,,1567.2120718000006,1567.2120718000006,1567.2120718000006,1567.2120718000006,1567.2120718000006,1567.2120718000006,1567.2120718000006,1567.2120718000006,None,None,None,,,,,,,,,,,1551.0290143999991,1551.0290143999991,None,,1562.5168773000005,1564.5347803999994,1565.591222699999,1565.591222699999,1565.591222699999,1565.591222699999,c,1.5277719999994588,1551.0290143999991,1551.0290143999991,,,20,001,2024-07-31_12h57.47.637,robot_sternberg_sign,2022.2.5,60.04830285474082,
"['R', 'P', 'C', 'X', 'Q', 'L']",False,F,6,letter,3,False,False,"['robot_stimuli\\\\filler.mp4', 'robot_stimuli\\\\filler.mp4', 'robot_stimuli\\\\filler.mp4', 'robot_stimuli\\\\filler.mp4', 'robot_stimuli\\\\filler.mp4', 'robot_stimuli\\\\filler.mp4']",robot_stimuli\\filler.mp4,20,,,,,,,,,,,,,0,64,64,64,,,,,,,,,,,,,,,,,1581.6986791999989,1582.7567507000003,,,,,,,,,1583.778910699999,1583.778910699999,1583.778910699999,1583.778910699999,1583.778910699999,1583.778910699999,1583.778910699999,1583.778910699999,None,None,None,,,,,,,,,,,1567.2120718000006,1567.2120718000006,None,,1579.4969239999991,1581.6986791999989,1582.7567507000003,1582.7567507000003,1582.7567507000003,1582.7567507000003,n,0.96304980000059,1567.2120718000006,1567.2120718000006,,,20,001,2024-07-31_12h57.47.637,robot_sternberg_sign,2022.2.5,60.04830285474082,
"['Q', 'C', 'B', 'T', 'D', 'J']",False,K,6,letter,3,False,False,"['robot_stimuli\\\\filler.mp4', 'robot_stimuli\\\\filler.mp4', 'robot_stimuli\\\\filler.mp4', 'robot_stimuli\\\\filler.mp4', 'robot_stimuli\\\\filler.mp4', 'robot_stimuli\\\\filler.mp4']",robot_stimuli\\filler.mp4,20,,,,,,,,,,,,,0,65,65,65,,,,,,,,,,,,,,,,,1597.4825916999998,1598.5419048000003,,,,,,,,,1604.3776653000004,1604.3776653000004,1604.3776653000004,1604.3776653000004,1604.3776653000004,1604.3776653000004,1604.3776653000004,1604.3776653000004,None,None,None,,,,,,,,,,,1583.778910699999,1583.778910699999,None,,1595.4624046999998,1597.4825916999998,1598.5419048000003,1598.5419048000003,1598.5419048000003,1598.5419048000003,n,5.657886499999222,1583.778910699999,1583.778910699999,,,20,001,2024-07-31_12h57.47.637,robot_sternberg_sign,2022.2.5,60.04830285474082,
"['F', 'B', 'T', 'G', 'D', 'N']",True,D,6,letter,3,False,False,"['robot_stimuli\\\\filler.mp4', 'robot_stimuli\\\\filler.mp4', 'robot_stimuli\\\\filler.mp4', 'robot_stimuli\\\\filler.mp4', 'robot_stimuli\\\\filler.mp4', 'robot_stimuli\\\\filler.mp4']",robot_stimuli\\filler.mp4,20,,,,,,,,,,,,,0,66,66,66,,,,,,,,,,,,,,,,,1618.6751944000007,1619.7390969999997,,,,,,,,,1620.7675287999991,1620.7675287999991,1620.7675287999991,1620.7675287999991,1620.7675287999991,1620.7675287999991,1620.7675287999991,1620.7675287999991,None,None,None,,,,,,,,,,,1604.3776653000004,1604.3776653000004,None,,1616.6614580999994,1618.6751944000007,1619.7390969999997,1619.7390969999997,1619.7390969999997,1619.7390969999997,c,0.8208512999990489,1604.3776653000004,1604.3776653000004,,,20,001,2024-07-31_12h57.47.637,robot_sternberg_sign,2022.2.5,60.04830285474082,
"['R', 'P', 'B', 'F', 'W', 'K']",True,P,6,letter,3,False,False,"['robot_stimuli\\\\filler.mp4', 'robot_stimuli\\\\filler.mp4', 'robot_stimuli\\\\filler.mp4', 'robot_stimuli\\\\filler.mp4', 'robot_stimuli\\\\filler.mp4', 'robot_stimuli\\\\filler.mp4']",robot_stimuli\\filler.mp4,20,,,,,,,,,,,,,0,67,67,67,,,,,,,,,,,,,,,,,1634.8782143999997,1635.9396409,,,,,,,,,1638.5734902999993,1638.5734902999993,1638.5734902999993,1638.5734902999993,1638.5734902999993,1638.5734902999993,1638.5734902999993,1638.5734902999993,None,None,None,,,,,,,,,,,1620.7675287999991,1620.7675287999991,None,,1632.8686517000006,1634.8782143999997,1635.9396409,1635.9396409,1635.9396409,1635.9396409,c,2.5151817000005394,1620.7675287999991,1620.7675287999991,,,20,001,2024-07-31_12h57.47.637,robot_sternberg_sign,2022.2.5,60.04830285474082,
"['V', 'X', 'C', 'B', 'H', 'W']",True,W,6,letter,3,False,False,"['robot_stimuli\\\\filler.mp4', 'robot_stimuli\\\\filler.mp4', 'robot_stimuli\\\\filler.mp4', 'robot_stimuli\\\\filler.mp4', 'robot_stimuli\\\\filler.mp4', 'robot_stimuli\\\\filler.mp4']",robot_stimuli\\filler.mp4,20,,,,,,,,,,,,,0,68,68,68,,,,,,,,,,,,,,,,,1652.6917341999997,1653.7562283999996,,,,,,,,,1654.5805228999998,1654.5805228999998,1654.5805228999998,1654.5805228999998,1654.5805228999998,1654.5805228999998,1654.5805228999998,1654.5805228999998,None,None,None,,,,,,,,,,,1638.5734902999993,1638.5734902999993,None,,1650.4745371999998,1652.6917341999997,1653.7562283999996,1653.7562283999996,1653.7562283999996,1653.7562283999996,c,0.7629496000008658,1638.5734902999993,1638.5734902999993,,,20,001,2024-07-31_12h57.47.637,robot_sternberg_sign,2022.2.5,60.04830285474082,
"['J', 'T', 'G', 'B', 'Z', 'R']",False,K,6,letter,3,False,True,"['robot_stimuli\\\\filler.mp4', 'robot_stimuli\\\\filler.mp4', 'robot_stimuli\\\\filler.mp4', 'robot_stimuli\\\\filler.mp4', 'robot_stimuli\\\\filler.mp4', 'robot_stimuli\\\\filler.mp4']",robot_stimuli\\filler.mp4,20,,,,,,,,,,,,,0,69,69,69,,,,,,,,,,,,,,,,,1668.2825462,1669.3410217,,,,,,,,,1670.8018697999996,1676.644376799999,1670.8018697999996,1676.644376799999,1670.8018697999996,1676.644376799999,1670.8018697999996,1676.644376799999,18.580246913580243,4.895330900000772,space,,,5.780881900000168,,,,,,,,1654.5805228999998,1654.5805228999998,None,,1666.2693858999992,1668.2825462,1669.3410217,1669.3410217,1669.3410217,1669.3410217,n,1.2970784999997704,1654.5805228999998,1654.5805228999998,,,20,001,2024-07-31_12h57.47.637,robot_sternberg_sign,2022.2.5,60.04830285474082,
"['P', 'F', 'J', 'H']",True,J,4,letter,3,True,False,"['robot_stimuli\\\\filler.mp4', 'robot_stimuli\\\\filler.mp4', 'robot_stimuli\\\\filler.mp4', 'robot_stimuli\\\\filler.mp4']",robot_stimuli\\filler.mp4,20,,,,,,,,,,,,,0,70,70,70,,,,,,,,,,,,,,,,,1688.2774031999998,1689.3418918999996,,,,,,,,,1690.3653940000004,1690.3653940000004,1690.3653940000004,1690.3653940000004,1690.3653940000004,1690.3653940000004,1690.3653940000004,1690.3653940000004,None,None,None,,,,,,,,,,,1676.644376799999,1676.644376799999,space,1.8823100999998132,1686.2619352000002,1688.2774031999998,1689.3418918999996,1689.3418918999996,1689.3418918999996,1689.3418918999996,c,0.9769429000007221,,,,,20,001,2024-07-31_12h57.47.637,robot_sternberg_sign,2022.2.5,60.04830285474082,
"['L', 'R', 'G', 'T']",False,C,4,letter,3,False,False,"['robot_stimuli\\\\filler.mp4', 'robot_stimuli\\\\filler.mp4', 'robot_stimuli\\\\filler.mp4', 'robot_stimuli\\\\filler.mp4']",robot_stimuli\\filler.mp4,20,,,,,,,,,,,,,0,71,71,71,,,,,,,,,,,,,,,,,1699.9159586000005,1700.9730497,,,,,,,,,1702.1987893000005,1702.1987893000005,1702.1987893000005,1702.1987893000005,1702.1987893000005,1702.1987893000005,1702.1987893000005,1702.1987893000005,None,None,None,,,,,,,,,,,1690.3653940000004,1690.3653940000004,None,,1697.8966839000004,1699.9159586000005,1700.9730497,1700.9730497,1700.9730497,1700.9730497,n,1.1777166000010766,1690.3653940000004,1690.3653940000004,,,20,001,2024-07-31_12h57.47.637,robot_sternberg_sign,2022.2.5,60.04830285474082,
"['D', 'P', 'N', 'T']",True,T,4,letter,3,False,False,"['robot_stimuli\\\\filler.mp4', 'robot_stimuli\\\\filler.mp4', 'robot_stimuli\\\\filler.mp4', 'robot_stimuli\\\\filler.mp4']",robot_stimuli\\filler.mp4,20,,,,,,,,,,,,,0,72,72,72,,,,,,,,,,,,,,,,,1711.532160499999,1712.5938339999993,,,,,,,,,1713.4201649000006,1713.4201649000006,1713.4201649000006,1713.4201649000006,1713.4201649000006,1713.4201649000006,1713.4201649000006,1713.4201649000006,None,None,None,,,,,,,,,,,1702.1987893000005,1702.1987893000005,None,,1709.5159060000005,1711.532160499999,1712.5938339999993,1712.5938339999993,1712.5938339999993,1712.5938339999993,c,0.7722324000005756,1702.1987893000005,1702.1987893000005,,,20,001,2024-07-31_12h57.47.637,robot_sternberg_sign,2022.2.5,60.04830285474082,
"['H', 'F', 'S', 'V']",True,V,4,letter,3,False,False,"['robot_stimuli\\\\filler.mp4', 'robot_stimuli\\\\filler.mp4', 'robot_stimuli\\\\filler.mp4', 'robot_stimuli\\\\filler.mp4']",robot_stimuli\\filler.mp4,20,,,,,,,,,,,,,0,73,73,73,,,,,,,,,,,,,,,,,1722.9689717,1724.0236549,,,,,,,,,1726.2549405999998,1726.2549405999998,1726.2549405999998,1726.2549405999998,1726.2549405999998,1726.2549405999998,1726.2549405999998,1726.2549405999998,None,None,None,,,,,,,,,,,1713.4201649000006,1713.4201649000006,None,,1720.9509627999996,1722.9689717,1724.0236549,1724.0236549,1724.0236549,1724.0236549,c,2.167378300000564,1713.4201649000006,1713.4201649000006,,,20,001,2024-07-31_12h57.47.637,robot_sternberg_sign,2022.2.5,60.04830285474082,
"['K', 'S', 'J', 'Q']",True,S,4,letter,3,False,False,"['robot_stimuli\\\\filler.mp4', 'robot_stimuli\\\\filler.mp4', 'robot_stimuli\\\\filler.mp4', 'robot_stimuli\\\\filler.mp4']",robot_stimuli\\filler.mp4,20,,,,,,,,,,,,,0,74,74,74,,,,,,,,,,,,,,,,,1736.189655799999,1737.2566430000006,,,,,,,,,1739.6892738000006,1739.6892738000006,1739.6892738000006,1739.6892738000006,1739.6892738000006,1739.6892738000006,1739.6892738000006,1739.6892738000006,None,None,None,,,,,,,,,,,1726.2549405999998,1726.2549405999998,None,,1734.1696037000002,1736.189655799999,1737.2566430000006,1737.2566430000006,1737.2566430000006,1737.2566430000006,n,2.3257637999995495,1726.2549405999998,1726.2549405999998,,,20,001,2024-07-31_12h57.47.637,robot_sternberg_sign,2022.2.5,60.04830285474082,
"['D', 'G', 'F', 'S']",False,X,4,letter,3,False,False,"['robot_stimuli\\\\filler.mp4', 'robot_stimuli\\\\filler.mp4', 'robot_stimuli\\\\filler.mp4', 'robot_stimuli\\\\filler.mp4']",robot_stimuli\\filler.mp4,20,,,,,,,,,,,,,0,75,75,75,,,,,,,,,,,,,,,,,1749.0293930999997,1750.091392799999,,,,,,,,,1751.1142151999993,1751.1142151999993,1751.1142151999993,1751.1142151999993,1751.1142151999993,1751.1142151999993,1751.1142151999993,1751.1142151999993,None,None,None,,,,,,,,,,,1739.6892738000006,1739.6892738000006,None,,1747.0183338999996,1749.0293930999997,1750.091392799999,1750.091392799999,1750.091392799999,1750.091392799999,n,0.9480404000005365,1739.6892738000006,1739.6892738000006,,,20,001,2024-07-31_12h57.47.637,robot_sternberg_sign,2022.2.5,60.04830285474082,
"['Z', 'R', 'J', 'G']",False,L,4,letter,3,False,False,"['robot_stimuli\\\\filler.mp4', 'robot_stimuli\\\\filler.mp4', 'robot_stimuli\\\\filler.mp4', 'robot_stimuli\\\\filler.mp4']",robot_stimuli\\filler.mp4,20,,,,,,,,,,,,,0,76,76,76,,,,,,,,,,,,,,,,,1761.0598602999999,1762.123936599999,,,,,,,,,1763.550459099999,1763.550459099999,1763.550459099999,1763.550459099999,1763.550459099999,1763.550459099999,1763.550459099999,1763.550459099999,None,None,None,,,,,,,,,,,1751.1142151999993,1751.1142151999993,None,,1759.0470578000004,1761.0598602999999,1762.123936599999,1762.123936599999,1762.123936599999,1762.123936599999,c,1.283510600000227,1751.1142151999993,1751.1142151999993,,,20,001,2024-07-31_12h57.47.637,robot_sternberg_sign,2022.2.5,60.04830285474082,
"['Z', 'P', 'D', 'S']",False,F,4,letter,3,False,False,"['robot_stimuli\\\\filler.mp4', 'robot_stimuli\\\\filler.mp4', 'robot_stimuli\\\\filler.mp4', 'robot_stimuli\\\\filler.mp4']",robot_stimuli\\filler.mp4,20,,,,,,,,,,,,,0,77,77,77,,,,,,,,,,,,,,,,,1773.0818084999992,1774.1413142000001,,,,,,,,,1775.367375599999,1775.367375599999,1775.367375599999,1775.367375599999,1775.367375599999,1775.367375599999,1775.367375599999,1775.367375599999,None,None,None,,,,,,,,,,,1763.550459099999,1763.550459099999,None,,1771.0632695999993,1773.0818084999992,1774.1413142000001,1774.1413142000001,1774.1413142000001,1774.1413142000001,n,0.9783099999986007,1763.550459099999,1763.550459099999,,,20,001,2024-07-31_12h57.47.637,robot_sternberg_sign,2022.2.5,60.04830285474082,
"['Q', 'P', 'W', 'M']",True,Q,4,letter,3,False,False,"['robot_stimuli\\\\filler.mp4', 'robot_stimuli\\\\filler.mp4', 'robot_stimuli\\\\filler.mp4', 'robot_stimuli\\\\filler.mp4']",robot_stimuli\\filler.mp4,20,,,,,,,,,,,,,0,78,78,78,,,,,,,,,,,,,,,,,1785.098758799999,1786.1585176999997,,,,,,,,,1786.980529299999,1786.980529299999,1786.980529299999,1786.980529299999,1786.980529299999,1786.980529299999,1786.980529299999,1786.980529299999,None,None,None,,,,,,,,,,,1775.367375599999,1775.367375599999,None,,1782.8884230999993,1785.098758799999,1786.1585176999997,1786.1585176999997,1786.1585176999997,1786.1585176999997,c,0.6809967999997752,1775.367375599999,1775.367375599999,,,20,001,2024-07-31_12h57.47.637,robot_sternberg_sign,2022.2.5,60.04830285474082,
"['L', 'D', 'R', 'B']",False,X,4,letter,3,False,True,"['robot_stimuli\\\\filler.mp4', 'robot_stimuli\\\\filler.mp4', 'robot_stimuli\\\\filler.mp4', 'robot_stimuli\\\\filler.mp4']",robot_stimuli\\filler.mp4,20,,,,,,,,,,,,,0,79,79,79,,,,,,,,,,,,,,,,,1796.5456866000004,1797.6065259000006,,,,,,,,,1798.6620624000007,1801.2994515999999,1798.6620624000007,1801.2994515999999,1798.6620624000007,1801.2994515999999,1798.6620624000007,1801.2994515999999,21.2037037037037,1.8411317000009149,space,,,2.591896000001725,,,,,,,,1786.980529299999,1786.980529299999,None,,1794.531304099999,1796.5456866000004,1797.6065259000006,1797.6065259000006,1797.6065259000006,1797.6065259000006,n,0.8243554000000586,1786.980529299999,1786.980529299999,,,20,001,2024-07-31_12h57.47.637,robot_sternberg_sign,2022.2.5,60.04830285474082,
"['D', 'Q']",False,G,2,letter,3,True,False,"['robot_stimuli\\\\filler.mp4', 'robot_stimuli\\\\filler.mp4']",robot_stimuli\\filler.mp4,20,,,,,,,,,,,,,0,80,80,80,,,,,,,,,,,,,,,,,1810.2084653000002,1811.2736337999995,,,,,,,,,1812.8968129000004,1812.8968129000004,1812.8968129000004,1812.8968129000004,1812.8968129000004,1812.8968129000004,1812.8968129000004,1812.8968129000004,None,None,None,,,,,,,,,,,1801.2994515999999,1801.2994515999999,space,3.3323946000000433,1807.9997521999994,1810.2084653000002,1811.2736337999995,1811.2736337999995,1811.2736337999995,1811.2736337999995,n,1.501713399999062,,,,,20,001,2024-07-31_12h57.47.637,robot_sternberg_sign,2022.2.5,60.04830285474082,
"['T', 'F']",True,T,2,letter,3,False,False,"['robot_stimuli\\\\filler.mp4', 'robot_stimuli\\\\filler.mp4']",robot_stimuli\\filler.mp4,20,,,,,,,,,,,,,0,81,81,81,,,,,,,,,,,,,,,,,1818.4550619000001,1813.9578702,,,,,,,,,1820.3426280000003,1820.3426280000003,1820.3426280000003,1820.3426280000003,1820.3426280000003,1820.3426280000003,1820.3426280000003,1820.3426280000003,None,None,None,,,,,,,,,,,1812.8968129000004,1812.8968129000004,None,,1816.2385252000004,1818.4550619000001,1819.5232018999995,1819.5232018999995,1819.5232018999995,1819.5232018999995,c,0.7001438000006601,1812.8968129000004,1812.8968129000004,,,20,001,2024-07-31_12h57.47.637,robot_sternberg_sign,2022.2.5,60.04830285474082,
"['C', 'F']",False,S,2,letter,3,False,False,"['robot_stimuli\\\\filler.mp4', 'robot_stimuli\\\\filler.mp4']",robot_stimuli\\filler.mp4,20,,,,,,,,,,,,,0,82,82,82,,,,,,,,,,,,,,,,,1825.7083569999995,1826.7725171999991,,,,,,,,,1827.8010171999995,1827.8010171999995,1827.8010171999995,1827.8010171999995,1827.8010171999995,1827.8010171999995,1827.8010171999995,1827.8010171999995,None,None,None,,,,,,,,,,,1820.3426280000003,1820.3426280000003,None,,1823.4906138000006,1825.7083569999995,1826.7725171999991,1826.7725171999991,1826.7725171999991,1826.7725171999991,n,0.8417231000003085,1820.3426280000003,1820.3426280000003,,,20,001,2024-07-31_12h57.47.637,robot_sternberg_sign,2022.2.5,60.04830285474082,
"['X', 'S']",False,R,2,letter,3,False,False,"['robot_stimuli\\\\filler.mp4', 'robot_stimuli\\\\filler.mp4']",robot_stimuli\\filler.mp4,20,,,,,,,,,,,,,0,83,83,83,,,,,,,,,,,,,,,,,1833.3577599,1834.4245904999989,,,,,,,,,1835.2471301999994,1835.2471301999994,1835.2471301999994,1835.2471301999994,1835.2471301999994,1835.2471301999994,1835.2471301999994,1835.2471301999994,None,None,None,,,,,,,,,,,1827.8010171999995,1827.8010171999995,None,,1831.1407156999994,1833.3577599,1834.4245904999989,1834.4245904999989,1834.4245904999989,1834.4245904999989,n,0.6458062000001519,1827.8010171999995,1827.8010171999995,,,20,001,2024-07-31_12h57.47.637,robot_sternberg_sign,2022.2.5,60.04830285474082,
"['K', 'S']",False,V,2,letter,3,False,False,"['robot_stimuli\\\\filler.mp4', 'robot_stimuli\\\\filler.mp4']",robot_stimuli\\filler.mp4,20,,,,,,,,,,,,,0,84,84,84,,,,,,,,,,,,,,,,,1840.8041881999998,1836.3069582999997,,,,,,,,,1842.8948553999999,1842.8948553999999,1842.8948553999999,1842.8948553999999,1842.8948553999999,1842.8948553999999,1842.8948553999999,1842.8948553999999,None,None,None,,,,,,,,,,,1835.2471301999994,1835.2471301999994,None,,1838.5929092000006,1840.8041881999998,1841.8723530000007,1841.8723530000007,1841.8723530000007,1841.8723530000007,n,0.8145082999999431,1835.2471301999994,1835.2471301999994,,,20,001,2024-07-31_12h57.47.637,robot_sternberg_sign,2022.2.5,60.04830285474082,
"['H', 'T']",False,R,2,letter,3,False,False,"['robot_stimuli\\\\filler.mp4', 'robot_stimuli\\\\filler.mp4']",robot_stimuli\\filler.mp4,20,,,,,,,,,,,,,0,85,85,85,,,,,,,,,,,,,,,,,1848.4578729999994,1849.5238602999998,,,,,,,,,1850.3528573999993,1850.3528573999993,1850.3528573999993,1850.3528573999993,1850.3528573999993,1850.3528573999993,1850.3528573999993,1850.3528573999993,None,None,None,,,,,,,,,,,1842.8948553999999,1842.8948553999999,None,,1846.2446894000004,1848.4578729999994,1849.5238602999998,1849.5238602999998,1849.5238602999998,1849.5238602999998,n,0.6270894999997836,1842.8948553999999,1842.8948553999999,,,20,001,2024-07-31_12h57.47.637,robot_sternberg_sign,2022.2.5,60.04830285474082,
"['X', 'T']",True,T,2,letter,3,False,False,"['robot_stimuli\\\\filler.mp4', 'robot_stimuli\\\\filler.mp4']",robot_stimuli\\filler.mp4,20,,,,,,,,,,,,,0,86,86,86,,,,,,,,,,,,,,,,,1855.9078986000004,1856.9730775999997,,,,,,,,,1857.8009347000007,1857.8009347000007,1857.8009347000007,1857.8009347000007,1857.8009347000007,1857.8009347000007,1857.8009347000007,1857.8009347000007,None,None,None,,,,,,,,,,,1850.3528573999993,1850.3528573999993,None,,1853.6915737,1855.9078986000004,1856.9730775999997,1856.9730775999997,1856.9730775999997,1856.9730775999997,c,0.7389261000007536,1850.3528573999993,1850.3528573999993,,,20,001,2024-07-31_12h57.47.637,robot_sternberg_sign,2022.2.5,60.04830285474082,
"['X', 'H']",True,H,2,letter,3,False,False,"['robot_stimuli\\\\filler.mp4', 'robot_stimuli\\\\filler.mp4']",robot_stimuli\\filler.mp4,20,,,,,,,,,,,,,0,87,87,87,,,,,,,,,,,,,,,,,1863.163013899999,1864.2237919,,,,,,,,,1865.2453282999995,1865.2453282999995,1865.2453282999995,1865.2453282999995,1865.2453282999995,1865.2453282999995,1865.2453282999995,1865.2453282999995,None,None,None,,,,,,,,,,,1857.8009347000007,1857.8009347000007,None,,1861.149125599999,1863.163013899999,1864.2237919,1864.2237919,1864.2237919,1864.2237919,c,0.8467747000013333,1857.8009347000007,1857.8009347000007,,,20,001,2024-07-31_12h57.47.637,robot_sternberg_sign,2022.2.5,60.04830285474082,
"['L', 'B']",True,B,2,letter,3,False,False,"['robot_stimuli\\\\filler.mp4', 'robot_stimuli\\\\filler.mp4']",robot_stimuli\\filler.mp4,20,,,,,,,,,,,,,0,88,88,88,,,,,,,,,,,,,,,,,1870.610929299999,1871.6723053999995,,,,,,,,,1872.5024534999993,1872.5024534999993,1872.5024534999993,1872.5024534999993,1872.5024534999993,1872.5024534999993,1872.5024534999993,1872.5024534999993,None,None,None,,,,,,,,,,,1865.2453282999995,1865.2453282999995,None,,1868.6025295,1870.610929299999,1871.6723053999995,1871.6723053999995,1871.6723053999995,1871.6723053999995,c,0.6707845000000816,1865.2453282999995,1865.2453282999995,,,20,001,2024-07-31_12h57.47.637,robot_sternberg_sign,2022.2.5,60.04830285474082,
"['T', 'Q']",True,T,2,letter,3,False,True,"['robot_stimuli\\\\filler.mp4', 'robot_stimuli\\\\filler.mp4']",robot_stimuli\\filler.mp4,20,,,,,,,,,,,,,0,89,89,89,,,,,,,,,,,,,,,,,1877.8597848999998,1878.921483099999,,,,,,,,,1879.5766297999999,1881.9520178000002,1879.5766297999999,1881.9520178000002,1879.5766297999999,1881.9520178000002,1879.5766297999999,1881.9520178000002,16.882716049382715,1.6458034000006592,space,,,2.317714900000283,,,,,,,,1872.5024534999993,1872.5024534999993,None,,1875.8503435999992,1877.8597848999998,1878.921483099999,1878.921483099999,1878.921483099999,1878.921483099999,c,0.5413865000009537,1872.5024534999993,1872.5024534999993,,,20,001,2024-07-31_12h57.47.637,robot_sternberg_sign,2022.2.5,60.04830285474082,
"['L_Arm_X_For', 'R_Torso_Y_For', 'R_Head_X_Back', 'R_Head_Z_Back']",True,R_Head_X_Back,4,robot,4,True,False,"['robot_stimuli\\L_Arm_X_For.mp4', 'robot_stimuli\\R_Torso_Y_For.mp4', 'robot_stimuli\\R_Head_X_Back.mp4', 'robot_stimuli\\R_Head_Z_Back.mp4']",robot_stimuli\R_Head_X_Back.mp4,20,,,,,,,,,,,,,0,90,90,90,,,,,,,,,,,,,,,,,1899.6292744000002,1900.7301965000006,,,,,,,,,1904.3686084,1904.3686084,1904.3686084,1904.3686084,1904.3686084,1904.3686084,1904.3686084,1904.3686084,None,None,None,,,,,,,,,,,1881.9520178000002,1881.9520178000002,space,1.7663967000007688,,,,1900.7301965000006,1900.7301965000006,1900.7301965000006,c,3.3172018000004755,,,1895.9930270000004,1900.7301965000006,20,001,2024-07-31_12h57.47.637,robot_sternberg_sign,2022.2.5,60.04830285474082,
"['L_Arm_X_Back', 'L_Base_X_Back', 'L_Arm_X_For', 'R_Base_X_For']",False,R_Head_Y_Back,4,robot,4,False,False,"['robot_stimuli\\L_Arm_X_Back.mp4', 'robot_stimuli\\L_Base_X_Back.mp4', 'robot_stimuli\\L_Arm_X_For.mp4', 'robot_stimuli\\R_Base_X_For.mp4']",robot_stimuli\R_Head_Y_Back.mp4,20,,,,,,,,,,,,,0,91,91,91,,,,,,,,,,,,,,,,,1920.0897036999995,1921.1793022000002,,,,,,,,,1924.8311078999996,1924.8311078999996,1924.8311078999996,1924.8311078999996,1924.8311078999996,1924.8311078999996,1924.8311078999996,1924.8311078999996,None,None,None,,,,,,,,,,,1904.3686084,1904.3686084,None,,,,,1921.1793022000002,1921.1793022000002,1921.1793022000002,n,1.707693600001221,1904.3686084,1904.3686084,1916.5575704000003,1921.1793022000002,20,001,2024-07-31_12h57.47.637,robot_sternberg_sign,2022.2.5,60.04830285474082,
"['L_Arm_Y_Back', 'R_Arm_Z_For', 'L_Torso_X_Back', 'R_Head_X_For']",False,R_Arm_Z_Back,4,robot,4,False,False,"['robot_stimuli\\L_Arm_Y_Back.mp4', 'robot_stimuli\\R_Arm_Z_For.mp4', 'robot_stimuli\\L_Torso_X_Back.mp4', 'robot_stimuli\\R_Head_X_For.mp4']",robot_stimuli\R_Arm_Z_Back.mp4,20,,,,,,,,,,,,,0,92,92,92,,,,,,,,,,,,,,,,,1940.7019717999992,1941.7821117999993,,,,,,,,,1945.4321001999997,1945.4321001999997,1945.4321001999997,1945.4321001999997,1945.4321001999997,1945.4321001999997,1945.4321001999997,1945.4321001999997,None,None,None,,,,,,,,,,,1924.8311078999996,1924.8311078999996,None,,,,,1941.7821117999993,1941.7821117999993,1941.7821117999993,c,2.440063000000009,1924.8311078999996,1924.8311078999996,1937.0794461999994,1941.7821117999993,20,001,2024-07-31_12h57.47.637,robot_sternberg_sign,2022.2.5,60.04830285474082,
"['R_Head_Z_Back', 'R_Arm_X_Back', 'R_Head_Z_For', 'L_Arm_X_Back']",True,R_Head_Z_Back,4,robot,4,False,False,"['robot_stimuli\\R_Head_Z_Back.mp4', 'robot_stimuli\\R_Arm_X_Back.mp4', 'robot_stimuli\\R_Head_Z_For.mp4', 'robot_stimuli\\L_Arm_X_Back.mp4']",robot_stimuli\R_Head_Z_Back.mp4,20,,,,,,,,,,,,,0,93,93,93,,,,,,,,,,,,,,,,,1961.3095732000002,1962.3982622999993,,,,,,,,,1966.0367628999993,1966.0367628999993,1966.0367628999993,1966.0367628999993,1966.0367628999993,1966.0367628999993,1966.0367628999993,1966.0367628999993,None,None,None,,,,,,,,,,,1945.4321001999997,1945.4321001999997,None,,,,,1962.3982622999993,1962.3982622999993,1962.3982622999993,c,0.032661799999914365,1945.4321001999997,1945.4321001999997,1957.6785696000006,1962.3982622999993,20,001,2024-07-31_12h57.47.637,robot_sternberg_sign,2022.2.5,60.04830285474082,
"['L_Torso_Y_Back', 'L_Arm_X_Back', 'R_Head_Z_Back', 'L_Torso_Z_Back']",False,R_Arm_Z_For,4,robot,4,False,False,"['robot_stimuli\\L_Torso_Y_Back.mp4', 'robot_stimuli\\L_Arm_X_Back.mp4', 'robot_stimuli\\R_Head_Z_Back.mp4', 'robot_stimuli\\L_Torso_Z_Back.mp4']",robot_stimuli\R_Arm_Z_For.mp4,20,,,,,,,,,,,,,0,94,94,94,,,,,,,,,,,,,,,,,1981.659287299999,1982.7461805000003,,,,,,,,,1986.3851510999993,1986.3851510999993,1986.3851510999993,1986.3851510999993,1986.3851510999993,1986.3851510999993,1986.3851510999993,1986.3851510999993,None,None,None,,,,,,,,,,,1966.0367628999993,1966.0367628999993,None,,,,,1982.7461805000003,1982.7461805000003,1982.7461805000003,n,1.9248074000006454,1966.0367628999993,1966.0367628999993,1978.1608906000001,1982.7461805000003,20,001,2024-07-31_12h57.47.637,robot_sternberg_sign,2022.2.5,60.04830285474082,
"['L_Torso_X_Back', 'L_Head_X_Back', 'R_Head_X_For', 'L_Arm_X_Back']",True,L_Head_X_Back,4,robot,4,False,False,"['robot_stimuli\\L_Torso_X_Back.mp4', 'robot_stimuli\\L_Head_X_Back.mp4', 'robot_stimuli\\R_Head_X_For.mp4', 'robot_stimuli\\L_Arm_X_Back.mp4']",robot_stimuli\L_Head_X_Back.mp4,20,,,,,,,,,,,,,0,95,95,95,,,,,,,,,,,,,,,,,2002.2571105000006,2003.3475801000004,,,,,,,,,2006.9856125999995,2006.9856125999995,2006.9856125999995,2006.9856125999995,2006.9856125999995,2006.9856125999995,2006.9856125999995,2006.9856125999995,None,None,None,,,,,,,,,,,1986.3851510999993,1986.3851510999993,None,,,,,2003.3475801000004,2003.3475801000004,2003.3475801000004,c,2.835145900000498,1986.3851510999993,1986.3851510999993,1998.625391399999,2003.3475801000004,20,001,2024-07-31_12h57.47.637,robot_sternberg_sign,2022.2.5,60.04830285474082,
"['R_Base_Y_For', 'L_Head_Y_For', 'R_Head_Z_Back', 'R_Torso_X_For']",False,L_Base_X_Back,4,robot,4,False,False,"['robot_stimuli\\R_Base_Y_For.mp4', 'robot_stimuli\\L_Head_Y_For.mp4', 'robot_stimuli\\R_Head_Z_Back.mp4', 'robot_stimuli\\R_Torso_X_For.mp4']",robot_stimuli\L_Base_X_Back.mp4,20,,,,,,,,,,,,,0,96,96,96,,,,,,,,,,,,,,,,,2022.8379081999992,2008.0617354999995,,,,,,,,,2027.5351795000006,2027.5351795000006,2027.5351795000006,2027.5351795000006,2027.5351795000006,2027.5351795000006,2027.5351795000006,2027.5351795000006,None,None,None,,,,,,,,,,,2006.9856125999995,2006.9856125999995,None,,,,,2023.9290605999995,2023.9290605999995,2023.9290605999995,n,3.0143310999992536,2006.9856125999995,2006.9856125999995,2019.2056104999992,2023.9290605999995,20,001,2024-07-31_12h57.47.637,robot_sternberg_sign,2022.2.5,60.04830285474082,
"['R_Arm_X_Back', 'L_Torso_Z_For', 'L_Torso_Z_Back', 'R_Torso_Z_For']",True,R_Torso_Z_For,4,robot,4,False,False,"['robot_stimuli\\R_Arm_X_Back.mp4', 'robot_stimuli\\L_Torso_Z_For.mp4', 'robot_stimuli\\L_Torso_Z_Back.mp4', 'robot_stimuli\\R_Torso_Z_For.mp4']",robot_stimuli\R_Torso_Z_For.mp4,20,,,,,,,,,,,,,0,97,97,97,,,,,,,,,,,,,,,,,2043.2599475000006,2044.347674499999,,,,,,,,,2047.9966514999996,2047.9966514999996,2047.9966514999996,2047.9966514999996,2047.9966514999996,2047.9966514999996,2047.9966514999996,2047.9966514999996,None,None,None,,,,,,,,,,,2027.5351795000006,2027.5351795000006,None,,,,,2044.347674499999,2044.347674499999,2044.347674499999,c,1.747875799999747,2027.5351795000006,2027.5351795000006,2039.6272876000003,2044.347674499999,20,001,2024-07-31_12h57.47.637,robot_sternberg_sign,2022.2.5,60.04830285474082,
"['L_Base_X_For', 'L_Arm_Y_For', 'L_Torso_Y_Back', 'R_Arm_X_For']",True,L_Base_X_For,4,robot,4,False,False,"['robot_stimuli\\L_Base_X_For.mp4', 'robot_stimuli\\L_Arm_Y_For.mp4', 'robot_stimuli\\L_Torso_Y_Back.mp4', 'robot_stimuli\\R_Arm_X_For.mp4']",robot_stimuli\L_Base_X_For.mp4,20,,,,,,,,,,,,,0,98,98,98,,,,,,,,,,,,,,,,,2063.677039099999,2064.7639476000004,,,,,,,,,2068.3685953999993,2068.3685953999993,2068.3685953999993,2068.3685953999993,2068.3685953999993,2068.3685953999993,2068.3685953999993,2068.3685953999993,None,None,None,,,,,,,,,,,2047.9966514999996,2047.9966514999996,None,,,,,2064.7639476000004,2064.7639476000004,2064.7639476000004,c,3.564077400000315,2047.9966514999996,2047.9966514999996,2060.0458208,2064.7639476000004,20,001,2024-07-31_12h57.47.637,robot_sternberg_sign,2022.2.5,60.04830285474082,
"['R_Arm_X_Back', 'L_Head_Z_For', 'R_Head_Z_Back', 'R_Base_Z_Back']",False,R_Base_X_Back,4,robot,4,False,True,"['robot_stimuli\\R_Arm_X_Back.mp4', 'robot_stimuli\\L_Head_Z_For.mp4', 'robot_stimuli\\R_Head_Z_Back.mp4', 'robot_stimuli\\R_Base_Z_Back.mp4']",robot_stimuli\R_Base_X_Back.mp4,20,,,,,,,,,,,,,0,99,99,99,,,,,,,,,,,,,,,,,2084.1555965000007,2069.444968,,,,,,,,,2088.9303789000005,2091.7147974,2088.9303789000005,2091.7147974,2088.9303789000005,2091.7147974,2088.9303789000005,2091.7147974,50.833333333333336,2.2082209999989573,space,,,2.7324351999995997,,,,,,,,2068.3685953999993,2068.3685953999993,None,,,,,2085.2507600999998,2085.2507600999998,2085.2507600999998,n,3.451895500000319,2068.3685953999993,2068.3685953999993,2080.614152,2085.2507600999998,20,001,2024-07-31_12h57.47.637,robot_sternberg_sign,2022.2.5,60.04830285474082,
"['R_Arm_Y_Back', 'R_Torso_Z_For']",True,R_Torso_Z_For,2,robot,4,True,False,"['robot_stimuli\\R_Arm_Y_Back.mp4', 'robot_stimuli\\R_Torso_Z_For.mp4']",robot_stimuli\R_Torso_Z_For.mp4,20,,,,,,,,,,,,,0,100,100,100,,,,,,,,,,,,,,,,,2102.4093407,2103.497733099999,,,,,,,,,2107.1490145999996,2107.1490145999996,2107.1490145999996,2107.1490145999996,2107.1490145999996,2107.1490145999996,2107.1490145999996,2107.1490145999996,None,None,None,,,,,,,,,,,2091.7147974,2091.7147974,space,2.244013699999414,,,,2103.497733099999,2103.497733099999,2103.497733099999,c,1.8302188999987266,,,2098.7806834000003,2103.497733099999,20,001,2024-07-31_12h57.47.637,robot_sternberg_sign,2022.2.5,60.04830285474082,
"['L_Torso_Y_For', 'R_Head_X_For']",False,L_Torso_Z_For,2,robot,4,False,False,"['robot_stimuli\\L_Torso_Y_For.mp4', 'robot_stimuli\\R_Head_X_For.mp4']",robot_stimuli\L_Torso_Z_For.mp4,20,,,,,,,,,,,,,0,101,101,101,,,,,,,,,,,,,,,,,2115.5689299999995,2116.6495687000006,,,,,,,,,2120.2976669,2120.2976669,2120.2976669,2120.2976669,2120.2976669,2120.2976669,2120.2976669,2120.2976669,None,None,None,,,,,,,,,,,2107.1490145999996,2107.1490145999996,None,,,,,2116.6495687000006,2116.6495687000006,2116.6495687000006,n,3.060354699999152,2107.1490145999996,2107.1490145999996,2111.9483944000003,2116.6495687000006,20,001,2024-07-31_12h57.47.637,robot_sternberg_sign,2022.2.5,60.04830285474082,
"['L_Torso_Y_For', 'R_Head_Z_For']",True,R_Head_Z_For,2,robot,4,False,False,"['robot_stimuli\\L_Torso_Y_For.mp4', 'robot_stimuli\\R_Head_Z_For.mp4']",robot_stimuli\R_Head_Z_For.mp4,20,,,,,,,,,,,,,0,102,102,102,,,,,,,,,,,,,,,,,2128.7394545000006,2129.8306257999993,,,,,,,,,2133.4596949000006,2133.4596949000006,2133.4596949000006,2133.4596949000006,2133.4596949000006,2133.4596949000006,2133.4596949000006,2133.4596949000006,None,None,None,,,,,,,,,,,2120.2976669,2120.2976669,None,,,,,2129.8306257999993,2129.8306257999993,2129.8306257999993,c,2.303970599999957,2120.2976669,2120.2976669,2125.1115372000004,2129.8306257999993,20,001,2024-07-31_12h57.47.637,robot_sternberg_sign,2022.2.5,60.04830285474082,
"['R_Head_Y_For', 'L_Torso_X_For']",True,R_Head_Y_For,2,robot,4,False,False,"['robot_stimuli\\R_Head_Y_For.mp4', 'robot_stimuli\\L_Torso_X_For.mp4']",robot_stimuli\R_Head_Y_For.mp4,20,,,,,,,,,,,,,0,103,103,103,,,,,,,,,,,,,,,,,2141.8886894999996,2134.544417699999,,,,,,,,,2146.6338032999993,2146.6338032999993,2146.6338032999993,2146.6338032999993,2146.6338032999993,2146.6338032999993,2146.6338032999993,2146.6338032999993,None,None,None,,,,,,,,,,,2133.4596949000006,2133.4596949000006,None,,,,,2142.9943678,2142.9943678,2142.9943678,c,2.468796900000598,2133.4596949000006,2133.4596949000006,2138.265887399999,2142.9943678,20,001,2024-07-31_12h57.47.637,robot_sternberg_sign,2022.2.5,60.04830285474082,
"['R_Arm_Z_For', 'L_Head_Z_Back']",True,L_Head_Z_Back,2,robot,4,False,False,"['robot_stimuli\\R_Arm_Z_For.mp4', 'robot_stimuli\\L_Head_Z_Back.mp4']",robot_stimuli\L_Head_Z_Back.mp4,20,,,,,,,,,,,,,0,104,104,104,,,,,,,,,,,,,,,,,2155.0726109999996,2147.710539399999,,,,,,,,,2159.803272199999,2159.803272199999,2159.803272199999,2159.803272199999,2159.803272199999,2159.803272199999,2159.803272199999,2159.803272199999,None,None,None,,,,,,,,,,,2146.6338032999993,2146.6338032999993,None,,,,,2156.1640933,2156.1640933,2156.1640933,c,1.5298328000008041,2146.6338032999993,2146.6338032999993,2151.4329125999993,2156.1640933,20,001,2024-07-31_12h57.47.637,robot_sternberg_sign,2022.2.5,60.04830285474082,
"['L_Arm_Y_For', 'L_Head_Y_For']",False,L_Torso_Y_Back,2,robot,4,False,False,"['robot_stimuli\\L_Arm_Y_For.mp4', 'robot_stimuli\\L_Head_Y_For.mp4']",robot_stimuli\L_Torso_Y_Back.mp4,20,,,,,,,,,,,,,0,105,105,105,,,,,,,,,,,,,,,,,2168.2389224,2160.8780755999996,,,,,,,,,2172.8362574000002,2172.8362574000002,2172.8362574000002,2172.8362574000002,2172.8362574000002,2172.8362574000002,2172.8362574000002,2172.8362574000002,None,None,None,,,,,,,,,,,2159.803272199999,2159.803272199999,None,,,,,2169.3302439,2169.3302439,2169.3302439,c,2.2603801999994175,2159.803272199999,2159.803272199999,2164.6001937,2169.3302439,20,001,2024-07-31_12h57.47.637,robot_sternberg_sign,2022.2.5,60.04830285474082,
"['R_Head_Y_Back', 'R_Arm_Z_For']",False,L_Arm_Z_Back,2,robot,4,False,False,"['robot_stimuli\\R_Head_Y_Back.mp4', 'robot_stimuli\\R_Arm_Z_For.mp4']",robot_stimuli\L_Arm_Z_Back.mp4,20,,,,,,,,,,,,,0,106,106,106,,,,,,,,,,,,,,,,,2181.2717286000006,2173.9116582000006,,,,,,,,,2185.9929771000006,2185.9929771000006,2185.9929771000006,2185.9929771000006,2185.9929771000006,2185.9929771000006,2185.9929771000006,2185.9929771000006,None,None,None,,,,,,,,,,,2172.8362574000002,2172.8362574000002,None,,,,,2182.3641348,2182.3641348,2182.3641348,n,1.7709275000015623,2172.8362574000002,2172.8362574000002,2177.6341969999994,2182.3641348,20,001,2024-07-31_12h57.47.637,robot_sternberg_sign,2022.2.5,60.04830285474082,
