sequence,is_target,condition,stimuli,block,is_block_beginning,is_block_ending,fname,subject,retraining.thisRepN,retraining.thisTrialN,retraining.thisN,retraining.thisIndex,training.thisRepN,training.thisTrialN,training.thisN,training.thisIndex,trials.thisRepN,trials.thisTrialN,trials.thisN,trials.thisIndex,langage_text.started,langage_key.started,langage_key.keys,langage_key.rt,intro_text.started,intro_key.started,intro_key.keys,intro_key.rt,training_robot_intro_text.started,training_robot_intro_key.started,training_robot_intro_key.keys,training_robot_intro_key.rt,cross.started,cross.stopped,training_letter.started,training_robot_key.started,training_robot_question.started,training_robot_keys.started,training_letter.stopped,training_robot_key.keys,RSME_labels.started,RSME_labels.stopped,RSME_ticks.started,RSME_ticks.stopped,RSME_text.started,RSME_text.stopped,RSME_key.started,RSME_key.stopped,RSME_ticks.response,RSME_ticks.rt,RSME_key.keys,training_robot_intro_text.stopped,training_robot_intro_key.stopped,training_robot_key.rt,RSME_key.rt,training_robot_movie.started,experiment_beginning_text.started,experiment_beginning_keys.started,experiment_beginning_key.started,experiment_beginning_key.keys,experiment_beginning_key.rt,block_intro_text.started,block_intro_key.started,block_intro_key.keys,block_intro_key.rt,letter.started,key.started,letter.stopped,key.keys,block_intro_text.stopped,block_intro_key.stopped,key.rt,movie.started,participant,session,date,expName,psychopyVersion,frameRate,Unnamed: 80
,,,,,,,,,,,,,,,,,,,,,20.995047400000004,20.995047400000004,f,325.9890722,,,,,,,,,,,,,,,,,,,,,,,,,,,,,,,,,,,,,,,,,,,,,,,,,,9,1,2024-06-17_12h50.31.669,robot_nback_sign,2022.2.5,59.89336585144313,
,,,,,,,,,,,,,,,,,,,,,,,,,347.0540378999999,347.0540378999999,space,139.5770325,,,,,,,,,,,,,,,,,,,,,,,,,,,,,,,,,,,,,,,,,,,,,,9,1,2024-06-17_12h50.31.669,robot_nback_sign,2022.2.5,59.89336585144313,
C,False,1.0,letter,1.0,True,False,robot_stimuli\\filler.mp4,9.0,0.0,0.0,0.0,0.0,0.0,0.0,0.0,0.0,,,,,,,,,,,,,486.6827356,486.6827356,space,15.81391929999998,502.5283390999999,504.0374562999999,504.0374562999999,504.0374562999999,504.0374562999999,504.0374562999999,506.3594908,None,506.3594908,506.3594908,506.3594908,506.3594908,506.3594908,506.3594908,506.3594908,506.3594908,None,None,None,,,,,,,,,,,,,,,,,,,,,,,9,1,2024-06-17_12h50.31.669,robot_nback_sign,2022.2.5,59.89336585144313,
Q,False,1.0,letter,1.0,False,False,robot_stimuli\\filler.mp4,9.0,0.0,0.0,0.0,0.0,0.0,1.0,1.0,1.0,,,,,,,,,,,,,506.3594908,506.3594908,None,,506.3594908,507.4305458,507.4305458,507.4305458,507.4305458,507.4305458,509.6619353,n,509.6619353,509.6619353,509.6619353,509.6619353,509.6619353,509.6619353,509.6619353,509.6619353,None,None,None,506.3594908,506.3594908,1.4898524000000464,,,,,,,,,,,,,,,,,,,,9,1,2024-06-17_12h50.31.669,robot_nback_sign,2022.2.5,59.89336585144313,
W,False,1.0,letter,1.0,False,False,robot_stimuli\\filler.mp4,9.0,0.0,0.0,0.0,0.0,0.0,2.0,2.0,2.0,,,,,,,,,,,,,509.6619353,509.6619353,None,,509.6619353,510.7342130999999,510.7342130999999,510.7342130999999,510.7342130999999,510.7342130999999,512.7670248,n,512.7670248,512.7670248,512.7670248,512.7670248,512.7670248,512.7670248,512.7670248,512.7670248,None,None,None,509.6619353,509.6619353,1.242645799999906,,,,,,,,,,,,,,,,,,,,9,1,2024-06-17_12h50.31.669,robot_nback_sign,2022.2.5,59.89336585144313,
W,True,1.0,letter,1.0,False,False,robot_stimuli\\filler.mp4,9.0,0.0,0.0,0.0,0.0,0.0,3.0,3.0,3.0,,,,,,,,,,,,,512.7670248,512.7670248,None,,512.7670248,513.8415074,513.8415074,513.8415074,513.8415074,513.8415074,515.867164,c,515.867164,515.867164,515.867164,515.867164,515.867164,515.867164,515.867164,515.867164,None,None,None,512.7670248,512.7670248,0.8786796000000265,,,,,,,,,,,,,,,,,,,,9,1,2024-06-17_12h50.31.669,robot_nback_sign,2022.2.5,59.89336585144313,
C,False,1.0,letter,1.0,False,False,robot_stimuli\\filler.mp4,9.0,0.0,0.0,0.0,0.0,0.0,4.0,4.0,4.0,,,,,,,,,,,,,515.867164,515.867164,None,,515.867164,516.947562,516.947562,516.947562,516.947562,516.947562,518.9798222,n,518.9798222,518.9798222,518.9798222,518.9798222,518.9798222,518.9798222,518.9798222,518.9798222,None,None,None,515.867164,515.867164,1.277044800000084,,,,,,,,,,,,,,,,,,,,9,1,2024-06-17_12h50.31.669,robot_nback_sign,2022.2.5,59.89336585144313,
C,True,1.0,letter,1.0,False,True,robot_stimuli\\filler.mp4,9.0,0.0,0.0,0.0,0.0,0.0,5.0,5.0,5.0,,,,,,,,,,,,,518.9798222,518.9798222,None,,518.9798222,,520.0581315,520.0581315,520.0581315,520.0581315,522.1529724999999,c,522.1529724999999,544.091549,522.1529724999999,544.091549,522.1529724999999,544.091549,522.1529724999999,544.091549,23.364197530864192,20.55962749999992,space,518.9798222,518.9798222,1.110189599999984,21.878600100000057,,,,,,,,,,,,,,,,,,,9,1,2024-06-17_12h50.31.669,robot_nback_sign,2022.2.5,59.89336585144313,
D,False,2.0,letter,1.0,True,False,robot_stimuli\\filler.mp4,9.0,0.0,0.0,0.0,0.0,0.0,6.0,6.0,6.0,,,,,,,,,,,,,544.091549,544.091549,space,3.380662799999953,547.4948148,548.5724302,548.5724302,548.5724302,548.5724302,548.5724302,550.5936548999999,n,550.5936548999999,550.5936548999999,550.5936548999999,550.5936548999999,550.5936548999999,550.5936548999999,550.5936548999999,550.5936548999999,None,None,None,,,1.4517279999999744,,,,,,,,,,,,,,,,,,,,9,1,2024-06-17_12h50.31.669,robot_nback_sign,2022.2.5,59.89336585144313,
X,False,2.0,letter,1.0,False,False,robot_stimuli\\filler.mp4,9.0,0.0,0.0,0.0,0.0,0.0,7.0,7.0,7.0,,,,,,,,,,,,,550.5936548999999,550.5936548999999,None,,550.5936548999999,551.6628966,551.6628966,551.6628966,551.6628966,551.6628966,553.8921991999999,n,553.8921991999999,553.8921991999999,553.8921991999999,553.8921991999999,553.8921991999999,553.8921991999999,553.8921991999999,553.8921991999999,None,None,None,550.5936548999999,550.5936548999999,1.2488364000000445,,,,,,,,,,,,,,,,,,,,9,1,2024-06-17_12h50.31.669,robot_nback_sign,2022.2.5,59.89336585144313,
D,True,2.0,letter,1.0,False,False,robot_stimuli\\filler.mp4,9.0,0.0,0.0,0.0,0.0,0.0,8.0,8.0,8.0,,,,,,,,,,,,,553.8921991999999,553.8921991999999,None,,553.8921991999999,554.9648879,554.9648879,554.9648879,554.9648879,554.9648879,557.1960240999999,c,557.1960240999999,557.1960240999999,557.1960240999999,557.1960240999999,557.1960240999999,557.1960240999999,557.1960240999999,557.1960240999999,None,None,None,553.8921991999999,553.8921991999999,0.6757247000000177,,,,,,,,,,,,,,,,,,,,9,1,2024-06-17_12h50.31.669,robot_nback_sign,2022.2.5,59.89336585144313,
X,True,2.0,letter,1.0,False,False,robot_stimuli\\filler.mp4,9.0,0.0,0.0,0.0,0.0,0.0,9.0,9.0,9.0,,,,,,,,,,,,,557.1960240999999,557.1960240999999,None,,557.1960240999999,,558.2765592,558.2765592,558.2765592,558.2765592,560.3100129,n,560.3100129,560.3100129,560.3100129,560.3100129,560.3100129,560.3100129,560.3100129,560.3100129,None,None,None,557.1960240999999,557.1960240999999,0.8029704000000208,,,,,,,,,,,,,,,,,,,,9,1,2024-06-17_12h50.31.669,robot_nback_sign,2022.2.5,59.89336585144313,
F,False,2.0,letter,1.0,False,False,robot_stimuli\\filler.mp4,9.0,0.0,0.0,0.0,0.0,0.0,10.0,10.0,10.0,,,,,,,,,,,,,560.3100129,560.3100129,None,,560.3100129,561.3811691999999,561.3811691999999,561.3811691999999,561.3811691999999,561.3811691999999,563.6129076,n,563.6129076,563.6129076,563.6129076,563.6129076,563.6129076,563.6129076,563.6129076,563.6129076,None,None,None,560.3100129,560.3100129,0.7463859000000355,,,,,,,,,,,,,,,,,,,,9,1,2024-06-17_12h50.31.669,robot_nback_sign,2022.2.5,59.89336585144313,
T,False,2.0,letter,1.0,False,True,robot_stimuli\\filler.mp4,9.0,0.0,0.0,0.0,0.0,0.0,11.0,11.0,11.0,,,,,,,,,,,,,563.6129076,563.6129076,None,,563.6129076,,564.6952617,564.6952617,564.6952617,564.6952617,566.7570489,n,566.7570489,572.8571109,566.7570489,572.8571109,566.7570489,572.8571109,566.7570489,572.8571109,32.77777777777778,4.641662600000018,space,563.6129076,563.6129076,0.7771189000000902,6.050493499999874,,,,,,,,,,,,,,,,,,,9,1,2024-06-17_12h50.31.669,robot_nback_sign,2022.2.5,59.89336585144313,
M,False,3.0,letter,1.0,True,False,robot_stimuli\\filler.mp4,9.0,0.0,0.0,0.0,0.0,0.0,12.0,12.0,12.0,,,,,,,,,,,,,572.8571109,572.8571109,space,2.9269880999999884,575.8115375,576.8854071999999,576.8854071999999,576.8854071999999,576.8854071999999,576.8854071999999,579.1101804,n,579.1101804,579.1101804,579.1101804,579.1101804,579.1101804,579.1101804,579.1101804,579.1101804,None,None,None,,,1.2344072999999014,,,,,,,,,,,,,,,,,,,,9,1,2024-06-17_12h50.31.669,robot_nback_sign,2022.2.5,59.89336585144313,
L,False,3.0,letter,1.0,False,False,robot_stimuli\\filler.mp4,9.0,0.0,0.0,0.0,0.0,0.0,13.0,13.0,13.0,,,,,,,,,,,,,579.1101804,579.1101804,None,,579.1101804,580.1826881999999,580.1826881999999,580.1826881999999,580.1826881999999,580.1826881999999,582.4132886,n,582.4132886,582.4132886,582.4132886,582.4132886,582.4132886,582.4132886,582.4132886,582.4132886,None,None,None,579.1101804,579.1101804,0.7610157999998535,,,,,,,,,,,,,,,,,,,,9,1,2024-06-17_12h50.31.669,robot_nback_sign,2022.2.5,59.89336585144313,
P,False,3.0,letter,1.0,False,False,robot_stimuli\\filler.mp4,9.0,0.0,0.0,0.0,0.0,0.0,14.0,14.0,14.0,,,,,,,,,,,,,582.4132886,582.4132886,None,,582.4132886,,583.4964049,583.4964049,583.4964049,583.4964049,585.7315808999999,n,585.7315808999999,585.7315808999999,585.7315808999999,585.7315808999999,585.7315808999999,585.7315808999999,585.7315808999999,585.7315808999999,None,None,None,582.4132886,582.4132886,1.0398161000000243,,,,,,,,,,,,,,,,,,,,9,1,2024-06-17_12h50.31.669,robot_nback_sign,2022.2.5,59.89336585144313,
M,True,3.0,letter,1.0,False,False,robot_stimuli\\filler.mp4,9.0,0.0,0.0,0.0,0.0,0.0,15.0,15.0,15.0,,,,,,,,,,,,,585.7315808999999,585.7315808999999,None,,585.7315808999999,,586.8155034,586.8155034,586.8155034,586.8155034,589.0430567999999,c,589.0430567999999,589.0430567999999,589.0430567999999,589.0430567999999,589.0430567999999,589.0430567999999,589.0430567999999,589.0430567999999,None,None,None,585.7315808999999,585.7315808999999,1.0642937000000927,,,,,,,,,,,,,,,,,,,,9,1,2024-06-17_12h50.31.669,robot_nback_sign,2022.2.5,59.89336585144313,
L,True,3.0,letter,1.0,False,False,robot_stimuli\\filler.mp4,9.0,0.0,0.0,0.0,0.0,0.0,16.0,16.0,16.0,,,,,,,,,,,,,589.0430567999999,589.0430567999999,None,,589.0430567999999,590.1102161,590.1102161,590.1102161,590.1102161,590.1102161,592.1421676,c,592.1421676,592.1421676,592.1421676,592.1421676,592.1421676,592.1421676,592.1421676,592.1421676,None,None,None,589.0430567999999,589.0430567999999,0.8587013000000923,,,,,,,,,,,,,,,,,,,,9,1,2024-06-17_12h50.31.669,robot_nback_sign,2022.2.5,59.89336585144313,
G,False,3.0,letter,1.0,False,True,robot_stimuli\\filler.mp4,9.0,0.0,0.0,0.0,0.0,0.0,17.0,17.0,17.0,,,,,,,,,,,,,592.1421676,592.1421676,None,,592.1421676,593.2141985999999,593.2141985999999,593.2141985999999,593.2141985999999,593.2141985999999,595.4712789,n,595.4712789,600.5314694,595.4712789,600.5314694,595.4712789,600.5314694,595.4712789,600.5314694,33.54938271604938,2.9431556000000683,space,592.1421676,592.1421676,0.8177845999999533,5.007873799999828,,,,,,,,,,,,,,,,,,,9,1,2024-06-17_12h50.31.669,robot_nback_sign,2022.2.5,59.89336585144313,
R_Torso_X_For,False,1.0,robot,2.0,True,False,robot_stimuli\R_Torso_X_For.mp4,9.0,0.0,0.0,0.0,0.0,0.0,18.0,18.0,18.0,,,,,,,,,,,,,600.5314694,600.5314694,space,4.131828100000092,604.6949638,605.8147673999999,,605.8147673999999,605.8147673999999,605.8147673999999,,n,609.445933,609.445933,609.445933,609.445933,609.445933,609.445933,609.445933,609.445933,None,None,None,,,1.8494999000000405,,605.8147673999999,,,,,,,,,,,,,,,,,,9,1,2024-06-17_12h50.31.669,robot_nback_sign,2022.2.5,59.89336585144313,
R_Torso_X_For,True,1.0,robot,2.0,False,False,robot_stimuli\R_Torso_X_For.mp4,9.0,0.0,0.0,0.0,0.0,0.0,19.0,19.0,19.0,,,,,,,,,,,,,609.445933,609.445933,None,,609.445933,610.5405288999999,,610.5405288999999,610.5405288999999,610.5405288999999,,c,614.198903,614.198903,614.198903,614.198903,614.198903,614.198903,614.198903,614.198903,None,None,None,609.445933,609.445933,3.0425499000001253,,610.5405288999999,,,,,,,,,,,,,,,,,,9,1,2024-06-17_12h50.31.669,robot_nback_sign,2022.2.5,59.89336585144313,
R_Torso_X_For,True,1.0,robot,2.0,False,False,robot_stimuli\R_Torso_X_For.mp4,9.0,0.0,0.0,0.0,0.0,0.0,20.0,20.0,20.0,,,,,,,,,,,,,614.198903,614.198903,None,,614.198903,615.3072006,,615.3072006,615.3072006,615.3072006,,c,618.9411848,618.9411848,618.9411848,618.9411848,618.9411848,618.9411848,618.9411848,618.9411848,None,None,None,614.198903,614.198903,2.6607889000000284,,615.3072006,,,,,,,,,,,,,,,,,,9,1,2024-06-17_12h50.31.669,robot_nback_sign,2022.2.5,59.89336585144313,
L_Torso_X_Back,False,1.0,robot,2.0,False,False,robot_stimuli\L_Torso_X_Back.mp4,9.0,0.0,0.0,0.0,0.0,0.0,21.0,21.0,21.0,,,,,,,,,,,,,618.9411848,618.9411848,None,,618.9411848,620.0473041,,620.0473041,620.0473041,620.0473041,,n,623.6918420999999,623.6918420999999,623.6918420999999,623.6918420999999,623.6918420999999,623.6918420999999,623.6918420999999,623.6918420999999,None,None,None,618.9411848,618.9411848,2.175876200000033,,620.0473041,,,,,,,,,,,,,,,,,,9,1,2024-06-17_12h50.31.669,robot_nback_sign,2022.2.5,59.89336585144313,
R_Arm_Z_For,False,1.0,robot,2.0,False,False,robot_stimuli\R_Arm_Z_For.mp4,9.0,0.0,0.0,0.0,0.0,0.0,22.0,22.0,22.0,,,,,,,,,,,,,623.6918420999999,623.6918420999999,None,,623.6918420999999,624.7993872,,624.7993872,624.7993872,624.7993872,,n,628.4447114999999,628.4447114999999,628.4447114999999,628.4447114999999,628.4447114999999,628.4447114999999,628.4447114999999,628.4447114999999,None,None,None,623.6918420999999,623.6918420999999,2.832299499999948,,624.7993872,,,,,,,,,,,,,,,,,,9,1,2024-06-17_12h50.31.669,robot_nback_sign,2022.2.5,59.89336585144313,
L_Torso_X_Back,False,1.0,robot,2.0,False,True,robot_stimuli\L_Torso_X_Back.mp4,9.0,0.0,0.0,0.0,0.0,0.0,23.0,23.0,23.0,,,,,,,,,,,,,628.4447114999999,628.4447114999999,None,,628.4447114999999,629.5401545999999,,629.5401545999999,629.5401545999999,629.5401545999999,,c,633.2025086,641.9905477,633.2025086,641.9905477,633.2025086,641.9905477,633.2025086,641.9905477,38.33333333333333,5.136778999999933,space,628.4447114999999,628.4447114999999,2.891486599999979,8.74105300000005,629.5401545999999,,,,,,,,,,,,,,,,,,9,1,2024-06-17_12h50.31.669,robot_nback_sign,2022.2.5,59.89336585144313,
L_Base_Y_Back,False,2.0,robot,2.0,True,False,robot_stimuli\L_Base_Y_Back.mp4,9.0,0.0,0.0,0.0,0.0,0.0,24.0,24.0,24.0,,,,,,,,,,,,,641.9905477,641.9905477,space,2.216546500000021,644.2284621,645.3316404,,645.3316404,645.3316404,645.3316404,,None,648.9062693999999,648.9062693999999,648.9062693999999,648.9062693999999,648.9062693999999,648.9062693999999,648.9062693999999,648.9062693999999,None,None,None,,,,,645.3316404,,,,,,,,,,,,,,,,,,9,1,2024-06-17_12h50.31.669,robot_nback_sign,2022.2.5,59.89336585144313,
R_Head_X_For,False,2.0,robot,2.0,False,False,robot_stimuli\R_Head_X_For.mp4,9.0,0.0,0.0,0.0,0.0,0.0,25.0,25.0,25.0,,,,,,,,,,,,,648.9062693999999,648.9062693999999,None,,648.9062693999999,650.0101125,,650.0101125,650.0101125,650.0101125,,n,653.6636614,653.6636614,653.6636614,653.6636614,653.6636614,653.6636614,653.6636614,653.6636614,None,None,None,648.9062693999999,648.9062693999999,2.230982099999977,,650.0101125,,,,,,,,,,,,,,,,,,9,1,2024-06-17_12h50.31.669,robot_nback_sign,2022.2.5,59.89336585144313,
L_Torso_Z_Back,False,2.0,robot,2.0,False,False,robot_stimuli\L_Torso_Z_Back.mp4,9.0,0.0,0.0,0.0,0.0,0.0,26.0,26.0,26.0,,,,,,,,,,,,,653.6636614,653.6636614,None,,653.6636614,,,654.7771945,654.7771945,654.7771945,,c,658.2971937,658.2971937,658.2971937,658.2971937,658.2971937,658.2971937,658.2971937,658.2971937,None,None,None,653.6636614,653.6636614,2.0708317999999224,,654.7771945,,,,,,,,,,,,,,,,,,9,1,2024-06-17_12h50.31.669,robot_nback_sign,2022.2.5,59.89336585144313,
R_Arm_Z_Back,False,2.0,robot,2.0,False,False,robot_stimuli\R_Arm_Z_Back.mp4,9.0,0.0,0.0,0.0,0.0,0.0,27.0,27.0,27.0,,,,,,,,,,,,,658.2971937,658.2971937,None,,658.2971937,,,659.4040216999999,659.4040216999999,659.4040216999999,,n,663.0382852,663.0382852,663.0382852,663.0382852,663.0382852,663.0382852,663.0382852,663.0382852,None,None,None,658.2971937,658.2971937,2.2991750000000764,,659.4040216999999,,,,,,,,,,,,,,,,,,9,1,2024-06-17_12h50.31.669,robot_nback_sign,2022.2.5,59.89336585144313,
L_Torso_Z_Back,True,2.0,robot,2.0,False,False,robot_stimuli\L_Torso_Z_Back.mp4,9.0,0.0,0.0,0.0,0.0,0.0,28.0,28.0,28.0,,,,,,,,,,,,,663.0382852,663.0382852,None,,663.0382852,664.1390182,,664.1390182,664.1390182,664.1390182,,c,667.6479413999999,667.6479413999999,667.6479413999999,667.6479413999999,667.6479413999999,667.6479413999999,667.6479413999999,667.6479413999999,None,None,None,663.0382852,663.0382852,1.6927273000000866,,664.1390182,,,,,,,,,,,,,,,,,,9,1,2024-06-17_12h50.31.669,robot_nback_sign,2022.2.5,59.89336585144313,
R_Arm_Z_Back,True,2.0,robot,2.0,False,True,robot_stimuli\R_Arm_Z_Back.mp4,9.0,0.0,0.0,0.0,0.0,0.0,29.0,29.0,29.0,,,,,,,,,,,,,667.6479413999999,667.6479413999999,None,,667.6479413999999,,,668.7531637,668.7531637,668.7531637,,c,672.4223747,680.4944252,672.4223747,680.4944252,672.4223747,680.4944252,672.4223747,680.4944252,51.75925925925927,4.105457699999988,space,667.6479413999999,667.6479413999999,2.943784299999919,8.025498899999974,668.7531637,,,,,,,,,,,,,,,,,,9,1,2024-06-17_12h50.31.669,robot_nback_sign,2022.2.5,59.89336585144313,
L_Arm_Z_Back,False,3.0,robot,2.0,True,False,robot_stimuli\L_Arm_Z_Back.mp4,9.0,0.0,0.0,0.0,0.0,0.0,30.0,30.0,30.0,,,,,,,,,,,,,680.4944252,680.4944252,space,2.2408777999999927,682.7619559999999,683.8497645,,683.8497645,683.8497645,683.8497645,,n,687.4899961,687.4899961,687.4899961,687.4899961,687.4899961,687.4899961,687.4899961,687.4899961,None,None,None,,,2.1253495000000555,,683.8497645,,,,,,,,,,,,,,,,,,9,1,2024-06-17_12h50.31.669,robot_nback_sign,2022.2.5,59.89336585144313,
R_Arm_X_Back,False,3.0,robot,2.0,False,False,robot_stimuli\R_Arm_X_Back.mp4,9.0,0.0,0.0,0.0,0.0,0.0,31.0,31.0,31.0,,,,,,,,,,,,,687.4899961,687.4899961,None,,687.4899961,688.5757944,,688.5757944,688.5757944,688.5757944,,n,692.2302135,692.2302135,692.2302135,692.2302135,692.2302135,692.2302135,692.2302135,692.2302135,None,None,None,687.4899961,687.4899961,2.40059149999999,,688.5757944,,,,,,,,,,,,,,,,,,9,1,2024-06-17_12h50.31.669,robot_nback_sign,2022.2.5,59.89336585144313,
L_Head_Y_Back,False,3.0,robot,2.0,False,False,robot_stimuli\L_Head_Y_Back.mp4,9.0,0.0,0.0,0.0,0.0,0.0,32.0,32.0,32.0,,,,,,,,,,,,,692.2302135,692.2302135,None,,692.2302135,,,693.3403482,693.3403482,693.3403482,,n,696.9790111,696.9790111,696.9790111,696.9790111,696.9790111,696.9790111,696.9790111,696.9790111,None,None,None,692.2302135,692.2302135,2.371267799999913,,693.3403482,,,,,,,,,,,,,,,,,,9,1,2024-06-17_12h50.31.669,robot_nback_sign,2022.2.5,59.89336585144313,
L_Arm_Z_Back,True,3.0,robot,2.0,False,False,robot_stimuli\L_Arm_Z_Back.mp4,9.0,0.0,0.0,0.0,0.0,0.0,33.0,33.0,33.0,,,,,,,,,,,,,696.9790111,696.9790111,None,,696.9790111,698.062585,,698.062585,698.062585,698.062585,,c,701.7148209,701.7148209,701.7148209,701.7148209,701.7148209,701.7148209,701.7148209,701.7148209,None,None,None,696.9790111,696.9790111,1.4579541000000231,,698.062585,,,,,,,,,,,,,,,,,,9,1,2024-06-17_12h50.31.669,robot_nback_sign,2022.2.5,59.89336585144313,
L_Head_Y_Back,False,3.0,robot,2.0,False,False,robot_stimuli\L_Head_Y_Back.mp4,9.0,0.0,0.0,0.0,0.0,0.0,34.0,34.0,34.0,,,,,,,,,,,,,701.7148209,701.7148209,None,,701.7148209,,,702.8224536,702.8224536,702.8224536,,n,706.4623899999999,706.4623899999999,706.4623899999999,706.4623899999999,706.4623899999999,706.4623899999999,706.4623899999999,706.4623899999999,None,None,None,701.7148209,701.7148209,1.809287900000044,,702.8224536,,,,,,,,,,,,,,,,,,9,1,2024-06-17_12h50.31.669,robot_nback_sign,2022.2.5,59.89336585144313,
L_Head_Y_Back,True,3.0,robot,2.0,False,True,robot_stimuli\L_Head_Y_Back.mp4,9.0,0.0,0.0,0.0,0.0,0.0,35.0,35.0,35.0,,,,,,,,,,,,,706.4623899999999,706.4623899999999,None,,706.4623899999999,707.5390815,,707.5390815,707.5390815,707.5390815,,c,711.2043115,725.0665408,711.2043115,725.0665408,711.2043115,725.0665408,711.2043115,725.0665408,51.2962962962963,9.496102800000017,space,706.4623899999999,706.4623899999999,3.1321135000001448,13.787400699999893,707.5390815,,,,,,,,,,,,,,,,,,9,1,2024-06-17_12h50.31.669,robot_nback_sign,2022.2.5,59.89336585144313,
,,,,,,,,,0.0,0.0,0.0,0.0,,,,,,,,,,,,,,,,,,,,,,,,,,,,,,,,,,,,,,,,,,,,,725.0665408,725.0665408,725.0665408,c,10.493494299999924,,,,,,,,,,,,,9,1,2024-06-17_12h50.31.669,robot_nback_sign,2022.2.5,59.89336585144313,
G,False,3.0,letter,1.0,True,False,robot_stimuli\\filler.mp4,9.0,,,,,,,,,0.0,0.0,0.0,0.0,,,,,,,,,,,,,746.3287098999999,747.4022748,,,,,,,749.632082,749.632082,749.632082,749.632082,749.632082,749.632082,749.632082,749.632082,None,None,None,,,,,,,,,,,735.6181058,735.6181058,space,10.693251499999946,747.4022748,747.4022748,749.632082,None,,,,,9,1,2024-06-17_12h50.31.669,robot_nback_sign,2022.2.5,59.89336585144313,
N,False,3.0,letter,1.0,False,False,robot_stimuli\\filler.mp4,9.0,,,,,,,,,0.0,1.0,1.0,1.0,,,,,,,,,,,,,749.632082,,,,,,,,752.7264722,752.7264722,752.7264722,752.7264722,752.7264722,752.7264722,752.7264722,752.7264722,None,None,None,,,,,,,,,,,749.632082,749.632082,None,,750.7013701999999,750.7013701999999,752.7264722,None,749.632082,749.632082,,,9,1,2024-06-17_12h50.31.669,robot_nback_sign,2022.2.5,59.89336585144313,
X,False,3.0,letter,1.0,False,False,robot_stimuli\\filler.mp4,9.0,,,,,,,,,0.0,2.0,2.0,2.0,,,,,,,,,,,,,752.7264722,753.7843997,,,,,,,756.0058333999999,756.0058333999999,756.0058333999999,756.0058333999999,756.0058333999999,756.0058333999999,756.0058333999999,756.0058333999999,None,None,None,,,,,,,,,,,752.7264722,752.7264722,None,,753.7843997,753.7843997,756.0058333999999,None,752.7264722,752.7264722,,,9,1,2024-06-17_12h50.31.669,robot_nback_sign,2022.2.5,59.89336585144313,
T,False,3.0,letter,1.0,False,False,robot_stimuli\\filler.mp4,9.0,,,,,,,,,0.0,3.0,3.0,3.0,,,,,,,,,,,,,756.0058333999999,757.0657365,,,,,,,759.2937744,759.2937744,759.2937744,759.2937744,759.2937744,759.2937744,759.2937744,759.2937744,None,None,None,,,,,,,,,,,756.0058333999999,756.0058333999999,None,,757.0657365,757.0657365,759.2937744,n,756.0058333999999,756.0058333999999,1.0219909000000769,,9,1,2024-06-17_12h50.31.669,robot_nback_sign,2022.2.5,59.89336585144313,
N,True,3.0,letter,1.0,False,False,robot_stimuli\\filler.mp4,9.0,,,,,,,,,0.0,4.0,4.0,4.0,,,,,,,,,,,,,759.2937744,760.3519906,,,,,,,762.5811749,762.5811749,762.5811749,762.5811749,762.5811749,762.5811749,762.5811749,762.5811749,None,None,None,,,,,,,,,,,759.2937744,759.2937744,None,,760.3519906,760.3519906,762.5811749,c,759.2937744,759.2937744,0.7687665999999069,,9,1,2024-06-17_12h50.31.669,robot_nback_sign,2022.2.5,59.89336585144313,
X,True,3.0,letter,1.0,False,False,robot_stimuli\\filler.mp4,9.0,,,,,,,,,0.0,5.0,5.0,5.0,,,,,,,,,,,,,762.5811749,,,,,,,,765.881171,765.881171,765.881171,765.881171,765.881171,765.881171,765.881171,765.881171,None,None,None,,,,,,,,,,,762.5811749,762.5811749,None,,763.6515061,763.6515061,765.881171,c,762.5811749,762.5811749,0.8211141999998688,,9,1,2024-06-17_12h50.31.669,robot_nback_sign,2022.2.5,59.89336585144313,
Z,False,3.0,letter,1.0,False,False,robot_stimuli\\filler.mp4,9.0,,,,,,,,,0.0,6.0,6.0,6.0,,,,,,,,,,,,,765.881171,,,,,,,,768.9727206,768.9727206,768.9727206,768.9727206,768.9727206,768.9727206,768.9727206,768.9727206,None,None,None,,,,,,,,,,,765.881171,765.881171,None,,766.9514627,766.9514627,768.9727206,n,765.881171,765.881171,0.6964366000000553,,9,1,2024-06-17_12h50.31.669,robot_nback_sign,2022.2.5,59.89336585144313,
N,True,3.0,letter,1.0,False,False,robot_stimuli\\filler.mp4,9.0,,,,,,,,,0.0,7.0,7.0,7.0,,,,,,,,,,,,,768.9727206,770.0315469,,,,,,,772.2599213999999,772.2599213999999,772.2599213999999,772.2599213999999,772.2599213999999,772.2599213999999,772.2599213999999,772.2599213999999,None,None,None,,,,,,,,,,,768.9727206,768.9727206,None,,770.0315469,770.0315469,772.2599213999999,c,768.9727206,768.9727206,0.5371217999999942,,9,1,2024-06-17_12h50.31.669,robot_nback_sign,2022.2.5,59.89336585144313,
C,False,3.0,letter,1.0,False,False,robot_stimuli\\filler.mp4,9.0,,,,,,,,,0.0,8.0,8.0,8.0,,,,,,,,,,,,,772.2599213999999,773.3187760999999,,,,,,,775.5452305,775.5452305,775.5452305,775.5452305,775.5452305,775.5452305,775.5452305,775.5452305,None,None,None,,,,,,,,,,,772.2599213999999,772.2599213999999,None,,773.3187760999999,773.3187760999999,775.5452305,n,772.2599213999999,772.2599213999999,0.6418673999998816,,9,1,2024-06-17_12h50.31.669,robot_nback_sign,2022.2.5,59.89336585144313,
V,False,3.0,letter,1.0,False,False,robot_stimuli\\filler.mp4,9.0,,,,,,,,,0.0,9.0,9.0,9.0,,,,,,,,,,,,,775.5452305,776.6035734999999,,,,,,,778.6361769,778.6361769,778.6361769,778.6361769,778.6361769,778.6361769,778.6361769,778.6361769,None,None,None,,,,,,,,,,,775.5452305,775.5452305,None,,776.6035734999999,776.6035734999999,778.6361769,n,775.5452305,775.5452305,0.6995916000000477,,9,1,2024-06-17_12h50.31.669,robot_nback_sign,2022.2.5,59.89336585144313,
Q,False,3.0,letter,1.0,False,False,robot_stimuli\\filler.mp4,9.0,,,,,,,,,0.0,10.0,10.0,10.0,,,,,,,,,,,,,778.6361769,779.6976758999999,,,,,,,781.9277503,781.9277503,781.9277503,781.9277503,781.9277503,781.9277503,781.9277503,781.9277503,None,None,None,,,,,,,,,,,778.6361769,778.6361769,None,,779.6976758999999,779.6976758999999,781.9277503,n,778.6361769,778.6361769,0.7034137000000271,,9,1,2024-06-17_12h50.31.669,robot_nback_sign,2022.2.5,59.89336585144313,
G,False,3.0,letter,1.0,False,False,robot_stimuli\\filler.mp4,9.0,,,,,,,,,0.0,11.0,11.0,11.0,,,,,,,,,,,,,781.9277503,782.9817356,,,,,,,785.0150881999999,785.0150881999999,785.0150881999999,785.0150881999999,785.0150881999999,785.0150881999999,785.0150881999999,785.0150881999999,None,None,None,,,,,,,,,,,781.9277503,781.9277503,None,,782.9817356,782.9817356,785.0150881999999,n,781.9277503,781.9277503,0.7870330000001502,,9,1,2024-06-17_12h50.31.669,robot_nback_sign,2022.2.5,59.89336585144313,
X,False,3.0,letter,1.0,False,False,robot_stimuli\\filler.mp4,9.0,,,,,,,,,0.0,12.0,12.0,12.0,,,,,,,,,,,,,785.0150881999999,,,,,,,,788.3145930999999,788.3145930999999,788.3145930999999,788.3145930999999,788.3145930999999,788.3145930999999,788.3145930999999,788.3145930999999,None,None,None,,,,,,,,,,,785.0150881999999,785.0150881999999,None,,786.0808324999999,786.0808324999999,788.3145930999999,n,785.0150881999999,785.0150881999999,0.6071930000000236,,9,1,2024-06-17_12h50.31.669,robot_nback_sign,2022.2.5,59.89336585144313,
Q,True,3.0,letter,1.0,False,False,robot_stimuli\\filler.mp4,9.0,,,,,,,,,0.0,13.0,13.0,13.0,,,,,,,,,,,,,788.3145930999999,,,,,,,,791.6093486999999,791.6093486999999,791.6093486999999,791.6093486999999,791.6093486999999,791.6093486999999,791.6093486999999,791.6093486999999,None,None,None,,,,,,,,,,,788.3145930999999,788.3145930999999,None,,789.3824963999999,789.3824963999999,791.6093486999999,c,788.3145930999999,788.3145930999999,0.8100467999998671,,9,1,2024-06-17_12h50.31.669,robot_nback_sign,2022.2.5,59.89336585144313,
M,False,3.0,letter,1.0,False,False,robot_stimuli\\filler.mp4,9.0,,,,,,,,,0.0,14.0,14.0,14.0,,,,,,,,,,,,,791.6093486999999,792.6646297,,,,,,,794.6910487,794.6910487,794.6910487,794.6910487,794.6910487,794.6910487,794.6910487,794.6910487,None,None,None,,,,,,,,,,,791.6093486999999,791.6093486999999,None,,792.6646297,792.6646297,794.6910487,n,791.6093486999999,791.6093486999999,0.9674832999999978,,9,1,2024-06-17_12h50.31.669,robot_nback_sign,2022.2.5,59.89336585144313,
V,False,3.0,letter,1.0,False,False,robot_stimuli\\filler.mp4,9.0,,,,,,,,,0.0,15.0,15.0,15.0,,,,,,,,,,,,,794.6910487,795.748787,,,,,,,797.9814163,797.9814163,797.9814163,797.9814163,797.9814163,797.9814163,797.9814163,797.9814163,None,None,None,,,,,,,,,,,794.6910487,794.6910487,None,,795.748787,795.748787,797.9814163,n,794.6910487,794.6910487,0.6679367999999783,,9,1,2024-06-17_12h50.31.669,robot_nback_sign,2022.2.5,59.89336585144313,
S,False,3.0,letter,1.0,False,False,robot_stimuli\\filler.mp4,9.0,,,,,,,,,0.0,16.0,16.0,16.0,,,,,,,,,,,,,797.9814163,,,,,,,,801.0855164,801.0855164,801.0855164,801.0855164,801.0855164,801.0855164,801.0855164,801.0855164,None,None,None,,,,,,,,,,,797.9814163,797.9814163,None,,799.05103,799.05103,801.0855164,n,797.9814163,797.9814163,0.5880337000000679,,9,1,2024-06-17_12h50.31.669,robot_nback_sign,2022.2.5,59.89336585144313,
S,False,3.0,letter,1.0,False,False,robot_stimuli\\filler.mp4,9.0,,,,,,,,,0.0,17.0,17.0,17.0,,,,,,,,,,,,,801.0855164,802.1478055,,,,,,,804.1780372999999,804.1780372999999,804.1780372999999,804.1780372999999,804.1780372999999,804.1780372999999,804.1780372999999,804.1780372999999,None,None,None,,,,,,,,,,,801.0855164,801.0855164,None,,802.1478055,802.1478055,804.1780372999999,n,801.0855164,801.0855164,1.1248550999999622,,9,1,2024-06-17_12h50.31.669,robot_nback_sign,2022.2.5,59.89336585144313,
J,False,3.0,letter,1.0,False,False,robot_stimuli\\filler.mp4,9.0,,,,,,,,,0.0,18.0,18.0,18.0,,,,,,,,,,,,,804.1780372999999,805.234924,,,,,,,807.2618417,807.2618417,807.2618417,807.2618417,807.2618417,807.2618417,807.2618417,807.2618417,None,None,None,,,,,,,,,,,804.1780372999999,804.1780372999999,None,,805.234924,805.234924,807.2618417,n,804.1780372999999,804.1780372999999,0.8929985000000613,,9,1,2024-06-17_12h50.31.669,robot_nback_sign,2022.2.5,59.89336585144313,
H,False,3.0,letter,1.0,False,False,robot_stimuli\\filler.mp4,9.0,,,,,,,,,0.0,19.0,19.0,19.0,,,,,,,,,,,,,807.2618417,808.3143444,,,,,,,810.547145,810.547145,810.547145,810.547145,810.547145,810.547145,810.547145,810.547145,None,None,None,,,,,,,,,,,807.2618417,807.2618417,None,,808.3143444,808.3143444,810.547145,n,807.2618417,807.2618417,0.686707200000086,,9,1,2024-06-17_12h50.31.669,robot_nback_sign,2022.2.5,59.89336585144313,
D,False,3.0,letter,1.0,False,False,robot_stimuli\\filler.mp4,9.0,,,,,,,,,0.0,20.0,20.0,20.0,,,,,,,,,,,,,810.547145,,,,,,,,813.8405968,813.8405968,813.8405968,813.8405968,813.8405968,813.8405968,813.8405968,813.8405968,None,None,None,,,,,,,,,,,810.547145,810.547145,None,,811.6149446,811.6149446,813.8405968,n,810.547145,810.547145,0.528723900000017,,9,1,2024-06-17_12h50.31.669,robot_nback_sign,2022.2.5,59.89336585144313,
F,False,3.0,letter,1.0,False,False,robot_stimuli\\filler.mp4,9.0,,,,,,,,,0.0,21.0,21.0,21.0,,,,,,,,,,,,,813.8405968,814.8995517999999,,,,,,,817.1298489999999,817.1298489999999,817.1298489999999,817.1298489999999,817.1298489999999,817.1298489999999,817.1298489999999,817.1298489999999,None,None,None,,,,,,,,,,,813.8405968,813.8405968,None,,814.8995517999999,814.8995517999999,817.1298489999999,n,813.8405968,813.8405968,0.8768373999998573,,9,1,2024-06-17_12h50.31.669,robot_nback_sign,2022.2.5,59.89336585144313,
V,False,3.0,letter,1.0,False,False,robot_stimuli\\filler.mp4,9.0,,,,,,,,,0.0,22.0,22.0,22.0,,,,,,,,,,,,,817.1298489999999,,,,,,,,820.2352453999999,820.2352453999999,820.2352453999999,820.2352453999999,820.2352453999999,820.2352453999999,820.2352453999999,820.2352453999999,None,None,None,,,,,,,,,,,817.1298489999999,817.1298489999999,None,,818.2084318999999,818.2084318999999,820.2352453999999,c,817.1298489999999,817.1298489999999,1.1521235999998396,,9,1,2024-06-17_12h50.31.669,robot_nback_sign,2022.2.5,59.89336585144313,
Q,False,3.0,letter,1.0,False,False,robot_stimuli\\filler.mp4,9.0,,,,,,,,,0.0,23.0,23.0,23.0,,,,,,,,,,,,,820.2352453999999,821.2985334,,,,,,,823.5264594,823.5264594,823.5264594,823.5264594,823.5264594,823.5264594,823.5264594,823.5264594,None,None,None,,,,,,,,,,,820.2352453999999,820.2352453999999,None,,821.2985334,821.2985334,823.5264594,n,820.2352453999999,820.2352453999999,0.5328030999999953,,9,1,2024-06-17_12h50.31.669,robot_nback_sign,2022.2.5,59.89336585144313,
Z,False,3.0,letter,1.0,False,False,robot_stimuli\\filler.mp4,9.0,,,,,,,,,0.0,24.0,24.0,24.0,,,,,,,,,,,,,823.5264594,824.5823868,,,,,,,826.8090377,826.8090377,826.8090377,826.8090377,826.8090377,826.8090377,826.8090377,826.8090377,None,None,None,,,,,,,,,,,823.5264594,823.5264594,None,,824.5823868,824.5823868,826.8090377,n,823.5264594,823.5264594,0.9621663999998588,,9,1,2024-06-17_12h50.31.669,robot_nback_sign,2022.2.5,59.89336585144313,
T,False,3.0,letter,1.0,False,False,robot_stimuli\\filler.mp4,9.0,,,,,,,,,0.0,25.0,25.0,25.0,,,,,,,,,,,,,826.8090377,827.8660393,,,,,,,829.8908994,829.8908994,829.8908994,829.8908994,829.8908994,829.8908994,829.8908994,829.8908994,None,None,None,,,,,,,,,,,826.8090377,826.8090377,None,,827.8660393,827.8660393,829.8908994,n,826.8090377,826.8090377,0.6702218000000073,,9,1,2024-06-17_12h50.31.669,robot_nback_sign,2022.2.5,59.89336585144313,
Q,True,3.0,letter,1.0,False,False,robot_stimuli\\filler.mp4,9.0,,,,,,,,,0.0,26.0,26.0,26.0,,,,,,,,,,,,,829.8908994,830.948798,,,,,,,833.1776793,833.1776793,833.1776793,833.1776793,833.1776793,833.1776793,833.1776793,833.1776793,None,None,None,,,,,,,,,,,829.8908994,829.8908994,None,,830.948798,830.948798,833.1776793,c,829.8908994,829.8908994,0.6923822999999345,,9,1,2024-06-17_12h50.31.669,robot_nback_sign,2022.2.5,59.89336585144313,
L,False,3.0,letter,1.0,False,False,robot_stimuli\\filler.mp4,9.0,,,,,,,,,0.0,27.0,27.0,27.0,,,,,,,,,,,,,833.1776793,834.2327699,,,,,,,836.2690607,836.2690607,836.2690607,836.2690607,836.2690607,836.2690607,836.2690607,836.2690607,None,None,None,,,,,,,,,,,833.1776793,833.1776793,None,,834.2327699,834.2327699,836.2690607,n,833.1776793,833.1776793,0.6307530999999642,,9,1,2024-06-17_12h50.31.669,robot_nback_sign,2022.2.5,59.89336585144313,
R,False,3.0,letter,1.0,False,False,robot_stimuli\\filler.mp4,9.0,,,,,,,,,0.0,28.0,28.0,28.0,,,,,,,,,,,,,836.2690607,837.332513,,,,,,,839.5643973,839.5643973,839.5643973,839.5643973,839.5643973,839.5643973,839.5643973,839.5643973,None,None,None,,,,,,,,,,,836.2690607,836.2690607,None,,837.332513,837.332513,839.5643973,n,836.2690607,836.2690607,0.7001676999999233,,9,1,2024-06-17_12h50.31.669,robot_nback_sign,2022.2.5,59.89336585144313,
T,False,3.0,letter,1.0,False,False,robot_stimuli\\filler.mp4,9.0,,,,,,,,,0.0,29.0,29.0,29.0,,,,,,,,,,,,,839.5643973,,,,,,,,842.8626633,842.8626633,842.8626633,842.8626633,842.8626633,842.8626633,842.8626633,842.8626633,None,None,None,,,,,,,,,,,839.5643973,839.5643973,None,,840.633693,840.633693,842.8626633,n,839.5643973,839.5643973,1.046670299999931,,9,1,2024-06-17_12h50.31.669,robot_nback_sign,2022.2.5,59.89336585144313,
C,False,3.0,letter,1.0,False,False,robot_stimuli\\filler.mp4,9.0,,,,,,,,,0.0,30.0,30.0,30.0,,,,,,,,,,,,,842.8626633,843.9149773999999,,,,,,,846.1446035999999,846.1446035999999,846.1446035999999,846.1446035999999,846.1446035999999,846.1446035999999,846.1446035999999,846.1446035999999,None,None,None,,,,,,,,,,,842.8626633,842.8626633,None,,843.9149773999999,843.9149773999999,846.1446035999999,n,842.8626633,842.8626633,1.0615523999998402,,9,1,2024-06-17_12h50.31.669,robot_nback_sign,2022.2.5,59.89336585144313,
R,True,3.0,letter,1.0,False,False,robot_stimuli\\filler.mp4,9.0,,,,,,,,,0.0,31.0,31.0,31.0,,,,,,,,,,,,,846.1446035999999,847.2070379999999,,,,,,,849.2344400999999,849.2344400999999,849.2344400999999,849.2344400999999,849.2344400999999,849.2344400999999,849.2344400999999,849.2344400999999,None,None,None,,,,,,,,,,,846.1446035999999,846.1446035999999,None,,847.2070379999999,847.2070379999999,849.2344400999999,c,846.1446035999999,846.1446035999999,0.6488516000000288,,9,1,2024-06-17_12h50.31.669,robot_nback_sign,2022.2.5,59.89336585144313,
T,True,3.0,letter,1.0,False,False,robot_stimuli\\filler.mp4,9.0,,,,,,,,,0.0,32.0,32.0,32.0,,,,,,,,,,,,,849.2344400999999,850.2999120999999,,,,,,,852.3354132000001,852.3354132000001,852.3354132000001,852.3354132000001,852.3354132000001,852.3354132000001,852.3354132000001,852.3354132000001,None,None,None,,,,,,,,,,,849.2344400999999,849.2344400999999,None,,850.2999120999999,850.2999120999999,852.3354132000001,c,849.2344400999999,849.2344400999999,0.7478353999998433,,9,1,2024-06-17_12h50.31.669,robot_nback_sign,2022.2.5,59.89336585144313,
X,False,3.0,letter,1.0,False,False,robot_stimuli\\filler.mp4,9.0,,,,,,,,,0.0,33.0,33.0,33.0,,,,,,,,,,,,,852.3354132000001,853.3998343,,,,,,,855.4345331000001,855.4345331000001,855.4345331000001,855.4345331000001,855.4345331000001,855.4345331000001,855.4345331000001,855.4345331000001,None,None,None,,,,,,,,,,,852.3354132000001,852.3354132000001,None,,853.3998343,853.3998343,855.4345331000001,n,852.3354132000001,852.3354132000001,0.6484431999998321,,9,1,2024-06-17_12h50.31.669,robot_nback_sign,2022.2.5,59.89336585144313,
J,False,3.0,letter,1.0,False,False,robot_stimuli\\filler.mp4,9.0,,,,,,,,,0.0,34.0,34.0,34.0,,,,,,,,,,,,,855.4345331000001,856.4984873,,,,,,,858.7319779000001,858.7319779000001,858.7319779000001,858.7319779000001,858.7319779000001,858.7319779000001,858.7319779000001,858.7319779000001,None,None,None,,,,,,,,,,,855.4345331000001,855.4345331000001,None,,856.4984873,856.4984873,858.7319779000001,n,855.4345331000001,855.4345331000001,0.7337545999999691,,9,1,2024-06-17_12h50.31.669,robot_nback_sign,2022.2.5,59.89336585144313,
L,False,3.0,letter,1.0,False,False,robot_stimuli\\filler.mp4,9.0,,,,,,,,,0.0,35.0,35.0,35.0,,,,,,,,,,,,,858.7319779000001,,,,,,,,861.8349061,861.8349061,861.8349061,861.8349061,861.8349061,861.8349061,861.8349061,861.8349061,None,None,None,,,,,,,,,,,858.7319779000001,858.7319779000001,None,,859.804994,859.804994,861.8349061,n,858.7319779000001,858.7319779000001,0.6913077000000101,,9,1,2024-06-17_12h50.31.669,robot_nback_sign,2022.2.5,59.89336585144313,
P,False,3.0,letter,1.0,False,False,robot_stimuli\\filler.mp4,9.0,,,,,,,,,0.0,36.0,36.0,36.0,,,,,,,,,,,,,861.8349061,862.9001698999999,,,,,,,864.9317848,864.9317848,864.9317848,864.9317848,864.9317848,864.9317848,864.9317848,864.9317848,None,None,None,,,,,,,,,,,861.8349061,861.8349061,None,,862.9001698999999,862.9001698999999,864.9317848,n,861.8349061,861.8349061,0.8276587999999663,,9,1,2024-06-17_12h50.31.669,robot_nback_sign,2022.2.5,59.89336585144313,
J,True,3.0,letter,1.0,False,False,robot_stimuli\\filler.mp4,9.0,,,,,,,,,0.0,37.0,37.0,37.0,,,,,,,,,,,,,864.9317848,,,,,,,,868.2264351999999,868.2264351999999,868.2264351999999,868.2264351999999,868.2264351999999,868.2264351999999,868.2264351999999,868.2264351999999,None,None,None,,,,,,,,,,,864.9317848,864.9317848,None,,866.000165,866.000165,868.2264351999999,c,864.9317848,864.9317848,0.7276938999999345,,9,1,2024-06-17_12h50.31.669,robot_nback_sign,2022.2.5,59.89336585144313,
G,False,3.0,letter,1.0,False,False,robot_stimuli\\filler.mp4,9.0,,,,,,,,,0.0,38.0,38.0,38.0,,,,,,,,,,,,,868.2264351999999,869.2825161,,,,,,,871.5127018,871.5127018,871.5127018,871.5127018,871.5127018,871.5127018,871.5127018,871.5127018,None,None,None,,,,,,,,,,,868.2264351999999,868.2264351999999,None,,869.2825161,869.2825161,871.5127018,n,868.2264351999999,868.2264351999999,0.6538192999999808,,9,1,2024-06-17_12h50.31.669,robot_nback_sign,2022.2.5,59.89336585144313,
P,True,3.0,letter,1.0,False,False,robot_stimuli\\filler.mp4,9.0,,,,,,,,,0.0,39.0,39.0,39.0,,,,,,,,,,,,,871.5127018,872.5661895,,,,,,,874.7989117999999,874.7989117999999,874.7989117999999,874.7989117999999,874.7989117999999,874.7989117999999,874.7989117999999,874.7989117999999,None,None,None,,,,,,,,,,,871.5127018,871.5127018,None,,872.5661895,872.5661895,874.7989117999999,c,871.5127018,871.5127018,0.7622230999998862,,9,1,2024-06-17_12h50.31.669,robot_nback_sign,2022.2.5,59.89336585144313,
Q,False,3.0,letter,1.0,False,False,robot_stimuli\\filler.mp4,9.0,,,,,,,,,0.0,40.0,40.0,40.0,,,,,,,,,,,,,874.7989117999999,,,,,,,,878.0996048999999,878.0996048999999,878.0996048999999,878.0996048999999,878.0996048999999,878.0996048999999,878.0996048999999,878.0996048999999,None,None,None,,,,,,,,,,,874.7989117999999,874.7989117999999,None,,875.8659171,875.8659171,878.0996048999999,n,874.7989117999999,874.7989117999999,0.5513721999999177,,9,1,2024-06-17_12h50.31.669,robot_nback_sign,2022.2.5,59.89336585144313,
T,False,3.0,letter,1.0,False,False,robot_stimuli\\filler.mp4,9.0,,,,,,,,,0.0,41.0,41.0,41.0,,,,,,,,,,,,,878.0996048999999,879.1662207999999,,,,,,,881.3967538999999,881.3967538999999,881.3967538999999,881.3967538999999,881.3967538999999,881.3967538999999,881.3967538999999,881.3967538999999,None,None,None,,,,,,,,,,,878.0996048999999,878.0996048999999,None,,879.1662207999999,879.1662207999999,881.3967538999999,n,878.0996048999999,878.0996048999999,0.8094663000000253,,9,1,2024-06-17_12h50.31.669,robot_nback_sign,2022.2.5,59.89336585144313,
N,False,3.0,letter,1.0,False,False,robot_stimuli\\filler.mp4,9.0,,,,,,,,,0.0,42.0,42.0,42.0,,,,,,,,,,,,,881.3967538999999,,,,,,,,884.6941412,884.6941412,884.6941412,884.6941412,884.6941412,884.6941412,884.6941412,884.6941412,None,None,None,,,,,,,,,,,881.3967538999999,881.3967538999999,None,,882.4654085999999,882.4654085999999,884.6941412,n,881.3967538999999,881.3967538999999,0.7351210000000208,,9,1,2024-06-17_12h50.31.669,robot_nback_sign,2022.2.5,59.89336585144313,
H,False,3.0,letter,1.0,False,False,robot_stimuli\\filler.mp4,9.0,,,,,,,,,0.0,43.0,43.0,43.0,,,,,,,,,,,,,884.6941412,885.7501048,,,,,,,887.9779382999999,887.9779382999999,887.9779382999999,887.9779382999999,887.9779382999999,887.9779382999999,887.9779382999999,887.9779382999999,None,None,None,,,,,,,,,,,884.6941412,884.6941412,None,,885.7501048,885.7501048,887.9779382999999,n,884.6941412,884.6941412,0.7224746999998786,,9,1,2024-06-17_12h50.31.669,robot_nback_sign,2022.2.5,59.89336585144313,
T,True,3.0,letter,1.0,False,False,robot_stimuli\\filler.mp4,9.0,,,,,,,,,0.0,44.0,44.0,44.0,,,,,,,,,,,,,887.9779382999999,889.0332404,,,,,,,891.2649591999999,891.2649591999999,891.2649591999999,891.2649591999999,891.2649591999999,891.2649591999999,891.2649591999999,891.2649591999999,None,None,None,,,,,,,,,,,887.9779382999999,887.9779382999999,None,,889.0332404,889.0332404,891.2649591999999,c,887.9779382999999,887.9779382999999,0.8380258999999057,,9,1,2024-06-17_12h50.31.669,robot_nback_sign,2022.2.5,59.89336585144313,
V,False,3.0,letter,1.0,False,False,robot_stimuli\\filler.mp4,9.0,,,,,,,,,0.0,45.0,45.0,45.0,,,,,,,,,,,,,891.2649591999999,,,,,,,,894.3595078,894.3595078,894.3595078,894.3595078,894.3595078,894.3595078,894.3595078,894.3595078,None,None,None,,,,,,,,,,,891.2649591999999,891.2649591999999,None,,892.3337872999999,892.3337872999999,894.3595078,n,891.2649591999999,891.2649591999999,0.7698085999998909,,9,1,2024-06-17_12h50.31.669,robot_nback_sign,2022.2.5,59.89336585144313,
P,False,3.0,letter,1.0,False,False,robot_stimuli\\filler.mp4,9.0,,,,,,,,,0.0,46.0,46.0,46.0,,,,,,,,,,,,,894.3595078,895.4168731999999,,,,,,,897.4498826999999,897.4498826999999,897.4498826999999,897.4498826999999,897.4498826999999,897.4498826999999,897.4498826999999,897.4498826999999,None,None,None,,,,,,,,,,,894.3595078,894.3595078,None,,895.4168731999999,895.4168731999999,897.4498826999999,n,894.3595078,894.3595078,1.1911249999999145,,9,1,2024-06-17_12h50.31.669,robot_nback_sign,2022.2.5,59.89336585144313,
D,False,3.0,letter,1.0,False,False,robot_stimuli\\filler.mp4,9.0,,,,,,,,,0.0,47.0,47.0,47.0,,,,,,,,,,,,,897.4498826999999,898.5163678999999,,,,,,,900.748338,900.748338,900.748338,900.748338,900.748338,900.748338,900.748338,900.748338,None,None,None,,,,,,,,,,,897.4498826999999,897.4498826999999,None,,898.5163678999999,898.5163678999999,900.748338,n,897.4498826999999,897.4498826999999,0.8190845999998544,,9,1,2024-06-17_12h50.31.669,robot_nback_sign,2022.2.5,59.89336585144313,
R,False,3.0,letter,1.0,False,False,robot_stimuli\\filler.mp4,9.0,,,,,,,,,0.0,48.0,48.0,48.0,,,,,,,,,,,,,900.748338,,,,,,,,904.0423395,904.0423395,904.0423395,904.0423395,904.0423395,904.0423395,904.0423395,904.0423395,None,None,None,,,,,,,,,,,900.748338,900.748338,None,,901.8176401,901.8176401,904.0423395,n,900.748338,900.748338,0.6547678999998823,,9,1,2024-06-17_12h50.31.669,robot_nback_sign,2022.2.5,59.89336585144313,
G,False,3.0,letter,1.0,False,True,robot_stimuli\\filler.mp4,9.0,,,,,,,,,0.0,49.0,49.0,49.0,,,,,,,,,,,,,904.0423395,905.1001395,,,,,,,907.1551894,922.9712542,907.1551894,922.9712542,907.1551894,922.9712542,907.1551894,922.9712542,41.41975308641975,12.378223100000014,space,,,,15.765144599999845,,,,,,,904.0423395,904.0423395,None,,905.1001395,905.1001395,907.1551894,n,904.0423395,904.0423395,0.6840903000000651,,9,1,2024-06-17_12h50.31.669,robot_nback_sign,2022.2.5,59.89336585144313,
Q,False,2.0,letter,1.0,True,False,robot_stimuli\\filler.mp4,9.0,,,,,,,,,0.0,50.0,50.0,50.0,,,,,,,,,,,,,938.645664,939.7041282,,,,,,,941.7374766,941.7374766,941.7374766,941.7374766,941.7374766,941.7374766,941.7374766,941.7374766,None,None,None,,,,,,,,,,,922.9712542,922.9712542,space,15.65288770000015,939.7041282,939.7041282,941.7374766,n,,,0.5761307999999588,,9,1,2024-06-17_12h50.31.669,robot_nback_sign,2022.2.5,59.89336585144313,
P,False,2.0,letter,1.0,False,False,robot_stimuli\\filler.mp4,9.0,,,,,,,,,0.0,51.0,51.0,51.0,,,,,,,,,,,,,941.7374766,942.7996086,,,,,,,945.0245838,945.0245838,945.0245838,945.0245838,945.0245838,945.0245838,945.0245838,945.0245838,None,None,None,,,,,,,,,,,941.7374766,941.7374766,None,,942.7996086,942.7996086,945.0245838,n,941.7374766,941.7374766,0.409497899999991,,9,1,2024-06-17_12h50.31.669,robot_nback_sign,2022.2.5,59.89336585144313,
W,False,2.0,letter,1.0,False,False,robot_stimuli\\filler.mp4,9.0,,,,,,,,,0.0,52.0,52.0,52.0,,,,,,,,,,,,,945.0245838,946.0831268,,,,,,,948.1169844,948.1169844,948.1169844,948.1169844,948.1169844,948.1169844,948.1169844,948.1169844,None,None,None,,,,,,,,,,,945.0245838,945.0245838,None,,946.0831268,946.0831268,948.1169844,n,945.0245838,945.0245838,0.6781073000000504,,9,1,2024-06-17_12h50.31.669,robot_nback_sign,2022.2.5,59.89336585144313,
P,True,2.0,letter,1.0,False,False,robot_stimuli\\filler.mp4,9.0,,,,,,,,,0.0,53.0,53.0,53.0,,,,,,,,,,,,,948.1169844,949.1814173,,,,,,,951.2177547,951.2177547,951.2177547,951.2177547,951.2177547,951.2177547,951.2177547,951.2177547,None,None,None,,,,,,,,,,,948.1169844,948.1169844,None,,949.1814173,949.1814173,951.2177547,c,948.1169844,948.1169844,0.5797687999998686,,9,1,2024-06-17_12h50.31.669,robot_nback_sign,2022.2.5,59.89336585144313,
W,True,2.0,letter,1.0,False,False,robot_stimuli\\filler.mp4,9.0,,,,,,,,,0.0,54.0,54.0,54.0,,,,,,,,,,,,,951.2177547,952.2833831,,,,,,,954.5091945,954.5091945,954.5091945,954.5091945,954.5091945,954.5091945,954.5091945,954.5091945,None,None,None,,,,,,,,,,,951.2177547,951.2177547,None,,952.2833831,952.2833831,954.5091945,c,951.2177547,951.2177547,0.8601472999999658,,9,1,2024-06-17_12h50.31.669,robot_nback_sign,2022.2.5,59.89336585144313,
T,False,2.0,letter,1.0,False,False,robot_stimuli\\filler.mp4,9.0,,,,,,,,,0.0,55.0,55.0,55.0,,,,,,,,,,,,,954.5091945,955.5661081,,,,,,,957.7920769,957.7920769,957.7920769,957.7920769,957.7920769,957.7920769,957.7920769,957.7920769,None,None,None,,,,,,,,,,,954.5091945,954.5091945,None,,955.5661081,955.5661081,957.7920769,n,954.5091945,954.5091945,0.5953462999999317,,9,1,2024-06-17_12h50.31.669,robot_nback_sign,2022.2.5,59.89336585144313,
G,False,2.0,letter,1.0,False,False,robot_stimuli\\filler.mp4,9.0,,,,,,,,,0.0,56.0,56.0,56.0,,,,,,,,,,,,,957.7920769,958.8496804,,,,,,,961.0767705,961.0767705,961.0767705,961.0767705,961.0767705,961.0767705,961.0767705,961.0767705,None,None,None,,,,,,,,,,,957.7920769,957.7920769,None,,958.8496804,958.8496804,961.0767705,n,957.7920769,957.7920769,0.7176898999999537,,9,1,2024-06-17_12h50.31.669,robot_nback_sign,2022.2.5,59.89336585144313,
K,False,2.0,letter,1.0,False,False,robot_stimuli\\filler.mp4,9.0,,,,,,,,,0.0,57.0,57.0,57.0,,,,,,,,,,,,,961.0767705,962.1366245,,,,,,,964.1687089,964.1687089,964.1687089,964.1687089,964.1687089,964.1687089,964.1687089,964.1687089,None,None,None,,,,,,,,,,,961.0767705,961.0767705,None,,962.1366245,962.1366245,964.1687089,n,961.0767705,961.0767705,0.8244095000000868,,9,1,2024-06-17_12h50.31.669,robot_nback_sign,2022.2.5,59.89336585144313,
R,False,2.0,letter,1.0,False,False,robot_stimuli\\filler.mp4,9.0,,,,,,,,,0.0,58.0,58.0,58.0,,,,,,,,,,,,,964.1687089,965.2330674,,,,,,,967.2620482,967.2620482,967.2620482,967.2620482,967.2620482,967.2620482,967.2620482,967.2620482,None,None,None,,,,,,,,,,,964.1687089,964.1687089,None,,965.2330674,965.2330674,967.2620482,n,964.1687089,964.1687089,0.7274615999998275,,9,1,2024-06-17_12h50.31.669,robot_nback_sign,2022.2.5,59.89336585144313,
N,False,2.0,letter,1.0,False,False,robot_stimuli\\filler.mp4,9.0,,,,,,,,,0.0,59.0,59.0,59.0,,,,,,,,,,,,,967.2620482,968.316214,,,,,,,970.5508474,970.5508474,970.5508474,970.5508474,970.5508474,970.5508474,970.5508474,970.5508474,None,None,None,,,,,,,,,,,967.2620482,967.2620482,None,,968.316214,968.316214,970.5508474,n,967.2620482,967.2620482,0.6203315999999575,,9,1,2024-06-17_12h50.31.669,robot_nback_sign,2022.2.5,59.89336585144313,
R,True,2.0,letter,1.0,False,False,robot_stimuli\\filler.mp4,9.0,,,,,,,,,0.0,60.0,60.0,60.0,,,,,,,,,,,,,970.5508474,971.6159618,,,,,,,973.8491095,973.8491095,973.8491095,973.8491095,973.8491095,973.8491095,973.8491095,973.8491095,None,None,None,,,,,,,,,,,970.5508474,970.5508474,None,,971.6159618,971.6159618,973.8491095,c,970.5508474,970.5508474,0.5194707999997661,,9,1,2024-06-17_12h50.31.669,robot_nback_sign,2022.2.5,59.89336585144313,
Z,False,2.0,letter,1.0,False,False,robot_stimuli\\filler.mp4,9.0,,,,,,,,,0.0,61.0,61.0,61.0,,,,,,,,,,,,,973.8491095,,,,,,,,977.1470381,977.1470381,977.1470381,977.1470381,977.1470381,977.1470381,977.1470381,977.1470381,None,None,None,,,,,,,,,,,973.8491095,973.8491095,None,,974.9158045,974.9158045,977.1470381,n,973.8491095,973.8491095,0.6993892999999787,,9,1,2024-06-17_12h50.31.669,robot_nback_sign,2022.2.5,59.89336585144313,
C,False,2.0,letter,1.0,False,False,robot_stimuli\\filler.mp4,9.0,,,,,,,,,0.0,62.0,62.0,62.0,,,,,,,,,,,,,977.1470381,,,,,,,,980.4434819,980.4434819,980.4434819,980.4434819,980.4434819,980.4434819,980.4434819,980.4434819,None,None,None,,,,,,,,,,,977.1470381,977.1470381,None,,978.216539,978.216539,980.4434819,n,977.1470381,977.1470381,0.6952176000000634,,9,1,2024-06-17_12h50.31.669,robot_nback_sign,2022.2.5,59.89336585144313,
J,False,2.0,letter,1.0,False,False,robot_stimuli\\filler.mp4,9.0,,,,,,,,,0.0,63.0,63.0,63.0,,,,,,,,,,,,,980.4434819,981.5010795,,,,,,,983.7312609,983.7312609,983.7312609,983.7312609,983.7312609,983.7312609,983.7312609,983.7312609,None,None,None,,,,,,,,,,,980.4434819,980.4434819,None,,981.5010795,981.5010795,983.7312609,n,980.4434819,980.4434819,0.6191972000000021,,9,1,2024-06-17_12h50.31.669,robot_nback_sign,2022.2.5,59.89336585144313,
C,True,2.0,letter,1.0,False,False,robot_stimuli\\filler.mp4,9.0,,,,,,,,,0.0,64.0,64.0,64.0,,,,,,,,,,,,,983.7312609,,,,,,,,987.0333555,987.0333555,987.0333555,987.0333555,987.0333555,987.0333555,987.0333555,987.0333555,None,None,None,,,,,,,,,,,983.7312609,983.7312609,None,,984.7996668,984.7996668,987.0333555,c,983.7312609,983.7312609,0.6164842999997688,,9,1,2024-06-17_12h50.31.669,robot_nback_sign,2022.2.5,59.89336585144313,
H,False,2.0,letter,1.0,False,False,robot_stimuli\\filler.mp4,9.0,,,,,,,,,0.0,65.0,65.0,65.0,,,,,,,,,,,,,987.0333555,988.0983652,,,,,,,990.3223703,990.3223703,990.3223703,990.3223703,990.3223703,990.3223703,990.3223703,990.3223703,None,None,None,,,,,,,,,,,987.0333555,987.0333555,None,,988.0983652,988.0983652,990.3223703,n,987.0333555,987.0333555,0.8217978000000983,,9,1,2024-06-17_12h50.31.669,robot_nback_sign,2022.2.5,59.89336585144313,
C,True,2.0,letter,1.0,False,False,robot_stimuli\\filler.mp4,9.0,,,,,,,,,0.0,66.0,66.0,66.0,,,,,,,,,,,,,990.3223703,991.393094,,,,,,,993.4287016,993.4287016,993.4287016,993.4287016,993.4287016,993.4287016,993.4287016,993.4287016,None,None,None,,,,,,,,,,,990.3223703,990.3223703,None,,991.393094,991.393094,993.4287016,c,990.3223703,990.3223703,0.6307843000000446,,9,1,2024-06-17_12h50.31.669,robot_nback_sign,2022.2.5,59.89336585144313,
H,True,2.0,letter,1.0,False,False,robot_stimuli\\filler.mp4,9.0,,,,,,,,,0.0,67.0,67.0,67.0,,,,,,,,,,,,,993.4287016,994.4916994,,,,,,,996.5208441,996.5208441,996.5208441,996.5208441,996.5208441,996.5208441,996.5208441,996.5208441,None,None,None,,,,,,,,,,,993.4287016,993.4287016,None,,994.4916994,994.4916994,996.5208441,c,993.4287016,993.4287016,0.7158133999999734,,9,1,2024-06-17_12h50.31.669,robot_nback_sign,2022.2.5,59.89336585144313,
W,False,2.0,letter,1.0,False,False,robot_stimuli\\filler.mp4,9.0,,,,,,,,,0.0,68.0,68.0,68.0,,,,,,,,,,,,,996.5208441,997.5929443,,,,,,,999.617799,999.617799,999.617799,999.617799,999.617799,999.617799,999.617799,999.617799,None,None,None,,,,,,,,,,,996.5208441,996.5208441,None,,997.5929443,997.5929443,999.617799,n,996.5208441,996.5208441,0.4948416999999097,,9,1,2024-06-17_12h50.31.669,robot_nback_sign,2022.2.5,59.89336585144313,
W,False,2.0,letter,1.0,False,False,robot_stimuli\\filler.mp4,9.0,,,,,,,,,0.0,69.0,69.0,69.0,,,,,,,,,,,,,999.617799,1000.6813853,,,,,,,1002.9128412,1002.9128412,1002.9128412,1002.9128412,1002.9128412,1002.9128412,1002.9128412,1002.9128412,None,None,None,,,,,,,,,,,999.617799,999.617799,None,,1000.6813853,1000.6813853,1002.9128412,n,999.617799,999.617799,1.303952499999781,,9,1,2024-06-17_12h50.31.669,robot_nback_sign,2022.2.5,59.89336585144313,
R,False,2.0,letter,1.0,False,False,robot_stimuli\\filler.mp4,9.0,,,,,,,,,0.0,70.0,70.0,70.0,,,,,,,,,,,,,1002.9128412,1003.9665045,,,,,,,1005.9956254,1005.9956254,1005.9956254,1005.9956254,1005.9956254,1005.9956254,1005.9956254,1005.9956254,None,None,None,,,,,,,,,,,1002.9128412,1002.9128412,None,,1003.9665045,1003.9665045,1005.9956254,n,1002.9128412,1002.9128412,1.122232599999819,,9,1,2024-06-17_12h50.31.669,robot_nback_sign,2022.2.5,59.89336585144313,
Q,False,2.0,letter,1.0,False,False,robot_stimuli\\filler.mp4,9.0,,,,,,,,,0.0,71.0,71.0,71.0,,,,,,,,,,,,,1005.9956254,1007.0483354,,,,,,,1009.279795,1009.279795,1009.279795,1009.279795,1009.279795,1009.279795,1009.279795,1009.279795,None,None,None,,,,,,,,,,,1005.9956254,1005.9956254,None,,1007.0483354,1007.0483354,1009.279795,n,1005.9956254,1005.9956254,0.9605935000000444,,9,1,2024-06-17_12h50.31.669,robot_nback_sign,2022.2.5,59.89336585144313,
D,False,2.0,letter,1.0,False,False,robot_stimuli\\filler.mp4,9.0,,,,,,,,,0.0,72.0,72.0,72.0,,,,,,,,,,,,,1009.279795,1010.3336562,,,,,,,1012.3573459,1012.3573459,1012.3573459,1012.3573459,1012.3573459,1012.3573459,1012.3573459,1012.3573459,None,None,None,,,,,,,,,,,1009.279795,1009.279795,None,,1010.3336562,1010.3336562,1012.3573459,n,1009.279795,1009.279795,0.906530399999923,,9,1,2024-06-17_12h50.31.669,robot_nback_sign,2022.2.5,59.89336585144313,
Q,True,2.0,letter,1.0,False,False,robot_stimuli\\filler.mp4,9.0,,,,,,,,,0.0,73.0,73.0,73.0,,,,,,,,,,,,,1012.3573459,1013.4159815,,,,,,,1015.44285,1015.44285,1015.44285,1015.44285,1015.44285,1015.44285,1015.44285,1015.44285,None,None,None,,,,,,,,,,,1012.3573459,1012.3573459,None,,1013.4159815,1013.4159815,1015.44285,c,1012.3573459,1012.3573459,0.4804887999999607,,9,1,2024-06-17_12h50.31.669,robot_nback_sign,2022.2.5,59.89336585144313,
R,False,2.0,letter,1.0,False,False,robot_stimuli\\filler.mp4,9.0,,,,,,,,,0.0,74.0,74.0,74.0,,,,,,,,,,,,,1015.44285,1016.5019722,,,,,,,1018.7323233,1018.7323233,1018.7323233,1018.7323233,1018.7323233,1018.7323233,1018.7323233,1018.7323233,None,None,None,,,,,,,,,,,1015.44285,1015.44285,None,,1016.5019722,1016.5019722,1018.7323233,n,1015.44285,1015.44285,0.8670522999999264,,9,1,2024-06-17_12h50.31.669,robot_nback_sign,2022.2.5,59.89336585144313,
S,False,2.0,letter,1.0,False,False,robot_stimuli\\filler.mp4,9.0,,,,,,,,,0.0,75.0,75.0,75.0,,,,,,,,,,,,,1018.7323233,,,,,,,,1022.0299302,1022.0299302,1022.0299302,1022.0299302,1022.0299302,1022.0299302,1022.0299302,1022.0299302,None,None,None,,,,,,,,,,,1018.7323233,1018.7323233,None,,1019.798278,1019.798278,1022.0299302,n,1018.7323233,1018.7323233,0.6822322999999813,,9,1,2024-06-17_12h50.31.669,robot_nback_sign,2022.2.5,59.89336585144313,
R,True,2.0,letter,1.0,False,False,robot_stimuli\\filler.mp4,9.0,,,,,,,,,0.0,76.0,76.0,76.0,,,,,,,,,,,,,1022.0299302,1023.0829894,,,,,,,1025.3125109,1025.3125109,1025.3125109,1025.3125109,1025.3125109,1025.3125109,1025.3125109,1025.3125109,None,None,None,,,,,,,,,,,1022.0299302,1022.0299302,None,,1023.0829894,1023.0829894,1025.3125109,c,1022.0299302,1022.0299302,0.71711250000007,,9,1,2024-06-17_12h50.31.669,robot_nback_sign,2022.2.5,59.89336585144313,
V,False,2.0,letter,1.0,False,False,robot_stimuli\\filler.mp4,9.0,,,,,,,,,0.0,77.0,77.0,77.0,,,,,,,,,,,,,1025.3125109,1026.3656832,,,,,,,1028.3938197,1028.3938197,1028.3938197,1028.3938197,1028.3938197,1028.3938197,1028.3938197,1028.3938197,None,None,None,,,,,,,,,,,1025.3125109,1025.3125109,None,,1026.3656832,1026.3656832,1028.3938197,n,1025.3125109,1025.3125109,0.9059379000001117,,9,1,2024-06-17_12h50.31.669,robot_nback_sign,2022.2.5,59.89336585144313,
T,False,2.0,letter,1.0,False,False,robot_stimuli\\filler.mp4,9.0,,,,,,,,,0.0,78.0,78.0,78.0,,,,,,,,,,,,,1028.3938197,1029.4565173,,,,,,,1031.4909633,1031.4909633,1031.4909633,1031.4909633,1031.4909633,1031.4909633,1031.4909633,1031.4909633,None,None,None,,,,,,,,,,,1028.3938197,1028.3938197,None,,1029.4565173,1029.4565173,1031.4909633,n,1028.3938197,1028.3938197,0.6238466999999162,,9,1,2024-06-17_12h50.31.669,robot_nback_sign,2022.2.5,59.89336585144313,
N,False,2.0,letter,1.0,False,False,robot_stimuli\\filler.mp4,9.0,,,,,,,,,0.0,79.0,79.0,79.0,,,,,,,,,,,,,1031.4909633,1032.5501826,,,,,,,1034.7767287,1034.7767287,1034.7767287,1034.7767287,1034.7767287,1034.7767287,1034.7767287,1034.7767287,None,None,None,,,,,,,,,,,1031.4909633,1031.4909633,None,,1032.5501826,1032.5501826,1034.7767287,n,1031.4909633,1031.4909633,0.5471699999999089,,9,1,2024-06-17_12h50.31.669,robot_nback_sign,2022.2.5,59.89336585144313,
M,False,2.0,letter,1.0,False,False,robot_stimuli\\filler.mp4,9.0,,,,,,,,,0.0,80.0,80.0,80.0,,,,,,,,,,,,,1034.7767287,1035.8416769,,,,,,,1037.874424,1037.874424,1037.874424,1037.874424,1037.874424,1037.874424,1037.874424,1037.874424,None,None,None,,,,,,,,,,,1034.7767287,1034.7767287,None,,1035.8416769,1035.8416769,1037.874424,n,1034.7767287,1034.7767287,0.8627967999999271,,9,1,2024-06-17_12h50.31.669,robot_nback_sign,2022.2.5,59.89336585144313,
Z,False,2.0,letter,1.0,False,False,robot_stimuli\\filler.mp4,9.0,,,,,,,,,0.0,81.0,81.0,81.0,,,,,,,,,,,,,1037.874424,1038.9326412,,,,,,,1041.1670428,1041.1670428,1041.1670428,1041.1670428,1041.1670428,1041.1670428,1041.1670428,1041.1670428,None,None,None,,,,,,,,,,,1037.874424,1037.874424,None,,1038.9326412,1038.9326412,1041.1670428,n,1037.874424,1037.874424,0.6517307999998536,,9,1,2024-06-17_12h50.31.669,robot_nback_sign,2022.2.5,59.89336585144313,
F,False,2.0,letter,1.0,False,False,robot_stimuli\\filler.mp4,9.0,,,,,,,,,0.0,82.0,82.0,82.0,,,,,,,,,,,,,1041.1670428,1042.2351267,,,,,,,1044.2682718,1044.2682718,1044.2682718,1044.2682718,1044.2682718,1044.2682718,1044.2682718,1044.2682718,None,None,None,,,,,,,,,,,1041.1670428,1041.1670428,None,,1042.2351267,1042.2351267,1044.2682718,n,1041.1670428,1041.1670428,0.8205668999997613,,9,1,2024-06-17_12h50.31.669,robot_nback_sign,2022.2.5,59.89336585144313,
T,False,2.0,letter,1.0,False,False,robot_stimuli\\filler.mp4,9.0,,,,,,,,,0.0,83.0,83.0,83.0,,,,,,,,,,,,,1044.2682718,1045.3333613,,,,,,,1047.3628527,1047.3628527,1047.3628527,1047.3628527,1047.3628527,1047.3628527,1047.3628527,1047.3628527,None,None,None,,,,,,,,,,,1044.2682718,1044.2682718,None,,1045.3333613,1045.3333613,1047.3628527,n,1044.2682718,1044.2682718,0.571460700000074,,9,1,2024-06-17_12h50.31.669,robot_nback_sign,2022.2.5,59.89336585144313,
P,False,2.0,letter,1.0,False,False,robot_stimuli\\filler.mp4,9.0,,,,,,,,,0.0,84.0,84.0,84.0,,,,,,,,,,,,,1047.3628527,1048.4162288,,,,,,,1050.6504873,1050.6504873,1050.6504873,1050.6504873,1050.6504873,1050.6504873,1050.6504873,1050.6504873,None,None,None,,,,,,,,,,,1047.3628527,1047.3628527,None,,1048.4162288,1048.4162288,1050.6504873,n,1047.3628527,1047.3628527,0.6961242000000709,,9,1,2024-06-17_12h50.31.669,robot_nback_sign,2022.2.5,59.89336585144313,
G,False,2.0,letter,1.0,False,False,robot_stimuli\\filler.mp4,9.0,,,,,,,,,0.0,85.0,85.0,85.0,,,,,,,,,,,,,1050.6504873,1051.7191362,,,,,,,1053.9412007,1053.9412007,1053.9412007,1053.9412007,1053.9412007,1053.9412007,1053.9412007,1053.9412007,None,None,None,,,,,,,,,,,1050.6504873,1050.6504873,None,,1051.7191362,1051.7191362,1053.9412007,n,1050.6504873,1050.6504873,0.6335650999997995,,9,1,2024-06-17_12h50.31.669,robot_nback_sign,2022.2.5,59.89336585144313,
M,False,2.0,letter,1.0,False,False,robot_stimuli\\filler.mp4,9.0,,,,,,,,,0.0,86.0,86.0,86.0,,,,,,,,,,,,,1053.9412007,1055.000395,,,,,,,1057.0346288,1057.0346288,1057.0346288,1057.0346288,1057.0346288,1057.0346288,1057.0346288,1057.0346288,None,None,None,,,,,,,,,,,1053.9412007,1053.9412007,None,,1055.000395,1055.000395,1057.0346288,n,1053.9412007,1053.9412007,0.7446607000000256,,9,1,2024-06-17_12h50.31.669,robot_nback_sign,2022.2.5,59.89336585144313,
V,False,2.0,letter,1.0,False,False,robot_stimuli\\filler.mp4,9.0,,,,,,,,,0.0,87.0,87.0,87.0,,,,,,,,,,,,,1057.0346288,1058.0983633,,,,,,,1060.3279417,1060.3279417,1060.3279417,1060.3279417,1060.3279417,1060.3279417,1060.3279417,1060.3279417,None,None,None,,,,,,,,,,,1057.0346288,1057.0346288,None,,1058.0983633,1058.0983633,1060.3279417,n,1057.0346288,1057.0346288,0.5500937000000192,,9,1,2024-06-17_12h50.31.669,robot_nback_sign,2022.2.5,59.89336585144313,
D,False,2.0,letter,1.0,False,False,robot_stimuli\\filler.mp4,9.0,,,,,,,,,0.0,88.0,88.0,88.0,,,,,,,,,,,,,1060.3279417,1061.3829957,,,,,,,1063.6162956,1063.6162956,1063.6162956,1063.6162956,1063.6162956,1063.6162956,1063.6162956,1063.6162956,None,None,None,,,,,,,,,,,1060.3279417,1060.3279417,None,,1061.3829957,1061.3829957,1063.6162956,n,1060.3279417,1060.3279417,0.7376932999999042,,9,1,2024-06-17_12h50.31.669,robot_nback_sign,2022.2.5,59.89336585144313,
Q,False,2.0,letter,1.0,False,False,robot_stimuli\\filler.mp4,9.0,,,,,,,,,0.0,89.0,89.0,89.0,,,,,,,,,,,,,1063.6162956,1064.6817988,,,,,,,1066.9141744,1066.9141744,1066.9141744,1066.9141744,1066.9141744,1066.9141744,1066.9141744,1066.9141744,None,None,None,,,,,,,,,,,1063.6162956,1063.6162956,None,,1064.6817988,1064.6817988,1066.9141744,n,1063.6162956,1063.6162956,0.7747728999998742,,9,1,2024-06-17_12h50.31.669,robot_nback_sign,2022.2.5,59.89336585144313,
M,False,2.0,letter,1.0,False,False,robot_stimuli\\filler.mp4,9.0,,,,,,,,,0.0,90.0,90.0,90.0,,,,,,,,,,,,,1066.9141744,,,,,,,,1070.2098139,1070.2098139,1070.2098139,1070.2098139,1070.2098139,1070.2098139,1070.2098139,1070.2098139,None,None,None,,,,,,,,,,,1066.9141744,1066.9141744,None,,1067.9825016,1067.9825016,1070.2098139,n,1066.9141744,1066.9141744,0.8655623999999023,,9,1,2024-06-17_12h50.31.669,robot_nback_sign,2022.2.5,59.89336585144313,
S,False,2.0,letter,1.0,False,False,robot_stimuli\\filler.mp4,9.0,,,,,,,,,0.0,91.0,91.0,91.0,,,,,,,,,,,,,1070.2098139,1071.2654981,,,,,,,1073.4956319,1073.4956319,1073.4956319,1073.4956319,1073.4956319,1073.4956319,1073.4956319,1073.4956319,None,None,None,,,,,,,,,,,1070.2098139,1070.2098139,None,,1071.2654981,1071.2654981,1073.4956319,n,1070.2098139,1070.2098139,0.7510034000000303,,9,1,2024-06-17_12h50.31.669,robot_nback_sign,2022.2.5,59.89336585144313,
Q,False,2.0,letter,1.0,False,False,robot_stimuli\\filler.mp4,9.0,,,,,,,,,0.0,92.0,92.0,92.0,,,,,,,,,,,,,1073.4956319,1074.5497835,,,,,,,1076.5802468000002,1076.5802468000002,1076.5802468000002,1076.5802468000002,1076.5802468000002,1076.5802468000002,1076.5802468000002,1076.5802468000002,None,None,None,,,,,,,,,,,1073.4956319,1073.4956319,None,,1074.5497835,1074.5497835,1076.5802468000002,n,1073.4956319,1073.4956319,0.7551016000000743,,9,1,2024-06-17_12h50.31.669,robot_nback_sign,2022.2.5,59.89336585144313,
C,False,2.0,letter,1.0,False,False,robot_stimuli\\filler.mp4,9.0,,,,,,,,,0.0,93.0,93.0,93.0,,,,,,,,,,,,,1076.5802468000002,1077.6327346,,,,,,,1079.863417,1079.863417,1079.863417,1079.863417,1079.863417,1079.863417,1079.863417,1079.863417,None,None,None,,,,,,,,,,,1076.5802468000002,1076.5802468000002,None,,1077.6327346,1077.6327346,1079.863417,n,1076.5802468000002,1076.5802468000002,0.6559590999998761,,9,1,2024-06-17_12h50.31.669,robot_nback_sign,2022.2.5,59.89336585144313,
B,False,2.0,letter,1.0,False,False,robot_stimuli\\filler.mp4,9.0,,,,,,,,,0.0,94.0,94.0,94.0,,,,,,,,,,,,,1079.863417,1080.9158879,,,,,,,1083.1464157,1083.1464157,1083.1464157,1083.1464157,1083.1464157,1083.1464157,1083.1464157,1083.1464157,None,None,None,,,,,,,,,,,1079.863417,1079.863417,None,,1080.9158879,1080.9158879,1083.1464157,n,1079.863417,1079.863417,0.7254335999999455,,9,1,2024-06-17_12h50.31.669,robot_nback_sign,2022.2.5,59.89336585144313,
C,True,2.0,letter,1.0,False,False,robot_stimuli\\filler.mp4,9.0,,,,,,,,,0.0,95.0,95.0,95.0,,,,,,,,,,,,,1083.1464157,1084.1993631,,,,,,,1086.431907,1086.431907,1086.431907,1086.431907,1086.431907,1086.431907,1086.431907,1086.431907,None,None,None,,,,,,,,,,,1083.1464157,1083.1464157,None,,1084.1993631,1084.1993631,1086.431907,c,1083.1464157,1083.1464157,0.7367398999998329,,9,1,2024-06-17_12h50.31.669,robot_nback_sign,2022.2.5,59.89336585144313,
C,False,2.0,letter,1.0,False,False,robot_stimuli\\filler.mp4,9.0,,,,,,,,,0.0,96.0,96.0,96.0,,,,,,,,,,,,,1086.431907,,,,,,,,1089.7278998000002,1089.7278998000002,1089.7278998000002,1089.7278998000002,1089.7278998000002,1089.7278998000002,1089.7278998000002,1089.7278998000002,None,None,None,,,,,,,,,,,1086.431907,1086.431907,None,,1087.4986914,1087.4986914,1089.7278998000002,n,1086.431907,1086.431907,1.2223216999999238,,9,1,2024-06-17_12h50.31.669,robot_nback_sign,2022.2.5,59.89336585144313,
C,True,2.0,letter,1.0,False,False,robot_stimuli\\filler.mp4,9.0,,,,,,,,,0.0,97.0,97.0,97.0,,,,,,,,,,,,,1089.7278998000002,1090.7805146,,,,,,,1092.80551,1092.80551,1092.80551,1092.80551,1092.80551,1092.80551,1092.80551,1092.80551,None,None,None,,,,,,,,,,,1089.7278998000002,1089.7278998000002,None,,1090.7805146,1090.7805146,1092.80551,c,1089.7278998000002,1089.7278998000002,0.6923189000000036,,9,1,2024-06-17_12h50.31.669,robot_nback_sign,2022.2.5,59.89336585144313,
Q,False,2.0,letter,1.0,False,False,robot_stimuli\\filler.mp4,9.0,,,,,,,,,0.0,98.0,98.0,98.0,,,,,,,,,,,,,1092.80551,1093.8658749,,,,,,,1096.0971827,1096.0971827,1096.0971827,1096.0971827,1096.0971827,1096.0971827,1096.0971827,1096.0971827,None,None,None,,,,,,,,,,,1092.80551,1092.80551,None,,1093.8658749,1093.8658749,1096.0971827,n,1092.80551,1092.80551,0.9431218999999088,,9,1,2024-06-17_12h50.31.669,robot_nback_sign,2022.2.5,59.89336585144313,
Q,False,2.0,letter,1.0,False,True,robot_stimuli\\filler.mp4,9.0,,,,,,,,,0.0,99.0,99.0,99.0,,,,,,,,,,,,,1096.0971827,1097.1471364,,,,,,,1099.2054460000002,1128.5350863,1099.2054460000002,1128.5350863,1099.2054460000002,1128.5350863,1099.2054460000002,1128.5350863,58.54938271604939,19.78713209999978,space,,,,29.25934719999995,,,,,,,1096.0971827,1096.0971827,None,,1097.1471364,1097.1471364,1099.2054460000002,n,1096.0971827,1096.0971827,0.8692374000000598,,9,1,2024-06-17_12h50.31.669,robot_nback_sign,2022.2.5,59.89336585144313,
C,False,1.0,letter,1.0,True,False,robot_stimuli\\filler.mp4,9.0,,,,,,,,,0.0,100.0,100.0,100.0,,,,,,,,,,,,,1161.9960316000002,1163.0653918,,,,,,,1165.2871407,1165.2871407,1165.2871407,1165.2871407,1165.2871407,1165.2871407,1165.2871407,1165.2871407,None,None,None,,,,,,,,,,,1128.5350863,1128.5350863,space,33.44054609999998,1163.0653918,1163.0653918,1165.2871407,n,,,0.4623475999997879,,9,1,2024-06-17_12h50.31.669,robot_nback_sign,2022.2.5,59.89336585144313,
S,False,1.0,letter,1.0,False,False,robot_stimuli\\filler.mp4,9.0,,,,,,,,,0.0,101.0,101.0,101.0,,,,,,,,,,,,,1165.2871407,1166.3559385,,,,,,,1168.3847534,1168.3847534,1168.3847534,1168.3847534,1168.3847534,1168.3847534,1168.3847534,1168.3847534,None,None,None,,,,,,,,,,,1165.2871407,1165.2871407,None,,1166.3559385,1166.3559385,1168.3847534,n,1165.2871407,1165.2871407,0.6757450999999435,,9,1,2024-06-17_12h50.31.669,robot_nback_sign,2022.2.5,59.89336585144313,
W,False,1.0,letter,1.0,False,False,robot_stimuli\\filler.mp4,9.0,,,,,,,,,0.0,102.0,102.0,102.0,,,,,,,,,,,,,1168.3847534,1169.4502486,,,,,,,1171.6818406,1171.6818406,1171.6818406,1171.6818406,1171.6818406,1171.6818406,1171.6818406,1171.6818406,None,None,None,,,,,,,,,,,1168.3847534,1168.3847534,None,,1169.4502486,1169.4502486,1171.6818406,n,1168.3847534,1168.3847534,0.501844099999829,,9,1,2024-06-17_12h50.31.669,robot_nback_sign,2022.2.5,59.89336585144313,
Z,False,1.0,letter,1.0,False,False,robot_stimuli\\filler.mp4,9.0,,,,,,,,,0.0,103.0,103.0,103.0,,,,,,,,,,,,,1171.6818406,,,,,,,,1174.7743792,1174.7743792,1174.7743792,1174.7743792,1174.7743792,1174.7743792,1174.7743792,1174.7743792,None,None,None,,,,,,,,,,,1171.6818406,1171.6818406,None,,1172.7504608000002,1172.7504608000002,1174.7743792,n,1171.6818406,1171.6818406,0.5861765000000503,,9,1,2024-06-17_12h50.31.669,robot_nback_sign,2022.2.5,59.89336585144313,
K,False,1.0,letter,1.0,False,False,robot_stimuli\\filler.mp4,9.0,,,,,,,,,0.0,104.0,104.0,104.0,,,,,,,,,,,,,1174.7743792,1175.8339512,,,,,,,1178.0616862000002,1178.0616862000002,1178.0616862000002,1178.0616862000002,1178.0616862000002,1178.0616862000002,1178.0616862000002,1178.0616862000002,None,None,None,,,,,,,,,,,1174.7743792,1174.7743792,None,,1175.8339512,1175.8339512,1178.0616862000002,n,1174.7743792,1174.7743792,0.5654699999998627,,9,1,2024-06-17_12h50.31.669,robot_nback_sign,2022.2.5,59.89336585144313,
X,False,1.0,letter,1.0,False,False,robot_stimuli\\filler.mp4,9.0,,,,,,,,,0.0,105.0,105.0,105.0,,,,,,,,,,,,,1178.0616862000002,1179.1168953,,,,,,,1181.3491643,1181.3491643,1181.3491643,1181.3491643,1181.3491643,1181.3491643,1181.3491643,1181.3491643,None,None,None,,,,,,,,,,,1178.0616862000002,1178.0616862000002,None,,1179.1168953,1179.1168953,1181.3491643,n,1178.0616862000002,1178.0616862000002,0.5083051000000012,,9,1,2024-06-17_12h50.31.669,robot_nback_sign,2022.2.5,59.89336585144313,
X,True,1.0,letter,1.0,False,False,robot_stimuli\\filler.mp4,9.0,,,,,,,,,0.0,106.0,106.0,106.0,,,,,,,,,,,,,1181.3491643,,,,,,,,1184.6424212000002,1184.6424212000002,1184.6424212000002,1184.6424212000002,1184.6424212000002,1184.6424212000002,1184.6424212000002,1184.6424212000002,None,None,None,,,,,,,,,,,1181.3491643,1181.3491643,None,,1182.4146715000002,1182.4146715000002,1184.6424212000002,c,1181.3491643,1181.3491643,0.4971357999998815,,9,1,2024-06-17_12h50.31.669,robot_nback_sign,2022.2.5,59.89336585144313,
S,False,1.0,letter,1.0,False,False,robot_stimuli\\filler.mp4,9.0,,,,,,,,,0.0,107.0,107.0,107.0,,,,,,,,,,,,,1184.6424212000002,1185.7012196,,,,,,,1187.7323474,1187.7323474,1187.7323474,1187.7323474,1187.7323474,1187.7323474,1187.7323474,1187.7323474,None,None,None,,,,,,,,,,,1184.6424212000002,1184.6424212000002,None,,1185.7012196,1185.7012196,1187.7323474,n,1184.6424212000002,1184.6424212000002,0.4904958000000476,,9,1,2024-06-17_12h50.31.669,robot_nback_sign,2022.2.5,59.89336585144313,
S,True,1.0,letter,1.0,False,False,robot_stimuli\\filler.mp4,9.0,,,,,,,,,0.0,108.0,108.0,108.0,,,,,,,,,,,,,1187.7323474,,,,,,,,1191.029034,1191.029034,1191.029034,1191.029034,1191.029034,1191.029034,1191.029034,1191.029034,None,None,None,,,,,,,,,,,1187.7323474,1187.7323474,None,,1188.7976624,1188.7976624,1191.029034,c,1187.7323474,1187.7323474,0.5383376999999143,,9,1,2024-06-17_12h50.31.669,robot_nback_sign,2022.2.5,59.89336585144313,
T,False,1.0,letter,1.0,False,False,robot_stimuli\\filler.mp4,9.0,,,,,,,,,0.0,109.0,109.0,109.0,,,,,,,,,,,,,1191.029034,1192.0835302,,,,,,,1194.3100604,1194.3100604,1194.3100604,1194.3100604,1194.3100604,1194.3100604,1194.3100604,1194.3100604,None,None,None,,,,,,,,,,,1191.029034,1191.029034,None,,1192.0835302,1192.0835302,1194.3100604,n,1191.029034,1191.029034,0.7896661999999139,,9,1,2024-06-17_12h50.31.669,robot_nback_sign,2022.2.5,59.89336585144313,
Q,False,1.0,letter,1.0,False,False,robot_stimuli\\filler.mp4,9.0,,,,,,,,,0.0,110.0,110.0,110.0,,,,,,,,,,,,,1194.3100604,1195.3668488,,,,,,,1197.5967946,1197.5967946,1197.5967946,1197.5967946,1197.5967946,1197.5967946,1197.5967946,1197.5967946,None,None,None,,,,,,,,,,,1194.3100604,1194.3100604,None,,1195.3668488,1195.3668488,1197.5967946,n,1194.3100604,1194.3100604,0.4582243999999207,,9,1,2024-06-17_12h50.31.669,robot_nback_sign,2022.2.5,59.89336585144313,
P,False,1.0,letter,1.0,False,False,robot_stimuli\\filler.mp4,9.0,,,,,,,,,0.0,111.0,111.0,111.0,,,,,,,,,,,,,1197.5967946,1198.6517396000002,,,,,,,1200.6836001,1200.6836001,1200.6836001,1200.6836001,1200.6836001,1200.6836001,1200.6836001,1200.6836001,None,None,None,,,,,,,,,,,1197.5967946,1197.5967946,None,,1198.6517396000002,1198.6517396000002,1200.6836001,n,1197.5967946,1197.5967946,0.6766823000001239,,9,1,2024-06-17_12h50.31.669,robot_nback_sign,2022.2.5,59.89336585144313,
L,False,1.0,letter,1.0,False,False,robot_stimuli\\filler.mp4,9.0,,,,,,,,,0.0,112.0,112.0,112.0,,,,,,,,,,,,,1200.6836001,1201.7508106,,,,,,,1203.9804901,1203.9804901,1203.9804901,1203.9804901,1203.9804901,1203.9804901,1203.9804901,1203.9804901,None,None,None,,,,,,,,,,,1200.6836001,1200.6836001,None,,1201.7508106,1201.7508106,1203.9804901,n,1200.6836001,1200.6836001,0.6580259999999214,,9,1,2024-06-17_12h50.31.669,robot_nback_sign,2022.2.5,59.89336585144313,
H,False,1.0,letter,1.0,False,False,robot_stimuli\\filler.mp4,9.0,,,,,,,,,0.0,113.0,113.0,113.0,,,,,,,,,,,,,1203.9804901,1205.0447370000002,,,,,,,1207.0687628,1207.0687628,1207.0687628,1207.0687628,1207.0687628,1207.0687628,1207.0687628,1207.0687628,None,None,None,,,,,,,,,,,1203.9804901,1203.9804901,None,,1205.0447370000002,1205.0447370000002,1207.0687628,n,1203.9804901,1203.9804901,0.5003734999998812,,9,1,2024-06-17_12h50.31.669,robot_nback_sign,2022.2.5,59.89336585144313,
C,False,1.0,letter,1.0,False,False,robot_stimuli\\filler.mp4,9.0,,,,,,,,,0.0,114.0,114.0,114.0,,,,,,,,,,,,,1207.0687628,1208.1341284,,,,,,,1210.3575903,1210.3575903,1210.3575903,1210.3575903,1210.3575903,1210.3575903,1210.3575903,1210.3575903,None,None,None,,,,,,,,,,,1207.0687628,1207.0687628,None,,1208.1341284,1208.1341284,1210.3575903,n,1207.0687628,1207.0687628,0.5135187999997868,,9,1,2024-06-17_12h50.31.669,robot_nback_sign,2022.2.5,59.89336585144313,
C,True,1.0,letter,1.0,False,False,robot_stimuli\\filler.mp4,9.0,,,,,,,,,0.0,115.0,115.0,115.0,,,,,,,,,,,,,1210.3575903,1211.41514,,,,,,,1213.647372,1213.647372,1213.647372,1213.647372,1213.647372,1213.647372,1213.647372,1213.647372,None,None,None,,,,,,,,,,,1210.3575903,1210.3575903,None,,1211.41514,1211.41514,1213.647372,c,1210.3575903,1210.3575903,0.4496505999998987,,9,1,2024-06-17_12h50.31.669,robot_nback_sign,2022.2.5,59.89336585144313,
N,False,1.0,letter,1.0,False,False,robot_stimuli\\filler.mp4,9.0,,,,,,,,,0.0,116.0,116.0,116.0,,,,,,,,,,,,,1213.647372,,,,,,,,1216.9436465,1216.9436465,1216.9436465,1216.9436465,1216.9436465,1216.9436465,1216.9436465,1216.9436465,None,None,None,,,,,,,,,,,1213.647372,1213.647372,None,,1214.7152457,1214.7152457,1216.9436465,n,1213.647372,1213.647372,0.4538601000000142,,9,1,2024-06-17_12h50.31.669,robot_nback_sign,2022.2.5,59.89336585144313,
G,False,1.0,letter,1.0,False,False,robot_stimuli\\filler.mp4,9.0,,,,,,,,,0.0,117.0,117.0,117.0,,,,,,,,,,,,,1216.9436465,1218.0004878,,,,,,,1220.0346708000002,1220.0346708000002,1220.0346708000002,1220.0346708000002,1220.0346708000002,1220.0346708000002,1220.0346708000002,1220.0346708000002,None,None,None,,,,,,,,,,,1216.9436465,1216.9436465,None,,1218.0004878,1218.0004878,1220.0346708000002,n,1216.9436465,1216.9436465,0.4480226999997683,,9,1,2024-06-17_12h50.31.669,robot_nback_sign,2022.2.5,59.89336585144313,
P,False,1.0,letter,1.0,False,False,robot_stimuli\\filler.mp4,9.0,,,,,,,,,0.0,118.0,118.0,118.0,,,,,,,,,,,,,1220.0346708000002,1221.0999074,,,,,,,1223.3248712000002,1223.3248712000002,1223.3248712000002,1223.3248712000002,1223.3248712000002,1223.3248712000002,1223.3248712000002,1223.3248712000002,None,None,None,,,,,,,,,,,1220.0346708000002,1220.0346708000002,None,,1221.0999074,1221.0999074,1223.3248712000002,n,1220.0346708000002,1220.0346708000002,0.5733579999999563,,9,1,2024-06-17_12h50.31.669,robot_nback_sign,2022.2.5,59.89336585144313,
S,False,1.0,letter,1.0,False,False,robot_stimuli\\filler.mp4,9.0,,,,,,,,,0.0,119.0,119.0,119.0,,,,,,,,,,,,,1223.3248712000002,1224.3845463,,,,,,,1226.412831,1226.412831,1226.412831,1226.412831,1226.412831,1226.412831,1226.412831,1226.412831,None,None,None,,,,,,,,,,,1223.3248712000002,1223.3248712000002,None,,1224.3845463,1224.3845463,1226.412831,n,1223.3248712000002,1223.3248712000002,0.5118329999998821,,9,1,2024-06-17_12h50.31.669,robot_nback_sign,2022.2.5,59.89336585144313,
J,False,1.0,letter,1.0,False,False,robot_stimuli\\filler.mp4,9.0,,,,,,,,,0.0,120.0,120.0,120.0,,,,,,,,,,,,,1226.412831,1227.4695411,,,,,,,1229.6920758,1229.6920758,1229.6920758,1229.6920758,1229.6920758,1229.6920758,1229.6920758,1229.6920758,None,None,None,,,,,,,,,,,1226.412831,1226.412831,None,,1227.4695411,1227.4695411,1229.6920758,n,1226.412831,1226.412831,0.5231760000000065,,9,1,2024-06-17_12h50.31.669,robot_nback_sign,2022.2.5,59.89336585144313,
D,False,1.0,letter,1.0,False,False,robot_stimuli\\filler.mp4,9.0,,,,,,,,,0.0,121.0,121.0,121.0,,,,,,,,,,,,,1229.6920758,1230.7514536,,,,,,,1232.9745882,1232.9745882,1232.9745882,1232.9745882,1232.9745882,1232.9745882,1232.9745882,1232.9745882,None,None,None,,,,,,,,,,,1229.6920758,1229.6920758,None,,1230.7514536,1230.7514536,1232.9745882,n,1229.6920758,1229.6920758,0.4258037999998976,,9,1,2024-06-17_12h50.31.669,robot_nback_sign,2022.2.5,59.89336585144313,
S,False,1.0,letter,1.0,False,False,robot_stimuli\\filler.mp4,9.0,,,,,,,,,0.0,122.0,122.0,122.0,,,,,,,,,,,,,1232.9745882,1234.0336966,,,,,,,1236.2650683000002,1236.2650683000002,1236.2650683000002,1236.2650683000002,1236.2650683000002,1236.2650683000002,1236.2650683000002,1236.2650683000002,None,None,None,,,,,,,,,,,1232.9745882,1232.9745882,None,,1234.0336966,1234.0336966,1236.2650683000002,n,1232.9745882,1232.9745882,0.4387428999999372,,9,1,2024-06-17_12h50.31.669,robot_nback_sign,2022.2.5,59.89336585144313,
D,False,1.0,letter,1.0,False,False,robot_stimuli\\filler.mp4,9.0,,,,,,,,,0.0,123.0,123.0,123.0,,,,,,,,,,,,,1236.2650683000002,,,,,,,,1239.3586683,1239.3586683,1239.3586683,1239.3586683,1239.3586683,1239.3586683,1239.3586683,1239.3586683,None,None,None,,,,,,,,,,,1236.2650683000002,1236.2650683000002,None,,1237.3341694,1237.3341694,1239.3586683,n,1236.2650683000002,1236.2650683000002,0.4592786999997713,,9,1,2024-06-17_12h50.31.669,robot_nback_sign,2022.2.5,59.89336585144313,
F,False,1.0,letter,1.0,False,False,robot_stimuli\\filler.mp4,9.0,,,,,,,,,0.0,124.0,124.0,124.0,,,,,,,,,,,,,1239.3586683,1240.4165995,,,,,,,1242.6498252,1242.6498252,1242.6498252,1242.6498252,1242.6498252,1242.6498252,1242.6498252,1242.6498252,None,None,None,,,,,,,,,,,1239.3586683,1239.3586683,None,,1240.4165995,1240.4165995,1242.6498252,n,1239.3586683,1239.3586683,0.4318026999997926,,9,1,2024-06-17_12h50.31.669,robot_nback_sign,2022.2.5,59.89336585144313,
N,False,1.0,letter,1.0,False,False,robot_stimuli\\filler.mp4,9.0,,,,,,,,,0.0,125.0,125.0,125.0,,,,,,,,,,,,,1242.6498252,,,,,,,,1245.9665553,1245.9665553,1245.9665553,1245.9665553,1245.9665553,1245.9665553,1245.9665553,1245.9665553,None,None,None,,,,,,,,,,,1242.6498252,1242.6498252,None,,1243.7332545000002,1243.7332545000002,1245.9665553,n,1242.6498252,1242.6498252,0.4676381000000162,,9,1,2024-06-17_12h50.31.669,robot_nback_sign,2022.2.5,59.89336585144313,
N,True,1.0,letter,1.0,False,False,robot_stimuli\\filler.mp4,9.0,,,,,,,,,0.0,126.0,126.0,126.0,,,,,,,,,,,,,1245.9665553,,,,,,,,1249.2630083,1249.2630083,1249.2630083,1249.2630083,1249.2630083,1249.2630083,1249.2630083,1249.2630083,None,None,None,,,,,,,,,,,1245.9665553,1245.9665553,None,,1247.0316628,1247.0316628,1249.2630083,c,1245.9665553,1245.9665553,0.5605899999999053,,9,1,2024-06-17_12h50.31.669,robot_nback_sign,2022.2.5,59.89336585144313,
N,True,1.0,letter,1.0,False,False,robot_stimuli\\filler.mp4,9.0,,,,,,,,,0.0,127.0,127.0,127.0,,,,,,,,,,,,,1249.2630083,1250.3182241000002,,,,,,,1252.5399042,1252.5399042,1252.5399042,1252.5399042,1252.5399042,1252.5399042,1252.5399042,1252.5399042,None,None,None,,,,,,,,,,,1249.2630083,1249.2630083,None,,1250.3182241000002,1250.3182241000002,1252.5399042,c,1249.2630083,1249.2630083,0.5393935999998973,,9,1,2024-06-17_12h50.31.669,robot_nback_sign,2022.2.5,59.89336585144313,
N,True,1.0,letter,1.0,False,False,robot_stimuli\\filler.mp4,9.0,,,,,,,,,0.0,128.0,128.0,128.0,,,,,,,,,,,,,1252.5399042,1253.6000803000002,,,,,,,1255.8303593,1255.8303593,1255.8303593,1255.8303593,1255.8303593,1255.8303593,1255.8303593,1255.8303593,None,None,None,,,,,,,,,,,1252.5399042,1252.5399042,None,,1253.6000803000002,1253.6000803000002,1255.8303593,c,1252.5399042,1252.5399042,0.5051376999998354,,9,1,2024-06-17_12h50.31.669,robot_nback_sign,2022.2.5,59.89336585144313,
Z,False,1.0,letter,1.0,False,False,robot_stimuli\\filler.mp4,9.0,,,,,,,,,0.0,129.0,129.0,129.0,,,,,,,,,,,,,1255.8303593,1256.883232,,,,,,,1258.907664,1258.907664,1258.907664,1258.907664,1258.907664,1258.907664,1258.907664,1258.907664,None,None,None,,,,,,,,,,,1255.8303593,1255.8303593,None,,1256.883232,1256.883232,1258.907664,n,1255.8303593,1255.8303593,0.4928743999999767,,9,1,2024-06-17_12h50.31.669,robot_nback_sign,2022.2.5,59.89336585144313,
F,False,1.0,letter,1.0,False,False,robot_stimuli\\filler.mp4,9.0,,,,,,,,,0.0,130.0,130.0,130.0,,,,,,,,,,,,,1258.907664,1259.9686591,,,,,,,1261.9980408,1261.9980408,1261.9980408,1261.9980408,1261.9980408,1261.9980408,1261.9980408,1261.9980408,None,None,None,,,,,,,,,,,1258.907664,1258.907664,None,,1259.9686591,1259.9686591,1261.9980408,n,1258.907664,1258.907664,0.6403745999999444,,9,1,2024-06-17_12h50.31.669,robot_nback_sign,2022.2.5,59.89336585144313,
F,True,1.0,letter,1.0,False,False,robot_stimuli\\filler.mp4,9.0,,,,,,,,,0.0,131.0,131.0,131.0,,,,,,,,,,,,,1261.9980408,,,,,,,,1265.29674,1265.29674,1265.29674,1265.29674,1265.29674,1265.29674,1265.29674,1265.29674,None,None,None,,,,,,,,,,,1261.9980408,1261.9980408,None,,1263.0656264000002,1263.0656264000002,1265.29674,c,1261.9980408,1261.9980408,0.5342575000000522,,9,1,2024-06-17_12h50.31.669,robot_nback_sign,2022.2.5,59.89336585144313,
Z,False,1.0,letter,1.0,False,False,robot_stimuli\\filler.mp4,9.0,,,,,,,,,0.0,132.0,132.0,132.0,,,,,,,,,,,,,1265.29674,1266.3515153,,,,,,,1268.3875788,1268.3875788,1268.3875788,1268.3875788,1268.3875788,1268.3875788,1268.3875788,1268.3875788,None,None,None,,,,,,,,,,,1265.29674,1265.29674,None,,1266.3515153,1266.3515153,1268.3875788,n,1265.29674,1265.29674,0.5200239000001545,,9,1,2024-06-17_12h50.31.669,robot_nback_sign,2022.2.5,59.89336585144313,
X,False,1.0,letter,1.0,False,False,robot_stimuli\\filler.mp4,9.0,,,,,,,,,0.0,133.0,133.0,133.0,,,,,,,,,,,,,1268.3875788,1269.4500173,,,,,,,1271.4746814,1271.4746814,1271.4746814,1271.4746814,1271.4746814,1271.4746814,1271.4746814,1271.4746814,None,None,None,,,,,,,,,,,1268.3875788,1268.3875788,None,,1269.4500173,1269.4500173,1271.4746814,n,1268.3875788,1268.3875788,0.6387221000000807,,9,1,2024-06-17_12h50.31.669,robot_nback_sign,2022.2.5,59.89336585144313,
S,False,1.0,letter,1.0,False,False,robot_stimuli\\filler.mp4,9.0,,,,,,,,,0.0,134.0,134.0,134.0,,,,,,,,,,,,,1271.4746814,1272.533429,,,,,,,1274.7616048,1274.7616048,1274.7616048,1274.7616048,1274.7616048,1274.7616048,1274.7616048,1274.7616048,None,None,None,,,,,,,,,,,1271.4746814,1271.4746814,None,,1272.533429,1272.533429,1274.7616048,n,1271.4746814,1271.4746814,0.4914152999998293,,9,1,2024-06-17_12h50.31.669,robot_nback_sign,2022.2.5,59.89336585144313,
K,False,1.0,letter,1.0,False,False,robot_stimuli\\filler.mp4,9.0,,,,,,,,,0.0,135.0,135.0,135.0,,,,,,,,,,,,,1274.7616048,1275.8189199,,,,,,,1277.854798,1277.854798,1277.854798,1277.854798,1277.854798,1277.854798,1277.854798,1277.854798,None,None,None,,,,,,,,,,,1274.7616048,1274.7616048,None,,1275.8189199,1275.8189199,1277.854798,n,1274.7616048,1274.7616048,0.5986931999999285,,9,1,2024-06-17_12h50.31.669,robot_nback_sign,2022.2.5,59.89336585144313,
Q,False,1.0,letter,1.0,False,False,robot_stimuli\\filler.mp4,9.0,,,,,,,,,0.0,136.0,136.0,136.0,,,,,,,,,,,,,1277.854798,1278.9166454,,,,,,,1281.1436528000002,1281.1436528000002,1281.1436528000002,1281.1436528000002,1281.1436528000002,1281.1436528000002,1281.1436528000002,1281.1436528000002,None,None,None,,,,,,,,,,,1277.854798,1277.854798,None,,1278.9166454,1278.9166454,1281.1436528000002,n,1277.854798,1277.854798,0.4749516999998775,,9,1,2024-06-17_12h50.31.669,robot_nback_sign,2022.2.5,59.89336585144313,
Q,True,1.0,letter,1.0,False,False,robot_stimuli\\filler.mp4,9.0,,,,,,,,,0.0,137.0,137.0,137.0,,,,,,,,,,,,,1281.1436528000002,1282.1994996,,,,,,,1284.4274734,1284.4274734,1284.4274734,1284.4274734,1284.4274734,1284.4274734,1284.4274734,1284.4274734,None,None,None,,,,,,,,,,,1281.1436528000002,1281.1436528000002,None,,1282.1994996,1282.1994996,1284.4274734,c,1281.1436528000002,1281.1436528000002,0.6168704999998624,,9,1,2024-06-17_12h50.31.669,robot_nback_sign,2022.2.5,59.89336585144313,
B,False,1.0,letter,1.0,False,False,robot_stimuli\\filler.mp4,9.0,,,,,,,,,0.0,138.0,138.0,138.0,,,,,,,,,,,,,1284.4274734,1285.4832611000002,,,,,,,1287.7159595,1287.7159595,1287.7159595,1287.7159595,1287.7159595,1287.7159595,1287.7159595,1287.7159595,None,None,None,,,,,,,,,,,1284.4274734,1284.4274734,None,,1285.4832611000002,1285.4832611000002,1287.7159595,n,1284.4274734,1284.4274734,0.4371342000000311,,9,1,2024-06-17_12h50.31.669,robot_nback_sign,2022.2.5,59.89336585144313,
P,False,1.0,letter,1.0,False,False,robot_stimuli\\filler.mp4,9.0,,,,,,,,,0.0,139.0,139.0,139.0,,,,,,,,,,,,,1287.7159595,,,,,,,,1291.0099696,1291.0099696,1291.0099696,1291.0099696,1291.0099696,1291.0099696,1291.0099696,1291.0099696,None,None,None,,,,,,,,,,,1287.7159595,1287.7159595,None,,1288.7833541,1288.7833541,1291.0099696,n,1287.7159595,1287.7159595,0.640448199999895,,9,1,2024-06-17_12h50.31.669,robot_nback_sign,2022.2.5,59.89336585144313,
T,False,1.0,letter,1.0,False,False,robot_stimuli\\filler.mp4,9.0,,,,,,,,,0.0,140.0,140.0,140.0,,,,,,,,,,,,,1291.0099696,1292.0671180000002,,,,,,,1294.2958414,1294.2958414,1294.2958414,1294.2958414,1294.2958414,1294.2958414,1294.2958414,1294.2958414,None,None,None,,,,,,,,,,,1291.0099696,1291.0099696,None,,1292.0671180000002,1292.0671180000002,1294.2958414,n,1291.0099696,1291.0099696,0.5581694999999343,,9,1,2024-06-17_12h50.31.669,robot_nback_sign,2022.2.5,59.89336585144313,
T,True,1.0,letter,1.0,False,False,robot_stimuli\\filler.mp4,9.0,,,,,,,,,0.0,141.0,141.0,141.0,,,,,,,,,,,,,1294.2958414,1295.3494474,,,,,,,1297.577408,1297.577408,1297.577408,1297.577408,1297.577408,1297.577408,1297.577408,1297.577408,None,None,None,,,,,,,,,,,1294.2958414,1294.2958414,None,,1295.3494474,1295.3494474,1297.577408,c,1294.2958414,1294.2958414,0.5387010000000316,,9,1,2024-06-17_12h50.31.669,robot_nback_sign,2022.2.5,59.89336585144313,
K,False,1.0,letter,1.0,False,False,robot_stimuli\\filler.mp4,9.0,,,,,,,,,0.0,142.0,142.0,142.0,,,,,,,,,,,,,1297.577408,1298.6339643,,,,,,,1300.8666205000002,1300.8666205000002,1300.8666205000002,1300.8666205000002,1300.8666205000002,1300.8666205000002,1300.8666205000002,1300.8666205000002,None,None,None,,,,,,,,,,,1297.577408,1297.577408,None,,1298.6339643,1298.6339643,1300.8666205000002,n,1297.577408,1297.577408,0.4947078999999519,,9,1,2024-06-17_12h50.31.669,robot_nback_sign,2022.2.5,59.89336585144313,
V,False,1.0,letter,1.0,False,False,robot_stimuli\\filler.mp4,9.0,,,,,,,,,0.0,143.0,143.0,143.0,,,,,,,,,,,,,1300.8666205000002,1301.9335828,,,,,,,1304.1642734000002,1304.1642734000002,1304.1642734000002,1304.1642734000002,1304.1642734000002,1304.1642734000002,1304.1642734000002,1304.1642734000002,None,None,None,,,,,,,,,,,1300.8666205000002,1300.8666205000002,None,,1301.9335828,1301.9335828,1304.1642734000002,n,1300.8666205000002,1300.8666205000002,0.459339599999879,,9,1,2024-06-17_12h50.31.669,robot_nback_sign,2022.2.5,59.89336585144313,
F,False,1.0,letter,1.0,False,False,robot_stimuli\\filler.mp4,9.0,,,,,,,,,0.0,144.0,144.0,144.0,,,,,,,,,,,,,1304.1642734000002,,,,,,,,1307.2607073,1307.2607073,1307.2607073,1307.2607073,1307.2607073,1307.2607073,1307.2607073,1307.2607073,None,None,None,,,,,,,,,,,1304.1642734000002,1304.1642734000002,None,,1305.2344047,1305.2344047,1307.2607073,n,1304.1642734000002,1304.1642734000002,0.5663879999998187,,9,1,2024-06-17_12h50.31.669,robot_nback_sign,2022.2.5,59.89336585144313,
Q,False,1.0,letter,1.0,False,False,robot_stimuli\\filler.mp4,9.0,,,,,,,,,0.0,145.0,145.0,145.0,,,,,,,,,,,,,1307.2607073,1308.3194061000002,,,,,,,1310.3461761,1310.3461761,1310.3461761,1310.3461761,1310.3461761,1310.3461761,1310.3461761,1310.3461761,None,None,None,,,,,,,,,,,1307.2607073,1307.2607073,None,,1308.3194061000002,1308.3194061000002,1310.3461761,n,1307.2607073,1307.2607073,0.7455751999999336,,9,1,2024-06-17_12h50.31.669,robot_nback_sign,2022.2.5,59.89336585144313,
H,False,1.0,letter,1.0,False,False,robot_stimuli\\filler.mp4,9.0,,,,,,,,,0.0,146.0,146.0,146.0,,,,,,,,,,,,,1310.3461761,1311.4005960000002,,,,,,,1313.628927,1313.628927,1313.628927,1313.628927,1313.628927,1313.628927,1313.628927,1313.628927,None,None,None,,,,,,,,,,,1310.3461761,1310.3461761,None,,1311.4005960000002,1311.4005960000002,1313.628927,n,1310.3461761,1310.3461761,0.3921635999998614,,9,1,2024-06-17_12h50.31.669,robot_nback_sign,2022.2.5,59.89336585144313,
Q,False,1.0,letter,1.0,False,False,robot_stimuli\\filler.mp4,9.0,,,,,,,,,0.0,147.0,147.0,147.0,,,,,,,,,,,,,1313.628927,1314.6846812,,,,,,,1316.7073565,1316.7073565,1316.7073565,1316.7073565,1316.7073565,1316.7073565,1316.7073565,1316.7073565,None,None,None,,,,,,,,,,,1313.628927,1313.628927,None,,1314.6846812,1314.6846812,1316.7073565,n,1313.628927,1313.628927,0.795925100000062,,9,1,2024-06-17_12h50.31.669,robot_nback_sign,2022.2.5,59.89336585144313,
B,False,1.0,letter,1.0,False,False,robot_stimuli\\filler.mp4,9.0,,,,,,,,,0.0,148.0,148.0,148.0,,,,,,,,,,,,,1316.7073565,1317.7670567,,,,,,,1319.9955923,1319.9955923,1319.9955923,1319.9955923,1319.9955923,1319.9955923,1319.9955923,1319.9955923,None,None,None,,,,,,,,,,,1316.7073565,1316.7073565,None,,1317.7670567,1317.7670567,1319.9955923,n,1316.7073565,1316.7073565,0.4572906999997883,,9,1,2024-06-17_12h50.31.669,robot_nback_sign,2022.2.5,59.89336585144313,
B,True,1.0,letter,1.0,False,True,robot_stimuli\\filler.mp4,9.0,,,,,,,,,0.0,149.0,149.0,149.0,,,,,,,,,,,,,1319.9955923,1321.0568952,,,,,,,1323.1199662,1332.4610847,1323.1199662,1332.4610847,1323.1199662,1332.4610847,1323.1199662,1332.4610847,47.12962962962963,7.58306830000015,space,,,,9.28782459999988,,,,,,,1319.9955923,1319.9955923,None,,1321.0568952,1321.0568952,1323.1199662,c,1319.9955923,1319.9955923,0.5114890999999204,,9,1,2024-06-17_12h50.31.669,robot_nback_sign,2022.2.5,59.89336585144313,
R_Arm_Z_Back,False,1.0,robot,2.0,True,False,robot_stimuli\R_Arm_Z_Back.mp4,9.0,,,,,,,,,0.0,150.0,150.0,150.0,,,,,,,,,,,,,1382.4467508,1383.5307611,,,,,,,1387.1815452,1387.1815452,1387.1815452,1387.1815452,1387.1815452,1387.1815452,1387.1815452,1387.1815452,None,None,None,,,,,,,,,,,1332.4610847,1332.4610847,space,49.95549109999988,,1383.5307611,,n,,,1.2530718999999806,1383.5307611,9,1,2024-06-17_12h50.31.669,robot_nback_sign,2022.2.5,59.89336585144313,
R_Arm_Z_Back,True,1.0,robot,2.0,False,False,robot_stimuli\R_Arm_Z_Back.mp4,9.0,,,,,,,,,0.0,151.0,151.0,151.0,,,,,,,,,,,,,1387.1815452,,,,,,,,1391.9285721,1391.9285721,1391.9285721,1391.9285721,1391.9285721,1391.9285721,1391.9285721,1391.9285721,None,None,None,,,,,,,,,,,1387.1815452,1387.1815452,None,,,1388.2856267000002,,c,1387.1815452,1387.1815452,2.298189400000041,1388.2856267000002,9,1,2024-06-17_12h50.31.669,robot_nback_sign,2022.2.5,59.89336585144313,
L_Base_X_Back,False,1.0,robot,2.0,False,False,robot_stimuli\L_Base_X_Back.mp4,9.0,,,,,,,,,0.0,152.0,152.0,152.0,,,,,,,,,,,,,1391.9285721,1393.0231367,,,,,,,1396.6290361,1396.6290361,1396.6290361,1396.6290361,1396.6290361,1396.6290361,1396.6290361,1396.6290361,None,None,None,,,,,,,,,,,1391.9285721,1391.9285721,None,,,1393.0231367,,n,1391.9285721,1391.9285721,1.1930103999999062,1393.0231367,9,1,2024-06-17_12h50.31.669,robot_nback_sign,2022.2.5,59.89336585144313,
R_Head_Z_Back,False,1.0,robot,2.0,False,False,robot_stimuli\R_Head_Z_Back.mp4,9.0,,,,,,,,,0.0,153.0,153.0,153.0,,,,,,,,,,,,,1396.6290361,1397.7151697000002,,,,,,,1401.3590101,1401.3590101,1401.3590101,1401.3590101,1401.3590101,1401.3590101,1401.3590101,1401.3590101,None,None,None,,,,,,,,,,,1396.6290361,1396.6290361,None,,,1397.7151697000002,,n,1396.6290361,1396.6290361,1.541276399999873,1397.7151697000002,9,1,2024-06-17_12h50.31.669,robot_nback_sign,2022.2.5,59.89336585144313,
L_Head_Z_For,False,1.0,robot,2.0,False,False,robot_stimuli\L_Head_Z_For.mp4,9.0,,,,,,,,,0.0,154.0,154.0,154.0,,,,,,,,,,,,,1401.3590101,1402.4560984,,,,,,,1406.0966227,1406.0966227,1406.0966227,1406.0966227,1406.0966227,1406.0966227,1406.0966227,1406.0966227,None,None,None,,,,,,,,,,,1401.3590101,1401.3590101,None,,,1402.4560984,,n,1401.3590101,1401.3590101,1.527926699999938,1402.4560984,9,1,2024-06-17_12h50.31.669,robot_nback_sign,2022.2.5,59.89336585144313,
L_Head_Z_For,True,1.0,robot,2.0,False,False,robot_stimuli\L_Head_Z_For.mp4,9.0,,,,,,,,,0.0,155.0,155.0,155.0,,,,,,,,,,,,,1406.0966227,1407.1714407000002,,,,,,,1410.8128387000002,1410.8128387000002,1410.8128387000002,1410.8128387000002,1410.8128387000002,1410.8128387000002,1410.8128387000002,1410.8128387000002,None,None,None,,,,,,,,,,,1406.0966227,1406.0966227,None,,,1407.1714407000002,,c,1406.0966227,1406.0966227,1.8055221999998992,1407.1714407000002,9,1,2024-06-17_12h50.31.669,robot_nback_sign,2022.2.5,59.89336585144313,
R_Torso_Z_Back,False,1.0,robot,2.0,False,False,robot_stimuli\R_Torso_Z_Back.mp4,9.0,,,,,,,,,0.0,156.0,156.0,156.0,,,,,,,,,,,,,1410.8128387000002,1411.8969081,,,,,,,1415.5375563,1415.5375563,1415.5375563,1415.5375563,1415.5375563,1415.5375563,1415.5375563,1415.5375563,None,None,None,,,,,,,,,,,1410.8128387000002,1410.8128387000002,None,,,1411.8969081,,n,1410.8128387000002,1410.8128387000002,1.9841619999998272,1411.8969081,9,1,2024-06-17_12h50.31.669,robot_nback_sign,2022.2.5,59.89336585144313,
R_Base_Y_For,False,1.0,robot,2.0,False,False,robot_stimuli\R_Base_Y_For.mp4,9.0,,,,,,,,,0.0,157.0,157.0,157.0,,,,,,,,,,,,,1415.5375563,1416.6243154,,,,,,,1420.2654306000002,1420.2654306000002,1420.2654306000002,1420.2654306000002,1420.2654306000002,1420.2654306000002,1420.2654306000002,1420.2654306000002,None,None,None,,,,,,,,,,,1415.5375563,1415.5375563,None,,,1416.6243154,,n,1415.5375563,1415.5375563,2.5372620999999924,1416.6243154,9,1,2024-06-17_12h50.31.669,robot_nback_sign,2022.2.5,59.89336585144313,
R_Base_Y_For,True,1.0,robot,2.0,False,False,robot_stimuli\R_Base_Y_For.mp4,9.0,,,,,,,,,0.0,158.0,158.0,158.0,,,,,,,,,,,,,1420.2654306000002,,,,,,,,1425.0082979,1425.0082979,1425.0082979,1425.0082979,1425.0082979,1425.0082979,1425.0082979,1425.0082979,None,None,None,,,,,,,,,,,1420.2654306000002,1420.2654306000002,None,,,1421.3690914,,c,1420.2654306000002,1420.2654306000002,1.9918728999999475,1421.3690914,9,1,2024-06-17_12h50.31.669,robot_nback_sign,2022.2.5,59.89336585144313,
R_Head_Y_Back,False,1.0,robot,2.0,False,False,robot_stimuli\R_Head_Y_Back.mp4,9.0,,,,,,,,,0.0,159.0,159.0,159.0,,,,,,,,,,,,,1425.0082979,1426.0918014,,,,,,,1429.7428968000002,1429.7428968000002,1429.7428968000002,1429.7428968000002,1429.7428968000002,1429.7428968000002,1429.7428968000002,1429.7428968000002,None,None,None,,,,,,,,,,,1425.0082979,1425.0082979,None,,,1426.0918014,,n,1425.0082979,1425.0082979,1.7659117999999978,1426.0918014,9,1,2024-06-17_12h50.31.669,robot_nback_sign,2022.2.5,59.89336585144313,
R_Arm_Y_Back,False,1.0,robot,2.0,False,False,robot_stimuli\R_Arm_Y_Back.mp4,9.0,,,,,,,,,0.0,160.0,160.0,160.0,,,,,,,,,,,,,1429.7428968000002,1430.8242791,,,,,,,1434.4671951,1434.4671951,1434.4671951,1434.4671951,1434.4671951,1434.4671951,1434.4671951,1434.4671951,None,None,None,,,,,,,,,,,1429.7428968000002,1429.7428968000002,None,,,1430.8242791,,n,1429.7428968000002,1429.7428968000002,2.2088962999997364,1430.8242791,9,1,2024-06-17_12h50.31.669,robot_nback_sign,2022.2.5,59.89336585144313,
R_Arm_Y_Back,True,1.0,robot,2.0,False,False,robot_stimuli\R_Arm_Y_Back.mp4,9.0,,,,,,,,,0.0,161.0,161.0,161.0,,,,,,,,,,,,,1434.4671951,1435.569041,,,,,,,1439.2088141000002,1439.2088141000002,1439.2088141000002,1439.2088141000002,1439.2088141000002,1439.2088141000002,1439.2088141000002,1439.2088141000002,None,None,None,,,,,,,,,,,1434.4671951,1434.4671951,None,,,1435.569041,,c,1434.4671951,1434.4671951,2.223192699999885,1435.569041,9,1,2024-06-17_12h50.31.669,robot_nback_sign,2022.2.5,59.89336585144313,
R_Base_X_Back,False,1.0,robot,2.0,False,False,robot_stimuli\R_Base_X_Back.mp4,9.0,,,,,,,,,0.0,162.0,162.0,162.0,,,,,,,,,,,,,1439.2088141000002,1440.2968273,,,,,,,1443.9472249,1443.9472249,1443.9472249,1443.9472249,1443.9472249,1443.9472249,1443.9472249,1443.9472249,None,None,None,,,,,,,,,,,1439.2088141000002,1439.2088141000002,None,,,1440.2968273,,n,1439.2088141000002,1439.2088141000002,1.9919072000000997,1440.2968273,9,1,2024-06-17_12h50.31.669,robot_nback_sign,2022.2.5,59.89336585144313,
L_Head_Y_Back,False,1.0,robot,2.0,False,False,robot_stimuli\L_Head_Y_Back.mp4,9.0,,,,,,,,,0.0,163.0,163.0,163.0,,,,,,,,,,,,,1443.9472249,1445.0250972,,,,,,,1448.6759993,1448.6759993,1448.6759993,1448.6759993,1448.6759993,1448.6759993,1448.6759993,1448.6759993,None,None,None,,,,,,,,,,,1443.9472249,1443.9472249,None,,,1445.0250972,,n,1443.9472249,1443.9472249,2.007748300000088,1445.0250972,9,1,2024-06-17_12h50.31.669,robot_nback_sign,2022.2.5,59.89336585144313,
R_Base_Z_Back,False,1.0,robot,2.0,False,False,robot_stimuli\R_Base_Z_Back.mp4,9.0,,,,,,,,,0.0,164.0,164.0,164.0,,,,,,,,,,,,,1448.6759993,1449.7582599,,,,,,,1453.3125887,1453.3125887,1453.3125887,1453.3125887,1453.3125887,1453.3125887,1453.3125887,1453.3125887,None,None,None,,,,,,,,,,,1448.6759993,1448.6759993,None,,,1449.7582599,,n,1448.6759993,1448.6759993,2.458157899999918,1449.7582599,9,1,2024-06-17_12h50.31.669,robot_nback_sign,2022.2.5,59.89336585144313,
R_Base_Z_Back,True,1.0,robot,2.0,False,False,robot_stimuli\R_Base_Z_Back.mp4,9.0,,,,,,,,,0.0,165.0,165.0,165.0,,,,,,,,,,,,,1453.3125887,1454.4024695,,,,,,,1457.9478374,1457.9478374,1457.9478374,1457.9478374,1457.9478374,1457.9478374,1457.9478374,1457.9478374,None,None,None,,,,,,,,,,,1453.3125887,1453.3125887,None,,,1454.4024695,,c,1453.3125887,1453.3125887,2.1104437999998424,1454.4024695,9,1,2024-06-17_12h50.31.669,robot_nback_sign,2022.2.5,59.89336585144313,
L_Head_X_Back,False,1.0,robot,2.0,False,False,robot_stimuli\L_Head_X_Back.mp4,9.0,,,,,,,,,0.0,166.0,166.0,166.0,,,,,,,,,,,,,1457.9478374,,,,,,,,1462.6956839000002,1462.6956839000002,1462.6956839000002,1462.6956839000002,1462.6956839000002,1462.6956839000002,1462.6956839000002,1462.6956839000002,None,None,None,,,,,,,,,,,1457.9478374,1457.9478374,None,,,1459.0461601000002,,n,1457.9478374,1457.9478374,2.7151313000000243,1459.0461601000002,9,1,2024-06-17_12h50.31.669,robot_nback_sign,2022.2.5,59.89336585144313,
R_Arm_Z_Back,False,1.0,robot,2.0,False,False,robot_stimuli\R_Arm_Z_Back.mp4,9.0,,,,,,,,,0.0,167.0,167.0,167.0,,,,,,,,,,,,,1462.6956839000002,1463.7748278,,,,,,,1467.4059756,1467.4059756,1467.4059756,1467.4059756,1467.4059756,1467.4059756,1467.4059756,1467.4059756,None,None,None,,,,,,,,,,,1462.6956839000002,1462.6956839000002,None,,,1463.7748278,,n,1462.6956839000002,1462.6956839000002,2.274283799999779,1463.7748278,9,1,2024-06-17_12h50.31.669,robot_nback_sign,2022.2.5,59.89336585144313,
R_Arm_Z_Back,True,1.0,robot,2.0,False,False,robot_stimuli\R_Arm_Z_Back.mp4,9.0,,,,,,,,,0.0,168.0,168.0,168.0,,,,,,,,,,,,,1467.4059756,1468.4876311,,,,,,,1472.1285869,1472.1285869,1472.1285869,1472.1285869,1472.1285869,1472.1285869,1472.1285869,1472.1285869,None,None,None,,,,,,,,,,,1467.4059756,1467.4059756,None,,,1468.4876311,,c,1467.4059756,1467.4059756,2.121741900000046,1468.4876311,9,1,2024-06-17_12h50.31.669,robot_nback_sign,2022.2.5,59.89336585144313,
R_Torso_Z_Back,False,1.0,robot,2.0,False,False,robot_stimuli\R_Torso_Z_Back.mp4,9.0,,,,,,,,,0.0,169.0,169.0,169.0,,,,,,,,,,,,,1472.1285869,1473.2084313,,,,,,,1476.837368,1476.837368,1476.837368,1476.837368,1476.837368,1476.837368,1476.837368,1476.837368,None,None,None,,,,,,,,,,,1472.1285869,1472.1285869,None,,,1473.2084313,,n,1472.1285869,1472.1285869,2.136569799999819,1473.2084313,9,1,2024-06-17_12h50.31.669,robot_nback_sign,2022.2.5,59.89336585144313,
